whichBlock,middleStim,leftStim,rightStim,stimNum,congruent,target,locationC,locationR,locationL,straightObj,imageSize,whichSurpriseBlock,old_object_in_surp,new_object_in_surp,which_side_old_object_displayed,prac_block_loop.thisRepN,prac_block_loop.thisTrialN,prac_block_loop.thisN,prac_block_loop.thisIndex,prac_trial_loop.thisRepN,prac_trial_loop.thisTrialN,prac_trial_loop.thisN,prac_trial_loop.thisIndex,task_block_loop.thisRepN,task_block_loop.thisTrialN,task_block_loop.thisN,task_block_loop.thisIndex,task_trial_loop.thisRepN,task_trial_loop.thisTrialN,task_trial_loop.thisN,task_trial_loop.thisIndex,surprise_block_loop.thisRepN,surprise_block_loop.thisTrialN,surprise_block_loop.thisN,surprise_block_loop.thisIndex,trials.thisRepN,trials.thisTrialN,trials.thisN,trials.thisIndex,prac_blockText.started,prac_reminder_text.started,prac_reminder_keyResp.started,prac_reminder_keyResp.keys,prac_reminder_keyResp.rt,initFixation_img.started,ISI,bigObject.started,cover_background_2.started,prac_centerImg.started,prac_stim_keyResp.started,prac_centerImg.stopped,cover_background_2.stopped,bigObject.stopped,prac_stim_keyResp.stopped,prac_stim_keyResp.keys,prac_stim_keyResp.rt,accuracy,prac_blockFeed_text.started,prac_pressContinue.started,prac_blockFeed_keyResp.started,prac_blockFeed_keyResp.keys,prac_blockFeed_keyResp.rt,ringBell_text.started,bellKey.started,bellKey.keys,bellKey.rt,task_blockText.started,task_blockReminders_keyResp.started,task_blockReminders_keyResp.keys,task_blockReminders_keyResp.rt,bigObject_2.started,cover_background.started,task_centerImg.started,task_fixImg.started,task1_stim_keyResp.started,task_centerImg.stopped,cover_background.stopped,bigObject_2.stopped,task_fixImg.stopped,task1_stim_keyResp.stopped,task1_stim_keyResp.keys,task1_stim_keyResp.rt,blockFeedCat,task_blockFeed_text.started,task_blockFeed_keyResp.started,task_blockFeed_keyResp.keys,task_blockFeed_keyResp.rt,ringBell_text_2.started,bellKey_2.started,bellKey_2.keys,bellKey_2.rt,errorNumbers_text_2.started,errorNum_text_box.started,errorN_key_resp_2.started,errorNum_text_box.text,errorN_key_resp_2.keys,errorN_key_resp_2.rt,errorNumbers_text_3.started,errorPercent_text_box.started,errorN_key_resp_3.started,errorPercent_text_box.text,errorN_key_resp_3.keys,errorN_key_resp_3.rt,botherRate_text.started,bother_text_box.started,botherRate_key_resp.started,bother_text_box.text,botherRate_key_resp.keys,botherRate_key_resp.rt,ringBell_text_3.started,bellKey_3.started,bellKey_3.keys,bellKey_3.rt,instruct_surprise1.started,instruct_surp1_key_resp.keys,instruct_surp1_key_resp.rt,text_2.started,task_blockText_2.started,task_blockReminders_keyResp_2.started,task_blockReminders_keyResp_2.keys,task_blockReminders_keyResp_2.rt,thisISI3,polygon.started,polygon.stopped,text.started,old_object_image.started,new_object_image.started,instructsurpA1_right.started,instructsurpA2_left.started,surprise_key_resp.started,surprise_key_resp.keys,surprise_key_resp.rt,ringBell_text_4.started,bellKey_4.started,bellKey_4.keys,bellKey_4.rt,finishMessage_text.started,id,date,expName,psychopyVersion,frameRate,
flanker_practice_block.csv,img/rightArrow.png,img/rightArrow.png,img/rightArrow.png,5,1,right,"[0, 0]","[0.0385, 0]","[-0.0385, 0]",img/object_images/hot_air_balloon01.jpg,"[0.035, 0.035]",,,,,0,0,0,0,0,0,0,12,,,,,,,,,,,,,,,,,244.52110910000192,244.52110910000192,244.52110910000192,k,17.620354300001054,262.18022930000006,3.6342685370741483,264.3629534000065,264.3629534000065,264.3629534000065,264.3629534000065,264.5733251000056,264.72311340000306,268.1449664000029,268.1449664000029,['k'],[0.4352171999998973],1,,,,,,,,,,,,,,,,,,,,,,,,,,,,,,,,,,,,,,,,,,,,,,,,,,,,,,,,,,,,,,,,,,,,,,,,,,,,,,,,,260020,2024-03-21_12h55.32.531,mfe_c_object,2022.2.4,59.92419589225823,
flanker_practice_block.csv,img/leftArrow.png,img/rightArrow.png,img/rightArrow.png,8,0,left,"[0, 0]","[0.0385, 0]","[-0.0385, 0]",img/object_images/spoon01.jpg,"[0.035, 0.035]",,,,,0,0,0,0,0,1,1,18,,,,,,,,,,,,,,,,,,,,,,,3.717434869739479,268.1449664000029,268.1449664000029,268.1449664000029,268.1449664000029,268.3602516000028,268.51010490000044,272.0072177000038,272.0072177000038,['s'],[0.5410740000006626],1,,,,,,,,,,,,,,,,,,,,,,,,,,,,,,,,,,,,,,,,,,,,,,,,,,,,,,,,,,,,,,,,,,,,,,,,,,,,,,,,,260020,2024-03-21_12h55.32.531,mfe_c_object,2022.2.4,59.92419589225823,
flanker_practice_block.csv,img/rightArrow.png,img/rightArrow.png,img/rightArrow.png,5,1,right,"[0, 0]","[0.0385, 0]","[-0.0385, 0]",img/object_images/usb_drive01.jpg,"[0.035, 0.035]",,,,,0,0,0,0,0,2,2,19,,,,,,,,,,,,,,,,,,,,,,,3.6052104208416837,272.0072177000038,272.0072177000038,272.0072177000038,272.0072177000038,272.21402490000037,272.36410030000116,275.75163460000476,275.75163460000476,['k'],[0.42285049999918556],1,,,,,,,,,,,,,,,,,,,,,,,,,,,,,,,,,,,,,,,,,,,,,,,,,,,,,,,,,,,,,,,,,,,,,,,,,,,,,,,,,260020,2024-03-21_12h55.32.531,mfe_c_object,2022.2.4,59.92419589225823,
flanker_practice_block.csv,img/rightArrow.png,img/rightArrow.png,img/rightArrow.png,5,1,right,"[0, 0]","[0.0385, 0]","[-0.0385, 0]",img/object_images/basketball_hoop01.jpg,"[0.035, 0.035]",,,,,0,0,0,0,0,3,3,6,,,,,,,,,,,,,,,,,,,,,,,3.9168336673346693,275.75163460000476,275.75163460000476,275.75163460000476,275.75163460000476,275.95113250000577,276.1010993000018,279.804366400007,279.804366400007,['k'],[0.48702989999583224],1,,,,,,,,,,,,,,,,,,,,,,,,,,,,,,,,,,,,,,,,,,,,,,,,,,,,,,,,,,,,,,,,,,,,,,,,,,,,,,,,,260020,2024-03-21_12h55.32.531,mfe_c_object,2022.2.4,59.92419589225823,
flanker_practice_block.csv,img/rightArrow.png,img/leftArrow.png,img/leftArrow.png,7,0,right,"[0, 0]","[0.0385, 0]","[-0.0385, 0]",img/object_images/staple_remover01.jpg,"[0.035, 0.035]",,,,,0,0,0,0,0,4,4,15,,,,,,,,,,,,,,,,,,,,,,,3.95691382765531,279.804366400007,279.804366400007,279.804366400007,279.804366400007,280.00500860000466,280.1551055000018,283.91309270000056,283.91309270000056,['k'],[0.5131271999998717],1,,,,,,,,,,,,,,,,,,,,,,,,,,,,,,,,,,,,,,,,,,,,,,,,,,,,,,,,,,,,,,,,,,,,,,,,,,,,,,,,,260020,2024-03-21_12h55.32.531,mfe_c_object,2022.2.4,59.92419589225823,
flanker_practice_block.csv,img/rightArrow.png,img/leftArrow.png,img/leftArrow.png,7,0,right,"[0, 0]","[0.0385, 0]","[-0.0385, 0]",img/object_images/accordion02.jpg,"[0.035, 0.035]",,,,,0,0,0,0,0,5,5,0,,,,,,,,,,,,,,,,,,,,,,,3.907815631262525,283.91309270000056,283.91309270000056,283.91309270000056,283.91309270000056,284.1260186000072,284.27608200000395,287.9655718000067,287.9655718000067,['s'],[0.4125646000029519],0,,,,,,,,,,,,,,,,,,,,,,,,,,,,,,,,,,,,,,,,,,,,,,,,,,,,,,,,,,,,,,,,,,,,,,,,,,,,,,,,,260020,2024-03-21_12h55.32.531,mfe_c_object,2022.2.4,59.92419589225823,
flanker_practice_block.csv,img/leftArrow.png,img/leftArrow.png,img/leftArrow.png,6,1,left,"[0, 0]","[0.0385, 0]","[-0.0385, 0]",img/object_images/joystick02.jpg,"[0.035, 0.035]",,,,,0,0,0,0,0,6,6,4,,,,,,,,,,,,,,,,,,,,,,,3.6092184368737477,287.9655718000067,287.9655718000067,287.9655718000067,287.9655718000067,288.1799714000008,288.3300467000008,291.7178785000069,291.7178785000069,['s'],[0.6085868999944068],1,,,,,,,,,,,,,,,,,,,,,,,,,,,,,,,,,,,,,,,,,,,,,,,,,,,,,,,,,,,,,,,,,,,,,,,,,,,,,,,,,260020,2024-03-21_12h55.32.531,mfe_c_object,2022.2.4,59.92419589225823,
flanker_practice_block.csv,img/rightArrow.png,img/rightArrow.png,img/rightArrow.png,5,1,right,"[0, 0]","[0.0385, 0]","[-0.0385, 0]",img/object_images/handle_bar01.jpg,"[0.035, 0.035]",,,,,0,0,0,0,0,7,7,13,,,,,,,,,,,,,,,,,,,,,,,3.614228456913828,291.7178785000069,291.7178785000069,291.7178785000069,291.7178785000069,291.9171584000069,292.0669640000051,295.4679449000032,295.4679449000032,['k'],[0.36878900000010617],1,,,,,,,,,,,,,,,,,,,,,,,,,,,,,,,,,,,,,,,,,,,,,,,,,,,,,,,,,,,,,,,,,,,,,,,,,,,,,,,,,260020,2024-03-21_12h55.32.531,mfe_c_object,2022.2.4,59.92419589225823,
flanker_practice_block.csv,img/leftArrow.png,img/leftArrow.png,img/leftArrow.png,6,1,left,"[0, 0]","[0.0385, 0]","[-0.0385, 0]",img/object_images/vacuum_cleaner01.jpg,"[0.035, 0.035]",,,,,0,0,0,0,0,8,8,7,,,,,,,,,,,,,,,,,,,,,,,3.911823647294589,295.4679449000032,295.4679449000032,295.4679449000032,295.4679449000032,295.67079670000385,295.8208026000066,299.5275755000039,299.5275755000039,['s'],[0.4822201000060886],1,,,,,,,,,,,,,,,,,,,,,,,,,,,,,,,,,,,,,,,,,,,,,,,,,,,,,,,,,,,,,,,,,,,,,,,,,,,,,,,,,260020,2024-03-21_12h55.32.531,mfe_c_object,2022.2.4,59.92419589225823,
flanker_practice_block.csv,img/rightArrow.png,img/rightArrow.png,img/rightArrow.png,5,1,right,"[0, 0]","[0.0385, 0]","[-0.0385, 0]",img/object_images/knife03.jpg,"[0.035, 0.035]",,,,,0,0,0,0,0,9,9,5,,,,,,,,,,,,,,,,,,,,,,,3.7454909819639277,299.5275755000039,299.5275755000039,299.5275755000039,299.5275755000039,299.74151410000195,299.8915519000002,303.41435070000443,303.41435070000443,['k'],[0.3504955999960657],1,,,,,,,,,,,,,,,,,,,,,,,,,,,,,,,,,,,,,,,,,,,,,,,,,,,,,,,,,,,,,,,,,,,,,,,,,,,,,,,,,260020,2024-03-21_12h55.32.531,mfe_c_object,2022.2.4,59.92419589225823,
flanker_practice_block.csv,img/rightArrow.png,img/leftArrow.png,img/leftArrow.png,7,0,right,"[0, 0]","[0.0385, 0]","[-0.0385, 0]",img/object_images/headset03.jpg,"[0.035, 0.035]",,,,,0,0,0,0,0,10,10,11,,,,,,,,,,,,,,,,,,,,,,,3.9128256513026054,303.41435070000443,303.41435070000443,303.41435070000443,303.41435070000443,303.6287705000068,303.778971300002,307.46675870000036,307.46675870000036,['s'],[0.35137110000505345],0,,,,,,,,,,,,,,,,,,,,,,,,,,,,,,,,,,,,,,,,,,,,,,,,,,,,,,,,,,,,,,,,,,,,,,,,,,,,,,,,,260020,2024-03-21_12h55.32.531,mfe_c_object,2022.2.4,59.92419589225823,
flanker_practice_block.csv,img/leftArrow.png,img/leftArrow.png,img/leftArrow.png,6,1,left,"[0, 0]","[0.0385, 0]","[-0.0385, 0]",img/object_images/hair_brush03.jpg,"[0.035, 0.035]",,,,,0,0,0,0,0,11,11,2,,,,,,,,,,,,,,,,,,,,,,,3.9278557114228456,307.46675870000036,307.46675870000036,307.46675870000036,307.46675870000036,307.66605710000294,307.8160902000018,311.54507210000156,311.54507210000156,['s'],[0.6347649000017554],1,,,,,,,,,,,,,,,,,,,,,,,,,,,,,,,,,,,,,,,,,,,,,,,,,,,,,,,,,,,,,,,,,,,,,,,,,,,,,,,,,260020,2024-03-21_12h55.32.531,mfe_c_object,2022.2.4,59.92419589225823,
flanker_practice_block.csv,img/leftArrow.png,img/rightArrow.png,img/rightArrow.png,8,0,left,"[0, 0]","[0.0385, 0]","[-0.0385, 0]",img/object_images/Typewritter01.jpg,"[0.035, 0.035]",,,,,0,0,0,0,0,12,12,8,,,,,,,,,,,,,,,,,,,,,,,3.765531062124248,311.54507210000156,311.54507210000156,311.54507210000156,311.54507210000156,311.7537943000061,311.9037043000062,315.47481710000284,315.47481710000284,['s'],[0.6927353999999468],1,,,,,,,,,,,,,,,,,,,,,,,,,,,,,,,,,,,,,,,,,,,,,,,,,,,,,,,,,,,,,,,,,,,,,,,,,,,,,,,,,260020,2024-03-21_12h55.32.531,mfe_c_object,2022.2.4,59.92419589225823,
flanker_practice_block.csv,img/leftArrow.png,img/rightArrow.png,img/rightArrow.png,8,0,left,"[0, 0]","[0.0385, 0]","[-0.0385, 0]",img/object_images/car_toy05.jpg,"[0.035, 0.035]",,,,,0,0,0,0,0,13,13,3,,,,,,,,,,,,,,,,,,,,,,,3.934869739478958,315.47481710000284,315.47481710000284,315.47481710000284,315.47481710000284,315.6741087000046,315.8241279000067,319.54421490000095,319.54421490000095,['s'],[0.547135699998762],1,,,,,,,,,,,,,,,,,,,,,,,,,,,,,,,,,,,,,,,,,,,,,,,,,,,,,,,,,,,,,,,,,,,,,,,,,,,,,,,,,260020,2024-03-21_12h55.32.531,mfe_c_object,2022.2.4,59.92419589225823,
flanker_practice_block.csv,img/leftArrow.png,img/rightArrow.png,img/rightArrow.png,8,0,left,"[0, 0]","[0.0385, 0]","[-0.0385, 0]",img/object_images/binoculars01.jpg,"[0.035, 0.035]",,,,,0,0,0,0,0,14,14,1,,,,,,,,,,,,,,,,,,,,,,,3.712424849699399,319.54421490000095,319.54421490000095,319.54421490000095,319.54421490000095,319.7449205000012,319.8948204000044,323.39837900000566,323.39837900000566,['s'],[0.558174700003292],1,,,,,,,,,,,,,,,,,,,,,,,,,,,,,,,,,,,,,,,,,,,,,,,,,,,,,,,,,,,,,,,,,,,,,,,,,,,,,,,,,260020,2024-03-21_12h55.32.531,mfe_c_object,2022.2.4,59.92419589225823,
flanker_practice_block.csv,img/leftArrow.png,img/leftArrow.png,img/leftArrow.png,6,1,left,"[0, 0]","[0.0385, 0]","[-0.0385, 0]",img/object_images/skate_board02.jpg,"[0.035, 0.035]",,,,,0,0,0,0,0,15,15,9,,,,,,,,,,,,,,,,,,,,,,,3.5891783567134268,323.39837900000566,323.39837900000566,323.39837900000566,323.39837900000566,323.5986980000016,323.74872080000205,327.14480280000134,327.14480280000134,['s'],[0.5116302000024007],1,,,,,,,,,,,,,,,,,,,,,,,,,,,,,,,,,,,,,,,,,,,,,,,,,,,,,,,,,,,,,,,,,,,,,,,,,,,,,,,,,260020,2024-03-21_12h55.32.531,mfe_c_object,2022.2.4,59.92419589225823,
flanker_practice_block.csv,img/rightArrow.png,img/leftArrow.png,img/leftArrow.png,7,0,right,"[0, 0]","[0.0385, 0]","[-0.0385, 0]",img/object_images/rock04.jpg,"[0.035, 0.035]",,,,,0,0,0,0,0,16,16,16,,,,,,,,,,,,,,,,,,,,,,,3.7615230460921842,327.14480280000134,327.14480280000134,327.14480280000134,327.14480280000134,327.35277370000404,327.5025492000059,331.0403923000049,331.0403923000049,['s'],[0.6525524000026053],0,,,,,,,,,,,,,,,,,,,,,,,,,,,,,,,,,,,,,,,,,,,,,,,,,,,,,,,,,,,,,,,,,,,,,,,,,,,,,,,,,260020,2024-03-21_12h55.32.531,mfe_c_object,2022.2.4,59.92419589225823,
flanker_practice_block.csv,img/leftArrow.png,img/rightArrow.png,img/rightArrow.png,8,0,left,"[0, 0]","[0.0385, 0]","[-0.0385, 0]",img/object_images/trumpet02.jpg,"[0.035, 0.035]",,,,,0,0,0,0,0,17,17,10,,,,,,,,,,,,,,,,,,,,,,,3.5751503006012024,331.0403923000049,331.0403923000049,331.0403923000049,331.0403923000049,331.2395492000069,331.3898890000055,334.7804005000071,334.7804005000071,['s'],[0.49390690000291215],1,,,,,,,,,,,,,,,,,,,,,,,,,,,,,,,,,,,,,,,,,,,,,,,,,,,,,,,,,,,,,,,,,,,,,,,,,,,,,,,,,260020,2024-03-21_12h55.32.531,mfe_c_object,2022.2.4,59.92419589225823,
flanker_practice_block.csv,img/rightArrow.png,img/leftArrow.png,img/leftArrow.png,7,0,right,"[0, 0]","[0.0385, 0]","[-0.0385, 0]",img/object_images/crane02.jpg,"[0.035, 0.035]",,,,,0,0,0,0,0,18,18,17,,,,,,,,,,,,,,,,,,,,,,,3.567134268537074,334.7804005000071,334.7804005000071,334.7804005000071,334.7804005000071,334.9933442000038,335.14336000000185,338.4981656000018,338.4981656000018,['s'],[0.5864836999971885],0,,,,,,,,,,,,,,,,,,,,,,,,,,,,,,,,,,,,,,,,,,,,,,,,,,,,,,,,,,,,,,,,,,,,,,,,,,,,,,,,,260020,2024-03-21_12h55.32.531,mfe_c_object,2022.2.4,59.92419589225823,
flanker_practice_block.csv,img/leftArrow.png,img/leftArrow.png,img/leftArrow.png,6,1,left,"[0, 0]","[0.0385, 0]","[-0.0385, 0]",img/object_images/usb01.jpg,"[0.035, 0.035]",,,,,0,0,0,0,0,19,19,14,,,,,,,,,,,,,,,,,,,,,,,3.932865731462926,338.4981656000018,338.4981656000018,338.4981656000018,338.4981656000018,338.7139296000023,338.84685680000257,342.4327589000022,342.4327589000022,['s'],[0.6752912000010838],1,,,,,,,,,,,,,,,,,,,,,,,,,,,,,,,,,,,,,,,,,,,,,,,,,,,,,,,,,,,,,,,,,,,,,,,,,,,,,,,,,260020,2024-03-21_12h55.32.531,mfe_c_object,2022.2.4,59.92419589225823,
flanker_practice_block.csv,,,,,,,,,,,,,,,,0,0,0,0,,,,,,,,,,,,,,,,,,,,,,,,,,,,,,,,,,,,,,,342.4327589000022,342.4327589000022,342.4327589000022,k,318.572771500003,,,,,,,,,,,,,,,,,,,,,,,,,,,,,,,,,,,,,,,,,,,,,,,,,,,,,,,,,,,,,,,,,,,,,,,,,,,,260020,2024-03-21_12h55.32.531,mfe_c_object,2022.2.4,59.92419589225823,
,,,,,,,,,,,,,,,,,,,,,,,,,,,,,,,,,,,,,,,,,,,,,,,,,,,,,,,,,,,,,,,661.0340194000019,661.0340194000019,c,2.3314291999995476,,,,,,,,,,,,,,,,,,,,,,,,,,,,,,,,,,,,,,,,,,,,,,,,,,,,,,,,,,,,,,,,,,,,,,,,260020,2024-03-21_12h55.32.531,mfe_c_object,2022.2.4,59.92419589225823,
flanker_main_block_10.csv,img/rightArrow.png,img/rightArrow.png,img/rightArrow.png,5,1,right,"[0, 0]","[0.0385, 0]","[-0.0385, 0]",img/object_images/toilet_paper_dispenser01.jpg,"[0.035, 0.035]",,,,,,,,,,,,,0,0,0,9,0,0,0,3,,,,,,,,,,,,,,670.1468792000014,3.5771543086172346,,,,,,,,,,,1,,,,,,,,,,663.3918760000015,663.3918760000015,k,6.726125500004855,672.338424600006,672.338424600006,672.338424600006,672.338424600006,672.338424600006,672.5466662000035,672.6966021000044,676.0998199000023,676.0998199000023,676.0998199000023,['k'],[0.3306298000024981],,,,,,,,,,,,,,,,,,,,,,,,,,,,,,,,,,,,,,,,,,,,,,,,,,,,,,,,260020,2024-03-21_12h55.32.531,mfe_c_object,2022.2.4,59.92419589225823,
flanker_main_block_10.csv,img/rightArrow.png,img/rightArrow.png,img/rightArrow.png,5,1,right,"[0, 0]","[0.0385, 0]","[-0.0385, 0]",img/object_images/camera_lens01.jpg,"[0.035, 0.035]",,,,,,,,,,,,,0,0,0,9,0,1,1,31,,,,,,,,,,,,,,,3.50501002004008,,,,,,,,,,,1,,,,,,,,,,,,,,676.0998199000023,676.0998199000023,676.0998199000023,676.0998199000023,676.0998199000023,676.300376500003,676.4504201000018,679.7457010000071,679.7457010000071,679.7457010000071,['k'],[0.5135593000013614],,,,,,,,,,,,,,,,,,,,,,,,,,,,,,,,,,,,,,,,,,,,,,,,,,,,,,,,260020,2024-03-21_12h55.32.531,mfe_c_object,2022.2.4,59.92419589225823,
flanker_main_block_10.csv,img/leftArrow.png,img/leftArrow.png,img/leftArrow.png,6,1,left,"[0, 0]","[0.0385, 0]","[-0.0385, 0]",img/object_images/bicycle01.jpg,"[0.035, 0.035]",,,,,,,,,,,,,0,0,0,9,0,2,2,24,,,,,,,,,,,,,,,3.6102204408817635,,,,,,,,,,,1,,,,,,,,,,,,,,679.7457010000071,679.7457010000071,679.7520367000034,679.7457010000071,679.7457010000071,679.9540301000015,680.1039425000054,683.4950824000043,683.4950824000043,683.4950824000043,['s'],[0.42736950000107754],,,,,,,,,,,,,,,,,,,,,,,,,,,,,,,,,,,,,,,,,,,,,,,,,,,,,,,,260020,2024-03-21_12h55.32.531,mfe_c_object,2022.2.4,59.92419589225823,
flanker_main_block_10.csv,img/leftArrow.png,img/leftArrow.png,img/leftArrow.png,6,1,left,"[0, 0]","[0.0385, 0]","[-0.0385, 0]",img/object_images/bottle10.jpg,"[0.035, 0.035]",,,,,,,,,,,,,0,0,0,9,0,3,3,16,,,,,,,,,,,,,,,3.5430861723446894,,,,,,,,,,,1,,,,,,,,,,,,,,683.4950824000043,683.4950824000043,683.4950824000043,683.4950824000043,683.4950824000043,683.7077843000006,683.8575825000007,687.1643088000055,687.1643088000055,687.1643088000055,['s'],[0.4856681999954162],,,,,,,,,,,,,,,,,,,,,,,,,,,,,,,,,,,,,,,,,,,,,,,,,,,,,,,,260020,2024-03-21_12h55.32.531,mfe_c_object,2022.2.4,59.92419589225823,
flanker_main_block_10.csv,img/rightArrow.png,img/leftArrow.png,img/leftArrow.png,7,0,right,"[0, 0]","[0.0385, 0]","[-0.0385, 0]",img/object_images/boat_toy10.jpg,"[0.035, 0.035]",,,,,,,,,,,,,0,0,0,9,0,4,4,25,,,,,,,,,,,,,,,3.8887775551102206,,,,,,,,,,,1,,,,,,,,,,,,,,687.1643088000055,687.1643088000055,687.1704213000048,687.1643088000055,687.1643088000055,687.3780657000025,687.528074700007,691.1838383000068,691.1838383000068,691.1838383000068,['k'],[0.6009685999961221],,,,,,,,,,,,,,,,,,,,,,,,,,,,,,,,,,,,,,,,,,,,,,,,,,,,,,,,260020,2024-03-21_12h55.32.531,mfe_c_object,2022.2.4,59.92419589225823,
flanker_main_block_10.csv,img/rightArrow.png,img/leftArrow.png,img/leftArrow.png,7,0,right,"[0, 0]","[0.0385, 0]","[-0.0385, 0]",img/object_images/bottle09.jpg,"[0.035, 0.035]",,,,,,,,,,,,,0,0,0,9,0,5,5,28,,,,,,,,,,,,,,,3.681362725450902,,,,,,,,,,,1,,,,,,,,,,,,,,691.1838383000068,691.1838383000068,691.1896421000056,691.1838383000068,691.1838383000068,691.3989701000028,691.5487899,694.9937841000065,694.9937841000065,694.9937841000065,['k'],[0.5734276000002865],,,,,,,,,,,,,,,,,,,,,,,,,,,,,,,,,,,,,,,,,,,,,,,,,,,,,,,,260020,2024-03-21_12h55.32.531,mfe_c_object,2022.2.4,59.92419589225823,
flanker_main_block_10.csv,img/leftArrow.png,img/rightArrow.png,img/rightArrow.png,8,0,left,"[0, 0]","[0.0385, 0]","[-0.0385, 0]",img/object_images/knit01.jpg,"[0.035, 0.035]",,,,,,,,,,,,,0,0,0,9,0,6,6,5,,,,,,,,,,,,,,,3.676352705410822,,,,,,,,,,,1,,,,,,,,,,,,,,694.9937841000065,694.9937841000065,695.0000062000036,694.9937841000065,694.9937841000065,695.2026132000028,695.3524349000072,698.8013811000055,698.8013811000055,698.8013811000055,['s'],[0.5556189000053564],,,,,,,,,,,,,,,,,,,,,,,,,,,,,,,,,,,,,,,,,,,,,,,,,,,,,,,,260020,2024-03-21_12h55.32.531,mfe_c_object,2022.2.4,59.92419589225823,
flanker_main_block_10.csv,img/rightArrow.png,img/rightArrow.png,img/rightArrow.png,5,1,right,"[0, 0]","[0.0385, 0]","[-0.0385, 0]",img/object_images/purse04.jpg,"[0.035, 0.035]",,,,,,,,,,,,,0,0,0,9,0,7,7,22,,,,,,,,,,,,,,,3.7595190380761525,,,,,,,,,,,1,,,,,,,,,,,,,,698.8013811000055,698.8013811000055,698.8076781000054,698.8013811000055,698.8013811000055,699.023073400007,699.1563871000035,702.704161200003,702.704161200003,702.704161200003,['k'],[0.3801653999980772],,,,,,,,,,,,,,,,,,,,,,,,,,,,,,,,,,,,,,,,,,,,,,,,,,,,,,,,260020,2024-03-21_12h55.32.531,mfe_c_object,2022.2.4,59.92419589225823,
flanker_main_block_10.csv,img/rightArrow.png,img/leftArrow.png,img/leftArrow.png,7,0,right,"[0, 0]","[0.0385, 0]","[-0.0385, 0]",img/object_images/WoodBox01.jpg,"[0.035, 0.035]",,,,,,,,,,,,,0,0,0,9,0,8,8,21,,,,,,,,,,,,,,,3.99498997995992,,,,,,,,,,,1,,,,,,,,,,,,,,702.704161200003,702.704161200003,702.7101065000024,702.704161200003,702.704161200003,702.9104030000017,703.0603035000022,706.8605584000034,706.8605584000034,706.8605584000034,['k'],[0.8450111000056495],,,,,,,,,,,,,,,,,,,,,,,,,,,,,,,,,,,,,,,,,,,,,,,,,,,,,,,,260020,2024-03-21_12h55.32.531,mfe_c_object,2022.2.4,59.92419589225823,
flanker_main_block_10.csv,img/leftArrow.png,img/leftArrow.png,img/leftArrow.png,6,1,left,"[0, 0]","[0.0385, 0]","[-0.0385, 0]",img/object_images/wagon_cart03.jpg,"[0.035, 0.035]",,,,,,,,,,,,,0,0,0,9,0,9,9,18,,,,,,,,,,,,,,,3.5571142284569137,,,,,,,,,,,1,,,,,,,,,,,,,,706.8605584000034,706.8605584000034,706.8605584000034,706.8605584000034,706.8605584000034,707.0648427000051,707.214381400001,710.540522400006,710.540522400006,710.540522400006,['s'],[0.4482637000037357],,,,,,,,,,,,,,,,,,,,,,,,,,,,,,,,,,,,,,,,,,,,,,,,,,,,,,,,260020,2024-03-21_12h55.32.531,mfe_c_object,2022.2.4,59.92419589225823,
flanker_main_block_10.csv,img/rightArrow.png,img/rightArrow.png,img/rightArrow.png,5,1,right,"[0, 0]","[0.0385, 0]","[-0.0385, 0]",img/object_images/helmet04.jpg,"[0.035, 0.035]",,,,,,,,,,,,,0,0,0,9,0,10,10,19,,,,,,,,,,,,,,,3.5400801603206413,,,,,,,,,,,1,,,,,,,,,,,,,,710.540522400006,710.540522400006,710.546565800003,710.540522400006,710.540522400006,710.7514842000019,710.9013117000068,714.2074014000027,714.2074014000027,714.2074014000027,['k'],[0.7459888000012143],,,,,,,,,,,,,,,,,,,,,,,,,,,,,,,,,,,,,,,,,,,,,,,,,,,,,,,,260020,2024-03-21_12h55.32.531,mfe_c_object,2022.2.4,59.92419589225823,
flanker_main_block_10.csv,img/leftArrow.png,img/leftArrow.png,img/leftArrow.png,6,1,left,"[0, 0]","[0.0385, 0]","[-0.0385, 0]",img/object_images/bottle02.jpg,"[0.035, 0.035]",,,,,,,,,,,,,0,0,0,9,0,11,11,6,,,,,,,,,,,,,,,3.6783567134268536,,,,,,,,,,,1,,,,,,,,,,,,,,714.2074014000027,714.2074014000027,714.213696800005,714.2074014000027,714.2074014000027,714.4217635000023,714.571717800005,718.0179513000039,718.0179513000039,718.0179513000039,['s'],[0.47780349999811733],,,,,,,,,,,,,,,,,,,,,,,,,,,,,,,,,,,,,,,,,,,,,,,,,,,,,,,,260020,2024-03-21_12h55.32.531,mfe_c_object,2022.2.4,59.92419589225823,
flanker_main_block_10.csv,img/leftArrow.png,img/rightArrow.png,img/rightArrow.png,8,0,left,"[0, 0]","[0.0385, 0]","[-0.0385, 0]",img/object_images/cellphone03.jpg,"[0.035, 0.035]",,,,,,,,,,,,,0,0,0,9,0,12,12,29,,,,,,,,,,,,,,,3.6753507014028055,,,,,,,,,,,0,,,,,,,,,,,,,,718.0179513000039,718.0179513000039,718.0240756000057,718.0179513000039,718.0179513000039,718.2254955000026,718.3756673000025,721.8195656000025,721.8195656000025,721.8195656000025,['k'],[0.35498690000531496],,,,,,,,,,,,,,,,,,,,,,,,,,,,,,,,,,,,,,,,,,,,,,,,,,,,,,,,260020,2024-03-21_12h55.32.531,mfe_c_object,2022.2.4,59.92419589225823,
flanker_main_block_10.csv,img/leftArrow.png,img/rightArrow.png,img/rightArrow.png,8,0,left,"[0, 0]","[0.0385, 0]","[-0.0385, 0]",img/object_images/hat06.jpg,"[0.035, 0.035]",,,,,,,,,,,,,0,0,0,9,0,13,13,27,,,,,,,,,,,,,,,3.81062124248497,,,,,,,,,,,1,,,,,,,,,,,,,,721.8195656000025,721.8195656000025,721.8257477000006,721.8195656000025,721.8195656000025,722.0295022000064,722.1792832000065,725.7569543000063,725.7569543000063,725.7569543000063,['s'],[0.7613994999992428],,,,,,,,,,,,,,,,,,,,,,,,,,,,,,,,,,,,,,,,,,,,,,,,,,,,,,,,260020,2024-03-21_12h55.32.531,mfe_c_object,2022.2.4,59.92419589225823,
flanker_main_block_10.csv,img/rightArrow.png,img/rightArrow.png,img/rightArrow.png,5,1,right,"[0, 0]","[0.0385, 0]","[-0.0385, 0]",img/object_images/boat02.jpg,"[0.035, 0.035]",,,,,,,,,,,,,0,0,0,9,0,14,14,8,,,,,,,,,,,,,,,3.565130260521042,,,,,,,,,,,1,,,,,,,,,,,,,,725.7569543000063,725.7569543000063,725.776311600006,725.7569543000063,725.7569543000063,725.9831101000018,726.1164712000027,729.4577881000005,729.4577881000005,729.4577881000005,['k'],[0.6166830999936792],,,,,,,,,,,,,,,,,,,,,,,,,,,,,,,,,,,,,,,,,,,,,,,,,,,,,,,,260020,2024-03-21_12h55.32.531,mfe_c_object,2022.2.4,59.92419589225823,
flanker_main_block_10.csv,img/rightArrow.png,img/leftArrow.png,img/leftArrow.png,7,0,right,"[0, 0]","[0.0385, 0]","[-0.0385, 0]",img/object_images/flask01.jpg,"[0.035, 0.035]",,,,,,,,,,,,,0,0,0,9,0,15,15,30,,,,,,,,,,,,,,,3.5891783567134268,,,,,,,,,,,0,,,,,,,,,,,,,,729.4577881000005,729.4577881000005,729.4637990000047,729.4577881000005,729.4577881000005,729.6701236000008,729.8202018000011,733.1828066000016,733.1828066000016,733.1828066000016,['s'],[0.7556742999950075],,,,,,,,,,,,,,,,,,,,,,,,,,,,,,,,,,,,,,,,,,,,,,,,,,,,,,,,260020,2024-03-21_12h55.32.531,mfe_c_object,2022.2.4,59.92419589225823,
flanker_main_block_10.csv,img/rightArrow.png,img/leftArrow.png,img/leftArrow.png,7,0,right,"[0, 0]","[0.0385, 0]","[-0.0385, 0]",img/object_images/fan02.jpg,"[0.035, 0.035]",,,,,,,,,,,,,0,0,0,9,0,16,16,13,,,,,,,,,,,,,,,3.687374749498998,,,,,,,,,,,1,,,,,,,,,,,,,,733.1828066000016,733.1828066000016,733.1895808000045,733.1828066000016,733.1828066000016,733.3906438000049,733.5405804000038,736.9996211000034,736.9996211000034,736.9996211000034,['k'],[0.5986192000054871],,,,,,,,,,,,,,,,,,,,,,,,,,,,,,,,,,,,,,,,,,,,,,,,,,,,,,,,260020,2024-03-21_12h55.32.531,mfe_c_object,2022.2.4,59.92419589225823,
flanker_main_block_10.csv,img/leftArrow.png,img/rightArrow.png,img/rightArrow.png,8,0,left,"[0, 0]","[0.0385, 0]","[-0.0385, 0]",img/object_images/hot_air_balloon02.jpg,"[0.035, 0.035]",,,,,,,,,,,,,0,0,0,9,0,17,17,26,,,,,,,,,,,,,,,3.7184368737474953,,,,,,,,,,,1,,,,,,,,,,,,,,736.9996211000034,736.9996211000034,737.005651200001,736.9996211000034,736.9996211000034,737.2111338000032,737.3609512000039,740.8726314000014,740.8726314000014,740.8726314000014,['s'],[0.6054755000004661],,,,,,,,,,,,,,,,,,,,,,,,,,,,,,,,,,,,,,,,,,,,,,,,,,,,,,,,260020,2024-03-21_12h55.32.531,mfe_c_object,2022.2.4,59.92419589225823,
flanker_main_block_10.csv,img/rightArrow.png,img/leftArrow.png,img/leftArrow.png,7,0,right,"[0, 0]","[0.0385, 0]","[-0.0385, 0]",img/object_images/dog_leash01.jpg,"[0.035, 0.035]",,,,,,,,,,,,,0,0,0,9,0,18,18,15,,,,,,,,,,,,,,,3.633266533066132,,,,,,,,,,,1,,,,,,,,,,,,,,740.8726314000014,740.8726314000014,740.8726314000014,740.8726314000014,740.8726314000014,741.0818677000061,741.2313907000062,744.6438565000062,744.6438565000062,744.6438565000062,['k'],[0.5006462000019383],,,,,,,,,,,,,,,,,,,,,,,,,,,,,,,,,,,,,,,,,,,,,,,,,,,,,,,,260020,2024-03-21_12h55.32.531,mfe_c_object,2022.2.4,59.92419589225823,
flanker_main_block_10.csv,img/rightArrow.png,img/rightArrow.png,img/rightArrow.png,5,1,right,"[0, 0]","[0.0385, 0]","[-0.0385, 0]",img/object_images/piggy_bank01.jpg,"[0.035, 0.035]",,,,,,,,,,,,,0,0,0,9,0,19,19,23,,,,,,,,,,,,,,,3.526052104208417,,,,,,,,,,,1,,,,,,,,,,,,,,744.6438565000062,744.6438565000062,744.6499655000007,744.6438565000062,744.6438565000062,744.8520665000033,745.0019492000065,748.3116612000013,748.3116612000013,748.3116612000013,['k'],[0.5530958000017563],,,,,,,,,,,,,,,,,,,,,,,,,,,,,,,,,,,,,,,,,,,,,,,,,,,,,,,,260020,2024-03-21_12h55.32.531,mfe_c_object,2022.2.4,59.92419589225823,
flanker_main_block_10.csv,img/leftArrow.png,img/rightArrow.png,img/rightArrow.png,8,0,left,"[0, 0]","[0.0385, 0]","[-0.0385, 0]",img/object_images/pen05.jpg,"[0.035, 0.035]",,,,,,,,,,,,,0,0,0,9,0,20,20,11,,,,,,,,,,,,,,,3.9408817635270537,,,,,,,,,,,1,,,,,,,,,,,,,,748.3116612000013,748.3116612000013,748.317876400004,748.3116612000013,748.3116612000013,748.5224077000021,748.6723528000002,752.3843590000033,752.3843590000033,752.3843590000033,['s'],[0.6372900999995181],,,,,,,,,,,,,,,,,,,,,,,,,,,,,,,,,,,,,,,,,,,,,,,,,,,,,,,,260020,2024-03-21_12h55.32.531,mfe_c_object,2022.2.4,59.92419589225823,
flanker_main_block_10.csv,img/leftArrow.png,img/leftArrow.png,img/leftArrow.png,6,1,left,"[0, 0]","[0.0385, 0]","[-0.0385, 0]",img/object_images/bean_bag02.jpg,"[0.035, 0.035]",,,,,,,,,,,,,0,0,0,9,0,21,21,7,,,,,,,,,,,,,,,3.979959919839679,,,,,,,,,,,1,,,,,,,,,,,,,,752.3843590000033,752.3843590000033,752.3906177000026,752.3843590000033,752.3843590000033,752.5931536000062,752.7431195000026,756.4835544000016,756.4835544000016,756.4835544000016,['s'],[0.5734300999974948],,,,,,,,,,,,,,,,,,,,,,,,,,,,,,,,,,,,,,,,,,,,,,,,,,,,,,,,260020,2024-03-21_12h55.32.531,mfe_c_object,2022.2.4,59.92419589225823,
flanker_main_block_10.csv,img/leftArrow.png,img/rightArrow.png,img/rightArrow.png,8,0,left,"[0, 0]","[0.0385, 0]","[-0.0385, 0]",img/object_images/shoes07.jpg,"[0.035, 0.035]",,,,,,,,,,,,,0,0,0,9,0,22,22,12,,,,,,,,,,,,,,,3.8637274549098195,,,,,,,,,,,1,,,,,,,,,,,,,,756.4835544000016,756.4835544000016,756.4896931000039,756.4835544000016,756.4835544000016,756.6971491000004,756.8471801000051,760.4748251000055,760.4748251000055,760.4748251000055,['s'],[0.6107187000015983],,,,,,,,,,,,,,,,,,,,,,,,,,,,,,,,,,,,,,,,,,,,,,,,,,,,,,,,260020,2024-03-21_12h55.32.531,mfe_c_object,2022.2.4,59.92419589225823,
flanker_main_block_10.csv,img/leftArrow.png,img/rightArrow.png,img/rightArrow.png,8,0,left,"[0, 0]","[0.0385, 0]","[-0.0385, 0]",img/object_images/tie02.jpg,"[0.035, 0.035]",,,,,,,,,,,,,0,0,0,9,0,23,23,14,,,,,,,,,,,,,,,3.7805611222444893,,,,,,,,,,,1,,,,,,,,,,,,,,760.4748251000055,760.4748251000055,760.4808634000001,760.4748251000055,760.4748251000055,760.6848477000021,760.8345564000047,764.3766810000016,764.3766810000016,764.3766810000016,['s'],[0.6022541999991518],,,,,,,,,,,,,,,,,,,,,,,,,,,,,,,,,,,,,,,,,,,,,,,,,,,,,,,,260020,2024-03-21_12h55.32.531,mfe_c_object,2022.2.4,59.92419589225823,
flanker_main_block_10.csv,img/leftArrow.png,img/rightArrow.png,img/rightArrow.png,8,0,left,"[0, 0]","[0.0385, 0]","[-0.0385, 0]",img/object_images/chair03.jpg,"[0.035, 0.035]",,,,,,,,,,,,,0,0,0,9,0,24,24,10,,,,,,,,,,,,,,,3.68937875751503,,,,,,,,,,,1,,,,,,,,,,,,,,764.3766810000016,764.3766810000016,764.3826573000042,764.3766810000016,764.3766810000016,764.5882810000039,764.7382306000072,768.2000938000056,768.2000938000056,768.2000938000056,['s'],[0.5168373000051361],,,,,,,,,,,,,,,,,,,,,,,,,,,,,,,,,,,,,,,,,,,,,,,,,,,,,,,,260020,2024-03-21_12h55.32.531,mfe_c_object,2022.2.4,59.92419589225823,
flanker_main_block_10.csv,img/rightArrow.png,img/leftArrow.png,img/leftArrow.png,7,0,right,"[0, 0]","[0.0385, 0]","[-0.0385, 0]",img/object_images/perfume02.jpg,"[0.035, 0.035]",,,,,,,,,,,,,0,0,0,9,0,25,25,1,,,,,,,,,,,,,,,3.5160320641282565,,,,,,,,,,,1,,,,,,,,,,,,,,768.2000938000056,768.2000938000056,768.2063462000006,768.2000938000056,768.2000938000056,768.4089120000062,768.5589239000037,771.8741074000063,771.8741074000063,771.8741074000063,['k'],[0.5805419000025722],,,,,,,,,,,,,,,,,,,,,,,,,,,,,,,,,,,,,,,,,,,,,,,,,,,,,,,,260020,2024-03-21_12h55.32.531,mfe_c_object,2022.2.4,59.92419589225823,
flanker_main_block_10.csv,img/leftArrow.png,img/leftArrow.png,img/leftArrow.png,6,1,left,"[0, 0]","[0.0385, 0]","[-0.0385, 0]",img/object_images/toaster01.jpg,"[0.035, 0.035]",,,,,,,,,,,,,0,0,0,9,0,26,26,0,,,,,,,,,,,,,,,3.811623246492986,,,,,,,,,,,1,,,,,,,,,,,,,,771.8741074000063,771.8741074000063,771.8741074000063,771.8741074000063,771.8741074000063,772.079227000002,772.2291519000064,775.819908700003,775.819908700003,775.819908700003,['s'],[0.45096129999728873],,,,,,,,,,,,,,,,,,,,,,,,,,,,,,,,,,,,,,,,,,,,,,,,,,,,,,,,260020,2024-03-21_12h55.32.531,mfe_c_object,2022.2.4,59.92419589225823,
flanker_main_block_10.csv,img/rightArrow.png,img/rightArrow.png,img/rightArrow.png,5,1,right,"[0, 0]","[0.0385, 0]","[-0.0385, 0]",img/object_images/audio_port01.jpg,"[0.035, 0.035]",,,,,,,,,,,,,0,0,0,9,0,27,27,20,,,,,,,,,,,,,,,3.874749498997996,,,,,,,,,,,1,,,,,,,,,,,,,,775.819908700003,775.819908700003,775.8257994000014,775.819908700003,775.819908700003,776.0330649000025,776.182991200003,779.8262654000064,779.8262654000064,779.8262654000064,['k'],[0.7292049000025145],,,,,,,,,,,,,,,,,,,,,,,,,,,,,,,,,,,,,,,,,,,,,,,,,,,,,,,,260020,2024-03-21_12h55.32.531,mfe_c_object,2022.2.4,59.92419589225823,
flanker_main_block_10.csv,img/leftArrow.png,img/leftArrow.png,img/leftArrow.png,6,1,left,"[0, 0]","[0.0385, 0]","[-0.0385, 0]",img/object_images/water_scooter01.jpg,"[0.035, 0.035]",,,,,,,,,,,,,0,0,0,9,0,28,28,17,,,,,,,,,,,,,,,3.8036072144288577,,,,,,,,,,,1,,,,,,,,,,,,,,779.8262654000064,779.8262654000064,779.8322837000014,779.8262654000064,779.8262654000064,780.0371430000014,780.1870887000041,783.7619933000024,783.7619933000024,783.7619933000024,['s'],[0.5143720999985817],,,,,,,,,,,,,,,,,,,,,,,,,,,,,,,,,,,,,,,,,,,,,,,,,,,,,,,,260020,2024-03-21_12h55.32.531,mfe_c_object,2022.2.4,59.92419589225823,
flanker_main_block_10.csv,img/rightArrow.png,img/rightArrow.png,img/rightArrow.png,5,1,right,"[0, 0]","[0.0385, 0]","[-0.0385, 0]",img/object_images/tool19.jpg,"[0.035, 0.035]",,,,,,,,,,,,,0,0,0,9,0,29,29,4,,,,,,,,,,,,,,,3.8577154308617234,,,,,,,,,,,1,,,,,,,,,,,,,,783.7619933000024,783.7619933000024,783.7678086000014,783.7619933000024,783.7619933000024,783.9743848000071,784.1243575000044,787.7561994000062,787.7561994000062,787.7561994000062,['k'],[0.6588836000009906],,,,,,,,,,,,,,,,,,,,,,,,,,,,,,,,,,,,,,,,,,,,,,,,,,,,,,,,260020,2024-03-21_12h55.32.531,mfe_c_object,2022.2.4,59.92419589225823,
flanker_main_block_10.csv,img/leftArrow.png,img/leftArrow.png,img/leftArrow.png,6,1,left,"[0, 0]","[0.0385, 0]","[-0.0385, 0]",img/object_images/scoreboard01.jpg,"[0.035, 0.035]",,,,,,,,,,,,,0,0,0,9,0,30,30,9,,,,,,,,,,,,,,,3.5681362725450905,,,,,,,,,,,1,,,,,,,,,,,,,,787.7561994000062,787.7561994000062,787.7624355000007,787.7561994000062,787.7561994000062,787.9617275000055,788.1116955000034,791.4552020000046,791.4552020000046,791.4552020000046,['s'],[0.44909000000188826],,,,,,,,,,,,,,,,,,,,,,,,,,,,,,,,,,,,,,,,,,,,,,,,,,,,,,,,260020,2024-03-21_12h55.32.531,mfe_c_object,2022.2.4,59.92419589225823,
flanker_main_block_10.csv,img/rightArrow.png,img/leftArrow.png,img/leftArrow.png,7,0,right,"[0, 0]","[0.0385, 0]","[-0.0385, 0]",img/object_images/coloring_pencil02.jpg,"[0.035, 0.035]",,,,,,,,,,,,,0,0,0,9,0,31,31,2,,,,,,,,,,,,,,,3.8156312625250504,,,,,,,,,,,1,,,,,,,,,,,,,,791.4552020000046,791.4552020000046,791.4612505000041,791.4552020000046,791.4552020000046,791.6653252000033,791.8153575000033,795.3087282000051,795.3087282000051,795.3087282000051,['k'],[0.4856581999993068],,,,,,,,,,,,,,,,,,,,,,,,,,,,,,,,,,,,,,,,,,,,,,,,,,,,,,,,260020,2024-03-21_12h55.32.531,mfe_c_object,2022.2.4,59.92419589225823,
flanker_main_block_10.csv,,,,,,,,,,,,,,,,,,,,,,,,0,0,0,9,,,,,,,,,,,,,,,,,,,,,,,,,,,,,,,,,,,,,,,,,,,,,,,,,,,,,,,,2,795.3087282000051,805.2777686000045,k,0.8868700999955763,,,,,,,,,,,,,,,,,,,,,,,,,,,,,,,,,,,,,,,,,,,,,,,,,,,260020,2024-03-21_12h55.32.531,mfe_c_object,2022.2.4,59.92419589225823,
flanker_main_block_1.csv,img/rightArrow.png,img/rightArrow.png,img/rightArrow.png,5,1,right,"[0, 0]","[0.0385, 0]","[-0.0385, 0]",img/object_images/towel02.jpg,"[0.035, 0.035]",,,,,,,,,,,,,0,1,1,0,0,0,0,31,,,,,,,,,,,,,,809.333978900002,3.6773547094188377,,,,,,,,,,,1,,,,,,,,,,806.1956917000061,806.1956917000061,k,3.1046562000046833,811.4966863000009,811.4966863000009,811.4966863000009,811.4966863000009,811.4966863000009,811.7022042000026,811.8520907000056,815.3102941000034,815.3102941000034,815.3102941000034,['k'],[0.29285719999461435],,,,,,,,,,,,,,,,,,,,,,,,,,,,,,,,,,,,,,,,,,,,,,,,,,,,,,,,260020,2024-03-21_12h55.32.531,mfe_c_object,2022.2.4,59.92419589225823,
flanker_main_block_1.csv,img/rightArrow.png,img/rightArrow.png,img/rightArrow.png,5,1,right,"[0, 0]","[0.0385, 0]","[-0.0385, 0]",img/object_images/ornament01.jpg,"[0.035, 0.035]",,,,,,,,,,,,,0,1,1,0,0,1,1,9,,,,,,,,,,,,,,,3.524048096192385,,,,,,,,,,,1,,,,,,,,,,,,,,815.3102941000034,815.3102941000034,815.3164471000055,815.3102941000034,815.3102941000034,815.5226399000021,815.672579500002,818.967495500001,818.967495500001,818.967495500001,['k'],[0.4148859999986598],,,,,,,,,,,,,,,,,,,,,,,,,,,,,,,,,,,,,,,,,,,,,,,,,,,,,,,,260020,2024-03-21_12h55.32.531,mfe_c_object,2022.2.4,59.92419589225823,
flanker_main_block_1.csv,img/rightArrow.png,img/leftArrow.png,img/leftArrow.png,7,0,right,"[0, 0]","[0.0385, 0]","[-0.0385, 0]",img/object_images/MetalWire01.jpg,"[0.035, 0.035]",,,,,,,,,,,,,0,1,1,0,0,2,2,13,,,,,,,,,,,,,,,3.8046092184368736,,,,,,,,,,,1,,,,,,,,,,,,,,818.967495500001,818.967495500001,818.9736307000057,818.967495500001,818.967495500001,819.1762894000058,819.3261393000066,822.9015131000051,822.9015131000051,822.9015131000051,['k'],[0.49314869999943767],,,,,,,,,,,,,,,,,,,,,,,,,,,,,,,,,,,,,,,,,,,,,,,,,,,,,,,,260020,2024-03-21_12h55.32.531,mfe_c_object,2022.2.4,59.92419589225823,
flanker_main_block_1.csv,img/leftArrow.png,img/rightArrow.png,img/rightArrow.png,8,0,left,"[0, 0]","[0.0385, 0]","[-0.0385, 0]",img/object_images/sink01.jpg,"[0.035, 0.035]",,,,,,,,,,,,,0,1,1,0,0,3,3,17,,,,,,,,,,,,,,,3.625250501002004,,,,,,,,,,,1,,,,,,,,,,,,,,822.9015131000051,822.9015131000051,822.9076747000072,822.9015131000051,822.9015131000051,823.1133672000069,823.2633730000016,826.6603591000021,826.6603591000021,826.6603591000021,['s'],[0.519704799997271],,,,,,,,,,,,,,,,,,,,,,,,,,,,,,,,,,,,,,,,,,,,,,,,,,,,,,,,260020,2024-03-21_12h55.32.531,mfe_c_object,2022.2.4,59.92419589225823,
flanker_main_block_1.csv,img/rightArrow.png,img/rightArrow.png,img/rightArrow.png,5,1,right,"[0, 0]","[0.0385, 0]","[-0.0385, 0]",img/object_images/crown02.jpg,"[0.035, 0.035]",,,,,,,,,,,,,0,1,1,0,0,4,4,21,,,,,,,,,,,,,,,3.8717434869739478,,,,,,,,,,,1,,,,,,,,,,,,,,826.6603591000021,826.6603591000021,826.6668059000003,826.6603591000021,826.6603591000021,826.8671739000056,827.0170688000071,830.6611760000014,830.6611760000014,830.6611760000014,['k'],[0.36898190000647446],,,,,,,,,,,,,,,,,,,,,,,,,,,,,,,,,,,,,,,,,,,,,,,,,,,,,,,,260020,2024-03-21_12h55.32.531,mfe_c_object,2022.2.4,59.92419589225823,
flanker_main_block_1.csv,img/leftArrow.png,img/leftArrow.png,img/leftArrow.png,6,1,left,"[0, 0]","[0.0385, 0]","[-0.0385, 0]",img/object_images/acoustic_capo01.jpg,"[0.035, 0.035]",,,,,,,,,,,,,0,1,1,0,0,5,5,27,,,,,,,,,,,,,,,3.902805611222445,,,,,,,,,,,1,,,,,,,,,,,,,,830.6611760000014,830.6611760000014,830.6785467000009,830.6611760000014,830.6611760000014,830.8876860000018,831.0211519000004,834.6958625000043,834.6958625000043,834.6958625000043,['s'],[0.3608479000031366],,,,,,,,,,,,,,,,,,,,,,,,,,,,,,,,,,,,,,,,,,,,,,,,,,,,,,,,260020,2024-03-21_12h55.32.531,mfe_c_object,2022.2.4,59.92419589225823,
flanker_main_block_1.csv,img/leftArrow.png,img/rightArrow.png,img/rightArrow.png,8,0,left,"[0, 0]","[0.0385, 0]","[-0.0385, 0]",img/object_images/dart01.jpg,"[0.035, 0.035]",,,,,,,,,,,,,0,1,1,0,0,6,6,4,,,,,,,,,,,,,,,3.591182364729459,,,,,,,,,,,0,,,,,,,,,,,,,,834.6958625000043,834.6958625000043,834.7017754000044,834.6958625000043,834.6958625000043,834.908374000006,835.0584228000007,838.4209160000028,838.4209160000028,838.4209160000028,['k'],[0.37319259999640053],,,,,,,,,,,,,,,,,,,,,,,,,,,,,,,,,,,,,,,,,,,,,,,,,,,,,,,,260020,2024-03-21_12h55.32.531,mfe_c_object,2022.2.4,59.92419589225823,
flanker_main_block_1.csv,img/rightArrow.png,img/rightArrow.png,img/rightArrow.png,5,1,right,"[0, 0]","[0.0385, 0]","[-0.0385, 0]",img/object_images/Tin01.jpg,"[0.035, 0.035]",,,,,,,,,,,,,0,1,1,0,0,7,7,30,,,,,,,,,,,,,,,3.50501002004008,,,,,,,,,,,1,,,,,,,,,,,,,,838.4209160000028,838.4209160000028,838.4274969000035,838.4209160000028,838.4209160000028,838.6290744000071,838.7789244000014,842.0541651000021,842.0541651000021,842.0541651000021,['k'],[0.584576900000684],,,,,,,,,,,,,,,,,,,,,,,,,,,,,,,,,,,,,,,,,,,,,,,,,,,,,,,,260020,2024-03-21_12h55.32.531,mfe_c_object,2022.2.4,59.92419589225823,
flanker_main_block_1.csv,img/rightArrow.png,img/leftArrow.png,img/leftArrow.png,7,0,right,"[0, 0]","[0.0385, 0]","[-0.0385, 0]",img/object_images/watch01.jpg,"[0.035, 0.035]",,,,,,,,,,,,,0,1,1,0,0,8,8,29,,,,,,,,,,,,,,,3.934869739478958,,,,,,,,,,,0,,,,,,,,,,,,,,842.0541651000021,842.0541651000021,842.0602909000008,842.0541651000021,842.0541651000021,842.2658657000065,842.4158162000022,846.1287099000037,846.1287099000037,846.1287099000037,['s'],[0.6710195000050589],,,,,,,,,,,,,,,,,,,,,,,,,,,,,,,,,,,,,,,,,,,,,,,,,,,,,,,,260020,2024-03-21_12h55.32.531,mfe_c_object,2022.2.4,59.92419589225823,
flanker_main_block_1.csv,img/leftArrow.png,img/leftArrow.png,img/leftArrow.png,6,1,left,"[0, 0]","[0.0385, 0]","[-0.0385, 0]",img/object_images/video_game07.jpg,"[0.035, 0.035]",,,,,,,,,,,,,0,1,1,0,0,9,9,10,,,,,,,,,,,,,,,3.6172344689378755,,,,,,,,,,,1,,,,,,,,,,,,,,846.1287099000037,846.1287099000037,846.1349555000052,846.1287099000037,846.1287099000037,846.3365962000025,846.4866984000037,849.8812845000066,849.8812845000066,849.8812845000066,['s'],[0.48415810000005877],,,,,,,,,,,,,,,,,,,,,,,,,,,,,,,,,,,,,,,,,,,,,,,,,,,,,,,,260020,2024-03-21_12h55.32.531,mfe_c_object,2022.2.4,59.92419589225823,
flanker_main_block_1.csv,img/leftArrow.png,img/leftArrow.png,img/leftArrow.png,6,1,left,"[0, 0]","[0.0385, 0]","[-0.0385, 0]",img/object_images/bow01.jpg,"[0.035, 0.035]",,,,,,,,,,,,,0,1,1,0,0,10,10,2,,,,,,,,,,,,,,,3.9308617234468937,,,,,,,,,,,1,,,,,,,,,,,,,,849.8812845000066,849.8812845000066,849.887585000004,849.8812845000066,849.8812845000066,850.0903575000048,850.2404381000015,853.9684688000052,853.9684688000052,853.9684688000052,['s'],[0.6758263000010629],,,,,,,,,,,,,,,,,,,,,,,,,,,,,,,,,,,,,,,,,,,,,,,,,,,,,,,,260020,2024-03-21_12h55.32.531,mfe_c_object,2022.2.4,59.92419589225823,
flanker_main_block_1.csv,img/rightArrow.png,img/leftArrow.png,img/leftArrow.png,7,0,right,"[0, 0]","[0.0385, 0]","[-0.0385, 0]",img/object_images/Vacuum01.jpg,"[0.035, 0.035]",,,,,,,,,,,,,0,1,1,0,0,11,11,3,,,,,,,,,,,,,,,3.646292585170341,,,,,,,,,,,1,,,,,,,,,,,,,,853.9684688000052,853.9684688000052,853.9747269000072,853.9684688000052,853.9684688000052,854.1777374000012,854.3276930000065,857.737750500004,857.737750500004,857.737750500004,['k'],[0.5244749999983469],,,,,,,,,,,,,,,,,,,,,,,,,,,,,,,,,,,,,,,,,,,,,,,,,,,,,,,,260020,2024-03-21_12h55.32.531,mfe_c_object,2022.2.4,59.92419589225823,
flanker_main_block_1.csv,img/leftArrow.png,img/leftArrow.png,img/leftArrow.png,6,1,left,"[0, 0]","[0.0385, 0]","[-0.0385, 0]",img/object_images/frisbee01.jpg,"[0.035, 0.035]",,,,,,,,,,,,,0,1,1,0,0,12,12,6,,,,,,,,,,,,,,,3.80561122244489,,,,,,,,,,,1,,,,,,,,,,,,,,857.737750500004,857.737750500004,857.7440126000001,857.737750500004,857.737750500004,857.9482269,858.0981112000009,861.6740482000023,861.6740482000023,861.6740482000023,['s'],[0.7235000000000582],,,,,,,,,,,,,,,,,,,,,,,,,,,,,,,,,,,,,,,,,,,,,,,,,,,,,,,,260020,2024-03-21_12h55.32.531,mfe_c_object,2022.2.4,59.92419589225823,
flanker_main_block_1.csv,img/rightArrow.png,img/rightArrow.png,img/rightArrow.png,5,1,right,"[0, 0]","[0.0385, 0]","[-0.0385, 0]",img/object_images/tool09.jpg,"[0.035, 0.035]",,,,,,,,,,,,,0,1,1,0,0,13,13,18,,,,,,,,,,,,,,,3.972945891783567,,,,,,,,,,,1,,,,,,,,,,,,,,861.6740482000023,861.6740482000023,861.6800559000039,861.6740482000023,861.6740482000023,861.8853050000034,862.0350388000006,865.7801727000042,865.7801727000042,865.7801727000042,['k'],[0.4587718000038876],,,,,,,,,,,,,,,,,,,,,,,,,,,,,,,,,,,,,,,,,,,,,,,,,,,,,,,,260020,2024-03-21_12h55.32.531,mfe_c_object,2022.2.4,59.92419589225823,
flanker_main_block_1.csv,img/rightArrow.png,img/leftArrow.png,img/leftArrow.png,7,0,right,"[0, 0]","[0.0385, 0]","[-0.0385, 0]",img/object_images/outlet01.jpg,"[0.035, 0.035]",,,,,,,,,,,,,0,1,1,0,0,14,14,25,,,,,,,,,,,,,,,3.920841683366733,,,,,,,,,,,1,,,,,,,,,,,,,,865.7801727000042,865.7801727000042,865.7862819000002,865.7801727000042,865.7801727000042,865.9896027000068,866.1393416000064,869.8359720000008,869.8359720000008,869.8359720000008,['k'],[0.5849031000034302],,,,,,,,,,,,,,,,,,,,,,,,,,,,,,,,,,,,,,,,,,,,,,,,,,,,,,,,260020,2024-03-21_12h55.32.531,mfe_c_object,2022.2.4,59.92419589225823,
flanker_main_block_1.csv,img/leftArrow.png,img/rightArrow.png,img/rightArrow.png,8,0,left,"[0, 0]","[0.0385, 0]","[-0.0385, 0]",img/object_images/bottle05.jpg,"[0.035, 0.035]",,,,,,,,,,,,,0,1,1,0,0,15,15,26,,,,,,,,,,,,,,,3.8196392785571143,,,,,,,,,,,1,,,,,,,,,,,,,,869.8359720000008,869.8359720000008,869.8425518000004,869.8359720000008,869.8359720000008,870.043502200002,870.1935967000027,873.7968560000008,873.7968560000008,873.7968560000008,['s'],[0.5612891999990097],,,,,,,,,,,,,,,,,,,,,,,,,,,,,,,,,,,,,,,,,,,,,,,,,,,,,,,,260020,2024-03-21_12h55.32.531,mfe_c_object,2022.2.4,59.92419589225823,
flanker_main_block_1.csv,img/leftArrow.png,img/leftArrow.png,img/leftArrow.png,6,1,left,"[0, 0]","[0.0385, 0]","[-0.0385, 0]",img/object_images/mirror01.jpg,"[0.035, 0.035]",,,,,,,,,,,,,0,1,1,0,0,16,16,28,,,,,,,,,,,,,,,3.970941883767535,,,,,,,,,,,1,,,,,,,,,,,,,,873.7968560000008,873.7968560000008,873.7968560000008,873.7968560000008,873.7968560000008,873.9975707000049,874.1474344000017,877.9103295000023,877.9103295000023,877.9103295000023,['s'],[0.7276194000005489],,,,,,,,,,,,,,,,,,,,,,,,,,,,,,,,,,,,,,,,,,,,,,,,,,,,,,,,260020,2024-03-21_12h55.32.531,mfe_c_object,2022.2.4,59.92419589225823,
flanker_main_block_1.csv,img/leftArrow.png,img/rightArrow.png,img/rightArrow.png,8,0,left,"[0, 0]","[0.0385, 0]","[-0.0385, 0]",img/object_images/Ring02.jpg,"[0.035, 0.035]",,,,,,,,,,,,,0,1,1,0,0,17,17,0,,,,,,,,,,,,,,,3.9899799599198396,,,,,,,,,,,0,,,,,,,,,,,,,,877.9103295000023,877.9103295000023,877.9103295000023,877.9103295000023,877.9103295000023,878.118375200007,878.2680138000069,882.0289309,882.0289309,882.0289309,['k'],[0.3508432999951765],,,,,,,,,,,,,,,,,,,,,,,,,,,,,,,,,,,,,,,,,,,,,,,,,,,,,,,,260020,2024-03-21_12h55.32.531,mfe_c_object,2022.2.4,59.92419589225823,
flanker_main_block_1.csv,img/leftArrow.png,img/leftArrow.png,img/leftArrow.png,6,1,left,"[0, 0]","[0.0385, 0]","[-0.0385, 0]",img/object_images/toy03.jpg,"[0.035, 0.035]",,,,,,,,,,,,,0,1,1,0,0,18,18,24,,,,,,,,,,,,,,,3.75250501002004,,,,,,,,,,,1,,,,,,,,,,,,,,882.0289309,882.0289309,882.0350366000057,882.0289309,882.0289309,882.239055200007,882.3891297000009,885.9138427000071,885.9138427000071,885.9138427000071,['s'],[0.4474566999997478],,,,,,,,,,,,,,,,,,,,,,,,,,,,,,,,,,,,,,,,,,,,,,,,,,,,,,,,260020,2024-03-21_12h55.32.531,mfe_c_object,2022.2.4,59.92419589225823,
flanker_main_block_1.csv,img/leftArrow.png,img/rightArrow.png,img/rightArrow.png,8,0,left,"[0, 0]","[0.0385, 0]","[-0.0385, 0]",img/object_images/fridge03.jpg,"[0.035, 0.035]",,,,,,,,,,,,,0,1,1,0,0,19,19,8,,,,,,,,,,,,,,,3.6663326653306614,,,,,,,,,,,0,,,,,,,,,,,,,,885.9138427000071,885.9138427000071,885.9204092,885.9138427000071,885.9138427000071,886.1261934000067,886.2760256000038,889.7053826000047,889.7053826000047,889.7053826000047,['k'],[0.7791654999964521],,,,,,,,,,,,,,,,,,,,,,,,,,,,,,,,,,,,,,,,,,,,,,,,,,,,,,,,260020,2024-03-21_12h55.32.531,mfe_c_object,2022.2.4,59.92419589225823,
flanker_main_block_1.csv,img/rightArrow.png,img/leftArrow.png,img/leftArrow.png,7,0,right,"[0, 0]","[0.0385, 0]","[-0.0385, 0]",img/object_images/jewel04.jpg,"[0.035, 0.035]",,,,,,,,,,,,,0,1,1,0,0,20,20,20,,,,,,,,,,,,,,,3.8136272545090177,,,,,,,,,,,1,,,,,,,,,,,,,,889.7053826000047,889.7053826000047,889.7118468000044,889.7053826000047,889.7053826000047,889.9135434000054,890.0633457000004,893.6564356000017,893.6564356000017,893.6564356000017,['k'],[0.9472752000001492],,,,,,,,,,,,,,,,,,,,,,,,,,,,,,,,,,,,,,,,,,,,,,,,,,,,,,,,260020,2024-03-21_12h55.32.531,mfe_c_object,2022.2.4,59.92419589225823,
flanker_main_block_1.csv,img/leftArrow.png,img/leftArrow.png,img/leftArrow.png,6,1,left,"[0, 0]","[0.0385, 0]","[-0.0385, 0]",img/object_images/bird_house02.jpg,"[0.035, 0.035]",,,,,,,,,,,,,0,1,1,0,0,21,21,16,,,,,,,,,,,,,,,3.6653306613226455,,,,,,,,,,,1,,,,,,,,,,,,,,893.6564356000017,893.6564356000017,893.6624494000062,893.6564356000017,893.6564356000017,893.8673291000014,894.0173108000017,897.4654620000001,897.4654620000001,897.4654620000001,['s'],[0.7726335999977891],,,,,,,,,,,,,,,,,,,,,,,,,,,,,,,,,,,,,,,,,,,,,,,,,,,,,,,,260020,2024-03-21_12h55.32.531,mfe_c_object,2022.2.4,59.92419589225823,
flanker_main_block_1.csv,img/leftArrow.png,img/rightArrow.png,img/rightArrow.png,8,0,left,"[0, 0]","[0.0385, 0]","[-0.0385, 0]",img/object_images/pot01 (1).jpg,"[0.035, 0.035]",,,,,,,,,,,,,0,1,1,0,0,22,22,22,,,,,,,,,,,,,,,3.527054108216433,,,,,,,,,,,0,,,,,,,,,,,,,,897.4654620000001,897.4654620000001,897.4716606000002,897.4654620000001,897.4654620000001,897.6711112000048,897.8210652000053,901.1474916000006,901.1474916000006,901.1474916000006,['k'],[0.6510513999965042],,,,,,,,,,,,,,,,,,,,,,,,,,,,,,,,,,,,,,,,,,,,,,,,,,,,,,,,260020,2024-03-21_12h55.32.531,mfe_c_object,2022.2.4,59.92419589225823,
flanker_main_block_1.csv,img/rightArrow.png,img/leftArrow.png,img/leftArrow.png,7,0,right,"[0, 0]","[0.0385, 0]","[-0.0385, 0]",img/object_images/gauze01.jpg,"[0.035, 0.035]",,,,,,,,,,,,,0,1,1,0,0,23,23,14,,,,,,,,,,,,,,,3.6733466933867733,,,,,,,,,,,1,,,,,,,,,,,,,,901.1474916000006,901.1474916000006,901.1474916000006,901.1474916000006,901.1474916000006,901.3581746000054,901.5080842000025,904.9501115000021,904.9501115000021,904.9501115000021,['k'],[0.7462325999949826],,,,,,,,,,,,,,,,,,,,,,,,,,,,,,,,,,,,,,,,,,,,,,,,,,,,,,,,260020,2024-03-21_12h55.32.531,mfe_c_object,2022.2.4,59.92419589225823,
flanker_main_block_1.csv,img/rightArrow.png,img/leftArrow.png,img/leftArrow.png,7,0,right,"[0, 0]","[0.0385, 0]","[-0.0385, 0]",img/object_images/guitar02.jpg,"[0.035, 0.035]",,,,,,,,,,,,,0,1,1,0,0,24,24,1,,,,,,,,,,,,,,,3.7184368737474953,,,,,,,,,,,1,,,,,,,,,,,,,,904.9501115000021,904.9501115000021,904.9560551000031,904.9501115000021,904.9501115000021,905.1618701000043,905.3118616000065,908.8025693000018,908.8025693000018,908.8025693000018,['k'],[0.6149368000042159],,,,,,,,,,,,,,,,,,,,,,,,,,,,,,,,,,,,,,,,,,,,,,,,,,,,,,,,260020,2024-03-21_12h55.32.531,mfe_c_object,2022.2.4,59.92419589225823,
flanker_main_block_1.csv,img/leftArrow.png,img/leftArrow.png,img/leftArrow.png,6,1,left,"[0, 0]","[0.0385, 0]","[-0.0385, 0]",img/object_images/shovel03.jpg,"[0.035, 0.035]",,,,,,,,,,,,,0,1,1,0,0,25,25,19,,,,,,,,,,,,,,,3.6543086172344688,,,,,,,,,,,1,,,,,,,,,,,,,,908.8025693000018,908.8025693000018,908.8084434000048,908.8025693000018,908.8025693000018,909.0157544000031,909.1658754000018,912.5955706000022,912.5955706000022,912.5955706000022,['s'],[0.48258650000207126],,,,,,,,,,,,,,,,,,,,,,,,,,,,,,,,,,,,,,,,,,,,,,,,,,,,,,,,260020,2024-03-21_12h55.32.531,mfe_c_object,2022.2.4,59.92419589225823,
flanker_main_block_1.csv,img/rightArrow.png,img/rightArrow.png,img/rightArrow.png,5,1,right,"[0, 0]","[0.0385, 0]","[-0.0385, 0]",img/object_images/stapler.jpg,"[0.035, 0.035]",,,,,,,,,,,,,0,1,1,0,0,26,26,7,,,,,,,,,,,,,,,3.905811623246493,,,,,,,,,,,1,,,,,,,,,,,,,,912.5955706000022,912.5955706000022,912.601825100006,912.5955706000022,912.5955706000022,912.8028544000044,912.9528851000068,916.6877215000059,916.6877215000059,916.6877215000059,['k'],[0.5857060000053025],,,,,,,,,,,,,,,,,,,,,,,,,,,,,,,,,,,,,,,,,,,,,,,,,,,,,,,,260020,2024-03-21_12h55.32.531,mfe_c_object,2022.2.4,59.92419589225823,
flanker_main_block_1.csv,img/leftArrow.png,img/rightArrow.png,img/rightArrow.png,8,0,left,"[0, 0]","[0.0385, 0]","[-0.0385, 0]",img/object_images/Stool01.jpg,"[0.035, 0.035]",,,,,,,,,,,,,0,1,1,0,0,27,27,5,,,,,,,,,,,,,,,3.898797595190381,,,,,,,,,,,1,,,,,,,,,,,,,,916.6877215000059,916.6877215000059,916.6877215000059,916.6877215000059,916.6877215000059,916.8903164000003,917.0403143000003,920.723482100002,920.723482100002,920.723482100002,['s'],[0.5572419000018272],,,,,,,,,,,,,,,,,,,,,,,,,,,,,,,,,,,,,,,,,,,,,,,,,,,,,,,,260020,2024-03-21_12h55.32.531,mfe_c_object,2022.2.4,59.92419589225823,
flanker_main_block_1.csv,img/rightArrow.png,img/rightArrow.png,img/rightArrow.png,5,1,right,"[0, 0]","[0.0385, 0]","[-0.0385, 0]",img/object_images/judge_gavel01.jpg,"[0.035, 0.035]",,,,,,,,,,,,,0,1,1,0,0,28,28,23,,,,,,,,,,,,,,,3.7334669338677355,,,,,,,,,,,1,,,,,,,,,,,,,,920.723482100002,920.723482100002,920.723482100002,920.723482100002,920.723482100002,920.9275336000064,921.0774633000037,924.5868668000039,924.5868668000039,924.5868668000039,['k'],[0.37680230000114534],,,,,,,,,,,,,,,,,,,,,,,,,,,,,,,,,,,,,,,,,,,,,,,,,,,,,,,,260020,2024-03-21_12h55.32.531,mfe_c_object,2022.2.4,59.92419589225823,
flanker_main_block_1.csv,img/leftArrow.png,img/rightArrow.png,img/rightArrow.png,8,0,left,"[0, 0]","[0.0385, 0]","[-0.0385, 0]",img/object_images/helmet01.jpg,"[0.035, 0.035]",,,,,,,,,,,,,0,1,1,0,0,29,29,15,,,,,,,,,,,,,,,3.7675350701402803,,,,,,,,,,,1,,,,,,,,,,,,,,924.5868668000039,924.5868668000039,924.5932108000052,924.5868668000039,924.5868668000039,924.798248900006,924.9479850000062,928.493237600007,928.493237600007,928.493237600007,['s'],[0.5298258000038913],,,,,,,,,,,,,,,,,,,,,,,,,,,,,,,,,,,,,,,,,,,,,,,,,,,,,,,,260020,2024-03-21_12h55.32.531,mfe_c_object,2022.2.4,59.92419589225823,
flanker_main_block_1.csv,img/rightArrow.png,img/leftArrow.png,img/leftArrow.png,7,0,right,"[0, 0]","[0.0385, 0]","[-0.0385, 0]",img/object_images/toy04.jpg,"[0.035, 0.035]",,,,,,,,,,,,,0,1,1,0,0,30,30,11,,,,,,,,,,,,,,,3.646292585170341,,,,,,,,,,,1,,,,,,,,,,,,,,928.493237600007,928.493237600007,928.4995151000039,928.493237600007,928.493237600007,928.7020789000017,928.8519712000052,932.2648631000047,932.2648631000047,932.2648631000047,['k'],[0.5607420000014827],,,,,,,,,,,,,,,,,,,,,,,,,,,,,,,,,,,,,,,,,,,,,,,,,,,,,,,,260020,2024-03-21_12h55.32.531,mfe_c_object,2022.2.4,59.92419589225823,
flanker_main_block_1.csv,img/rightArrow.png,img/rightArrow.png,img/rightArrow.png,5,1,right,"[0, 0]","[0.0385, 0]","[-0.0385, 0]",img/object_images/tool02.jpg,"[0.035, 0.035]",,,,,,,,,,,,,0,1,1,0,0,31,31,12,,,,,,,,,,,,,,,3.729458917835671,,,,,,,,,,,1,,,,,,,,,,,,,,932.2648631000047,932.2648631000047,932.2712107000043,932.2648631000047,932.2648631000047,932.4723849000002,932.6223573000025,936.008016300002,936.008016300002,936.008016300002,['k'],[0.4674916000003577],,,,,,,,,,,,,,,,,,,,,,,,,,,,,,,,,,,,,,,,,,,,,,,,,,,,,,,,260020,2024-03-21_12h55.32.531,mfe_c_object,2022.2.4,59.92419589225823,
flanker_main_block_1.csv,,,,,,,,,,,,,,,,,,,,,,,,0,1,1,0,,,,,,,,,,,,,,,,,,,,,,,,,,,,,,,,,,,,,,,,,,,,,,,,,,,,,,,,1,936.008016300002,946.0013665000006,k,1.059830799997144,,,,,,,,,,,,,,,,,,,,,,,,,,,,,,,,,,,,,,,,,,,,,,,,,,,260020,2024-03-21_12h55.32.531,mfe_c_object,2022.2.4,59.92419589225823,
flanker_main_block_8.csv,img/rightArrow.png,img/rightArrow.png,img/rightArrow.png,5,1,right,"[0, 0]","[0.0385, 0]","[-0.0385, 0]",img/object_images/MeasuringCup01.jpg,"[0.035, 0.035]",,,,,,,,,,,,,0,2,2,7,0,0,0,9,,,,,,,,,,,,,,949.0239738000018,3.5631262525050102,,,,,,,,,,,0,,,,,,,,,,947.0861576000025,947.0861576000025,k,1.9025333000026876,951.2098291000002,951.2098291000002,951.2098291000002,951.2098291000002,951.2098291000002,951.4247294000015,951.5747401000044,954.9498313000004,954.9498313000004,954.9498313000004,['s'],[0.6671025000032387],,,,,,,,,,,,,,,,,,,,,,,,,,,,,,,,,,,,,,,,,,,,,,,,,,,,,,,,260020,2024-03-21_12h55.32.531,mfe_c_object,2022.2.4,59.92419589225823,
flanker_main_block_8.csv,img/rightArrow.png,img/leftArrow.png,img/leftArrow.png,7,0,right,"[0, 0]","[0.0385, 0]","[-0.0385, 0]",img/object_images/satellite01.jpg,"[0.035, 0.035]",,,,,,,,,,,,,0,2,2,7,0,1,1,24,,,,,,,,,,,,,,,3.9368737474949898,,,,,,,,,,,1,,,,,,,,,,,,,,954.9498313000004,954.9498313000004,954.9498313000004,954.9498313000004,954.9498313000004,955.1617558000071,955.3116484000057,959.0246602000043,959.0246602000043,959.0246602000043,['k'],[0.5746886000051745],,,,,,,,,,,,,,,,,,,,,,,,,,,,,,,,,,,,,,,,,,,,,,,,,,,,,,,,260020,2024-03-21_12h55.32.531,mfe_c_object,2022.2.4,59.92419589225823,
flanker_main_block_8.csv,img/leftArrow.png,img/leftArrow.png,img/leftArrow.png,6,1,left,"[0, 0]","[0.0385, 0]","[-0.0385, 0]",img/object_images/cutting_board01.jpg,"[0.035, 0.035]",,,,,,,,,,,,,0,2,2,7,0,2,2,6,,,,,,,,,,,,,,,3.584168336673347,,,,,,,,,,,1,,,,,,,,,,,,,,959.0246602000043,959.0246602000043,959.0311103000058,959.0246602000043,959.0246602000043,959.2326213000051,959.3825367000027,962.742908500004,962.742908500004,962.742908500004,['s'],[0.516612500003248],,,,,,,,,,,,,,,,,,,,,,,,,,,,,,,,,,,,,,,,,,,,,,,,,,,,,,,,260020,2024-03-21_12h55.32.531,mfe_c_object,2022.2.4,59.92419589225823,
flanker_main_block_8.csv,img/leftArrow.png,img/rightArrow.png,img/rightArrow.png,8,0,left,"[0, 0]","[0.0385, 0]","[-0.0385, 0]",img/object_images/tv01.jpg,"[0.035, 0.035]",,,,,,,,,,,,,0,2,2,7,0,3,3,1,,,,,,,,,,,,,,,3.831663326653307,,,,,,,,,,,1,,,,,,,,,,,,,,962.742908500004,962.742908500004,962.7489122000043,962.742908500004,962.742908500004,962.952775100006,963.1027702000065,966.7256302000023,966.7256302000023,966.7256302000023,['s'],[0.5499042000010377],,,,,,,,,,,,,,,,,,,,,,,,,,,,,,,,,,,,,,,,,,,,,,,,,,,,,,,,260020,2024-03-21_12h55.32.531,mfe_c_object,2022.2.4,59.92419589225823,
flanker_main_block_8.csv,img/leftArrow.png,img/rightArrow.png,img/rightArrow.png,8,0,left,"[0, 0]","[0.0385, 0]","[-0.0385, 0]",img/object_images/fan05.jpg,"[0.035, 0.035]",,,,,,,,,,,,,0,2,2,7,0,4,4,3,,,,,,,,,,,,,,,3.5160320641282565,,,,,,,,,,,1,,,,,,,,,,,,,,966.7256302000023,966.7256302000023,966.7319256000046,966.7256302000023,966.7256302000023,966.9402978000071,967.0900775000046,970.4118256000002,970.4118256000002,970.4118256000002,['s'],[0.5105708000046434],,,,,,,,,,,,,,,,,,,,,,,,,,,,,,,,,,,,,,,,,,,,,,,,,,,,,,,,260020,2024-03-21_12h55.32.531,mfe_c_object,2022.2.4,59.92419589225823,
flanker_main_block_8.csv,img/leftArrow.png,img/leftArrow.png,img/leftArrow.png,6,1,left,"[0, 0]","[0.0385, 0]","[-0.0385, 0]",img/object_images/toaster02.jpg,"[0.035, 0.035]",,,,,,,,,,,,,0,2,2,7,0,5,5,20,,,,,,,,,,,,,,,3.784569138276553,,,,,,,,,,,1,,,,,,,,,,,,,,970.4118256000002,970.4118256000002,970.4118256000002,970.4118256000002,970.4118256000002,970.6272461000044,970.777167100001,974.3183865000028,974.3183865000028,974.3183865000028,['s'],[0.47335000000020955],,,,,,,,,,,,,,,,,,,,,,,,,,,,,,,,,,,,,,,,,,,,,,,,,,,,,,,,260020,2024-03-21_12h55.32.531,mfe_c_object,2022.2.4,59.92419589225823,
flanker_main_block_8.csv,img/rightArrow.png,img/leftArrow.png,img/leftArrow.png,7,0,right,"[0, 0]","[0.0385, 0]","[-0.0385, 0]",img/object_images/car04.jpg,"[0.035, 0.035]",,,,,,,,,,,,,0,2,2,7,0,6,6,16,,,,,,,,,,,,,,,3.734468937875752,,,,,,,,,,,1,,,,,,,,,,,,,,974.3183865000028,974.3183865000028,974.3245187000066,974.3183865000028,974.3183865000028,974.5311394000018,974.6810024000006,978.1938693000047,978.1938693000047,978.1938693000047,['k'],[0.5188826000012341],,,,,,,,,,,,,,,,,,,,,,,,,,,,,,,,,,,,,,,,,,,,,,,,,,,,,,,,260020,2024-03-21_12h55.32.531,mfe_c_object,2022.2.4,59.92419589225823,
flanker_main_block_8.csv,img/rightArrow.png,img/leftArrow.png,img/leftArrow.png,7,0,right,"[0, 0]","[0.0385, 0]","[-0.0385, 0]",img/object_images/belt01.jpg,"[0.035, 0.035]",,,,,,,,,,,,,0,2,2,7,0,7,7,7,,,,,,,,,,,,,,,3.717434869739479,,,,,,,,,,,1,,,,,,,,,,,,,,978.1938693000047,978.1938693000047,978.2000709000058,978.1938693000047,978.1938693000047,978.4015511000034,978.551561500004,982.0454977000045,982.0454977000045,982.0454977000045,['k'],[0.5147931999963475],,,,,,,,,,,,,,,,,,,,,,,,,,,,,,,,,,,,,,,,,,,,,,,,,,,,,,,,260020,2024-03-21_12h55.32.531,mfe_c_object,2022.2.4,59.92419589225823,
flanker_main_block_8.csv,img/leftArrow.png,img/leftArrow.png,img/leftArrow.png,6,1,left,"[0, 0]","[0.0385, 0]","[-0.0385, 0]",img/object_images/ice_tray03.jpg,"[0.035, 0.035]",,,,,,,,,,,,,0,2,2,7,0,8,8,2,,,,,,,,,,,,,,,3.627254509018036,,,,,,,,,,,0,,,,,,,,,,,,,,982.0454977000045,982.0454977000045,982.0514750000002,982.0454977000045,982.0454977000045,982.2554441000029,982.4052874000045,985.8157026000044,985.8157026000044,985.8157026000044,['k'],[0.7029793999972753],,,,,,,,,,,,,,,,,,,,,,,,,,,,,,,,,,,,,,,,,,,,,,,,,,,,,,,,260020,2024-03-21_12h55.32.531,mfe_c_object,2022.2.4,59.92419589225823,
flanker_main_block_8.csv,img/rightArrow.png,img/rightArrow.png,img/rightArrow.png,5,1,right,"[0, 0]","[0.0385, 0]","[-0.0385, 0]",img/object_images/hair_brush05.jpg,"[0.035, 0.035]",,,,,,,,,,,,,0,2,2,7,0,9,9,12,,,,,,,,,,,,,,,3.6923847695390783,,,,,,,,,,,1,,,,,,,,,,,,,,985.8157026000044,985.8157026000044,985.8157026000044,985.8157026000044,985.8157026000044,986.0256744000071,986.175705600006,989.6632917000024,989.6632917000024,989.6632917000024,['k'],[0.5570117000024766],,,,,,,,,,,,,,,,,,,,,,,,,,,,,,,,,,,,,,,,,,,,,,,,,,,,,,,,260020,2024-03-21_12h55.32.531,mfe_c_object,2022.2.4,59.92419589225823,
flanker_main_block_8.csv,img/rightArrow.png,img/rightArrow.png,img/rightArrow.png,5,1,right,"[0, 0]","[0.0385, 0]","[-0.0385, 0]",img/object_images/slinky_toy01.jpg,"[0.035, 0.035]",,,,,,,,,,,,,0,2,2,7,0,10,10,19,,,,,,,,,,,,,,,3.8376753507014025,,,,,,,,,,,1,,,,,,,,,,,,,,989.6632917000024,989.6632917000024,989.6632917000024,989.6632917000024,989.6632917000024,989.8631296000021,990.0132035000061,993.6387957000043,993.6387957000043,993.6387957000043,['k'],[0.44585209999786457],,,,,,,,,,,,,,,,,,,,,,,,,,,,,,,,,,,,,,,,,,,,,,,,,,,,,,,,260020,2024-03-21_12h55.32.531,mfe_c_object,2022.2.4,59.92419589225823,
flanker_main_block_8.csv,img/rightArrow.png,img/rightArrow.png,img/rightArrow.png,5,1,right,"[0, 0]","[0.0385, 0]","[-0.0385, 0]",img/object_images/lemon_squeezer02.jpg,"[0.035, 0.035]",,,,,,,,,,,,,0,2,2,7,0,11,11,27,,,,,,,,,,,,,,,3.682364729458918,,,,,,,,,,,1,,,,,,,,,,,,,,993.6387957000043,993.6387957000043,993.6445973000009,993.6387957000043,993.6387957000043,993.8502626000045,994.0003836000033,997.4459963000045,997.4459963000045,997.4459963000045,['k'],[0.374285099998815],,,,,,,,,,,,,,,,,,,,,,,,,,,,,,,,,,,,,,,,,,,,,,,,,,,,,,,,260020,2024-03-21_12h55.32.531,mfe_c_object,2022.2.4,59.92419589225823,
flanker_main_block_8.csv,img/leftArrow.png,img/rightArrow.png,img/rightArrow.png,8,0,left,"[0, 0]","[0.0385, 0]","[-0.0385, 0]",img/object_images/jewel01.jpg,"[0.035, 0.035]",,,,,,,,,,,,,0,2,2,7,0,12,12,0,,,,,,,,,,,,,,,3.7044088176352705,,,,,,,,,,,1,,,,,,,,,,,,,,997.4459963000045,997.4459963000045,997.4523378000013,997.4459963000045,997.4459963000045,997.6542025000017,997.804048200007,1001.2800457000048,1001.2800457000048,1001.2800457000048,['s'],[0.7437841999999364],,,,,,,,,,,,,,,,,,,,,,,,,,,,,,,,,,,,,,,,,,,,,,,,,,,,,,,,260020,2024-03-21_12h55.32.531,mfe_c_object,2022.2.4,59.92419589225823,
flanker_main_block_8.csv,img/rightArrow.png,img/rightArrow.png,img/rightArrow.png,5,1,right,"[0, 0]","[0.0385, 0]","[-0.0385, 0]",img/object_images/dress03.jpg,"[0.035, 0.035]",,,,,,,,,,,,,0,2,2,7,0,13,13,30,,,,,,,,,,,,,,,3.87875751503006,,,,,,,,,,,1,,,,,,,,,,,,,,1001.2800457000048,1001.2800457000048,1001.2862955000019,1001.2800457000048,1001.2800457000048,1001.4913008000003,1001.6411202000018,1005.294257900001,1005.294257900001,1005.294257900001,['k'],[0.5243927999981679],,,,,,,,,,,,,,,,,,,,,,,,,,,,,,,,,,,,,,,,,,,,,,,,,,,,,,,,260020,2024-03-21_12h55.32.531,mfe_c_object,2022.2.4,59.92419589225823,
flanker_main_block_8.csv,img/rightArrow.png,img/rightArrow.png,img/rightArrow.png,5,1,right,"[0, 0]","[0.0385, 0]","[-0.0385, 0]",img/object_images/chair04.jpg,"[0.035, 0.035]",,,,,,,,,,,,,0,2,2,7,0,14,14,23,,,,,,,,,,,,,,,3.9879759519038074,,,,,,,,,,,1,,,,,,,,,,,,,,1005.294257900001,1005.294257900001,1005.294257900001,1005.294257900001,1005.294257900001,1005.495362600006,1005.645207600006,1009.4101398000057,1009.4101398000057,1009.4101398000057,['k'],[0.44627349999791477],,,,,,,,,,,,,,,,,,,,,,,,,,,,,,,,,,,,,,,,,,,,,,,,,,,,,,,,260020,2024-03-21_12h55.32.531,mfe_c_object,2022.2.4,59.92419589225823,
flanker_main_block_8.csv,img/rightArrow.png,img/leftArrow.png,img/leftArrow.png,7,0,right,"[0, 0]","[0.0385, 0]","[-0.0385, 0]",img/object_images/ribbon01.jpg,"[0.035, 0.035]",,,,,,,,,,,,,0,2,2,7,0,15,15,13,,,,,,,,,,,,,,,3.685370741482966,,,,,,,,,,,1,,,,,,,,,,,,,,1009.4101398000057,1009.4101398000057,1009.4161364000029,1009.4101398000057,1009.4101398000057,1009.6161526000069,1009.7661144000012,1013.2429135000057,1013.2429135000057,1013.2429135000057,['k'],[0.5309715999974287],,,,,,,,,,,,,,,,,,,,,,,,,,,,,,,,,,,,,,,,,,,,,,,,,,,,,,,,260020,2024-03-21_12h55.32.531,mfe_c_object,2022.2.4,59.92419589225823,
flanker_main_block_8.csv,img/rightArrow.png,img/leftArrow.png,img/leftArrow.png,7,0,right,"[0, 0]","[0.0385, 0]","[-0.0385, 0]",img/object_images/mask01.jpg,"[0.035, 0.035]",,,,,,,,,,,,,0,2,2,7,0,16,16,8,,,,,,,,,,,,,,,3.8156312625250504,,,,,,,,,,,1,,,,,,,,,,,,,,1013.2429135000057,1013.2429135000057,1013.2429135000057,1013.2429135000057,1013.2429135000057,1013.4532671000052,1013.6030929000044,1017.199583600006,1017.199583600006,1017.199583600006,['k'],[0.5299091000051703],,,,,,,,,,,,,,,,,,,,,,,,,,,,,,,,,,,,,,,,,,,,,,,,,,,,,,,,260020,2024-03-21_12h55.32.531,mfe_c_object,2022.2.4,59.92419589225823,
flanker_main_block_8.csv,img/leftArrow.png,img/rightArrow.png,img/rightArrow.png,8,0,left,"[0, 0]","[0.0385, 0]","[-0.0385, 0]",img/object_images/yarn02.jpg,"[0.035, 0.035]",,,,,,,,,,,,,0,2,2,7,0,17,17,25,,,,,,,,,,,,,,,3.929859719438878,,,,,,,,,,,1,,,,,,,,,,,,,,1017.199583600006,1017.199583600006,1017.2059201000011,1017.199583600006,1017.199583600006,1017.4072321000058,1017.5571976000065,1021.2736884000042,1021.2736884000042,1021.2736884000042,['s'],[0.6211582999967504],,,,,,,,,,,,,,,,,,,,,,,,,,,,,,,,,,,,,,,,,,,,,,,,,,,,,,,,260020,2024-03-21_12h55.32.531,mfe_c_object,2022.2.4,59.92419589225823,
flanker_main_block_8.csv,img/leftArrow.png,img/rightArrow.png,img/rightArrow.png,8,0,left,"[0, 0]","[0.0385, 0]","[-0.0385, 0]",img/object_images/shoes10.jpg,"[0.035, 0.035]",,,,,,,,,,,,,0,2,2,7,0,18,18,22,,,,,,,,,,,,,,,3.900801603206413,,,,,,,,,,,1,,,,,,,,,,,,,,1021.2736884000042,1021.2736884000042,1021.2736884000042,1021.2736884000042,1021.2736884000042,1021.4780139000068,1021.6279312000042,1025.3545995000022,1025.3545995000022,1025.3545995000022,['s'],[0.5789638999995077],,,,,,,,,,,,,,,,,,,,,,,,,,,,,,,,,,,,,,,,,,,,,,,,,,,,,,,,260020,2024-03-21_12h55.32.531,mfe_c_object,2022.2.4,59.92419589225823,
flanker_main_block_8.csv,img/leftArrow.png,img/leftArrow.png,img/leftArrow.png,6,1,left,"[0, 0]","[0.0385, 0]","[-0.0385, 0]",img/object_images/binoculars03.jpg,"[0.035, 0.035]",,,,,,,,,,,,,0,2,2,7,0,19,19,14,,,,,,,,,,,,,,,3.9879759519038074,,,,,,,,,,,1,,,,,,,,,,,,,,1025.3545995000022,1025.3545995000022,1025.3545995000022,1025.3545995000022,1025.3545995000022,1025.5653284,1025.715297600007,1029.4775145000021,1029.4775145000021,1029.4775145000021,['s'],[0.4574563999995007],,,,,,,,,,,,,,,,,,,,,,,,,,,,,,,,,,,,,,,,,,,,,,,,,,,,,,,,260020,2024-03-21_12h55.32.531,mfe_c_object,2022.2.4,59.92419589225823,
flanker_main_block_8.csv,img/leftArrow.png,img/leftArrow.png,img/leftArrow.png,6,1,left,"[0, 0]","[0.0385, 0]","[-0.0385, 0]",img/object_images/bag06.jpg,"[0.035, 0.035]",,,,,,,,,,,,,0,2,2,7,0,20,20,28,,,,,,,,,,,,,,,3.8717434869739478,,,,,,,,,,,1,,,,,,,,,,,,,,1029.4775145000021,1029.4775145000021,1029.4837051000068,1029.4775145000021,1029.4775145000021,1029.686170800007,1029.8360531000071,1033.483321700005,1033.483321700005,1033.483321700005,['s'],[0.5599570000049425],,,,,,,,,,,,,,,,,,,,,,,,,,,,,,,,,,,,,,,,,,,,,,,,,,,,,,,,260020,2024-03-21_12h55.32.531,mfe_c_object,2022.2.4,59.92419589225823,
flanker_main_block_8.csv,img/leftArrow.png,img/leftArrow.png,img/leftArrow.png,6,1,left,"[0, 0]","[0.0385, 0]","[-0.0385, 0]",img/object_images/shower_head03.jpg,"[0.035, 0.035]",,,,,,,,,,,,,0,2,2,7,0,21,21,5,,,,,,,,,,,,,,,3.6432865731462925,,,,,,,,,,,1,,,,,,,,,,,,,,1033.483321700005,1033.483321700005,1033.5025152000017,1033.483321700005,1033.483321700005,1033.7066840000043,1033.840311400003,1037.2447634000055,1037.2447634000055,1037.2447634000055,['s'],[0.41706329999578884],,,,,,,,,,,,,,,,,,,,,,,,,,,,,,,,,,,,,,,,,,,,,,,,,,,,,,,,260020,2024-03-21_12h55.32.531,mfe_c_object,2022.2.4,59.92419589225823,
flanker_main_block_8.csv,img/rightArrow.png,img/leftArrow.png,img/leftArrow.png,7,0,right,"[0, 0]","[0.0385, 0]","[-0.0385, 0]",img/object_images/screwdriver01.jpg,"[0.035, 0.035]",,,,,,,,,,,,,0,2,2,7,0,22,22,31,,,,,,,,,,,,,,,3.6843687374749496,,,,,,,,,,,1,,,,,,,,,,,,,,1037.2447634000055,1037.2447634000055,1037.2507815000063,1037.2447634000055,1037.2447634000055,1037.4604169000013,1037.5937341000026,1041.0540180000025,1041.0540180000025,1041.0540180000025,['k'],[0.5681972000020323],,,,,,,,,,,,,,,,,,,,,,,,,,,,,,,,,,,,,,,,,,,,,,,,,,,,,,,,260020,2024-03-21_12h55.32.531,mfe_c_object,2022.2.4,59.92419589225823,
flanker_main_block_8.csv,img/rightArrow.png,img/rightArrow.png,img/rightArrow.png,5,1,right,"[0, 0]","[0.0385, 0]","[-0.0385, 0]",img/object_images/key02.jpg,"[0.035, 0.035]",,,,,,,,,,,,,0,2,2,7,0,23,23,18,,,,,,,,,,,,,,,3.876753507014028,,,,,,,,,,,1,,,,,,,,,,,,,,1041.0540180000025,1041.0540180000025,1041.0601466000007,1041.0540180000025,1041.0540180000025,1041.264263200006,1041.4141836000053,1045.0585380000048,1045.0585380000048,1045.0585380000048,['k'],[0.44642539999767905],,,,,,,,,,,,,,,,,,,,,,,,,,,,,,,,,,,,,,,,,,,,,,,,,,,,,,,,260020,2024-03-21_12h55.32.531,mfe_c_object,2022.2.4,59.92419589225823,
flanker_main_block_8.csv,img/leftArrow.png,img/rightArrow.png,img/rightArrow.png,8,0,left,"[0, 0]","[0.0385, 0]","[-0.0385, 0]",img/object_images/cards01.jpg,"[0.035, 0.035]",,,,,,,,,,,,,0,2,2,7,0,24,24,29,,,,,,,,,,,,,,,3.6693386773547094,,,,,,,,,,,1,,,,,,,,,,,,,,1045.0585380000048,1045.0585380000048,1045.0646830000042,1045.0585380000048,1045.0585380000048,1045.2684216000052,1045.418223200002,1048.8613283000013,1048.8613283000013,1048.8613283000013,['s'],[0.5463729999974021],,,,,,,,,,,,,,,,,,,,,,,,,,,,,,,,,,,,,,,,,,,,,,,,,,,,,,,,260020,2024-03-21_12h55.32.531,mfe_c_object,2022.2.4,59.92419589225823,
flanker_main_block_8.csv,img/leftArrow.png,img/rightArrow.png,img/rightArrow.png,8,0,left,"[0, 0]","[0.0385, 0]","[-0.0385, 0]",img/object_images/ladle02.jpg,"[0.035, 0.035]",,,,,,,,,,,,,0,2,2,7,0,25,25,21,,,,,,,,,,,,,,,3.6042084168336674,,,,,,,,,,,1,,,,,,,,,,,,,,1048.8613283000013,1048.8613283000013,1048.8674034000069,1048.8613283000013,1048.8613283000013,1049.072023300003,1049.222013700004,1052.6022920000032,1052.6022920000032,1052.6022920000032,['s'],[0.5275502000004053],,,,,,,,,,,,,,,,,,,,,,,,,,,,,,,,,,,,,,,,,,,,,,,,,,,,,,,,260020,2024-03-21_12h55.32.531,mfe_c_object,2022.2.4,59.92419589225823,
flanker_main_block_8.csv,img/rightArrow.png,img/leftArrow.png,img/leftArrow.png,7,0,right,"[0, 0]","[0.0385, 0]","[-0.0385, 0]",img/object_images/rock03.jpg,"[0.035, 0.035]",,,,,,,,,,,,,0,2,2,7,0,26,26,15,,,,,,,,,,,,,,,3.791583166332665,,,,,,,,,,,1,,,,,,,,,,,,,,1052.6022920000032,1052.6022920000032,1052.6088479000027,1052.6022920000032,1052.6022920000032,1052.8092702000067,1052.9592598000017,1056.5448662000053,1056.5448662000053,1056.5448662000053,['k'],[0.5305160999996588],,,,,,,,,,,,,,,,,,,,,,,,,,,,,,,,,,,,,,,,,,,,,,,,,,,,,,,,260020,2024-03-21_12h55.32.531,mfe_c_object,2022.2.4,59.92419589225823,
flanker_main_block_8.csv,img/leftArrow.png,img/leftArrow.png,img/leftArrow.png,6,1,left,"[0, 0]","[0.0385, 0]","[-0.0385, 0]",img/object_images/tool11.jpg,"[0.035, 0.035]",,,,,,,,,,,,,0,2,2,7,0,27,27,17,,,,,,,,,,,,,,,3.7575150300601203,,,,,,,,,,,1,,,,,,,,,,,,,,1056.5448662000053,1056.5448662000053,1056.5448662000053,1056.5448662000053,1056.5448662000053,1056.7464045000015,1056.896347700007,1060.4402327000062,1060.4402327000062,1060.4402327000062,['s'],[0.4281732000017655],,,,,,,,,,,,,,,,,,,,,,,,,,,,,,,,,,,,,,,,,,,,,,,,,,,,,,,,260020,2024-03-21_12h55.32.531,mfe_c_object,2022.2.4,59.92419589225823,
flanker_main_block_8.csv,img/leftArrow.png,img/rightArrow.png,img/rightArrow.png,8,0,left,"[0, 0]","[0.0385, 0]","[-0.0385, 0]",img/object_images/razor01.jpg,"[0.035, 0.035]",,,,,,,,,,,,,0,2,2,7,0,28,28,26,,,,,,,,,,,,,,,3.8547094188376754,,,,,,,,,,,1,,,,,,,,,,,,,,1060.4402327000062,1060.4402327000062,1060.4463528000051,1060.4402327000062,1060.4402327000062,1060.6502629000024,1060.8000879000028,1064.4265822000016,1064.4265822000016,1064.4265822000016,['s'],[0.5406119000035687],,,,,,,,,,,,,,,,,,,,,,,,,,,,,,,,,,,,,,,,,,,,,,,,,,,,,,,,260020,2024-03-21_12h55.32.531,mfe_c_object,2022.2.4,59.92419589225823,
flanker_main_block_8.csv,img/leftArrow.png,img/leftArrow.png,img/leftArrow.png,6,1,left,"[0, 0]","[0.0385, 0]","[-0.0385, 0]",img/object_images/jewelry07.jpg,"[0.035, 0.035]",,,,,,,,,,,,,0,2,2,7,0,29,29,10,,,,,,,,,,,,,,,3.9619238476953904,,,,,,,,,,,1,,,,,,,,,,,,,,1064.4265822000016,1064.4265822000016,1064.4325438000014,1064.4265822000016,1064.4265822000016,1064.637522500001,1064.7874492000046,1068.521146900006,1068.521146900006,1068.521146900006,['s'],[0.44992240000283346],,,,,,,,,,,,,,,,,,,,,,,,,,,,,,,,,,,,,,,,,,,,,,,,,,,,,,,,260020,2024-03-21_12h55.32.531,mfe_c_object,2022.2.4,59.92419589225823,
flanker_main_block_8.csv,img/rightArrow.png,img/leftArrow.png,img/leftArrow.png,7,0,right,"[0, 0]","[0.0385, 0]","[-0.0385, 0]",img/object_images/car03.jpg,"[0.035, 0.035]",,,,,,,,,,,,,0,2,2,7,0,30,30,11,,,,,,,,,,,,,,,3.784569138276553,,,,,,,,,,,1,,,,,,,,,,,,,,1068.521146900006,1068.521146900006,1068.5273529000042,1068.521146900006,1068.521146900006,1068.7417201000062,1068.8749519000048,1072.434238300004,1072.434238300004,1072.434238300004,['k'],[0.5881831000006059],,,,,,,,,,,,,,,,,,,,,,,,,,,,,,,,,,,,,,,,,,,,,,,,,,,,,,,,260020,2024-03-21_12h55.32.531,mfe_c_object,2022.2.4,59.92419589225823,
flanker_main_block_8.csv,img/rightArrow.png,img/rightArrow.png,img/rightArrow.png,5,1,right,"[0, 0]","[0.0385, 0]","[-0.0385, 0]",img/object_images/WitchHat02.jpg,"[0.035, 0.035]",,,,,,,,,,,,,0,2,2,7,0,31,31,4,,,,,,,,,,,,,,,3.905811623246493,,,,,,,,,,,1,,,,,,,,,,,,,,1072.434238300004,1072.434238300004,1072.4402793000045,1072.434238300004,1072.434238300004,1072.6455356000006,1072.7955767000021,1076.350095700007,1076.350095700007,1076.350095700007,['k'],[0.41871549999632407],,,,,,,,,,,,,,,,,,,,,,,,,,,,,,,,,,,,,,,,,,,,,,,,,,,,,,,,260020,2024-03-21_12h55.32.531,mfe_c_object,2022.2.4,59.92419589225823,
flanker_main_block_8.csv,,,,,,,,,,,,,,,,,,,,,,,,0,2,2,7,,,,,,,,,,,,,,,,,,,,,,,,,,,,,,,,,,,,,,,,,,,,,,,,,,,,,,,,2,1076.350095700007,1086.3414805000066,k,0.4709775000010268,,,,,,,,,,,,,,,,,,,,,,,,,,,,,,,,,,,,,,,,,,,,,,,,,,,260020,2024-03-21_12h55.32.531,mfe_c_object,2022.2.4,59.92419589225823,
flanker_main_block_2.csv,img/rightArrow.png,img/rightArrow.png,img/rightArrow.png,5,1,right,"[0, 0]","[0.0385, 0]","[-0.0385, 0]",img/object_images/laptop03.jpg,"[0.035, 0.035]",,,,,,,,,,,,,0,3,3,1,0,0,0,5,,,,,,,,,,,,,,1088.914779000006,3.788577154308617,,,,,,,,,,,1,,,,,,,,,,1086.8421415000048,1086.8421415000048,k,2.041945000004489,1091.080179800003,1091.080179800003,1091.080179800003,1091.080179800003,1091.080179800003,1091.2807660000035,1091.4306506000066,1095.0113785000067,1095.0113785000067,1095.0113785000067,['k'],[0.3726234999994631],,,,,,,,,,,,,,,,,,,,,,,,,,,,,,,,,,,,,,,,,,,,,,,,,,,,,,,,260020,2024-03-21_12h55.32.531,mfe_c_object,2022.2.4,59.92419589225823,
flanker_main_block_2.csv,img/leftArrow.png,img/leftArrow.png,img/leftArrow.png,6,1,left,"[0, 0]","[0.0385, 0]","[-0.0385, 0]",img/object_images/combs01.jpg,"[0.035, 0.035]",,,,,,,,,,,,,0,3,3,1,0,1,1,7,,,,,,,,,,,,,,,3.685370741482966,,,,,,,,,,,0,,,,,,,,,,,,,,1095.0113785000067,1095.0113785000067,1095.0177190000031,1095.0113785000067,1095.0113785000067,1095.2181618000031,1095.3679233000003,1098.8293278000056,1098.8293278000056,1098.8293278000056,"['k', 's']","[0.4495279000038863, 0.568545100002666]",,,,,,,,,,,,,,,,,,,,,,,,,,,,,,,,,,,,,,,,,,,,,,,,,,,,,,,,260020,2024-03-21_12h55.32.531,mfe_c_object,2022.2.4,59.92419589225823,
flanker_main_block_2.csv,img/leftArrow.png,img/leftArrow.png,img/leftArrow.png,6,1,left,"[0, 0]","[0.0385, 0]","[-0.0385, 0]",img/object_images/spatula02.jpg,"[0.035, 0.035]",,,,,,,,,,,,,0,3,3,1,0,2,2,12,,,,,,,,,,,,,,,3.749498997995992,,,,,,,,,,,1,,,,,,,,,,,,,,1098.8293278000056,1098.8293278000056,1098.835430500003,1098.8293278000056,1098.8293278000056,1099.0384948000064,1099.188369800002,1102.7271196000002,1102.7271196000002,1102.7271196000002,['s'],[0.43152099999861093],,,,,,,,,,,,,,,,,,,,,,,,,,,,,,,,,,,,,,,,,,,,,,,,,,,,,,,,260020,2024-03-21_12h55.32.531,mfe_c_object,2022.2.4,59.92419589225823,
flanker_main_block_2.csv,img/rightArrow.png,img/rightArrow.png,img/rightArrow.png,5,1,right,"[0, 0]","[0.0385, 0]","[-0.0385, 0]",img/object_images/calculator01.jpg,"[0.035, 0.035]",,,,,,,,,,,,,0,3,3,1,0,3,3,14,,,,,,,,,,,,,,,3.743486973947896,,,,,,,,,,,1,,,,,,,,,,,,,,1102.7271196000002,1102.7271196000002,1102.7271196000002,1102.7271196000002,1102.7271196000002,1102.9426649000015,1103.0925893000021,1106.6054802000072,1106.6054802000072,1106.6054802000072,['k'],[0.3171119000035105],,,,,,,,,,,,,,,,,,,,,,,,,,,,,,,,,,,,,,,,,,,,,,,,,,,,,,,,260020,2024-03-21_12h55.32.531,mfe_c_object,2022.2.4,59.92419589225823,
flanker_main_block_2.csv,img/leftArrow.png,img/rightArrow.png,img/rightArrow.png,8,0,left,"[0, 0]","[0.0385, 0]","[-0.0385, 0]",img/object_images/fan04.jpg,"[0.035, 0.035]",,,,,,,,,,,,,0,3,3,1,0,4,4,9,,,,,,,,,,,,,,,3.8216432865731464,,,,,,,,,,,1,,,,,,,,,,,,,,1106.6054802000072,1106.6054802000072,1106.6124004000012,1106.6054802000072,1106.6054802000072,1106.8130611000015,1106.963158300001,1110.559566200005,1110.559566200005,1110.559566200005,['s'],[0.5026251999952365],,,,,,,,,,,,,,,,,,,,,,,,,,,,,,,,,,,,,,,,,,,,,,,,,,,,,,,,260020,2024-03-21_12h55.32.531,mfe_c_object,2022.2.4,59.92419589225823,
flanker_main_block_2.csv,img/rightArrow.png,img/leftArrow.png,img/leftArrow.png,7,0,right,"[0, 0]","[0.0385, 0]","[-0.0385, 0]",img/object_images/Vest02.jpg,"[0.035, 0.035]",,,,,,,,,,,,,0,3,3,1,0,5,5,30,,,,,,,,,,,,,,,3.7805611222444893,,,,,,,,,,,1,,,,,,,,,,,,,,1110.559566200005,1110.559566200005,1110.566065100007,1110.559566200005,1110.559566200005,1110.766897100002,1110.9169810000021,1114.4812157000051,1114.4812157000051,1114.4812157000051,['k'],[0.41313899999659043],,,,,,,,,,,,,,,,,,,,,,,,,,,,,,,,,,,,,,,,,,,,,,,,,,,,,,,,260020,2024-03-21_12h55.32.531,mfe_c_object,2022.2.4,59.92419589225823,
flanker_main_block_2.csv,img/leftArrow.png,img/leftArrow.png,img/leftArrow.png,6,1,left,"[0, 0]","[0.0385, 0]","[-0.0385, 0]",img/object_images/microphone03.jpg,"[0.035, 0.035]",,,,,,,,,,,,,0,3,3,1,0,6,6,21,,,,,,,,,,,,,,,3.729458917835671,,,,,,,,,,,1,,,,,,,,,,,,,,1114.4812157000051,1114.4812157000051,1114.4877761000025,1114.4812157000051,1114.4812157000051,1114.6875721000033,1114.8373734000052,1118.3510141000006,1118.3510141000006,1118.3510141000006,['s'],[0.3390595000018948],,,,,,,,,,,,,,,,,,,,,,,,,,,,,,,,,,,,,,,,,,,,,,,,,,,,,,,,260020,2024-03-21_12h55.32.531,mfe_c_object,2022.2.4,59.92419589225823,
flanker_main_block_2.csv,img/leftArrow.png,img/rightArrow.png,img/rightArrow.png,8,0,left,"[0, 0]","[0.0385, 0]","[-0.0385, 0]",img/object_images/towels01.jpg,"[0.035, 0.035]",,,,,,,,,,,,,0,3,3,1,0,7,7,6,,,,,,,,,,,,,,,3.990981963927856,,,,,,,,,,,0,,,,,,,,,,,,,,1118.3510141000006,1118.3510141000006,1118.3576974000025,1118.3510141000006,1118.3510141000006,1118.5583564000044,1118.7082769000044,1122.4710324000043,1122.4710324000043,1122.4710324000043,['k'],[0.22964969999884488],,,,,,,,,,,,,,,,,,,,,,,,,,,,,,,,,,,,,,,,,,,,,,,,,,,,,,,,260020,2024-03-21_12h55.32.531,mfe_c_object,2022.2.4,59.92419589225823,
flanker_main_block_2.csv,img/leftArrow.png,img/rightArrow.png,img/rightArrow.png,8,0,left,"[0, 0]","[0.0385, 0]","[-0.0385, 0]",img/object_images/chess_piece01.jpg,"[0.035, 0.035]",,,,,,,,,,,,,0,3,3,1,0,8,8,8,,,,,,,,,,,,,,,3.5330661322645294,,,,,,,,,,,1,,,,,,,,,,,,,,1122.4710324000043,1122.4710324000043,1122.4889185000065,1122.4710324000043,1122.4710324000043,1122.6954197000014,1122.8288134000031,1126.1383975000062,1126.1383975000062,1126.1383975000062,['s'],[0.3976626999938162],,,,,,,,,,,,,,,,,,,,,,,,,,,,,,,,,,,,,,,,,,,,,,,,,,,,,,,,260020,2024-03-21_12h55.32.531,mfe_c_object,2022.2.4,59.92419589225823,
flanker_main_block_2.csv,img/leftArrow.png,img/leftArrow.png,img/leftArrow.png,6,1,left,"[0, 0]","[0.0385, 0]","[-0.0385, 0]",img/object_images/ball02.jpg,"[0.035, 0.035]",,,,,,,,,,,,,0,3,3,1,0,9,9,16,,,,,,,,,,,,,,,3.965931863727455,,,,,,,,,,,1,,,,,,,,,,,,,,1126.1383975000062,1126.1383975000062,1126.1444437000027,1126.1383975000062,1126.1383975000062,1126.349249400002,1126.4990700000053,1130.2405922000034,1130.2405922000034,1130.2405922000034,['s'],[0.37920159999339376],,,,,,,,,,,,,,,,,,,,,,,,,,,,,,,,,,,,,,,,,,,,,,,,,,,,,,,,260020,2024-03-21_12h55.32.531,mfe_c_object,2022.2.4,59.92419589225823,
flanker_main_block_2.csv,img/rightArrow.png,img/rightArrow.png,img/rightArrow.png,5,1,right,"[0, 0]","[0.0385, 0]","[-0.0385, 0]",img/object_images/trash_can05.jpg,"[0.035, 0.035]",,,,,,,,,,,,,0,3,3,1,0,10,10,19,,,,,,,,,,,,,,,3.663326653306613,,,,,,,,,,,1,,,,,,,,,,,,,,1130.2405922000034,1130.2405922000034,1130.246470900005,1130.2405922000034,1130.2405922000034,1130.453331100005,1130.6030933000002,1134.0303950000016,1134.0303950000016,1134.0303950000016,['k'],[0.31562149999808753],,,,,,,,,,,,,,,,,,,,,,,,,,,,,,,,,,,,,,,,,,,,,,,,,,,,,,,,260020,2024-03-21_12h55.32.531,mfe_c_object,2022.2.4,59.92419589225823,
flanker_main_block_2.csv,img/leftArrow.png,img/rightArrow.png,img/rightArrow.png,8,0,left,"[0, 0]","[0.0385, 0]","[-0.0385, 0]",img/object_images/laptop01.jpg,"[0.035, 0.035]",,,,,,,,,,,,,0,3,3,1,0,11,11,11,,,,,,,,,,,,,,,3.651302605210421,,,,,,,,,,,1,,,,,,,,,,,,,,1134.0303950000016,1134.0303950000016,1134.0363110000035,1134.0303950000016,1134.0303950000016,1134.240279800004,1134.3903010000067,1137.8245143000022,1137.8245143000022,1137.8245143000022,['s'],[0.4704446999967331],,,,,,,,,,,,,,,,,,,,,,,,,,,,,,,,,,,,,,,,,,,,,,,,,,,,,,,,260020,2024-03-21_12h55.32.531,mfe_c_object,2022.2.4,59.92419589225823,
flanker_main_block_2.csv,img/rightArrow.png,img/rightArrow.png,img/rightArrow.png,5,1,right,"[0, 0]","[0.0385, 0]","[-0.0385, 0]",img/object_images/trash_can03.jpg,"[0.035, 0.035]",,,,,,,,,,,,,0,3,3,1,0,12,12,1,,,,,,,,,,,,,,,3.848697394789579,,,,,,,,,,,1,,,,,,,,,,,,,,1137.8245143000022,1137.8245143000022,1137.8245143000022,1137.8245143000022,1137.8245143000022,1138.0278356000053,1138.1774266000066,1141.8068061000013,1141.8068061000013,1141.8068061000013,['k'],[0.32424350000655977],,,,,,,,,,,,,,,,,,,,,,,,,,,,,,,,,,,,,,,,,,,,,,,,,,,,,,,,260020,2024-03-21_12h55.32.531,mfe_c_object,2022.2.4,59.92419589225823,
flanker_main_block_2.csv,img/rightArrow.png,img/rightArrow.png,img/rightArrow.png,5,1,right,"[0, 0]","[0.0385, 0]","[-0.0385, 0]",img/object_images/chair02.jpg,"[0.035, 0.035]",,,,,,,,,,,,,0,3,3,1,0,13,13,13,,,,,,,,,,,,,,,3.618236472945892,,,,,,,,,,,1,,,,,,,,,,,,,,1141.8068061000013,1141.8068061000013,1141.8130518000034,1141.8068061000013,1141.8068061000013,1142.0148160000026,1142.1647849,1145.5788993000024,1145.5788993000024,1145.5788993000024,['k'],[0.46101260000432376],,,,,,,,,,,,,,,,,,,,,,,,,,,,,,,,,,,,,,,,,,,,,,,,,,,,,,,,260020,2024-03-21_12h55.32.531,mfe_c_object,2022.2.4,59.92419589225823,
flanker_main_block_2.csv,img/leftArrow.png,img/rightArrow.png,img/rightArrow.png,8,0,left,"[0, 0]","[0.0385, 0]","[-0.0385, 0]",img/object_images/pitcher05.jpg,"[0.035, 0.035]",,,,,,,,,,,,,0,3,3,1,0,14,14,18,,,,,,,,,,,,,,,3.920841683366733,,,,,,,,,,,1,,,,,,,,,,,,,,1145.5788993000024,1145.5788993000024,1145.5788993000024,1145.5788993000024,1145.5788993000024,1145.7852749000012,1145.9350137000001,1149.6286097000047,1149.6286097000047,1149.6286097000047,['s'],[0.47401549999631243],,,,,,,,,,,,,,,,,,,,,,,,,,,,,,,,,,,,,,,,,,,,,,,,,,,,,,,,260020,2024-03-21_12h55.32.531,mfe_c_object,2022.2.4,59.92419589225823,
flanker_main_block_2.csv,img/rightArrow.png,img/rightArrow.png,img/rightArrow.png,5,1,right,"[0, 0]","[0.0385, 0]","[-0.0385, 0]",img/object_images/jewel03.jpg,"[0.035, 0.035]",,,,,,,,,,,,,0,3,3,1,0,15,15,31,,,,,,,,,,,,,,,3.7404809619238475,,,,,,,,,,,1,,,,,,,,,,,,,,1149.6286097000047,1149.6286097000047,1149.634722200004,1149.6286097000047,1149.6286097000047,1149.8392358000056,1149.989258200003,1153.5005665000062,1153.5005665000062,1153.5005665000062,['k'],[0.39180669999768725],,,,,,,,,,,,,,,,,,,,,,,,,,,,,,,,,,,,,,,,,,,,,,,,,,,,,,,,260020,2024-03-21_12h55.32.531,mfe_c_object,2022.2.4,59.92419589225823,
flanker_main_block_2.csv,img/leftArrow.png,img/leftArrow.png,img/leftArrow.png,6,1,left,"[0, 0]","[0.0385, 0]","[-0.0385, 0]",img/object_images/bucket02.jpg,"[0.035, 0.035]",,,,,,,,,,,,,0,3,3,1,0,16,16,17,,,,,,,,,,,,,,,3.7965931863727453,,,,,,,,,,,1,,,,,,,,,,,,,,1153.5005665000062,1153.5005665000062,1153.506837800007,1153.5005665000062,1153.5005665000062,1153.7095314000035,1153.8597346000024,1157.416303500002,1157.416303500002,1157.416303500002,['s'],[0.3837645000021439],,,,,,,,,,,,,,,,,,,,,,,,,,,,,,,,,,,,,,,,,,,,,,,,,,,,,,,,260020,2024-03-21_12h55.32.531,mfe_c_object,2022.2.4,59.92419589225823,
flanker_main_block_2.csv,img/rightArrow.png,img/leftArrow.png,img/leftArrow.png,7,0,right,"[0, 0]","[0.0385, 0]","[-0.0385, 0]",img/object_images/toy05.jpg,"[0.035, 0.035]",,,,,,,,,,,,,0,3,3,1,0,17,17,22,,,,,,,,,,,,,,,3.8076152304609217,,,,,,,,,,,0,,,,,,,,,,,,,,1157.416303500002,1157.416303500002,1157.422218300002,1157.416303500002,1157.416303500002,1157.6303034000011,1157.7803742000033,1161.360285200004,1161.360285200004,1161.360285200004,['s'],[0.38136320000194246],,,,,,,,,,,,,,,,,,,,,,,,,,,,,,,,,,,,,,,,,,,,,,,,,,,,,,,,260020,2024-03-21_12h55.32.531,mfe_c_object,2022.2.4,59.92419589225823,
flanker_main_block_2.csv,img/leftArrow.png,img/leftArrow.png,img/leftArrow.png,6,1,left,"[0, 0]","[0.0385, 0]","[-0.0385, 0]",img/object_images/surf_board01.jpg,"[0.035, 0.035]",,,,,,,,,,,,,0,3,3,1,0,18,18,23,,,,,,,,,,,,,,,3.6523046092184366,,,,,,,,,,,1,,,,,,,,,,,,,,1161.360285200004,1161.360285200004,1161.3668599000011,1161.360285200004,1161.360285200004,1161.5677094000057,1161.7175678000058,1165.1680581000037,1165.1680581000037,1165.1680581000037,['s'],[0.4924096999966423],,,,,,,,,,,,,,,,,,,,,,,,,,,,,,,,,,,,,,,,,,,,,,,,,,,,,,,,260020,2024-03-21_12h55.32.531,mfe_c_object,2022.2.4,59.92419589225823,
flanker_main_block_2.csv,img/leftArrow.png,img/rightArrow.png,img/rightArrow.png,8,0,left,"[0, 0]","[0.0385, 0]","[-0.0385, 0]",img/object_images/Lint_Roller02.jpg,"[0.035, 0.035]",,,,,,,,,,,,,0,3,3,1,0,19,19,2,,,,,,,,,,,,,,,3.6623246492985975,,,,,,,,,,,1,,,,,,,,,,,,,,1165.1680581000037,1165.1680581000037,1165.1680581000037,1165.1680581000037,1165.1680581000037,1165.3714692000067,1165.521386100001,1168.9855258000025,1168.9855258000025,1168.9855258000025,['s'],[0.5247378999993089],,,,,,,,,,,,,,,,,,,,,,,,,,,,,,,,,,,,,,,,,,,,,,,,,,,,,,,,260020,2024-03-21_12h55.32.531,mfe_c_object,2022.2.4,59.92419589225823,
flanker_main_block_2.csv,img/leftArrow.png,img/leftArrow.png,img/leftArrow.png,6,1,left,"[0, 0]","[0.0385, 0]","[-0.0385, 0]",img/object_images/accardion01.jpg,"[0.035, 0.035]",,,,,,,,,,,,,0,3,3,1,0,20,20,4,,,,,,,,,,,,,,,3.8156312625250504,,,,,,,,,,,1,,,,,,,,,,,,,,1168.9855258000025,1168.9855258000025,1168.9855258000025,1168.9855258000025,1168.9855258000025,1169.1919787000006,1169.3420029000044,1172.9884626000057,1172.9884626000057,1172.9884626000057,['s'],[0.4352587000030326],,,,,,,,,,,,,,,,,,,,,,,,,,,,,,,,,,,,,,,,,,,,,,,,,,,,,,,,260020,2024-03-21_12h55.32.531,mfe_c_object,2022.2.4,59.92419589225823,
flanker_main_block_2.csv,img/rightArrow.png,img/leftArrow.png,img/leftArrow.png,7,0,right,"[0, 0]","[0.0385, 0]","[-0.0385, 0]",img/object_images/gift_box05.jpg,"[0.035, 0.035]",,,,,,,,,,,,,0,3,3,1,0,21,21,15,,,,,,,,,,,,,,,3.504008016032064,,,,,,,,,,,1,,,,,,,,,,,,,,1172.9884626000057,1172.9884626000057,1172.9884626000057,1172.9884626000057,1172.9884626000057,1173.1959552000044,1173.3456614000024,1176.620753700001,1176.620753700001,1176.620753700001,['k'],[0.3926988999955938],,,,,,,,,,,,,,,,,,,,,,,,,,,,,,,,,,,,,,,,,,,,,,,,,,,,,,,,260020,2024-03-21_12h55.32.531,mfe_c_object,2022.2.4,59.92419589225823,
flanker_main_block_2.csv,img/leftArrow.png,img/leftArrow.png,img/leftArrow.png,6,1,left,"[0, 0]","[0.0385, 0]","[-0.0385, 0]",img/object_images/backpack03.jpg,"[0.035, 0.035]",,,,,,,,,,,,,0,3,3,1,0,22,22,26,,,,,,,,,,,,,,,3.6833667334669338,,,,,,,,,,,1,,,,,,,,,,,,,,1176.620753700001,1176.620753700001,1176.626730200005,1176.620753700001,1176.620753700001,1176.832836900001,1176.9831088000064,1180.443821300003,1180.443821300003,1180.443821300003,['s'],[0.3603048000004492],,,,,,,,,,,,,,,,,,,,,,,,,,,,,,,,,,,,,,,,,,,,,,,,,,,,,,,,260020,2024-03-21_12h55.32.531,mfe_c_object,2022.2.4,59.92419589225823,
flanker_main_block_2.csv,img/leftArrow.png,img/rightArrow.png,img/rightArrow.png,8,0,left,"[0, 0]","[0.0385, 0]","[-0.0385, 0]",img/object_images/stove01.jpg,"[0.035, 0.035]",,,,,,,,,,,,,0,3,3,1,0,23,23,27,,,,,,,,,,,,,,,3.5100200400801604,,,,,,,,,,,0,,,,,,,,,,,,,,1180.443821300003,1180.443821300003,1180.4501347000041,1180.443821300003,1180.443821300003,1180.653285100001,1180.803274100006,1184.0843514000007,1184.0843514000007,1184.0843514000007,['k'],[0.33691360000375425],,,,,,,,,,,,,,,,,,,,,,,,,,,,,,,,,,,,,,,,,,,,,,,,,,,,,,,,260020,2024-03-21_12h55.32.531,mfe_c_object,2022.2.4,59.92419589225823,
flanker_main_block_2.csv,img/rightArrow.png,img/rightArrow.png,img/rightArrow.png,5,1,right,"[0, 0]","[0.0385, 0]","[-0.0385, 0]",img/object_images/robe01.jpg,"[0.035, 0.035]",,,,,,,,,,,,,0,3,3,1,0,24,24,28,,,,,,,,,,,,,,,3.6923847695390783,,,,,,,,,,,1,,,,,,,,,,,,,,1184.0843514000007,1184.0843514000007,1184.0904522000055,1184.0843514000007,1184.0843514000007,1184.2902648000018,1184.4402284000025,1187.9023461000033,1187.9023461000033,1187.9023461000033,['k'],[0.4641282000011415],,,,,,,,,,,,,,,,,,,,,,,,,,,,,,,,,,,,,,,,,,,,,,,,,,,,,,,,260020,2024-03-21_12h55.32.531,mfe_c_object,2022.2.4,59.92419589225823,
flanker_main_block_2.csv,img/rightArrow.png,img/leftArrow.png,img/leftArrow.png,7,0,right,"[0, 0]","[0.0385, 0]","[-0.0385, 0]",img/object_images/hair_brush02.jpg,"[0.035, 0.035]",,,,,,,,,,,,,0,3,3,1,0,25,25,0,,,,,,,,,,,,,,,3.9879759519038074,,,,,,,,,,,1,,,,,,,,,,,,,,1187.9023461000033,1187.9023461000033,1187.9086659000022,1187.9023461000033,1187.9023461000033,1188.110715900002,1188.2606875000056,1192.046951000004,1192.046951000004,1192.046951000004,['k'],[0.6294657000034931],,,,,,,,,,,,,,,,,,,,,,,,,,,,,,,,,,,,,,,,,,,,,,,,,,,,,,,,260020,2024-03-21_12h55.32.531,mfe_c_object,2022.2.4,59.92419589225823,
flanker_main_block_2.csv,img/rightArrow.png,img/leftArrow.png,img/leftArrow.png,7,0,right,"[0, 0]","[0.0385, 0]","[-0.0385, 0]",img/object_images/vase01.jpg,"[0.035, 0.035]",,,,,,,,,,,,,0,3,3,1,0,26,26,10,,,,,,,,,,,,,,,3.773547094188377,,,,,,,,,,,0,,,,,,,,,,,,,,1192.046951000004,1192.046951000004,1192.046951000004,1192.046951000004,1192.046951000004,1192.248179000002,1192.3980061000038,1195.9578784000041,1195.9578784000041,1195.9578784000041,"['s', 'k']","[0.4532130000006873, 0.5252314999961527]",,,,,,,,,,,,,,,,,,,,,,,,,,,,,,,,,,,,,,,,,,,,,,,,,,,,,,,,260020,2024-03-21_12h55.32.531,mfe_c_object,2022.2.4,59.92419589225823,
flanker_main_block_2.csv,img/rightArrow.png,img/leftArrow.png,img/leftArrow.png,7,0,right,"[0, 0]","[0.0385, 0]","[-0.0385, 0]",img/object_images/umbrella01.jpg,"[0.035, 0.035]",,,,,,,,,,,,,0,3,3,1,0,27,27,29,,,,,,,,,,,,,,,3.7805611222444893,,,,,,,,,,,1,,,,,,,,,,,,,,1195.9578784000041,1195.9578784000041,1195.9638199000037,1195.9578784000041,1195.9578784000041,1196.1687121000068,1196.3186926000053,1199.8592963000046,1199.8592963000046,1199.8592963000046,['k'],[0.43880959999660263],,,,,,,,,,,,,,,,,,,,,,,,,,,,,,,,,,,,,,,,,,,,,,,,,,,,,,,,260020,2024-03-21_12h55.32.531,mfe_c_object,2022.2.4,59.92419589225823,
flanker_main_block_2.csv,img/rightArrow.png,img/leftArrow.png,img/leftArrow.png,7,0,right,"[0, 0]","[0.0385, 0]","[-0.0385, 0]",img/object_images/helmet02.jpg,"[0.035, 0.035]",,,,,,,,,,,,,0,3,3,1,0,28,28,20,,,,,,,,,,,,,,,3.9498997995991987,,,,,,,,,,,1,,,,,,,,,,,,,,1199.8592963000046,1199.8592963000046,1199.8652923000045,1199.8592963000046,1199.8592963000046,1200.0726582000061,1200.2227940000012,1203.936073500001,1203.936073500001,1203.936073500001,['k'],[0.441206700001203],,,,,,,,,,,,,,,,,,,,,,,,,,,,,,,,,,,,,,,,,,,,,,,,,,,,,,,,260020,2024-03-21_12h55.32.531,mfe_c_object,2022.2.4,59.92419589225823,
flanker_main_block_2.csv,img/leftArrow.png,img/rightArrow.png,img/rightArrow.png,8,0,left,"[0, 0]","[0.0385, 0]","[-0.0385, 0]",img/object_images/hair_dryer01.jpg,"[0.035, 0.035]",,,,,,,,,,,,,0,3,3,1,0,29,29,25,,,,,,,,,,,,,,,3.9629258517034067,,,,,,,,,,,0,,,,,,,,,,,,,,1203.936073500001,1203.936073500001,1203.9422707000049,1203.936073500001,1203.936073500001,1204.143407100004,1204.293292500006,1208.0390886000023,1208.0390886000023,1208.0390886000023,['k'],[0.3801201999958721],,,,,,,,,,,,,,,,,,,,,,,,,,,,,,,,,,,,,,,,,,,,,,,,,,,,,,,,260020,2024-03-21_12h55.32.531,mfe_c_object,2022.2.4,59.92419589225823,
flanker_main_block_2.csv,img/rightArrow.png,img/leftArrow.png,img/leftArrow.png,7,0,right,"[0, 0]","[0.0385, 0]","[-0.0385, 0]",img/object_images/lock01.jpg,"[0.035, 0.035]",,,,,,,,,,,,,0,3,3,1,0,30,30,3,,,,,,,,,,,,,,,3.8607214428857715,,,,,,,,,,,1,,,,,,,,,,,,,,1208.0390886000023,1208.0390886000023,1208.045548400005,1208.0390886000023,1208.0390886000023,1208.247452800002,1208.3975456000044,1212.027246800004,1212.027246800004,1212.027246800004,['k'],[0.4611963999996078],,,,,,,,,,,,,,,,,,,,,,,,,,,,,,,,,,,,,,,,,,,,,,,,,,,,,,,,260020,2024-03-21_12h55.32.531,mfe_c_object,2022.2.4,59.92419589225823,
flanker_main_block_2.csv,img/rightArrow.png,img/rightArrow.png,img/rightArrow.png,5,1,right,"[0, 0]","[0.0385, 0]","[-0.0385, 0]",img/object_images/shoes08.jpg,"[0.035, 0.035]",,,,,,,,,,,,,0,3,3,1,0,31,31,24,,,,,,,,,,,,,,,3.6963927855711423,,,,,,,,,,,1,,,,,,,,,,,,,,1212.027246800004,1212.027246800004,1212.0454868000015,1212.027246800004,1212.027246800004,1212.2515248000054,1212.384765600007,1215.7370545000012,1215.7370545000012,1215.7370545000012,['k'],[0.37762640000437386],,,,,,,,,,,,,,,,,,,,,,,,,,,,,,,,,,,,,,,,,,,,,,,,,,,,,,,,260020,2024-03-21_12h55.32.531,mfe_c_object,2022.2.4,59.92419589225823,
flanker_main_block_2.csv,,,,,,,,,,,,,,,,,,,,,,,,0,3,3,1,,,,,,,,,,,,,,,,,,,,,,,,,,,,,,,,,,,,,,,,,,,,,,,,,,,,,,,,1,1215.7370545000012,1225.7303044,k,0.3058895000067423,,,,,,,,,,,,,,,,,,,,,,,,,,,,,,,,,,,,,,,,,,,,,,,,,,,260020,2024-03-21_12h55.32.531,mfe_c_object,2022.2.4,59.92419589225823,
flanker_main_block_5.csv,img/rightArrow.png,img/leftArrow.png,img/leftArrow.png,7,0,right,"[0, 0]","[0.0385, 0]","[-0.0385, 0]",img/object_images/piano03.jpg,"[0.035, 0.035]",,,,,,,,,,,,,0,4,4,4,0,0,0,18,,,,,,,,,,,,,,1227.6536282000015,3.812625250501002,,,,,,,,,,,0,,,,,,,,,,1226.0643289000072,1226.0643289000072,k,1.5568770000027143,1229.8271541000067,1229.8271541000067,1229.8271541000067,1229.8271541000067,1229.8271541000067,1230.035842300007,1230.1857925000004,1233.7601722000036,1233.7601722000036,1233.7601722000036,"['s', 'k']","[0.47304280000389554, 0.5854798000000301]",,,,,,,,,,,,,,,,,,,,,,,,,,,,,,,,,,,,,,,,,,,,,,,,,,,,,,,,260020,2024-03-21_12h55.32.531,mfe_c_object,2022.2.4,59.92419589225823,
flanker_main_block_5.csv,img/rightArrow.png,img/rightArrow.png,img/rightArrow.png,5,1,right,"[0, 0]","[0.0385, 0]","[-0.0385, 0]",img/object_images/tennis_racket01.jpg,"[0.035, 0.035]",,,,,,,,,,,,,0,4,4,4,0,1,1,22,,,,,,,,,,,,,,,3.7635270541082164,,,,,,,,,,,1,,,,,,,,,,,,,,1233.7601722000036,1233.7601722000036,1233.7661926,1233.7601722000036,1233.7601722000036,1233.9730971000026,1234.1230857000046,1237.6517097000033,1237.6517097000033,1237.6517097000033,['k'],[0.42016220000368776],,,,,,,,,,,,,,,,,,,,,,,,,,,,,,,,,,,,,,,,,,,,,,,,,,,,,,,,260020,2024-03-21_12h55.32.531,mfe_c_object,2022.2.4,59.92419589225823,
flanker_main_block_5.csv,img/rightArrow.png,img/rightArrow.png,img/rightArrow.png,5,1,right,"[0, 0]","[0.0385, 0]","[-0.0385, 0]",img/object_images/Safe01.jpg,"[0.035, 0.035]",,,,,,,,,,,,,0,4,4,4,0,2,2,29,,,,,,,,,,,,,,,3.7545090180360723,,,,,,,,,,,1,,,,,,,,,,,,,,1237.6517097000033,1237.6517097000033,1237.6647791000069,1237.6517097000033,1237.6517097000033,1237.8773964000065,1238.0102298000056,1241.5323704000039,1241.5323704000039,1241.5323704000039,['k'],[0.3603233000030741],,,,,,,,,,,,,,,,,,,,,,,,,,,,,,,,,,,,,,,,,,,,,,,,,,,,,,,,260020,2024-03-21_12h55.32.531,mfe_c_object,2022.2.4,59.92419589225823,
flanker_main_block_5.csv,img/leftArrow.png,img/rightArrow.png,img/rightArrow.png,8,0,left,"[0, 0]","[0.0385, 0]","[-0.0385, 0]",img/object_images/yoga_mat01.jpg,"[0.035, 0.035]",,,,,,,,,,,,,0,4,4,4,0,3,3,28,,,,,,,,,,,,,,,3.791583166332665,,,,,,,,,,,1,,,,,,,,,,,,,,1241.5323704000039,1241.5323704000039,1241.5383468,1241.5323704000039,1241.5323704000039,1241.7474790000051,1241.8974378000057,1245.4541974000022,1245.4541974000022,1245.4541974000022,['s'],[0.48750809999910416],,,,,,,,,,,,,,,,,,,,,,,,,,,,,,,,,,,,,,,,,,,,,,,,,,,,,,,,260020,2024-03-21_12h55.32.531,mfe_c_object,2022.2.4,59.92419589225823,
flanker_main_block_5.csv,img/rightArrow.png,img/leftArrow.png,img/leftArrow.png,7,0,right,"[0, 0]","[0.0385, 0]","[-0.0385, 0]",img/object_images/usb03.jpg,"[0.035, 0.035]",,,,,,,,,,,,,0,4,4,4,0,4,4,13,,,,,,,,,,,,,,,3.661322645290581,,,,,,,,,,,0,,,,,,,,,,,,,,1245.4541974000022,1245.4541974000022,1245.4604465000011,1245.4541974000022,1245.4541974000022,1245.6680260000066,1245.817899900001,1249.267764300006,1249.267764300006,1249.267764300006,['s'],[0.47012630000244826],,,,,,,,,,,,,,,,,,,,,,,,,,,,,,,,,,,,,,,,,,,,,,,,,,,,,,,,260020,2024-03-21_12h55.32.531,mfe_c_object,2022.2.4,59.92419589225823,
flanker_main_block_5.csv,img/rightArrow.png,img/leftArrow.png,img/leftArrow.png,7,0,right,"[0, 0]","[0.0385, 0]","[-0.0385, 0]",img/object_images/scale02.jpg,"[0.035, 0.035]",,,,,,,,,,,,,0,4,4,4,0,5,5,25,,,,,,,,,,,,,,,3.7935871743486973,,,,,,,,,,,1,,,,,,,,,,,,,,1249.267764300006,1249.267764300006,1249.267764300006,1249.267764300006,1249.267764300006,1249.4719369000013,1249.6219490000003,1253.199261700007,1253.199261700007,1253.199261700007,['k'],[0.40892929999972694],,,,,,,,,,,,,,,,,,,,,,,,,,,,,,,,,,,,,,,,,,,,,,,,,,,,,,,,260020,2024-03-21_12h55.32.531,mfe_c_object,2022.2.4,59.92419589225823,
flanker_main_block_5.csv,img/leftArrow.png,img/rightArrow.png,img/rightArrow.png,8,0,left,"[0, 0]","[0.0385, 0]","[-0.0385, 0]",img/object_images/trumpet01.jpg,"[0.035, 0.035]",,,,,,,,,,,,,0,4,4,4,0,6,6,8,,,,,,,,,,,,,,,3.907815631262525,,,,,,,,,,,0,,,,,,,,,,,,,,1253.199261700007,1253.199261700007,1253.2051788000026,1253.199261700007,1253.199261700007,1253.4091172000044,1253.5591935000048,1257.2400631000055,1257.2400631000055,1257.2400631000055,['k'],[0.38100850000046194],,,,,,,,,,,,,,,,,,,,,,,,,,,,,,,,,,,,,,,,,,,,,,,,,,,,,,,,260020,2024-03-21_12h55.32.531,mfe_c_object,2022.2.4,59.92419589225823,
flanker_main_block_5.csv,img/leftArrow.png,img/leftArrow.png,img/leftArrow.png,6,1,left,"[0, 0]","[0.0385, 0]","[-0.0385, 0]",img/object_images/joystick03.jpg,"[0.035, 0.035]",,,,,,,,,,,,,0,4,4,4,0,7,7,11,,,,,,,,,,,,,,,3.6953907815631264,,,,,,,,,,,1,,,,,,,,,,,,,,1257.2400631000055,1257.2400631000055,1257.2461945000032,1257.2400631000055,1257.2400631000055,1257.4464928000016,1257.5963934000029,1261.093571700003,1261.093571700003,1261.093571700003,['s'],[0.4280706999998074],,,,,,,,,,,,,,,,,,,,,,,,,,,,,,,,,,,,,,,,,,,,,,,,,,,,,,,,260020,2024-03-21_12h55.32.531,mfe_c_object,2022.2.4,59.92419589225823,
flanker_main_block_5.csv,img/rightArrow.png,img/rightArrow.png,img/rightArrow.png,5,1,right,"[0, 0]","[0.0385, 0]","[-0.0385, 0]",img/object_images/phone04.jpg,"[0.035, 0.035]",,,,,,,,,,,,,0,4,4,4,0,8,8,12,,,,,,,,,,,,,,,3.8266533066132267,,,,,,,,,,,1,,,,,,,,,,,,,,1261.093571700003,1261.093571700003,1261.093571700003,1261.093571700003,1261.093571700003,1261.3003027000013,1261.4502763000055,1265.0432204000026,1265.0432204000026,1265.0432204000026,['k'],[0.3920157999964431],,,,,,,,,,,,,,,,,,,,,,,,,,,,,,,,,,,,,,,,,,,,,,,,,,,,,,,,260020,2024-03-21_12h55.32.531,mfe_c_object,2022.2.4,59.92419589225823,
flanker_main_block_5.csv,img/rightArrow.png,img/rightArrow.png,img/rightArrow.png,5,1,right,"[0, 0]","[0.0385, 0]","[-0.0385, 0]",img/object_images/bucket01.jpg,"[0.035, 0.035]",,,,,,,,,,,,,0,4,4,4,0,9,9,5,,,,,,,,,,,,,,,3.7945891783567136,,,,,,,,,,,1,,,,,,,,,,,,,,1265.0432204000026,1265.0432204000026,1265.0493090000018,1265.0432204000026,1265.0432204000026,1265.2544331000026,1265.4042701000071,1268.963355400003,1268.963355400003,1268.963355400003,['k'],[0.6496332000024267],,,,,,,,,,,,,,,,,,,,,,,,,,,,,,,,,,,,,,,,,,,,,,,,,,,,,,,,260020,2024-03-21_12h55.32.531,mfe_c_object,2022.2.4,59.92419589225823,
