whichBlock,middleStim,leftStim,rightStim,stimNum,congruent,target,locationC,locationR,locationL,straightObj,imageSize,whichSurpriseBlock,old_object_in_surp,new_object_in_surp,which_side_old_object_displayed,prac_block_loop.thisRepN,prac_block_loop.thisTrialN,prac_block_loop.thisN,prac_block_loop.thisIndex,prac_trial_loop.thisRepN,prac_trial_loop.thisTrialN,prac_trial_loop.thisN,prac_trial_loop.thisIndex,task_block_loop.thisRepN,task_block_loop.thisTrialN,task_block_loop.thisN,task_block_loop.thisIndex,task_trial_loop.thisRepN,task_trial_loop.thisTrialN,task_trial_loop.thisN,task_trial_loop.thisIndex,surprise_block_loop.thisRepN,surprise_block_loop.thisTrialN,surprise_block_loop.thisN,surprise_block_loop.thisIndex,trials.thisRepN,trials.thisTrialN,trials.thisN,trials.thisIndex,prac_blockText.started,prac_reminder_text.started,prac_reminder_keyResp.started,prac_reminder_keyResp.keys,prac_reminder_keyResp.rt,initFixation_img.started,ISI,bigObject.started,cover_background_2.started,prac_centerImg.started,prac_stim_keyResp.started,prac_centerImg.stopped,cover_background_2.stopped,bigObject.stopped,prac_stim_keyResp.stopped,prac_stim_keyResp.keys,prac_stim_keyResp.rt,accuracy,prac_blockFeed_text.started,prac_pressContinue.started,prac_blockFeed_keyResp.started,prac_blockFeed_keyResp.keys,prac_blockFeed_keyResp.rt,ringBell_text.started,bellKey.started,bellKey.keys,bellKey.rt,task_blockText.started,task_blockReminders_keyResp.started,task_blockReminders_keyResp.keys,task_blockReminders_keyResp.rt,bigObject_2.started,cover_background.started,task_centerImg.started,task_fixImg.started,task1_stim_keyResp.started,task_centerImg.stopped,cover_background.stopped,bigObject_2.stopped,task_fixImg.stopped,task1_stim_keyResp.stopped,task1_stim_keyResp.keys,task1_stim_keyResp.rt,blockFeedCat,task_blockFeed_text.started,task_blockFeed_keyResp.started,task_blockFeed_keyResp.keys,task_blockFeed_keyResp.rt,ringBell_text_2.started,bellKey_2.started,bellKey_2.keys,bellKey_2.rt,errorNumbers_text_2.started,errorNum_text_box.started,errorN_key_resp_2.started,errorNum_text_box.text,errorN_key_resp_2.keys,errorN_key_resp_2.rt,errorNumbers_text_3.started,errorPercent_text_box.started,errorN_key_resp_3.started,errorPercent_text_box.text,errorN_key_resp_3.keys,errorN_key_resp_3.rt,botherRate_text.started,bother_text_box.started,botherRate_key_resp.started,bother_text_box.text,botherRate_key_resp.keys,botherRate_key_resp.rt,ringBell_text_3.started,bellKey_3.started,bellKey_3.keys,bellKey_3.rt,instruct_surprise1.started,instruct_surp1_key_resp.keys,instruct_surp1_key_resp.rt,text_2.started,task_blockText_2.started,task_blockReminders_keyResp_2.started,task_blockReminders_keyResp_2.keys,task_blockReminders_keyResp_2.rt,thisISI3,polygon.started,polygon.stopped,text.started,old_object_image.started,new_object_image.started,instructsurpA1_right.started,instructsurpA2_left.started,surprise_key_resp.started,surprise_key_resp.keys,surprise_key_resp.rt,ringBell_text_4.started,bellKey_4.started,bellKey_4.keys,bellKey_4.rt,finishMessage_text.started,id,date,expName,psychopyVersion,frameRate,
flanker_practice_block.csv,img/rightArrow.png,img/leftArrow.png,img/leftArrow.png,7,0,right,"[0, 0]","[0.0385, 0]","[-0.0385, 0]",img/object_images/staple_remover01.jpg,"[0.035, 0.035]",,,,,0,0,0,0,0,0,0,15,,,,,,,,,,,,,,,,,153.0751900000032,153.0751900000032,153.0751900000032,k,17.09960980003234,170.2140408999985,3.758517034068136,172.4559557000175,172.4559557000175,172.4559557000175,172.4559557000175,172.6710507000098,172.8211038999725,176.37692169996444,176.37692169996444,['s'],[0.7668450999772176],0,,,,,,,,,,,,,,,,,,,,,,,,,,,,,,,,,,,,,,,,,,,,,,,,,,,,,,,,,,,,,,,,,,,,,,,,,,,,,,,,,260018,2024-03-19_16h08.01.095,mfe_c_object,2022.2.4,59.95743022147381,
flanker_practice_block.csv,img/leftArrow.png,img/leftArrow.png,img/leftArrow.png,6,1,left,"[0, 0]","[0.0385, 0]","[-0.0385, 0]",img/object_images/skate_board02.jpg,"[0.035, 0.035]",,,,,0,0,0,0,0,1,1,9,,,,,,,,,,,,,,,,,,,,,,,3.7034068136272547,176.37692169996444,176.37692169996444,176.37692169996444,176.37692169996444,176.59166150004603,176.74177009996492,180.24454310000874,180.24454310000874,['s'],[1.4856151000130922],1,,,,,,,,,,,,,,,,,,,,,,,,,,,,,,,,,,,,,,,,,,,,,,,,,,,,,,,,,,,,,,,,,,,,,,,,,,,,,,,,,260018,2024-03-19_16h08.01.095,mfe_c_object,2022.2.4,59.95743022147381,
flanker_practice_block.csv,img/rightArrow.png,img/rightArrow.png,img/rightArrow.png,5,1,right,"[0, 0]","[0.0385, 0]","[-0.0385, 0]",img/object_images/basketball_hoop01.jpg,"[0.035, 0.035]",,,,,0,0,0,0,0,2,2,6,,,,,,,,,,,,,,,,,,,,,,,3.690380761523046,180.24454310000874,180.24454310000874,180.24454310000874,180.24454310000874,180.44561120006256,180.59556329995394,184.0907558000181,184.0907558000181,['k'],[0.6902238000184298],1,,,,,,,,,,,,,,,,,,,,,,,,,,,,,,,,,,,,,,,,,,,,,,,,,,,,,,,,,,,,,,,,,,,,,,,,,,,,,,,,,260018,2024-03-19_16h08.01.095,mfe_c_object,2022.2.4,59.95743022147381,
flanker_practice_block.csv,img/rightArrow.png,img/leftArrow.png,img/leftArrow.png,7,0,right,"[0, 0]","[0.0385, 0]","[-0.0385, 0]",img/object_images/headset03.jpg,"[0.035, 0.035]",,,,,0,0,0,0,0,3,3,11,,,,,,,,,,,,,,,,,,,,,,,3.970941883767535,184.0907558000181,184.0907558000181,184.0907558000181,184.0907558000181,184.2993751000613,184.44940210005734,188.21798610000405,188.21798610000405,['k'],[0.9000518000684679],1,,,,,,,,,,,,,,,,,,,,,,,,,,,,,,,,,,,,,,,,,,,,,,,,,,,,,,,,,,,,,,,,,,,,,,,,,,,,,,,,,260018,2024-03-19_16h08.01.095,mfe_c_object,2022.2.4,59.95743022147381,
flanker_practice_block.csv,img/rightArrow.png,img/rightArrow.png,img/rightArrow.png,5,1,right,"[0, 0]","[0.0385, 0]","[-0.0385, 0]",img/object_images/hot_air_balloon01.jpg,"[0.035, 0.035]",,,,,0,0,0,0,0,4,4,12,,,,,,,,,,,,,,,,,,,,,,,3.8006012024048097,188.21798610000405,188.21798610000405,188.21798610000405,188.21798610000405,188.42021879996173,188.5701688999543,192.17120650003199,192.17120650003199,['k'],[0.6846075999783352],1,,,,,,,,,,,,,,,,,,,,,,,,,,,,,,,,,,,,,,,,,,,,,,,,,,,,,,,,,,,,,,,,,,,,,,,,,,,,,,,,,260018,2024-03-19_16h08.01.095,mfe_c_object,2022.2.4,59.95743022147381,
flanker_practice_block.csv,img/rightArrow.png,img/leftArrow.png,img/leftArrow.png,7,0,right,"[0, 0]","[0.0385, 0]","[-0.0385, 0]",img/object_images/accordion02.jpg,"[0.035, 0.035]",,,,,0,0,0,0,0,5,5,0,,,,,,,,,,,,,,,,,,,,,,,3.8476953907815634,192.17120650003199,192.17120650003199,192.17120650003199,192.17120650003199,192.37428510002792,192.52412269997876,196.1728032999672,196.1728032999672,['k'],[0.7233602000633255],1,,,,,,,,,,,,,,,,,,,,,,,,,,,,,,,,,,,,,,,,,,,,,,,,,,,,,,,,,,,,,,,,,,,,,,,,,,,,,,,,,260018,2024-03-19_16h08.01.095,mfe_c_object,2022.2.4,59.95743022147381,
flanker_practice_block.csv,img/leftArrow.png,img/leftArrow.png,img/leftArrow.png,6,1,left,"[0, 0]","[0.0385, 0]","[-0.0385, 0]",img/object_images/hair_brush03.jpg,"[0.035, 0.035]",,,,,0,0,0,0,0,6,6,2,,,,,,,,,,,,,,,,,,,,,,,3.688376753507014,196.1728032999672,196.1728032999672,196.1728032999672,196.1728032999672,196.3781430000672,196.5279431999661,200.015614700038,200.015614700038,['s'],[1.0336518000112846],1,,,,,,,,,,,,,,,,,,,,,,,,,,,,,,,,,,,,,,,,,,,,,,,,,,,,,,,,,,,,,,,,,,,,,,,,,,,,,,,,,260018,2024-03-19_16h08.01.095,mfe_c_object,2022.2.4,59.95743022147381,
flanker_practice_block.csv,img/leftArrow.png,img/leftArrow.png,img/leftArrow.png,6,1,left,"[0, 0]","[0.0385, 0]","[-0.0385, 0]",img/object_images/vacuum_cleaner01.jpg,"[0.035, 0.035]",,,,,0,0,0,0,0,7,7,7,,,,,,,,,,,,,,,,,,,,,,,3.651302605210421,200.015614700038,200.015614700038,200.015614700038,200.015614700038,200.21519180003088,200.36528769996949,203.82154989999253,203.82154989999253,['k'],[1.174641599995084],0,,,,,,,,,,,,,,,,,,,,,,,,,,,,,,,,,,,,,,,,,,,,,,,,,,,,,,,,,,,,,,,,,,,,,,,,,,,,,,,,,260018,2024-03-19_16h08.01.095,mfe_c_object,2022.2.4,59.95743022147381,
flanker_practice_block.csv,img/rightArrow.png,img/rightArrow.png,img/rightArrow.png,5,1,right,"[0, 0]","[0.0385, 0]","[-0.0385, 0]",img/object_images/handle_bar01.jpg,"[0.035, 0.035]",,,,,0,0,0,0,0,8,8,13,,,,,,,,,,,,,,,,,,,,,,,3.655310621242485,203.82154989999253,203.82154989999253,203.82154989999253,203.82154989999253,204.03577179997228,204.18566189997364,207.63048910000362,207.63048910000362,['k'],[0.7052356998901814],1,,,,,,,,,,,,,,,,,,,,,,,,,,,,,,,,,,,,,,,,,,,,,,,,,,,,,,,,,,,,,,,,,,,,,,,,,,,,,,,,,260018,2024-03-19_16h08.01.095,mfe_c_object,2022.2.4,59.95743022147381,
flanker_practice_block.csv,img/leftArrow.png,img/leftArrow.png,img/leftArrow.png,6,1,left,"[0, 0]","[0.0385, 0]","[-0.0385, 0]",img/object_images/joystick02.jpg,"[0.035, 0.035]",,,,,0,0,0,0,0,9,9,4,,,,,,,,,,,,,,,,,,,,,,,3.9669338677354706,207.63048910000362,207.63048910000362,207.63048910000362,207.63048910000362,207.8395643000258,207.9895485000452,211.7551162999589,211.7551162999589,['s'],[1.151258199941367],1,,,,,,,,,,,,,,,,,,,,,,,,,,,,,,,,,,,,,,,,,,,,,,,,,,,,,,,,,,,,,,,,,,,,,,,,,,,,,,,,,260018,2024-03-19_16h08.01.095,mfe_c_object,2022.2.4,59.95743022147381,
flanker_practice_block.csv,img/leftArrow.png,img/rightArrow.png,img/rightArrow.png,8,0,left,"[0, 0]","[0.0385, 0]","[-0.0385, 0]",img/object_images/car_toy05.jpg,"[0.035, 0.035]",,,,,0,0,0,0,0,10,10,3,,,,,,,,,,,,,,,,,,,,,,,3.7855711422845695,211.7551162999589,211.7551162999589,211.7551162999589,211.7551162999589,211.96043670002837,212.11028899997473,215.68998819997068,215.68998819997068,['s'],[0.8354284999659285],1,,,,,,,,,,,,,,,,,,,,,,,,,,,,,,,,,,,,,,,,,,,,,,,,,,,,,,,,,,,,,,,,,,,,,,,,,,,,,,,,,260018,2024-03-19_16h08.01.095,mfe_c_object,2022.2.4,59.95743022147381,
flanker_practice_block.csv,img/leftArrow.png,img/rightArrow.png,img/rightArrow.png,8,0,left,"[0, 0]","[0.0385, 0]","[-0.0385, 0]",img/object_images/binoculars01.jpg,"[0.035, 0.035]",,,,,0,0,0,0,0,11,11,1,,,,,,,,,,,,,,,,,,,,,,,3.995991983967936,215.68998819997068,215.68998819997068,215.68998819997068,215.68998819997068,215.89768569997977,216.04755949997343,219.84682380000595,219.84682380000595,['s'],[0.7079347999533638],1,,,,,,,,,,,,,,,,,,,,,,,,,,,,,,,,,,,,,,,,,,,,,,,,,,,,,,,,,,,,,,,,,,,,,,,,,,,,,,,,,260018,2024-03-19_16h08.01.095,mfe_c_object,2022.2.4,59.95743022147381,
flanker_practice_block.csv,img/leftArrow.png,img/rightArrow.png,img/rightArrow.png,8,0,left,"[0, 0]","[0.0385, 0]","[-0.0385, 0]",img/object_images/trumpet02.jpg,"[0.035, 0.035]",,,,,0,0,0,0,0,12,12,10,,,,,,,,,,,,,,,,,,,,,,,3.659318637274549,219.84682380000595,219.84682380000595,219.84682380000595,219.84682380000595,220.0517603000626,220.2017177999951,223.69245730002876,223.69245730002876,['s'],[0.6877721999771893],1,,,,,,,,,,,,,,,,,,,,,,,,,,,,,,,,,,,,,,,,,,,,,,,,,,,,,,,,,,,,,,,,,,,,,,,,,,,,,,,,,260018,2024-03-19_16h08.01.095,mfe_c_object,2022.2.4,59.95743022147381,
flanker_practice_block.csv,img/rightArrow.png,img/rightArrow.png,img/rightArrow.png,5,1,right,"[0, 0]","[0.0385, 0]","[-0.0385, 0]",img/object_images/usb_drive01.jpg,"[0.035, 0.035]",,,,,0,0,0,0,0,13,13,19,,,,,,,,,,,,,,,,,,,,,,,3.8527054108216436,223.69245730002876,223.69245730002876,223.69245730002876,223.69245730002876,223.9056720000226,224.05557399999816,227.6998031999683,227.6998031999683,['k'],[0.6499939999775961],1,,,,,,,,,,,,,,,,,,,,,,,,,,,,,,,,,,,,,,,,,,,,,,,,,,,,,,,,,,,,,,,,,,,,,,,,,,,,,,,,,260018,2024-03-19_16h08.01.095,mfe_c_object,2022.2.4,59.95743022147381,
flanker_practice_block.csv,img/leftArrow.png,img/leftArrow.png,img/leftArrow.png,6,1,left,"[0, 0]","[0.0385, 0]","[-0.0385, 0]",img/object_images/usb01.jpg,"[0.035, 0.035]",,,,,0,0,0,0,0,14,14,14,,,,,,,,,,,,,,,,,,,,,,,3.911823647294589,227.6998031999683,227.6998031999683,227.6998031999683,227.6998031999683,227.90962569997646,228.05945179995615,231.75096720003057,231.75096720003057,['s'],[0.8021384999155998],1,,,,,,,,,,,,,,,,,,,,,,,,,,,,,,,,,,,,,,,,,,,,,,,,,,,,,,,,,,,,,,,,,,,,,,,,,,,,,,,,,260018,2024-03-19_16h08.01.095,mfe_c_object,2022.2.4,59.95743022147381,
flanker_practice_block.csv,img/leftArrow.png,img/rightArrow.png,img/rightArrow.png,8,0,left,"[0, 0]","[0.0385, 0]","[-0.0385, 0]",img/object_images/spoon01.jpg,"[0.035, 0.035]",,,,,0,0,0,0,0,15,15,18,,,,,,,,,,,,,,,,,,,,,,,3.909819639278557,231.75096720003057,231.75096720003057,231.75096720003057,231.75096720003057,231.96358600002714,232.11349350004457,235.81331900006626,235.81331900006626,['s'],[0.8307611000491306],1,,,,,,,,,,,,,,,,,,,,,,,,,,,,,,,,,,,,,,,,,,,,,,,,,,,,,,,,,,,,,,,,,,,,,,,,,,,,,,,,,260018,2024-03-19_16h08.01.095,mfe_c_object,2022.2.4,59.95743022147381,
flanker_practice_block.csv,img/rightArrow.png,img/leftArrow.png,img/leftArrow.png,7,0,right,"[0, 0]","[0.0385, 0]","[-0.0385, 0]",img/object_images/rock04.jpg,"[0.035, 0.035]",,,,,0,0,0,0,0,16,16,16,,,,,,,,,,,,,,,,,,,,,,,3.971943887775551,235.81331900006626,235.81331900006626,235.81331900006626,235.81331900006626,236.0178999999771,236.16789130005054,239.93142489995807,239.93142489995807,['k'],[0.6568681000499055],1,,,,,,,,,,,,,,,,,,,,,,,,,,,,,,,,,,,,,,,,,,,,,,,,,,,,,,,,,,,,,,,,,,,,,,,,,,,,,,,,,260018,2024-03-19_16h08.01.095,mfe_c_object,2022.2.4,59.95743022147381,
flanker_practice_block.csv,img/rightArrow.png,img/rightArrow.png,img/rightArrow.png,5,1,right,"[0, 0]","[0.0385, 0]","[-0.0385, 0]",img/object_images/knife03.jpg,"[0.035, 0.035]",,,,,0,0,0,0,0,17,17,5,,,,,,,,,,,,,,,,,,,,,,,3.9879759519038074,239.93142489995807,239.93142489995807,239.93142489995807,239.93142489995807,240.13866259995848,240.28845510003157,244.07484090002254,244.07484090002254,['k'],[0.7627499999944121],1,,,,,,,,,,,,,,,,,,,,,,,,,,,,,,,,,,,,,,,,,,,,,,,,,,,,,,,,,,,,,,,,,,,,,,,,,,,,,,,,,260018,2024-03-19_16h08.01.095,mfe_c_object,2022.2.4,59.95743022147381,
flanker_practice_block.csv,img/leftArrow.png,img/rightArrow.png,img/rightArrow.png,8,0,left,"[0, 0]","[0.0385, 0]","[-0.0385, 0]",img/object_images/Typewritter01.jpg,"[0.035, 0.035]",,,,,0,0,0,0,0,18,18,8,,,,,,,,,,,,,,,,,,,,,,,3.875751503006012,244.07484090002254,244.07484090002254,244.07484090002254,244.07484090002254,244.276135000051,244.42609860002995,248.10313940001652,248.10313940001652,['s'],[0.9476896999403834],1,,,,,,,,,,,,,,,,,,,,,,,,,,,,,,,,,,,,,,,,,,,,,,,,,,,,,,,,,,,,,,,,,,,,,,,,,,,,,,,,,260018,2024-03-19_16h08.01.095,mfe_c_object,2022.2.4,59.95743022147381,
flanker_practice_block.csv,img/rightArrow.png,img/leftArrow.png,img/leftArrow.png,7,0,right,"[0, 0]","[0.0385, 0]","[-0.0385, 0]",img/object_images/crane02.jpg,"[0.035, 0.035]",,,,,0,0,0,0,0,19,19,17,,,,,,,,,,,,,,,,,,,,,,,3.7364729458917836,248.10313940001652,248.10313940001652,248.10313940001652,248.10313940001652,248.3133005000418,248.46332640002947,251.84974370000418,251.84974370000418,['k'],[0.7194331000791863],1,,,,,,,,,,,,,,,,,,,,,,,,,,,,,,,,,,,,,,,,,,,,,,,,,,,,,,,,,,,,,,,,,,,,,,,,,,,,,,,,,260018,2024-03-19_16h08.01.095,mfe_c_object,2022.2.4,59.95743022147381,
flanker_practice_block.csv,,,,,,,,,,,,,,,,0,0,0,0,,,,,,,,,,,,,,,,,,,,,,,,,,,,,,,,,,,,,,,251.84974370000418,251.84974370000418,251.84974370000418,k,3.7407160999719054,,,,,,,,,,,,,,,,,,,,,,,,,,,,,,,,,,,,,,,,,,,,,,,,,,,,,,,,,,,,,,,,,,,,,,,,,,,,260018,2024-03-19_16h08.01.095,mfe_c_object,2022.2.4,59.95743022147381,
,,,,,,,,,,,,,,,,,,,,,,,,,,,,,,,,,,,,,,,,,,,,,,,,,,,,,,,,,,,,,,,255.6194260000484,255.6194260000484,c,125.21884230000433,,,,,,,,,,,,,,,,,,,,,,,,,,,,,,,,,,,,,,,,,,,,,,,,,,,,,,,,,,,,,,,,,,,,,,,,260018,2024-03-19_16h08.01.095,mfe_c_object,2022.2.4,59.95743022147381,
flanker_main_block_11.csv,img/rightArrow.png,img/rightArrow.png,img/rightArrow.png,5,1,right,"[0, 0]","[0.0385, 0]","[-0.0385, 0]",img/object_images/toilet_paper01.jpg,"[0.035, 0.035]",,,,,,,,,,,,,0,0,0,10,0,0,0,25,,,,,,,,,,,,,,384.8373142000055,3.853707414829659,,,,,,,,,,,1,,,,,,,,,,380.8763282999862,380.8763282999862,k,3.930304400040768,387.0312923999736,387.0312923999736,387.0312923999736,387.0312923999736,387.0312923999736,387.2353208999848,387.38514450006187,391.0285354000516,391.0285354000516,391.0285354000516,['k'],[0.6309116000775248],,,,,,,,,,,,,,,,,,,,,,,,,,,,,,,,,,,,,,,,,,,,,,,,,,,,,,,,260018,2024-03-19_16h08.01.095,mfe_c_object,2022.2.4,59.95743022147381,
flanker_main_block_11.csv,img/rightArrow.png,img/leftArrow.png,img/leftArrow.png,7,0,right,"[0, 0]","[0.0385, 0]","[-0.0385, 0]",img/object_images/tie01.jpg,"[0.035, 0.035]",,,,,,,,,,,,,0,0,0,10,0,1,1,27,,,,,,,,,,,,,,,3.9789579158316633,,,,,,,,,,,0,,,,,,,,,,,,,,391.0285354000516,391.0285354000516,391.0285354000516,391.0285354000516,391.0285354000516,391.23933280003257,391.3892511000158,395.1493131000316,395.1493131000316,395.1493131000316,['s'],[1.3219840000383556],,,,,,,,,,,,,,,,,,,,,,,,,,,,,,,,,,,,,,,,,,,,,,,,,,,,,,,,260018,2024-03-19_16h08.01.095,mfe_c_object,2022.2.4,59.95743022147381,
flanker_main_block_11.csv,img/rightArrow.png,img/leftArrow.png,img/leftArrow.png,7,0,right,"[0, 0]","[0.0385, 0]","[-0.0385, 0]",img/object_images/hat02.jpg,"[0.035, 0.035]",,,,,,,,,,,,,0,0,0,10,0,2,2,19,,,,,,,,,,,,,,,3.6773547094188377,,,,,,,,,,,1,,,,,,,,,,,,,,395.1493131000316,395.1493131000316,395.1493131000316,395.1493131000316,395.1493131000316,395.3601165000582,395.51000610005576,398.9705922000576,398.9705922000576,398.9705922000576,['k'],[0.5290241000475362],,,,,,,,,,,,,,,,,,,,,,,,,,,,,,,,,,,,,,,,,,,,,,,,,,,,,,,,260018,2024-03-19_16h08.01.095,mfe_c_object,2022.2.4,59.95743022147381,
flanker_main_block_11.csv,img/rightArrow.png,img/rightArrow.png,img/rightArrow.png,5,1,right,"[0, 0]","[0.0385, 0]","[-0.0385, 0]",img/object_images/broom01.jpg,"[0.035, 0.035]",,,,,,,,,,,,,0,0,0,10,0,3,3,13,,,,,,,,,,,,,,,3.6362725450901805,,,,,,,,,,,1,,,,,,,,,,,,,,398.9705922000576,398.9705922000576,398.9705922000576,398.9705922000576,398.9705922000576,399.1806305999635,399.3305278000189,402.76647789997514,402.76647789997514,402.76647789997514,['k'],[0.6924060999881476],,,,,,,,,,,,,,,,,,,,,,,,,,,,,,,,,,,,,,,,,,,,,,,,,,,,,,,,260018,2024-03-19_16h08.01.095,mfe_c_object,2022.2.4,59.95743022147381,
flanker_main_block_11.csv,img/rightArrow.png,img/leftArrow.png,img/leftArrow.png,7,0,right,"[0, 0]","[0.0385, 0]","[-0.0385, 0]",img/object_images/ironing_table02.jpg,"[0.035, 0.035]",,,,,,,,,,,,,0,0,0,10,0,4,4,5,,,,,,,,,,,,,,,3.5180360721442883,,,,,,,,,,,1,,,,,,,,,,,,,,402.76647789997514,402.76647789997514,402.76647789997514,402.76647789997514,402.76647789997514,402.9677831999725,403.11759409995284,406.4203058000421,406.4203058000421,406.4203058000421,['k'],[0.5836484999163076],,,,,,,,,,,,,,,,,,,,,,,,,,,,,,,,,,,,,,,,,,,,,,,,,,,,,,,,260018,2024-03-19_16h08.01.095,mfe_c_object,2022.2.4,59.95743022147381,
flanker_main_block_11.csv,img/leftArrow.png,img/leftArrow.png,img/leftArrow.png,6,1,left,"[0, 0]","[0.0385, 0]","[-0.0385, 0]",img/object_images/pitcher03.jpg,"[0.035, 0.035]",,,,,,,,,,,,,0,0,0,10,0,5,5,2,,,,,,,,,,,,,,,3.7374749498997994,,,,,,,,,,,1,,,,,,,,,,,,,,406.4203058000421,406.4203058000421,406.4203058000421,406.4203058000421,406.4203058000421,406.6212970999768,406.7711943000322,410.2927093000617,410.2927093000617,410.2927093000617,['s'],[0.714251899975352],,,,,,,,,,,,,,,,,,,,,,,,,,,,,,,,,,,,,,,,,,,,,,,,,,,,,,,,260018,2024-03-19_16h08.01.095,mfe_c_object,2022.2.4,59.95743022147381,
flanker_main_block_11.csv,img/rightArrow.png,img/rightArrow.png,img/rightArrow.png,5,1,right,"[0, 0]","[0.0385, 0]","[-0.0385, 0]",img/object_images/couch04.jpg,"[0.035, 0.035]",,,,,,,,,,,,,0,0,0,10,0,6,6,11,,,,,,,,,,,,,,,3.6973947895791586,,,,,,,,,,,1,,,,,,,,,,,,,,410.2927093000617,410.2927093000617,410.2927093000617,410.2927093000617,410.2927093000617,410.49207350006327,410.64191520004533,414.1274415999651,414.1274415999651,414.1274415999651,['k'],[0.7383329999865964],,,,,,,,,,,,,,,,,,,,,,,,,,,,,,,,,,,,,,,,,,,,,,,,,,,,,,,,260018,2024-03-19_16h08.01.095,mfe_c_object,2022.2.4,59.95743022147381,
flanker_main_block_11.csv,img/rightArrow.png,img/rightArrow.png,img/rightArrow.png,5,1,right,"[0, 0]","[0.0385, 0]","[-0.0385, 0]",img/object_images/toy_train02.jpg,"[0.035, 0.035]",,,,,,,,,,,,,0,0,0,10,0,7,7,23,,,,,,,,,,,,,,,3.69438877755511,,,,,,,,,,,1,,,,,,,,,,,,,,414.1274415999651,414.1274415999651,414.1274415999651,414.1274415999651,414.1274415999651,414.3290832999628,414.4788303000387,417.9755542000057,417.9755542000057,417.9755542000057,['k'],[0.5747575000859797],,,,,,,,,,,,,,,,,,,,,,,,,,,,,,,,,,,,,,,,,,,,,,,,,,,,,,,,260018,2024-03-19_16h08.01.095,mfe_c_object,2022.2.4,59.95743022147381,
flanker_main_block_11.csv,img/rightArrow.png,img/leftArrow.png,img/leftArrow.png,7,0,right,"[0, 0]","[0.0385, 0]","[-0.0385, 0]",img/object_images/soap01.jpg,"[0.035, 0.035]",,,,,,,,,,,,,0,0,0,10,0,8,8,0,,,,,,,,,,,,,,,3.831663326653307,,,,,,,,,,,1,,,,,,,,,,,,,,417.9755542000057,417.9755542000057,417.9755542000057,417.9755542000057,417.9755542000057,418.1828735000454,418.3328159999801,421.95851550006773,421.95851550006773,421.95851550006773,['k'],[0.5181413000682369],,,,,,,,,,,,,,,,,,,,,,,,,,,,,,,,,,,,,,,,,,,,,,,,,,,,,,,,260018,2024-03-19_16h08.01.095,mfe_c_object,2022.2.4,59.95743022147381,
flanker_main_block_11.csv,img/leftArrow.png,img/leftArrow.png,img/leftArrow.png,6,1,left,"[0, 0]","[0.0385, 0]","[-0.0385, 0]",img/object_images/lantern01.jpg,"[0.035, 0.035]",,,,,,,,,,,,,0,0,0,10,0,9,9,10,,,,,,,,,,,,,,,3.7595190380761525,,,,,,,,,,,1,,,,,,,,,,,,,,421.95851550006773,421.95851550006773,421.95851550006773,421.95851550006773,421.95851550006773,422.1702237999998,422.3201735999901,425.8487647000002,425.8487647000002,425.8487647000002,['s'],[0.7272700999164954],,,,,,,,,,,,,,,,,,,,,,,,,,,,,,,,,,,,,,,,,,,,,,,,,,,,,,,,260018,2024-03-19_16h08.01.095,mfe_c_object,2022.2.4,59.95743022147381,
flanker_main_block_11.csv,img/leftArrow.png,img/leftArrow.png,img/leftArrow.png,6,1,left,"[0, 0]","[0.0385, 0]","[-0.0385, 0]",img/object_images/guitar01.jpg,"[0.035, 0.035]",,,,,,,,,,,,,0,0,0,10,0,10,10,20,,,,,,,,,,,,,,,3.9188376753507015,,,,,,,,,,,1,,,,,,,,,,,,,,425.8487647000002,425.8487647000002,425.8550198000157,425.8487647000002,425.8487647000002,426.05741180002224,426.20729319995735,429.90630549995694,429.90630549995694,429.90630549995694,['s'],[0.5895492999115959],,,,,,,,,,,,,,,,,,,,,,,,,,,,,,,,,,,,,,,,,,,,,,,,,,,,,,,,260018,2024-03-19_16h08.01.095,mfe_c_object,2022.2.4,59.95743022147381,
flanker_main_block_11.csv,img/leftArrow.png,img/leftArrow.png,img/leftArrow.png,6,1,left,"[0, 0]","[0.0385, 0]","[-0.0385, 0]",img/object_images/Woopie01.jpg,"[0.035, 0.035]",,,,,,,,,,,,,0,0,0,10,0,11,11,8,,,,,,,,,,,,,,,3.9038076152304613,,,,,,,,,,,1,,,,,,,,,,,,,,429.90630549995694,429.90630549995694,429.91260619997047,429.90630549995694,429.90630549995694,430.1281308999751,430.26133310003206,433.94727270002477,433.94727270002477,433.94727270002477,['s'],[0.7232136999955401],,,,,,,,,,,,,,,,,,,,,,,,,,,,,,,,,,,,,,,,,,,,,,,,,,,,,,,,260018,2024-03-19_16h08.01.095,mfe_c_object,2022.2.4,59.95743022147381,
flanker_main_block_11.csv,img/rightArrow.png,img/leftArrow.png,img/leftArrow.png,7,0,right,"[0, 0]","[0.0385, 0]","[-0.0385, 0]",img/object_images/container01.jpg,"[0.035, 0.035]",,,,,,,,,,,,,0,0,0,10,0,12,12,30,,,,,,,,,,,,,,,3.9819639278557117,,,,,,,,,,,1,,,,,,,,,,,,,,433.94727270002477,433.94727270002477,433.94727270002477,433.94727270002477,433.94727270002477,434.1488659000024,434.2987845999887,438.0631221999647,438.0631221999647,438.0631221999647,['k'],[0.8590757000492886],,,,,,,,,,,,,,,,,,,,,,,,,,,,,,,,,,,,,,,,,,,,,,,,,,,,,,,,260018,2024-03-19_16h08.01.095,mfe_c_object,2022.2.4,59.95743022147381,
flanker_main_block_11.csv,img/leftArrow.png,img/rightArrow.png,img/rightArrow.png,8,0,left,"[0, 0]","[0.0385, 0]","[-0.0385, 0]",img/object_images/cochlear_implant01.jpg,"[0.035, 0.035]",,,,,,,,,,,,,0,0,0,10,0,13,13,15,,,,,,,,,,,,,,,3.9398797595190382,,,,,,,,,,,1,,,,,,,,,,,,,,438.0631221999647,438.0631221999647,438.0692598000169,438.0631221999647,438.0631221999647,438.26951999997254,438.4195013999706,442.14156510005705,442.14156510005705,442.14156510005705,['s'],[0.6625854999292642],,,,,,,,,,,,,,,,,,,,,,,,,,,,,,,,,,,,,,,,,,,,,,,,,,,,,,,,260018,2024-03-19_16h08.01.095,mfe_c_object,2022.2.4,59.95743022147381,
flanker_main_block_11.csv,img/rightArrow.png,img/rightArrow.png,img/rightArrow.png,5,1,right,"[0, 0]","[0.0385, 0]","[-0.0385, 0]",img/object_images/brief_case02.jpg,"[0.035, 0.035]",,,,,,,,,,,,,0,0,0,10,0,14,14,26,,,,,,,,,,,,,,,3.7164328657314627,,,,,,,,,,,1,,,,,,,,,,,,,,442.14156510005705,442.14156510005705,442.14156510005705,442.14156510005705,442.14156510005705,442.3571329000406,442.4905196999898,446.0059536000481,446.0059536000481,446.0059536000481,['k'],[0.7520307999802753],,,,,,,,,,,,,,,,,,,,,,,,,,,,,,,,,,,,,,,,,,,,,,,,,,,,,,,,260018,2024-03-19_16h08.01.095,mfe_c_object,2022.2.4,59.95743022147381,
flanker_main_block_11.csv,img/leftArrow.png,img/rightArrow.png,img/rightArrow.png,8,0,left,"[0, 0]","[0.0385, 0]","[-0.0385, 0]",img/object_images/drone02.jpg,"[0.035, 0.035]",,,,,,,,,,,,,0,0,0,10,0,15,15,7,,,,,,,,,,,,,,,3.7645290581162327,,,,,,,,,,,1,,,,,,,,,,,,,,446.0059536000481,446.0059536000481,446.0059536000481,446.0059536000481,446.0059536000481,446.2106593999779,446.36062920000404,449.9120302000083,449.9120302000083,449.9120302000083,['s'],[0.7116525999736041],,,,,,,,,,,,,,,,,,,,,,,,,,,,,,,,,,,,,,,,,,,,,,,,,,,,,,,,260018,2024-03-19_16h08.01.095,mfe_c_object,2022.2.4,59.95743022147381,
flanker_main_block_11.csv,img/leftArrow.png,img/rightArrow.png,img/rightArrow.png,8,0,left,"[0, 0]","[0.0385, 0]","[-0.0385, 0]",img/object_images/car02.jpg,"[0.035, 0.035]",,,,,,,,,,,,,0,0,0,10,0,16,16,24,,,,,,,,,,,,,,,3.720440881763527,,,,,,,,,,,1,,,,,,,,,,,,,,449.9120302000083,449.9120302000083,449.9120302000083,449.9120302000083,449.9120302000083,450.1147205999587,450.26470739999786,453.7570500000147,453.7570500000147,453.7570500000147,['s'],[0.6067384000634775],,,,,,,,,,,,,,,,,,,,,,,,,,,,,,,,,,,,,,,,,,,,,,,,,,,,,,,,260018,2024-03-19_16h08.01.095,mfe_c_object,2022.2.4,59.95743022147381,
flanker_main_block_11.csv,img/leftArrow.png,img/rightArrow.png,img/rightArrow.png,8,0,left,"[0, 0]","[0.0385, 0]","[-0.0385, 0]",img/object_images/razor03.jpg,"[0.035, 0.035]",,,,,,,,,,,,,0,0,0,10,0,17,17,12,,,,,,,,,,,,,,,3.8877755511022043,,,,,,,,,,,1,,,,,,,,,,,,,,453.7570500000147,453.7570500000147,453.763067199965,453.7570500000147,453.7570500000147,453.96853439998813,454.1185805000132,457.7883309000172,457.7883309000172,457.7883309000172,['s'],[0.6650171000510454],,,,,,,,,,,,,,,,,,,,,,,,,,,,,,,,,,,,,,,,,,,,,,,,,,,,,,,,260018,2024-03-19_16h08.01.095,mfe_c_object,2022.2.4,59.95743022147381,
flanker_main_block_11.csv,img/rightArrow.png,img/rightArrow.png,img/rightArrow.png,5,1,right,"[0, 0]","[0.0385, 0]","[-0.0385, 0]",img/object_images/gloves05.jpg,"[0.035, 0.035]",,,,,,,,,,,,,0,0,0,10,0,18,18,4,,,,,,,,,,,,,,,3.827655310621242,,,,,,,,,,,1,,,,,,,,,,,,,,457.7883309000172,457.7883309000172,457.7883309000172,457.7883309000172,457.7883309000172,457.98943970003165,458.1394478000002,461.79231150005944,461.79231150005944,461.79231150005944,['k'],[0.6580328999552876],,,,,,,,,,,,,,,,,,,,,,,,,,,,,,,,,,,,,,,,,,,,,,,,,,,,,,,,260018,2024-03-19_16h08.01.095,mfe_c_object,2022.2.4,59.95743022147381,
flanker_main_block_11.csv,img/rightArrow.png,img/rightArrow.png,img/rightArrow.png,5,1,right,"[0, 0]","[0.0385, 0]","[-0.0385, 0]",img/object_images/lamp01.jpg,"[0.035, 0.035]",,,,,,,,,,,,,0,0,0,10,0,19,19,31,,,,,,,,,,,,,,,3.592184368737475,,,,,,,,,,,1,,,,,,,,,,,,,,461.79231150005944,461.79231150005944,461.79231150005944,461.79231150005944,461.79231150005944,461.99330480000935,462.14303769997787,465.5315869000042,465.5315869000042,465.5315869000042,['k'],[0.5253504000138491],,,,,,,,,,,,,,,,,,,,,,,,,,,,,,,,,,,,,,,,,,,,,,,,,,,,,,,,260018,2024-03-19_16h08.01.095,mfe_c_object,2022.2.4,59.95743022147381,
flanker_main_block_11.csv,img/rightArrow.png,img/leftArrow.png,img/leftArrow.png,7,0,right,"[0, 0]","[0.0385, 0]","[-0.0385, 0]",img/object_images/brief_case01.jpg,"[0.035, 0.035]",,,,,,,,,,,,,0,0,0,10,0,20,20,3,,,,,,,,,,,,,,,3.564128256513026,,,,,,,,,,,1,,,,,,,,,,,,,,465.5315869000042,465.5315869000042,465.5315869000042,465.5315869000042,465.5315869000042,465.7470109000569,465.89690180006437,469.25133780005854,469.25133780005854,469.25133780005854,['k'],[0.5634913999820128],,,,,,,,,,,,,,,,,,,,,,,,,,,,,,,,,,,,,,,,,,,,,,,,,,,,,,,,260018,2024-03-19_16h08.01.095,mfe_c_object,2022.2.4,59.95743022147381,
flanker_main_block_11.csv,img/rightArrow.png,img/leftArrow.png,img/leftArrow.png,7,0,right,"[0, 0]","[0.0385, 0]","[-0.0385, 0]",img/object_images/video_game06.jpg,"[0.035, 0.035]",,,,,,,,,,,,,0,0,0,10,0,21,21,1,,,,,,,,,,,,,,,3.773547094188377,,,,,,,,,,,1,,,,,,,,,,,,,,469.25133780005854,469.25133780005854,469.25133780005854,469.25133780005854,469.25133780005854,469.4506977000274,469.6006444999948,473.1632684000069,473.1632684000069,473.1632684000069,['k'],[0.7312261000042781],,,,,,,,,,,,,,,,,,,,,,,,,,,,,,,,,,,,,,,,,,,,,,,,,,,,,,,,260018,2024-03-19_16h08.01.095,mfe_c_object,2022.2.4,59.95743022147381,
flanker_main_block_11.csv,img/rightArrow.png,img/leftArrow.png,img/leftArrow.png,7,0,right,"[0, 0]","[0.0385, 0]","[-0.0385, 0]",img/object_images/pot01.jpg,"[0.035, 0.035]",,,,,,,,,,,,,0,0,0,10,0,22,22,6,,,,,,,,,,,,,,,3.651302605210421,,,,,,,,,,,1,,,,,,,,,,,,,,473.1632684000069,473.1632684000069,473.1696345000528,473.1632684000069,473.1632684000069,473.3713618000038,473.52124000003096,476.95412310003303,476.95412310003303,476.95412310003303,['k'],[0.6118829000042751],,,,,,,,,,,,,,,,,,,,,,,,,,,,,,,,,,,,,,,,,,,,,,,,,,,,,,,,260018,2024-03-19_16h08.01.095,mfe_c_object,2022.2.4,59.95743022147381,
flanker_main_block_11.csv,img/leftArrow.png,img/leftArrow.png,img/leftArrow.png,6,1,left,"[0, 0]","[0.0385, 0]","[-0.0385, 0]",img/object_images/helmet05.jpg,"[0.035, 0.035]",,,,,,,,,,,,,0,0,0,10,0,23,23,18,,,,,,,,,,,,,,,3.6162324649298596,,,,,,,,,,,1,,,,,,,,,,,,,,476.95412310003303,476.95412310003303,476.95412310003303,476.95412310003303,476.95412310003303,477.15851840004325,477.3083141000243,480.7088847999694,480.7088847999694,480.7088847999694,['s'],[0.8203046000562608],,,,,,,,,,,,,,,,,,,,,,,,,,,,,,,,,,,,,,,,,,,,,,,,,,,,,,,,260018,2024-03-19_16h08.01.095,mfe_c_object,2022.2.4,59.95743022147381,
flanker_main_block_11.csv,img/rightArrow.png,img/rightArrow.png,img/rightArrow.png,5,1,right,"[0, 0]","[0.0385, 0]","[-0.0385, 0]",img/object_images/Recycling01.jpg,"[0.035, 0.035]",,,,,,,,,,,,,0,0,0,10,0,24,24,14,,,,,,,,,,,,,,,3.5180360721442883,,,,,,,,,,,1,,,,,,,,,,,,,,480.7088847999694,480.7088847999694,480.7088847999694,480.7088847999694,480.7088847999694,480.9122526999563,481.06208359997254,484.36141879996285,484.36141879996285,484.36141879996285,['k'],[0.6257733999518678],,,,,,,,,,,,,,,,,,,,,,,,,,,,,,,,,,,,,,,,,,,,,,,,,,,,,,,,260018,2024-03-19_16h08.01.095,mfe_c_object,2022.2.4,59.95743022147381,
flanker_main_block_11.csv,img/leftArrow.png,img/leftArrow.png,img/leftArrow.png,6,1,left,"[0, 0]","[0.0385, 0]","[-0.0385, 0]",img/object_images/Wisk01.jpg,"[0.035, 0.035]",,,,,,,,,,,,,0,0,0,10,0,25,25,28,,,,,,,,,,,,,,,3.633266533066132,,,,,,,,,,,1,,,,,,,,,,,,,,484.36141879996285,484.36141879996285,484.36141879996285,484.36141879996285,484.36141879996285,484.5657244999893,484.7156210000394,488.1424951000372,488.1424951000372,488.1424951000372,['s'],[0.6203093000221997],,,,,,,,,,,,,,,,,,,,,,,,,,,,,,,,,,,,,,,,,,,,,,,,,,,,,,,,260018,2024-03-19_16h08.01.095,mfe_c_object,2022.2.4,59.95743022147381,
flanker_main_block_11.csv,img/leftArrow.png,img/rightArrow.png,img/rightArrow.png,8,0,left,"[0, 0]","[0.0385, 0]","[-0.0385, 0]",img/object_images/chair01.jpg,"[0.035, 0.035]",,,,,,,,,,,,,0,0,0,10,0,26,26,17,,,,,,,,,,,,,,,3.9248496993987976,,,,,,,,,,,1,,,,,,,,,,,,,,488.1424951000372,488.1424951000372,488.1424951000372,488.1424951000372,488.1424951000372,488.35268859995995,488.5033710000571,492.30168120004237,492.30168120004237,492.30168120004237,['s'],[0.8878635000437498],,,,,,,,,,,,,,,,,,,,,,,,,,,,,,,,,,,,,,,,,,,,,,,,,,,,,,,,260018,2024-03-19_16h08.01.095,mfe_c_object,2022.2.4,59.95743022147381,
flanker_main_block_11.csv,img/leftArrow.png,img/rightArrow.png,img/rightArrow.png,8,0,left,"[0, 0]","[0.0385, 0]","[-0.0385, 0]",img/object_images/airfryer01.jpg,"[0.035, 0.035]",,,,,,,,,,,,,0,0,0,10,0,27,27,9,,,,,,,,,,,,,,,3.5721442885771544,,,,,,,,,,,1,,,,,,,,,,,,,,492.30168120004237,492.30168120004237,492.30168120004237,492.30168120004237,492.30168120004237,492.50696679996327,492.6570937000215,496.00327740004286,496.00327740004286,496.00327740004286,['s'],[0.7282440999988467],,,,,,,,,,,,,,,,,,,,,,,,,,,,,,,,,,,,,,,,,,,,,,,,,,,,,,,,260018,2024-03-19_16h08.01.095,mfe_c_object,2022.2.4,59.95743022147381,
flanker_main_block_11.csv,img/leftArrow.png,img/rightArrow.png,img/rightArrow.png,8,0,left,"[0, 0]","[0.0385, 0]","[-0.0385, 0]",img/object_images/decorative02.jpg,"[0.035, 0.035]",,,,,,,,,,,,,0,0,0,10,0,28,28,29,,,,,,,,,,,,,,,3.527054108216433,,,,,,,,,,,1,,,,,,,,,,,,,,496.00327740004286,496.00327740004286,496.00983100000303,496.00327740004286,496.00327740004286,496.21084419998806,496.36072130000684,499.6679733999772,499.6679733999772,499.6679733999772,['s'],[0.6430680999765173],,,,,,,,,,,,,,,,,,,,,,,,,,,,,,,,,,,,,,,,,,,,,,,,,,,,,,,,260018,2024-03-19_16h08.01.095,mfe_c_object,2022.2.4,59.95743022147381,
flanker_main_block_11.csv,img/leftArrow.png,img/rightArrow.png,img/rightArrow.png,8,0,left,"[0, 0]","[0.0385, 0]","[-0.0385, 0]",img/object_images/basketball_hoop02.jpg,"[0.035, 0.035]",,,,,,,,,,,,,0,0,0,10,0,29,29,22,,,,,,,,,,,,,,,3.879759519038076,,,,,,,,,,,1,,,,,,,,,,,,,,499.6679733999772,499.6679733999772,499.6679733999772,499.6679733999772,499.6679733999772,499.88104580005165,500.0310313999653,503.6845358000137,503.6845358000137,503.6845358000137,['s'],[0.5777538999682292],,,,,,,,,,,,,,,,,,,,,,,,,,,,,,,,,,,,,,,,,,,,,,,,,,,,,,,,260018,2024-03-19_16h08.01.095,mfe_c_object,2022.2.4,59.95743022147381,
flanker_main_block_11.csv,img/leftArrow.png,img/leftArrow.png,img/leftArrow.png,6,1,left,"[0, 0]","[0.0385, 0]","[-0.0385, 0]",img/object_images/ball01.jpg,"[0.035, 0.035]",,,,,,,,,,,,,0,0,0,10,0,30,30,16,,,,,,,,,,,,,,,3.687374749498998,,,,,,,,,,,1,,,,,,,,,,,,,,503.6845358000137,503.6845358000137,503.6845358000137,503.6845358000137,503.6845358000137,503.88523380004335,504.0351658000145,507.5045356999617,507.5045356999617,507.5045356999617,['s'],[0.625779900001362],,,,,,,,,,,,,,,,,,,,,,,,,,,,,,,,,,,,,,,,,,,,,,,,,,,,,,,,260018,2024-03-19_16h08.01.095,mfe_c_object,2022.2.4,59.95743022147381,
flanker_main_block_11.csv,img/leftArrow.png,img/leftArrow.png,img/leftArrow.png,6,1,left,"[0, 0]","[0.0385, 0]","[-0.0385, 0]",img/object_images/bottle12.jpg,"[0.035, 0.035]",,,,,,,,,,,,,0,0,0,10,0,31,31,21,,,,,,,,,,,,,,,3.664328657314629,,,,,,,,,,,1,,,,,,,,,,,,,,507.5045356999617,507.5045356999617,507.5045356999617,507.5045356999617,507.5045356999617,507.7056578999618,507.8554995000595,511.20353030005936,511.20353030005936,511.20353030005936,['s'],[0.5813100999221206],,,,,,,,,,,,,,,,,,,,,,,,,,,,,,,,,,,,,,,,,,,,,,,,,,,,,,,,260018,2024-03-19_16h08.01.095,mfe_c_object,2022.2.4,59.95743022147381,
flanker_main_block_11.csv,,,,,,,,,,,,,,,,,,,,,,,,0,0,0,10,,,,,,,,,,,,,,,,,,,,,,,,,,,,,,,,,,,,,,,,,,,,,,,,,,,,,,,,2,511.20353030005936,521.1678976999829,k,1.0860877999803051,,,,,,,,,,,,,,,,,,,,,,,,,,,,,,,,,,,,,,,,,,,,,,,,,,,260018,2024-03-19_16h08.01.095,mfe_c_object,2022.2.4,59.95743022147381,
flanker_main_block_7.csv,img/leftArrow.png,img/leftArrow.png,img/leftArrow.png,6,1,left,"[0, 0]","[0.0385, 0]","[-0.0385, 0]",img/object_images/golf_ball03.jpg,"[0.035, 0.035]",,,,,,,,,,,,,0,1,1,6,0,0,0,24,,,,,,,,,,,,,,524.0433807000518,3.8396793587174347,,,,,,,,,,,1,,,,,,,,,,522.2858804999851,522.2858804999851,k,1.7198674000101164,526.2248585000634,526.2248585000634,526.2248585000634,526.2248585000634,526.2248585000634,526.4243935999693,526.5742686999729,530.2113446999574,530.2113446999574,530.2113446999574,['s'],[0.6058981999522075],,,,,,,,,,,,,,,,,,,,,,,,,,,,,,,,,,,,,,,,,,,,,,,,,,,,,,,,260018,2024-03-19_16h08.01.095,mfe_c_object,2022.2.4,59.95743022147381,
flanker_main_block_7.csv,img/leftArrow.png,img/leftArrow.png,img/leftArrow.png,6,1,left,"[0, 0]","[0.0385, 0]","[-0.0385, 0]",img/object_images/gift_box01.jpg,"[0.035, 0.035]",,,,,,,,,,,,,0,1,1,6,0,1,1,20,,,,,,,,,,,,,,,3.971943887775551,,,,,,,,,,,1,,,,,,,,,,,,,,530.2113446999574,530.2113446999574,530.2113446999574,530.2113446999574,530.2113446999574,530.4116604999872,530.5617761999601,534.3299707999686,534.3299707999686,534.3299707999686,['s'],[0.6911491999635473],,,,,,,,,,,,,,,,,,,,,,,,,,,,,,,,,,,,,,,,,,,,,,,,,,,,,,,,260018,2024-03-19_16h08.01.095,mfe_c_object,2022.2.4,59.95743022147381,
flanker_main_block_7.csv,img/leftArrow.png,img/leftArrow.png,img/leftArrow.png,6,1,left,"[0, 0]","[0.0385, 0]","[-0.0385, 0]",img/object_images/Witchhat01.jpg,"[0.035, 0.035]",,,,,,,,,,,,,0,1,1,6,0,2,2,12,,,,,,,,,,,,,,,3.797595190380761,,,,,,,,,,,1,,,,,,,,,,,,,,534.3299707999686,534.3299707999686,534.3299707999686,534.3299707999686,534.3299707999686,534.5323051000014,534.6822336000623,538.2689251999836,538.2689251999836,538.2689251999836,['s'],[0.5558988000266254],,,,,,,,,,,,,,,,,,,,,,,,,,,,,,,,,,,,,,,,,,,,,,,,,,,,,,,,260018,2024-03-19_16h08.01.095,mfe_c_object,2022.2.4,59.95743022147381,
flanker_main_block_7.csv,img/rightArrow.png,img/rightArrow.png,img/rightArrow.png,5,1,right,"[0, 0]","[0.0385, 0]","[-0.0385, 0]",img/object_images/coloring_pencil01.jpg,"[0.035, 0.035]",,,,,,,,,,,,,0,1,1,6,0,3,3,14,,,,,,,,,,,,,,,3.94689378757515,,,,,,,,,,,1,,,,,,,,,,,,,,538.2689251999836,538.2689251999836,538.2689251999836,538.2689251999836,538.2689251999836,538.4696047999896,538.619695500005,542.3533517000033,542.3533517000033,542.3533517000033,['k'],[0.6576244999887422],,,,,,,,,,,,,,,,,,,,,,,,,,,,,,,,,,,,,,,,,,,,,,,,,,,,,,,,260018,2024-03-19_16h08.01.095,mfe_c_object,2022.2.4,59.95743022147381,
flanker_main_block_7.csv,img/rightArrow.png,img/rightArrow.png,img/rightArrow.png,5,1,right,"[0, 0]","[0.0385, 0]","[-0.0385, 0]",img/object_images/lawn_mower01.jpg,"[0.035, 0.035]",,,,,,,,,,,,,0,1,1,6,0,4,4,2,,,,,,,,,,,,,,,3.7635270541082164,,,,,,,,,,,1,,,,,,,,,,,,,,542.3533517000033,542.3533517000033,542.3533517000033,542.3533517000033,542.3533517000033,542.557103900006,542.706893100054,546.2615704999771,546.2615704999771,546.2615704999771,['k'],[0.6841519000008702],,,,,,,,,,,,,,,,,,,,,,,,,,,,,,,,,,,,,,,,,,,,,,,,,,,,,,,,260018,2024-03-19_16h08.01.095,mfe_c_object,2022.2.4,59.95743022147381,
flanker_main_block_7.csv,img/rightArrow.png,img/rightArrow.png,img/rightArrow.png,5,1,right,"[0, 0]","[0.0385, 0]","[-0.0385, 0]",img/object_images/pitcher02.jpg,"[0.035, 0.035]",,,,,,,,,,,,,0,1,1,6,0,5,5,3,,,,,,,,,,,,,,,3.6372745490981964,,,,,,,,,,,1,,,,,,,,,,,,,,546.2615704999771,546.2615704999771,546.2615704999771,546.2615704999771,546.2615704999771,546.46088769997,546.6107542000245,550.0641446000664,550.0641446000664,550.0641446000664,['k'],[0.5367587999207899],,,,,,,,,,,,,,,,,,,,,,,,,,,,,,,,,,,,,,,,,,,,,,,,,,,,,,,,260018,2024-03-19_16h08.01.095,mfe_c_object,2022.2.4,59.95743022147381,
flanker_main_block_7.csv,img/leftArrow.png,img/rightArrow.png,img/rightArrow.png,8,0,left,"[0, 0]","[0.0385, 0]","[-0.0385, 0]",img/object_images/bath_tub01.jpg,"[0.035, 0.035]",,,,,,,,,,,,,0,1,1,6,0,6,6,11,,,,,,,,,,,,,,,3.6773547094188377,,,,,,,,,,,0,,,,,,,,,,,,,,550.0641446000664,550.0641446000664,550.0641446000664,550.0641446000664,550.0641446000664,550.2648030000273,550.4146528999554,553.8814999000169,553.8814999000169,553.8814999000169,['k'],[0.6378446000162512],,,,,,,,,,,,,,,,,,,,,,,,,,,,,,,,,,,,,,,,,,,,,,,,,,,,,,,,260018,2024-03-19_16h08.01.095,mfe_c_object,2022.2.4,59.95743022147381,
flanker_main_block_7.csv,img/rightArrow.png,img/leftArrow.png,img/leftArrow.png,7,0,right,"[0, 0]","[0.0385, 0]","[-0.0385, 0]",img/object_images/paper_cup01.jpg,"[0.035, 0.035]",,,,,,,,,,,,,0,1,1,6,0,7,7,18,,,,,,,,,,,,,,,4.0,,,,,,,,,,,1,,,,,,,,,,,,,,553.8814999000169,553.8814999000169,553.8814999000169,553.8814999000169,553.8814999000169,554.0851479000412,554.2351440000348,558.0221928999526,558.0221928999526,558.0221928999526,['k'],[0.596308899926953],,,,,,,,,,,,,,,,,,,,,,,,,,,,,,,,,,,,,,,,,,,,,,,,,,,,,,,,260018,2024-03-19_16h08.01.095,mfe_c_object,2022.2.4,59.95743022147381,
flanker_main_block_7.csv,img/rightArrow.png,img/leftArrow.png,img/leftArrow.png,7,0,right,"[0, 0]","[0.0385, 0]","[-0.0385, 0]",img/object_images/couch03.jpg,"[0.035, 0.035]",,,,,,,,,,,,,0,1,1,6,0,8,8,10,,,,,,,,,,,,,,,3.8016032064128256,,,,,,,,,,,1,,,,,,,,,,,,,,558.0221928999526,558.0221928999526,558.0221928999526,558.0221928999526,558.0221928999526,558.2227369999746,558.3725348999724,561.9578855000436,561.9578855000436,561.9578855000436,['k'],[0.5752795999869704],,,,,,,,,,,,,,,,,,,,,,,,,,,,,,,,,,,,,,,,,,,,,,,,,,,,,,,,260018,2024-03-19_16h08.01.095,mfe_c_object,2022.2.4,59.95743022147381,
flanker_main_block_7.csv,img/leftArrow.png,img/rightArrow.png,img/rightArrow.png,8,0,left,"[0, 0]","[0.0385, 0]","[-0.0385, 0]",img/object_images/vga_port 01.jpg,"[0.035, 0.035]",,,,,,,,,,,,,0,1,1,6,0,9,9,16,,,,,,,,,,,,,,,3.87875751503006,,,,,,,,,,,1,,,,,,,,,,,,,,561.9578855000436,561.9578855000436,561.9578855000436,561.9578855000436,561.9578855000436,562.160036199959,562.3098333000671,565.9800607999787,565.9800607999787,565.9800607999787,['s'],[0.8319179000100121],,,,,,,,,,,,,,,,,,,,,,,,,,,,,,,,,,,,,,,,,,,,,,,,,,,,,,,,260018,2024-03-19_16h08.01.095,mfe_c_object,2022.2.4,59.95743022147381,
flanker_main_block_7.csv,img/leftArrow.png,img/leftArrow.png,img/leftArrow.png,6,1,left,"[0, 0]","[0.0385, 0]","[-0.0385, 0]",img/object_images/camera07.jpg,"[0.035, 0.035]",,,,,,,,,,,,,0,1,1,6,0,10,10,28,,,,,,,,,,,,,,,3.535070140280561,,,,,,,,,,,1,,,,,,,,,,,,,,565.9800607999787,565.9800607999787,565.9800607999787,565.9800607999787,565.9800607999787,566.1805747000035,566.3305645000655,569.6610349999974,569.6610349999974,569.6610349999974,['s'],[0.5854678999166936],,,,,,,,,,,,,,,,,,,,,,,,,,,,,,,,,,,,,,,,,,,,,,,,,,,,,,,,260018,2024-03-19_16h08.01.095,mfe_c_object,2022.2.4,59.95743022147381,
flanker_main_block_7.csv,img/rightArrow.png,img/leftArrow.png,img/leftArrow.png,7,0,right,"[0, 0]","[0.0385, 0]","[-0.0385, 0]",img/object_images/ironing_table01.jpg,"[0.035, 0.035]",,,,,,,,,,,,,0,1,1,6,0,11,11,5,,,,,,,,,,,,,,,3.5200400801603204,,,,,,,,,,,1,,,,,,,,,,,,,,569.6610349999974,569.6610349999974,569.6610349999974,569.6610349999974,569.6610349999974,569.8675294000423,570.017623999971,573.3183824999724,573.3183824999724,573.3183824999724,['k'],[0.9371281999628991],,,,,,,,,,,,,,,,,,,,,,,,,,,,,,,,,,,,,,,,,,,,,,,,,,,,,,,,260018,2024-03-19_16h08.01.095,mfe_c_object,2022.2.4,59.95743022147381,
flanker_main_block_7.csv,img/leftArrow.png,img/rightArrow.png,img/rightArrow.png,8,0,left,"[0, 0]","[0.0385, 0]","[-0.0385, 0]",img/object_images/dresser04.jpg,"[0.035, 0.035]",,,,,,,,,,,,,0,1,1,6,0,12,12,15,,,,,,,,,,,,,,,4.0,,,,,,,,,,,1,,,,,,,,,,,,,,573.3183824999724,573.3183824999724,573.3183824999724,573.3183824999724,573.3183824999724,573.5213266999926,573.6712373000337,577.456811400014,577.456811400014,577.456811400014,['s'],[0.6637817999580875],,,,,,,,,,,,,,,,,,,,,,,,,,,,,,,,,,,,,,,,,,,,,,,,,,,,,,,,260018,2024-03-19_16h08.01.095,mfe_c_object,2022.2.4,59.95743022147381,
flanker_main_block_7.csv,img/rightArrow.png,img/leftArrow.png,img/leftArrow.png,7,0,right,"[0, 0]","[0.0385, 0]","[-0.0385, 0]",img/object_images/socks02.jpg,"[0.035, 0.035]",,,,,,,,,,,,,0,1,1,6,0,13,13,26,,,,,,,,,,,,,,,3.588176352705411,,,,,,,,,,,1,,,,,,,,,,,,,,577.456811400014,577.456811400014,577.456811400014,577.456811400014,577.456811400014,577.6588808000088,577.8087019000668,581.1728924000636,581.1728924000636,581.1728924000636,['k'],[0.6694555999711156],,,,,,,,,,,,,,,,,,,,,,,,,,,,,,,,,,,,,,,,,,,,,,,,,,,,,,,,260018,2024-03-19_16h08.01.095,mfe_c_object,2022.2.4,59.95743022147381,
flanker_main_block_7.csv,img/leftArrow.png,img/leftArrow.png,img/leftArrow.png,6,1,left,"[0, 0]","[0.0385, 0]","[-0.0385, 0]",img/object_images/fork03.jpg,"[0.035, 0.035]",,,,,,,,,,,,,0,1,1,6,0,14,14,13,,,,,,,,,,,,,,,3.9318637274549095,,,,,,,,,,,1,,,,,,,,,,,,,,581.1728924000636,581.1728924000636,581.1789273000322,581.1728924000636,581.1728924000636,581.3790198999923,581.5288583000656,585.2425220999867,585.2425220999867,585.2425220999867,['s'],[0.8249231999507174],,,,,,,,,,,,,,,,,,,,,,,,,,,,,,,,,,,,,,,,,,,,,,,,,,,,,,,,260018,2024-03-19_16h08.01.095,mfe_c_object,2022.2.4,59.95743022147381,
flanker_main_block_7.csv,img/rightArrow.png,img/rightArrow.png,img/rightArrow.png,5,1,right,"[0, 0]","[0.0385, 0]","[-0.0385, 0]",img/object_images/wallet02.jpg,"[0.035, 0.035]",,,,,,,,,,,,,0,1,1,6,0,15,15,17,,,,,,,,,,,,,,,3.775551102204409,,,,,,,,,,,1,,,,,,,,,,,,,,585.2425220999867,585.2425220999867,585.2489915000042,585.2425220999867,585.2425220999867,585.4497131999815,585.5997450000141,589.1519489999628,589.1519489999628,589.1519489999628,['k'],[1.7396463999757543],,,,,,,,,,,,,,,,,,,,,,,,,,,,,,,,,,,,,,,,,,,,,,,,,,,,,,,,260018,2024-03-19_16h08.01.095,mfe_c_object,2022.2.4,59.95743022147381,
flanker_main_block_7.csv,img/leftArrow.png,img/rightArrow.png,img/rightArrow.png,8,0,left,"[0, 0]","[0.0385, 0]","[-0.0385, 0]",img/object_images/sleeping_bag01.jpg,"[0.035, 0.035]",,,,,,,,,,,,,0,1,1,6,0,16,16,0,,,,,,,,,,,,,,,3.564128256513026,,,,,,,,,,,1,,,,,,,,,,,,,,589.1519489999628,589.1519489999628,589.1519489999628,589.1519489999628,589.1519489999628,589.353684599977,589.5036464000586,592.8715938000241,592.8715938000241,592.8715938000241,['s'],[0.6307051999028772],,,,,,,,,,,,,,,,,,,,,,,,,,,,,,,,,,,,,,,,,,,,,,,,,,,,,,,,260018,2024-03-19_16h08.01.095,mfe_c_object,2022.2.4,59.95743022147381,
flanker_main_block_7.csv,img/leftArrow.png,img/leftArrow.png,img/leftArrow.png,6,1,left,"[0, 0]","[0.0385, 0]","[-0.0385, 0]",img/object_images/lock04.jpg,"[0.035, 0.035]",,,,,,,,,,,,,0,1,1,6,0,17,17,7,,,,,,,,,,,,,,,3.74749498997996,,,,,,,,,,,1,,,,,,,,,,,,,,592.8715938000241,592.8715938000241,592.8715938000241,592.8715938000241,592.8715938000241,593.0741235000314,593.2240123000229,596.7550077000633,596.7550077000633,596.7550077000633,['s'],[0.5741601000772789],,,,,,,,,,,,,,,,,,,,,,,,,,,,,,,,,,,,,,,,,,,,,,,,,,,,,,,,260018,2024-03-19_16h08.01.095,mfe_c_object,2022.2.4,59.95743022147381,
flanker_main_block_7.csv,img/rightArrow.png,img/rightArrow.png,img/rightArrow.png,5,1,right,"[0, 0]","[0.0385, 0]","[-0.0385, 0]",img/object_images/clip02.jpg,"[0.035, 0.035]",,,,,,,,,,,,,0,1,1,6,0,18,18,27,,,,,,,,,,,,,,,3.874749498997996,,,,,,,,,,,1,,,,,,,,,,,,,,596.7550077000633,596.7550077000633,596.7612954999786,596.7550077000633,596.7550077000633,596.9614386999747,597.1112347999588,600.7655564000597,600.7655564000597,600.7655564000597,['k'],[0.7884864000370726],,,,,,,,,,,,,,,,,,,,,,,,,,,,,,,,,,,,,,,,,,,,,,,,,,,,,,,,260018,2024-03-19_16h08.01.095,mfe_c_object,2022.2.4,59.95743022147381,
flanker_main_block_7.csv,img/rightArrow.png,img/leftArrow.png,img/leftArrow.png,7,0,right,"[0, 0]","[0.0385, 0]","[-0.0385, 0]",img/object_images/jacket03.jpg,"[0.035, 0.035]",,,,,,,,,,,,,0,1,1,6,0,19,19,4,,,,,,,,,,,,,,,3.8557114228456912,,,,,,,,,,,1,,,,,,,,,,,,,,600.7655564000597,600.7655564000597,600.7655564000597,600.7655564000597,600.7655564000597,600.9652735999553,601.1154120999854,604.7677839000244,604.7677839000244,604.7677839000244,['k'],[0.6965779999736696],,,,,,,,,,,,,,,,,,,,,,,,,,,,,,,,,,,,,,,,,,,,,,,,,,,,,,,,260018,2024-03-19_16h08.01.095,mfe_c_object,2022.2.4,59.95743022147381,
flanker_main_block_7.csv,img/leftArrow.png,img/rightArrow.png,img/rightArrow.png,8,0,left,"[0, 0]","[0.0385, 0]","[-0.0385, 0]",img/object_images/handkerchief01.jpg,"[0.035, 0.035]",,,,,,,,,,,,,0,1,1,6,0,20,20,31,,,,,,,,,,,,,,,3.7184368737474953,,,,,,,,,,,1,,,,,,,,,,,,,,604.7677839000244,604.7677839000244,604.7677839000244,604.7677839000244,604.7677839000244,604.9692853000015,605.1192142000655,608.620232300018,608.620232300018,608.620232300018,['s'],[0.7500758999958634],,,,,,,,,,,,,,,,,,,,,,,,,,,,,,,,,,,,,,,,,,,,,,,,,,,,,,,,260018,2024-03-19_16h08.01.095,mfe_c_object,2022.2.4,59.95743022147381,
flanker_main_block_7.csv,img/leftArrow.png,img/leftArrow.png,img/leftArrow.png,6,1,left,"[0, 0]","[0.0385, 0]","[-0.0385, 0]",img/object_images/Screws01.jpg,"[0.035, 0.035]",,,,,,,,,,,,,0,1,1,6,0,21,21,6,,,,,,,,,,,,,,,3.8376753507014025,,,,,,,,,,,1,,,,,,,,,,,,,,608.620232300018,608.620232300018,608.620232300018,608.620232300018,608.620232300018,608.8231801000657,608.9731030999683,612.5956557999598,612.5956557999598,612.5956557999598,['s'],[0.8419241000665352],,,,,,,,,,,,,,,,,,,,,,,,,,,,,,,,,,,,,,,,,,,,,,,,,,,,,,,,260018,2024-03-19_16h08.01.095,mfe_c_object,2022.2.4,59.95743022147381,
flanker_main_block_7.csv,img/rightArrow.png,img/rightArrow.png,img/rightArrow.png,5,1,right,"[0, 0]","[0.0385, 0]","[-0.0385, 0]",img/object_images/gift_box02.jpg,"[0.035, 0.035]",,,,,,,,,,,,,0,1,1,6,0,22,22,1,,,,,,,,,,,,,,,3.971943887775551,,,,,,,,,,,1,,,,,,,,,,,,,,612.5956557999598,612.5956557999598,612.5956557999598,612.5956557999598,612.5956557999598,612.8104502999922,612.9604576999554,616.7317855999572,616.7317855999572,616.7317855999572,['k'],[0.6582783999620005],,,,,,,,,,,,,,,,,,,,,,,,,,,,,,,,,,,,,,,,,,,,,,,,,,,,,,,,260018,2024-03-19_16h08.01.095,mfe_c_object,2022.2.4,59.95743022147381,
flanker_main_block_7.csv,img/rightArrow.png,img/leftArrow.png,img/leftArrow.png,7,0,right,"[0, 0]","[0.0385, 0]","[-0.0385, 0]",img/object_images/bow_tie02.jpg,"[0.035, 0.035]",,,,,,,,,,,,,0,1,1,6,0,23,23,19,,,,,,,,,,,,,,,3.760521042084168,,,,,,,,,,,1,,,,,,,,,,,,,,616.7317855999572,616.7317855999572,616.7317855999572,616.7317855999572,616.7317855999572,616.9312658000272,617.0812697999645,620.650352000026,620.650352000026,620.650352000026,['k'],[0.5935438999440521],,,,,,,,,,,,,,,,,,,,,,,,,,,,,,,,,,,,,,,,,,,,,,,,,,,,,,,,260018,2024-03-19_16h08.01.095,mfe_c_object,2022.2.4,59.95743022147381,
flanker_main_block_7.csv,img/rightArrow.png,img/leftArrow.png,img/leftArrow.png,7,0,right,"[0, 0]","[0.0385, 0]","[-0.0385, 0]",img/object_images/gift_box03.jpg,"[0.035, 0.035]",,,,,,,,,,,,,0,1,1,6,0,24,24,25,,,,,,,,,,,,,,,3.996993987975952,,,,,,,,,,,1,,,,,,,,,,,,,,620.650352000026,620.650352000026,620.650352000026,620.650352000026,620.650352000026,620.8517632000148,621.0019835999701,624.7821806999855,624.7821806999855,624.7821806999855,['k'],[0.7798347999341786],,,,,,,,,,,,,,,,,,,,,,,,,,,,,,,,,,,,,,,,,,,,,,,,,,,,,,,,260018,2024-03-19_16h08.01.095,mfe_c_object,2022.2.4,59.95743022147381,
flanker_main_block_7.csv,img/rightArrow.png,img/rightArrow.png,img/rightArrow.png,5,1,right,"[0, 0]","[0.0385, 0]","[-0.0385, 0]",img/object_images/grater01.jpg,"[0.035, 0.035]",,,,,,,,,,,,,0,1,1,6,0,25,25,22,,,,,,,,,,,,,,,3.691382765531062,,,,,,,,,,,1,,,,,,,,,,,,,,624.7821806999855,624.7821806999855,624.7886482999893,624.7821806999855,624.7821806999855,624.9894412000431,625.1391601000214,628.6032543999609,628.6032543999609,628.6032543999609,['k'],[0.6559801999246702],,,,,,,,,,,,,,,,,,,,,,,,,,,,,,,,,,,,,,,,,,,,,,,,,,,,,,,,260018,2024-03-19_16h08.01.095,mfe_c_object,2022.2.4,59.95743022147381,
flanker_main_block_7.csv,img/leftArrow.png,img/rightArrow.png,img/rightArrow.png,8,0,left,"[0, 0]","[0.0385, 0]","[-0.0385, 0]",img/object_images/hammer01.jpg,"[0.035, 0.035]",,,,,,,,,,,,,0,1,1,6,0,26,26,30,,,,,,,,,,,,,,,3.5160320641282565,,,,,,,,,,,1,,,,,,,,,,,,,,628.6032543999609,628.6032543999609,628.6095179000404,628.6032543999609,628.6032543999609,628.8096212999662,628.9596707000164,632.2596666000318,632.2596666000318,632.2596666000318,['s'],[0.7390084000071511],,,,,,,,,,,,,,,,,,,,,,,,,,,,,,,,,,,,,,,,,,,,,,,,,,,,,,,,260018,2024-03-19_16h08.01.095,mfe_c_object,2022.2.4,59.95743022147381,
flanker_main_block_7.csv,img/leftArrow.png,img/rightArrow.png,img/rightArrow.png,8,0,left,"[0, 0]","[0.0385, 0]","[-0.0385, 0]",img/object_images/balloon01.jpg,"[0.035, 0.035]",,,,,,,,,,,,,0,1,1,6,0,27,27,21,,,,,,,,,,,,,,,3.6342685370741483,,,,,,,,,,,1,,,,,,,,,,,,,,632.2596666000318,632.2596666000318,632.2596666000318,632.2596666000318,632.2596666000318,632.4635480999714,632.6134636000497,636.0358680000063,636.0358680000063,636.0358680000063,['s'],[0.6826304999412969],,,,,,,,,,,,,,,,,,,,,,,,,,,,,,,,,,,,,,,,,,,,,,,,,,,,,,,,260018,2024-03-19_16h08.01.095,mfe_c_object,2022.2.4,59.95743022147381,
flanker_main_block_7.csv,img/rightArrow.png,img/leftArrow.png,img/leftArrow.png,7,0,right,"[0, 0]","[0.0385, 0]","[-0.0385, 0]",img/object_images/bow_tie01.jpg,"[0.035, 0.035]",,,,,,,,,,,,,0,1,1,6,0,28,28,8,,,,,,,,,,,,,,,3.614228456913828,,,,,,,,,,,1,,,,,,,,,,,,,,636.0358680000063,636.0358680000063,636.0358680000063,636.0358680000063,636.0358680000063,636.2504971000599,636.4005501000211,639.8069608999649,639.8069608999649,639.8069608999649,['k'],[0.5548089999938384],,,,,,,,,,,,,,,,,,,,,,,,,,,,,,,,,,,,,,,,,,,,,,,,,,,,,,,,260018,2024-03-19_16h08.01.095,mfe_c_object,2022.2.4,59.95743022147381,
flanker_main_block_7.csv,img/leftArrow.png,img/rightArrow.png,img/rightArrow.png,8,0,left,"[0, 0]","[0.0385, 0]","[-0.0385, 0]",img/object_images/funnel01.jpg,"[0.035, 0.035]",,,,,,,,,,,,,0,1,1,6,0,29,29,9,,,,,,,,,,,,,,,3.504008016032064,,,,,,,,,,,1,,,,,,,,,,,,,,639.8069608999649,639.8069608999649,639.8069608999649,639.8069608999649,639.8069608999649,640.0209932000143,640.1707695999648,643.4511481999652,643.4511481999652,643.4511481999652,['s'],[0.8231257000006735],,,,,,,,,,,,,,,,,,,,,,,,,,,,,,,,,,,,,,,,,,,,,,,,,,,,,,,,260018,2024-03-19_16h08.01.095,mfe_c_object,2022.2.4,59.95743022147381,
flanker_main_block_7.csv,img/leftArrow.png,img/leftArrow.png,img/leftArrow.png,6,1,left,"[0, 0]","[0.0385, 0]","[-0.0385, 0]",img/object_images/jewelry01.jpg,"[0.035, 0.035]",,,,,,,,,,,,,0,1,1,6,0,30,30,23,,,,,,,,,,,,,,,3.6923847695390783,,,,,,,,,,,1,,,,,,,,,,,,,,643.4511481999652,643.4511481999652,643.4576273000566,643.4511481999652,643.4511481999652,643.6581006000051,643.8078898000531,647.2748253999744,647.2748253999744,647.2748253999744,['s'],[0.5801796999294311],,,,,,,,,,,,,,,,,,,,,,,,,,,,,,,,,,,,,,,,,,,,,,,,,,,,,,,,260018,2024-03-19_16h08.01.095,mfe_c_object,2022.2.4,59.95743022147381,
flanker_main_block_7.csv,img/rightArrow.png,img/rightArrow.png,img/rightArrow.png,5,1,right,"[0, 0]","[0.0385, 0]","[-0.0385, 0]",img/object_images/measuring_tape02.jpg,"[0.035, 0.035]",,,,,,,,,,,,,0,1,1,6,0,31,31,29,,,,,,,,,,,,,,,3.779559118236473,,,,,,,,,,,1,,,,,,,,,,,,,,647.2748253999744,647.2748253999744,647.2748253999744,647.2748253999744,647.2748253999744,647.4784218999557,647.6282456000336,651.0641692000208,651.0641692000208,651.0641692000208,['k'],[0.8194849999854341],,,,,,,,,,,,,,,,,,,,,,,,,,,,,,,,,,,,,,,,,,,,,,,,,,,,,,,,260018,2024-03-19_16h08.01.095,mfe_c_object,2022.2.4,59.95743022147381,
flanker_main_block_7.csv,,,,,,,,,,,,,,,,,,,,,,,,0,1,1,6,,,,,,,,,,,,,,,,,,,,,,,,,,,,,,,,,,,,,,,,,,,,,,,,,,,,,,,,2,651.0641692000208,661.0575037000235,k,0.7639274999964982,,,,,,,,,,,,,,,,,,,,,,,,,,,,,,,,,,,,,,,,,,,,,,,,,,,260018,2024-03-19_16h08.01.095,mfe_c_object,2022.2.4,59.95743022147381,
flanker_main_block_12.csv,img/leftArrow.png,img/rightArrow.png,img/rightArrow.png,8,0,left,"[0, 0]","[0.0385, 0]","[-0.0385, 0]",img/object_images/couch01.jpg,"[0.035, 0.035]",,,,,,,,,,,,,0,2,2,11,0,0,0,4,,,,,,,,,,,,,,662.4798378000269,3.656312625250501,,,,,,,,,,,1,,,,,,,,,,661.8418184999609,661.8418184999609,k,0.6041294999886304,664.6647819000063,664.6647819000063,664.6647819000063,664.6647819000063,664.6647819000063,664.8791746000061,665.0291651999578,668.465075999964,668.465075999964,668.465075999964,['s'],[0.6544773000059649],,,,,,,,,,,,,,,,,,,,,,,,,,,,,,,,,,,,,,,,,,,,,,,,,,,,,,,,260018,2024-03-19_16h08.01.095,mfe_c_object,2022.2.4,59.95743022147381,
flanker_main_block_12.csv,img/leftArrow.png,img/rightArrow.png,img/rightArrow.png,8,0,left,"[0, 0]","[0.0385, 0]","[-0.0385, 0]",img/object_images/box03.jpg,"[0.035, 0.035]",,,,,,,,,,,,,0,2,2,11,0,1,1,10,,,,,,,,,,,,,,,3.9929859719438876,,,,,,,,,,,1,,,,,,,,,,,,,,668.465075999964,668.465075999964,668.465075999964,668.465075999964,668.465075999964,668.6662206000183,668.8162619000068,672.6011323999846,672.6011323999846,672.6011323999846,['s'],[0.7251977999694645],,,,,,,,,,,,,,,,,,,,,,,,,,,,,,,,,,,,,,,,,,,,,,,,,,,,,,,,260018,2024-03-19_16h08.01.095,mfe_c_object,2022.2.4,59.95743022147381,
flanker_main_block_12.csv,img/rightArrow.png,img/leftArrow.png,img/leftArrow.png,7,0,right,"[0, 0]","[0.0385, 0]","[-0.0385, 0]",img/object_images/chain01.jpg,"[0.035, 0.035]",,,,,,,,,,,,,0,2,2,11,0,2,2,8,,,,,,,,,,,,,,,3.624248496993988,,,,,,,,,,,1,,,,,,,,,,,,,,672.6011323999846,672.6011323999846,672.6011323999846,672.6011323999846,672.6011323999846,672.8037118000211,672.9536529000616,676.3738768000621,676.3738768000621,676.3738768000621,['k'],[0.6766805000370368],,,,,,,,,,,,,,,,,,,,,,,,,,,,,,,,,,,,,,,,,,,,,,,,,,,,,,,,260018,2024-03-19_16h08.01.095,mfe_c_object,2022.2.4,59.95743022147381,
flanker_main_block_12.csv,img/rightArrow.png,img/leftArrow.png,img/leftArrow.png,7,0,right,"[0, 0]","[0.0385, 0]","[-0.0385, 0]",img/object_images/computer_mouse02.jpg,"[0.035, 0.035]",,,,,,,,,,,,,0,2,2,11,0,3,3,26,,,,,,,,,,,,,,,3.509018036072144,,,,,,,,,,,1,,,,,,,,,,,,,,676.3738768000621,676.3738768000621,676.3738768000621,676.3738768000621,676.3738768000621,676.5740836999612,676.7240395999979,680.027008999954,680.027008999954,680.027008999954,['k'],[0.6639567000092939],,,,,,,,,,,,,,,,,,,,,,,,,,,,,,,,,,,,,,,,,,,,,,,,,,,,,,,,260018,2024-03-19_16h08.01.095,mfe_c_object,2022.2.4,59.95743022147381,
flanker_main_block_12.csv,img/rightArrow.png,img/leftArrow.png,img/leftArrow.png,7,0,right,"[0, 0]","[0.0385, 0]","[-0.0385, 0]",img/object_images/toothbrush01.jpg,"[0.035, 0.035]",,,,,,,,,,,,,0,2,2,11,0,4,4,29,,,,,,,,,,,,,,,3.7955911823647295,,,,,,,,,,,1,,,,,,,,,,,,,,680.027008999954,680.027008999954,680.027008999954,680.027008999954,680.027008999954,680.2277228999883,680.3776070000604,683.9719800000312,683.9719800000312,683.9719800000312,['k'],[0.5543741999426857],,,,,,,,,,,,,,,,,,,,,,,,,,,,,,,,,,,,,,,,,,,,,,,,,,,,,,,,260018,2024-03-19_16h08.01.095,mfe_c_object,2022.2.4,59.95743022147381,
flanker_main_block_12.csv,img/leftArrow.png,img/leftArrow.png,img/leftArrow.png,6,1,left,"[0, 0]","[0.0385, 0]","[-0.0385, 0]",img/object_images/book02.jpg,"[0.035, 0.035]",,,,,,,,,,,,,0,2,2,11,0,5,5,16,,,,,,,,,,,,,,,3.9318637274549095,,,,,,,,,,,1,,,,,,,,,,,,,,683.9719800000312,683.9719800000312,683.9719800000312,683.9719800000312,683.9719800000312,684.1816924000159,684.3316771000391,688.0511366999708,688.0511366999708,688.0511366999708,['s'],[0.6496607000008225],,,,,,,,,,,,,,,,,,,,,,,,,,,,,,,,,,,,,,,,,,,,,,,,,,,,,,,,260018,2024-03-19_16h08.01.095,mfe_c_object,2022.2.4,59.95743022147381,
flanker_main_block_12.csv,img/leftArrow.png,img/leftArrow.png,img/leftArrow.png,6,1,left,"[0, 0]","[0.0385, 0]","[-0.0385, 0]",img/object_images/bag_pipes01.jpg,"[0.035, 0.035]",,,,,,,,,,,,,0,2,2,11,0,6,6,30,,,,,,,,,,,,,,,3.723446893787575,,,,,,,,,,,1,,,,,,,,,,,,,,688.0511366999708,688.0511366999708,688.0511366999708,688.0511366999708,688.0511366999708,688.2523980999831,688.4023907000665,691.9212906999746,691.9212906999746,691.9212906999746,['s'],[0.7703335999976844],,,,,,,,,,,,,,,,,,,,,,,,,,,,,,,,,,,,,,,,,,,,,,,,,,,,,,,,260018,2024-03-19_16h08.01.095,mfe_c_object,2022.2.4,59.95743022147381,
flanker_main_block_12.csv,img/leftArrow.png,img/leftArrow.png,img/leftArrow.png,6,1,left,"[0, 0]","[0.0385, 0]","[-0.0385, 0]",img/object_images/floss02.jpg,"[0.035, 0.035]",,,,,,,,,,,,,0,2,2,11,0,7,7,20,,,,,,,,,,,,,,,3.8947895791583163,,,,,,,,,,,1,,,,,,,,,,,,,,691.9212906999746,691.9212906999746,691.9212906999746,691.9212906999746,691.9212906999746,692.1228942000307,692.2728408999974,695.9623595000012,695.9623595000012,695.9623595000012,['s'],[0.7084706999594346],,,,,,,,,,,,,,,,,,,,,,,,,,,,,,,,,,,,,,,,,,,,,,,,,,,,,,,,260018,2024-03-19_16h08.01.095,mfe_c_object,2022.2.4,59.95743022147381,
flanker_main_block_12.csv,img/rightArrow.png,img/rightArrow.png,img/rightArrow.png,5,1,right,"[0, 0]","[0.0385, 0]","[-0.0385, 0]",img/object_images/computer_mouse01.jpg,"[0.035, 0.035]",,,,,,,,,,,,,0,2,2,11,0,8,8,21,,,,,,,,,,,,,,,3.7054108216432864,,,,,,,,,,,1,,,,,,,,,,,,,,695.9623595000012,695.9623595000012,695.9623595000012,695.9623595000012,695.9623595000012,696.1769863000372,696.3269777999958,699.8145404000534,699.8145404000534,699.8145404000534,['k'],[0.8831813000142574],,,,,,,,,,,,,,,,,,,,,,,,,,,,,,,,,,,,,,,,,,,,,,,,,,,,,,,,260018,2024-03-19_16h08.01.095,mfe_c_object,2022.2.4,59.95743022147381,
flanker_main_block_12.csv,img/rightArrow.png,img/leftArrow.png,img/leftArrow.png,7,0,right,"[0, 0]","[0.0385, 0]","[-0.0385, 0]",img/object_images/Violin01.jpg,"[0.035, 0.035]",,,,,,,,,,,,,0,2,2,11,0,9,9,15,,,,,,,,,,,,,,,3.797595190380761,,,,,,,,,,,1,,,,,,,,,,,,,,699.8145404000534,699.8145404000534,699.8145404000534,699.8145404000534,699.8145404000534,700.0142026999965,700.1641185999615,703.7633283999749,703.7633283999749,703.7633283999749,['k'],[0.7679520000237972],,,,,,,,,,,,,,,,,,,,,,,,,,,,,,,,,,,,,,,,,,,,,,,,,,,,,,,,260018,2024-03-19_16h08.01.095,mfe_c_object,2022.2.4,59.95743022147381,
flanker_main_block_12.csv,img/leftArrow.png,img/rightArrow.png,img/rightArrow.png,8,0,left,"[0, 0]","[0.0385, 0]","[-0.0385, 0]",img/object_images/tool06.jpg,"[0.035, 0.035]",,,,,,,,,,,,,0,2,2,11,0,10,10,22,,,,,,,,,,,,,,,3.880761523046092,,,,,,,,,,,1,,,,,,,,,,,,,,703.7633283999749,703.7633283999749,703.7633283999749,703.7633283999749,703.7633283999749,703.9682700999547,704.1183184999973,707.8081273999996,707.8081273999996,707.8081273999996,['s'],[0.9228090000106022],,,,,,,,,,,,,,,,,,,,,,,,,,,,,,,,,,,,,,,,,,,,,,,,,,,,,,,,260018,2024-03-19_16h08.01.095,mfe_c_object,2022.2.4,59.95743022147381,
flanker_main_block_12.csv,img/rightArrow.png,img/rightArrow.png,img/rightArrow.png,5,1,right,"[0, 0]","[0.0385, 0]","[-0.0385, 0]",img/object_images/egg_slicer01.jpg,"[0.035, 0.035]",,,,,,,,,,,,,0,2,2,11,0,11,11,25,,,,,,,,,,,,,,,3.6262525050100196,,,,,,,,,,,1,,,,,,,,,,,,,,707.8081273999996,707.8081273999996,707.8081273999996,707.8081273999996,707.8081273999996,708.0222080000676,708.1723084000405,711.5709733000258,711.5709733000258,711.5709733000258,['k'],[0.8215191001072526],,,,,,,,,,,,,,,,,,,,,,,,,,,,,,,,,,,,,,,,,,,,,,,,,,,,,,,,260018,2024-03-19_16h08.01.095,mfe_c_object,2022.2.4,59.95743022147381,
flanker_main_block_12.csv,img/leftArrow.png,img/rightArrow.png,img/rightArrow.png,8,0,left,"[0, 0]","[0.0385, 0]","[-0.0385, 0]",img/object_images/pen01.jpg,"[0.035, 0.035]",,,,,,,,,,,,,0,2,2,11,0,12,12,5,,,,,,,,,,,,,,,3.8977955911823647,,,,,,,,,,,1,,,,,,,,,,,,,,711.5709733000258,711.5709733000258,711.5773601999972,711.5709733000258,711.5709733000258,711.7926042999607,711.9258264000528,715.6066606000531,715.6066606000531,715.6066606000531,['s'],[0.7712622000835836],,,,,,,,,,,,,,,,,,,,,,,,,,,,,,,,,,,,,,,,,,,,,,,,,,,,,,,,260018,2024-03-19_16h08.01.095,mfe_c_object,2022.2.4,59.95743022147381,
flanker_main_block_12.csv,img/leftArrow.png,img/leftArrow.png,img/leftArrow.png,6,1,left,"[0, 0]","[0.0385, 0]","[-0.0385, 0]",img/object_images/clip04.jpg,"[0.035, 0.035]",,,,,,,,,,,,,0,2,2,11,0,13,13,7,,,,,,,,,,,,,,,3.580160320641282,,,,,,,,,,,1,,,,,,,,,,,,,,715.6066606000531,715.6066606000531,715.6127833999926,715.6066606000531,715.6066606000531,715.8132801000029,715.9631322000641,719.3298741000472,719.3298741000472,719.3298741000472,['s'],[1.0791893999557942],,,,,,,,,,,,,,,,,,,,,,,,,,,,,,,,,,,,,,,,,,,,,,,,,,,,,,,,260018,2024-03-19_16h08.01.095,mfe_c_object,2022.2.4,59.95743022147381,
flanker_main_block_12.csv,img/leftArrow.png,img/leftArrow.png,img/leftArrow.png,6,1,left,"[0, 0]","[0.0385, 0]","[-0.0385, 0]",img/object_images/tripod01.jpg,"[0.035, 0.035]",,,,,,,,,,,,,0,2,2,11,0,14,14,23,,,,,,,,,,,,,,,3.977955911823647,,,,,,,,,,,1,,,,,,,,,,,,,,719.3298741000472,719.3298741000472,719.3298741000472,719.3298741000472,719.3298741000472,719.5336440999527,719.6836252000649,723.4524303000653,723.4524303000653,723.4524303000653,['s'],[0.5399573999457061],,,,,,,,,,,,,,,,,,,,,,,,,,,,,,,,,,,,,,,,,,,,,,,,,,,,,,,,260018,2024-03-19_16h08.01.095,mfe_c_object,2022.2.4,59.95743022147381,
flanker_main_block_12.csv,img/rightArrow.png,img/rightArrow.png,img/rightArrow.png,5,1,right,"[0, 0]","[0.0385, 0]","[-0.0385, 0]",img/object_images/mail_box02.jpg,"[0.035, 0.035]",,,,,,,,,,,,,0,2,2,11,0,15,15,31,,,,,,,,,,,,,,,3.9809619238476954,,,,,,,,,,,1,,,,,,,,,,,,,,723.4524303000653,723.4524303000653,723.4524303000653,723.4524303000653,723.4524303000653,723.6544083000626,723.8045996000292,727.6297644999577,727.6297644999577,727.6297644999577,['k'],[0.5775995999574661],,,,,,,,,,,,,,,,,,,,,,,,,,,,,,,,,,,,,,,,,,,,,,,,,,,,,,,,260018,2024-03-19_16h08.01.095,mfe_c_object,2022.2.4,59.95743022147381,
flanker_main_block_12.csv,img/leftArrow.png,img/leftArrow.png,img/leftArrow.png,6,1,left,"[0, 0]","[0.0385, 0]","[-0.0385, 0]",img/object_images/airfryer02.jpg,"[0.035, 0.035]",,,,,,,,,,,,,0,2,2,11,0,16,16,11,,,,,,,,,,,,,,,3.6342685370741483,,,,,,,,,,,1,,,,,,,,,,,,,,727.6297644999577,727.6297644999577,727.6297644999577,727.6297644999577,727.6297644999577,727.8419783000136,727.9919243999757,731.4232316999696,731.4232316999696,731.4232316999696,['s'],[0.4635918999556452],,,,,,,,,,,,,,,,,,,,,,,,,,,,,,,,,,,,,,,,,,,,,,,,,,,,,,,,260018,2024-03-19_16h08.01.095,mfe_c_object,2022.2.4,59.95743022147381,
flanker_main_block_12.csv,img/leftArrow.png,img/leftArrow.png,img/leftArrow.png,6,1,left,"[0, 0]","[0.0385, 0]","[-0.0385, 0]",img/object_images/video_game03.jpg,"[0.035, 0.035]",,,,,,,,,,,,,0,2,2,11,0,17,17,0,,,,,,,,,,,,,,,3.6653306613226455,,,,,,,,,,,1,,,,,,,,,,,,,,731.4232316999696,731.4232316999696,731.4232316999696,731.4232316999696,731.4232316999696,731.6289741999935,731.7789619000396,735.2255576000316,735.2255576000316,735.2255576000316,['s'],[0.5184525999939069],,,,,,,,,,,,,,,,,,,,,,,,,,,,,,,,,,,,,,,,,,,,,,,,,,,,,,,,260018,2024-03-19_16h08.01.095,mfe_c_object,2022.2.4,59.95743022147381,
flanker_main_block_12.csv,img/rightArrow.png,img/leftArrow.png,img/leftArrow.png,7,0,right,"[0, 0]","[0.0385, 0]","[-0.0385, 0]",img/object_images/chair06.jpg,"[0.035, 0.035]",,,,,,,,,,,,,0,2,2,11,0,18,18,1,,,,,,,,,,,,,,,3.6452905811623246,,,,,,,,,,,1,,,,,,,,,,,,,,735.2255576000316,735.2255576000316,735.2319424999878,735.2255576000316,735.2255576000316,735.4327618000098,735.5827383999713,739.0125477999682,739.0125477999682,739.0125477999682,['k'],[0.7967091000173241],,,,,,,,,,,,,,,,,,,,,,,,,,,,,,,,,,,,,,,,,,,,,,,,,,,,,,,,260018,2024-03-19_16h08.01.095,mfe_c_object,2022.2.4,59.95743022147381,
flanker_main_block_12.csv,img/leftArrow.png,img/rightArrow.png,img/rightArrow.png,8,0,left,"[0, 0]","[0.0385, 0]","[-0.0385, 0]",img/object_images/Trowel01.jpg,"[0.035, 0.035]",,,,,,,,,,,,,0,2,2,11,0,19,19,27,,,,,,,,,,,,,,,4.0,,,,,,,,,,,1,,,,,,,,,,,,,,739.0125477999682,739.0125477999682,739.0187251999741,739.0125477999682,739.0125477999682,739.2199885000009,739.3698523000348,743.1552484000567,743.1552484000567,743.1552484000567,['s'],[0.8266142000211403],,,,,,,,,,,,,,,,,,,,,,,,,,,,,,,,,,,,,,,,,,,,,,,,,,,,,,,,260018,2024-03-19_16h08.01.095,mfe_c_object,2022.2.4,59.95743022147381,
flanker_main_block_12.csv,img/leftArrow.png,img/rightArrow.png,img/rightArrow.png,8,0,left,"[0, 0]","[0.0385, 0]","[-0.0385, 0]",img/object_images/soap03.jpg,"[0.035, 0.035]",,,,,,,,,,,,,0,2,2,11,0,20,20,12,,,,,,,,,,,,,,,3.893787575150301,,,,,,,,,,,1,,,,,,,,,,,,,,743.1552484000567,743.1552484000567,743.1552484000567,743.1552484000567,743.1552484000567,743.3573551999871,743.5075296000578,747.1929180000443,747.1929180000443,747.1929180000443,['s'],[0.586719200015068],,,,,,,,,,,,,,,,,,,,,,,,,,,,,,,,,,,,,,,,,,,,,,,,,,,,,,,,260018,2024-03-19_16h08.01.095,mfe_c_object,2022.2.4,59.95743022147381,
flanker_main_block_12.csv,img/rightArrow.png,img/rightArrow.png,img/rightArrow.png,5,1,right,"[0, 0]","[0.0385, 0]","[-0.0385, 0]",img/object_images/toy01.jpg,"[0.035, 0.035]",,,,,,,,,,,,,0,2,2,11,0,21,21,13,,,,,,,,,,,,,,,3.6693386773547094,,,,,,,,,,,1,,,,,,,,,,,,,,747.1929180000443,747.1929180000443,747.1929180000443,747.1929180000443,747.1929180000443,747.3947580000386,747.5447153999703,751.0352260000072,751.0352260000072,751.0352260000072,['k'],[0.685602999990806],,,,,,,,,,,,,,,,,,,,,,,,,,,,,,,,,,,,,,,,,,,,,,,,,,,,,,,,260018,2024-03-19_16h08.01.095,mfe_c_object,2022.2.4,59.95743022147381,
flanker_main_block_12.csv,img/rightArrow.png,img/rightArrow.png,img/rightArrow.png,5,1,right,"[0, 0]","[0.0385, 0]","[-0.0385, 0]",img/object_images/drone01.jpg,"[0.035, 0.035]",,,,,,,,,,,,,0,2,2,11,0,22,22,6,,,,,,,,,,,,,,,3.5891783567134268,,,,,,,,,,,1,,,,,,,,,,,,,,751.0352260000072,751.0352260000072,751.0352260000072,751.0352260000072,751.0352260000072,751.248528999975,751.3985973000526,754.7835889999988,754.7835889999988,754.7835889999988,['k'],[0.7070674999849871],,,,,,,,,,,,,,,,,,,,,,,,,,,,,,,,,,,,,,,,,,,,,,,,,,,,,,,,260018,2024-03-19_16h08.01.095,mfe_c_object,2022.2.4,59.95743022147381,
flanker_main_block_12.csv,img/rightArrow.png,img/leftArrow.png,img/leftArrow.png,7,0,right,"[0, 0]","[0.0385, 0]","[-0.0385, 0]",img/object_images/skate_board01.jpg,"[0.035, 0.035]",,,,,,,,,,,,,0,2,2,11,0,23,23,9,,,,,,,,,,,,,,,3.700400801603206,,,,,,,,,,,1,,,,,,,,,,,,,,754.7835889999988,754.7835889999988,754.7835889999988,754.7835889999988,754.7835889999988,754.9856737999944,755.1354945000494,758.630252800067,758.630252800067,758.630252800067,['k'],[0.726916900021024],,,,,,,,,,,,,,,,,,,,,,,,,,,,,,,,,,,,,,,,,,,,,,,,,,,,,,,,260018,2024-03-19_16h08.01.095,mfe_c_object,2022.2.4,59.95743022147381,
flanker_main_block_12.csv,img/leftArrow.png,img/rightArrow.png,img/rightArrow.png,8,0,left,"[0, 0]","[0.0385, 0]","[-0.0385, 0]",img/object_images/blender01.jpg,"[0.035, 0.035]",,,,,,,,,,,,,0,2,2,11,0,24,24,18,,,,,,,,,,,,,,,3.965931863727455,,,,,,,,,,,1,,,,,,,,,,,,,,758.630252800067,758.630252800067,758.630252800067,758.630252800067,758.630252800067,758.8395053000422,758.9894692000234,762.7464361999882,762.7464361999882,762.7464361999882,['s'],[0.6241915998980403],,,,,,,,,,,,,,,,,,,,,,,,,,,,,,,,,,,,,,,,,,,,,,,,,,,,,,,,260018,2024-03-19_16h08.01.095,mfe_c_object,2022.2.4,59.95743022147381,
flanker_main_block_12.csv,img/rightArrow.png,img/rightArrow.png,img/rightArrow.png,5,1,right,"[0, 0]","[0.0385, 0]","[-0.0385, 0]",img/object_images/pitcher09.jpg,"[0.035, 0.035]",,,,,,,,,,,,,0,2,2,11,0,25,25,3,,,,,,,,,,,,,,,3.6152304609218437,,,,,,,,,,,1,,,,,,,,,,,,,,762.7464361999882,762.7464361999882,762.7464361999882,762.7464361999882,762.7464361999882,762.9604343000101,763.1105896000518,766.4935224000365,766.4935224000365,766.4935224000365,['k'],[0.875133499968797],,,,,,,,,,,,,,,,,,,,,,,,,,,,,,,,,,,,,,,,,,,,,,,,,,,,,,,,260018,2024-03-19_16h08.01.095,mfe_c_object,2022.2.4,59.95743022147381,
flanker_main_block_12.csv,img/leftArrow.png,img/leftArrow.png,img/leftArrow.png,6,1,left,"[0, 0]","[0.0385, 0]","[-0.0385, 0]",img/object_images/hair_brush01.jpg,"[0.035, 0.035]",,,,,,,,,,,,,0,2,2,11,0,26,26,17,,,,,,,,,,,,,,,3.6833667334669338,,,,,,,,,,,1,,,,,,,,,,,,,,766.4935224000365,766.4935224000365,766.4935224000365,766.4935224000365,766.4935224000365,766.6972805999685,766.8471525000641,770.3199332000222,770.3199332000222,770.3199332000222,['s'],[0.5521538000321016],,,,,,,,,,,,,,,,,,,,,,,,,,,,,,,,,,,,,,,,,,,,,,,,,,,,,,,,260018,2024-03-19_16h08.01.095,mfe_c_object,2022.2.4,59.95743022147381,
flanker_main_block_12.csv,img/rightArrow.png,img/rightArrow.png,img/rightArrow.png,5,1,right,"[0, 0]","[0.0385, 0]","[-0.0385, 0]",img/object_images/shoes12.jpg,"[0.035, 0.035]",,,,,,,,,,,,,0,2,2,11,0,27,27,24,,,,,,,,,,,,,,,3.8527054108216436,,,,,,,,,,,1,,,,,,,,,,,,,,770.3199332000222,770.3199332000222,770.3199332000222,770.3199332000222,770.3199332000222,770.5346232999582,770.684758599964,774.3198521999875,774.3198521999875,774.3198521999875,['k'],[0.5176687000785023],,,,,,,,,,,,,,,,,,,,,,,,,,,,,,,,,,,,,,,,,,,,,,,,,,,,,,,,260018,2024-03-19_16h08.01.095,mfe_c_object,2022.2.4,59.95743022147381,
flanker_main_block_12.csv,img/rightArrow.png,img/leftArrow.png,img/leftArrow.png,7,0,right,"[0, 0]","[0.0385, 0]","[-0.0385, 0]",img/object_images/fork02.jpg,"[0.035, 0.035]",,,,,,,,,,,,,0,2,2,11,0,28,28,19,,,,,,,,,,,,,,,3.9368737474949898,,,,,,,,,,,1,,,,,,,,,,,,,,774.3198521999875,774.3198521999875,774.3198521999875,774.3198521999875,774.3198521999875,774.5216898999643,774.6717051999876,778.4069133000448,778.4069133000448,778.4069133000448,['k'],[0.5902129999594763],,,,,,,,,,,,,,,,,,,,,,,,,,,,,,,,,,,,,,,,,,,,,,,,,,,,,,,,260018,2024-03-19_16h08.01.095,mfe_c_object,2022.2.4,59.95743022147381,
flanker_main_block_12.csv,img/rightArrow.png,img/leftArrow.png,img/leftArrow.png,7,0,right,"[0, 0]","[0.0385, 0]","[-0.0385, 0]",img/object_images/bell03.jpg,"[0.035, 0.035]",,,,,,,,,,,,,0,2,2,11,0,29,29,28,,,,,,,,,,,,,,,3.814629258517034,,,,,,,,,,,1,,,,,,,,,,,,,,778.4069133000448,778.4069133000448,778.4069133000448,778.4069133000448,778.4069133000448,778.6091912999982,778.759237500024,782.3718939999817,782.3718939999817,782.3718939999817,['k'],[1.6545060999924317],,,,,,,,,,,,,,,,,,,,,,,,,,,,,,,,,,,,,,,,,,,,,,,,,,,,,,,,260018,2024-03-19_16h08.01.095,mfe_c_object,2022.2.4,59.95743022147381,
flanker_main_block_12.csv,img/rightArrow.png,img/rightArrow.png,img/rightArrow.png,5,1,right,"[0, 0]","[0.0385, 0]","[-0.0385, 0]",img/object_images/scarf01.jpg,"[0.035, 0.035]",,,,,,,,,,,,,0,2,2,11,0,30,30,2,,,,,,,,,,,,,,,3.6543086172344688,,,,,,,,,,,1,,,,,,,,,,,,,,782.3718939999817,782.3718939999817,782.3718939999817,782.3718939999817,782.3718939999817,782.5801178000402,782.7299175000517,786.1685319000389,786.1685319000389,786.1685319000389,['k'],[0.5859047999838367],,,,,,,,,,,,,,,,,,,,,,,,,,,,,,,,,,,,,,,,,,,,,,,,,,,,,,,,260018,2024-03-19_16h08.01.095,mfe_c_object,2022.2.4,59.95743022147381,
flanker_main_block_12.csv,img/leftArrow.png,img/rightArrow.png,img/rightArrow.png,8,0,left,"[0, 0]","[0.0385, 0]","[-0.0385, 0]",img/object_images/rock02.jpg,"[0.035, 0.035]",,,,,,,,,,,,,0,2,2,11,0,31,31,14,,,,,,,,,,,,,,,3.8847695390781563,,,,,,,,,,,1,,,,,,,,,,,,,,786.1685319000389,786.1685319000389,786.1685319000389,786.1685319000389,786.1685319000389,786.3838624999626,786.5339487000601,790.0528242000146,790.0528242000146,790.0528242000146,['s'],[1.4218029000330716],,,,,,,,,,,,,,,,,,,,,,,,,,,,,,,,,,,,,,,,,,,,,,,,,,,,,,,,260018,2024-03-19_16h08.01.095,mfe_c_object,2022.2.4,59.95743022147381,
flanker_main_block_12.csv,,,,,,,,,,,,,,,,,,,,,,,,0,2,2,11,,,,,,,,,,,,,,,,,,,,,,,,,,,,,,,,,,,,,,,,,,,,,,,,,,,,,,,,2,790.0528242000146,800.0461171000497,k,0.4477181000402197,,,,,,,,,,,,,,,,,,,,,,,,,,,,,,,,,,,,,,,,,,,,,,,,,,,260018,2024-03-19_16h08.01.095,mfe_c_object,2022.2.4,59.95743022147381,
flanker_main_block_1.csv,img/leftArrow.png,img/leftArrow.png,img/leftArrow.png,6,1,left,"[0, 0]","[0.0385, 0]","[-0.0385, 0]",img/object_images/toy03.jpg,"[0.035, 0.035]",,,,,,,,,,,,,0,3,3,0,0,0,0,24,,,,,,,,,,,,,,800.8850965000456,3.5460921843687374,,,,,,,,,,,1,,,,,,,,,,800.5135543000652,800.5135543000652,k,0.3400796999922022,803.0651384000666,803.0651384000666,803.0651384000666,803.0651384000666,803.0651384000666,803.2672676000511,803.4172267999966,806.7490908000618,806.7490908000618,806.7490908000618,['s'],[0.9961112999590114],,,,,,,,,,,,,,,,,,,,,,,,,,,,,,,,,,,,,,,,,,,,,,,,,,,,,,,,260018,2024-03-19_16h08.01.095,mfe_c_object,2022.2.4,59.95743022147381,
flanker_main_block_1.csv,img/leftArrow.png,img/rightArrow.png,img/rightArrow.png,8,0,left,"[0, 0]","[0.0385, 0]","[-0.0385, 0]",img/object_images/sink01.jpg,"[0.035, 0.035]",,,,,,,,,,,,,0,3,3,0,0,1,1,17,,,,,,,,,,,,,,,3.9228456913827654,,,,,,,,,,,1,,,,,,,,,,,,,,806.7490908000618,806.7490908000618,806.7553643999854,806.7490908000618,806.7490908000618,806.9709280000534,807.1041677000467,810.803124899976,810.803124899976,810.803124899976,['s'],[0.7128029000014067],,,,,,,,,,,,,,,,,,,,,,,,,,,,,,,,,,,,,,,,,,,,,,,,,,,,,,,,260018,2024-03-19_16h08.01.095,mfe_c_object,2022.2.4,59.95743022147381,
flanker_main_block_1.csv,img/leftArrow.png,img/leftArrow.png,img/leftArrow.png,6,1,left,"[0, 0]","[0.0385, 0]","[-0.0385, 0]",img/object_images/frisbee01.jpg,"[0.035, 0.035]",,,,,,,,,,,,,0,3,3,0,0,2,2,6,,,,,,,,,,,,,,,3.5851703406813624,,,,,,,,,,,1,,,,,,,,,,,,,,810.803124899976,810.803124899976,810.8092507000547,810.803124899976,810.803124899976,811.0082767000422,811.1582695000106,814.5264172999887,814.5264172999887,814.5264172999887,['s'],[0.5309712999733165],,,,,,,,,,,,,,,,,,,,,,,,,,,,,,,,,,,,,,,,,,,,,,,,,,,,,,,,260018,2024-03-19_16h08.01.095,mfe_c_object,2022.2.4,59.95743022147381,
flanker_main_block_1.csv,img/leftArrow.png,img/leftArrow.png,img/leftArrow.png,6,1,left,"[0, 0]","[0.0385, 0]","[-0.0385, 0]",img/object_images/mirror01.jpg,"[0.035, 0.035]",,,,,,,,,,,,,0,3,3,0,0,3,3,28,,,,,,,,,,,,,,,3.7725450901803605,,,,,,,,,,,1,,,,,,,,,,,,,,814.5264172999887,814.5264172999887,814.5264172999887,814.5264172999887,814.5264172999887,814.7287049000151,814.8786957999691,818.4298312000465,818.4298312000465,818.4298312000465,['s'],[0.5043461000313982],,,,,,,,,,,,,,,,,,,,,,,,,,,,,,,,,,,,,,,,,,,,,,,,,,,,,,,,260018,2024-03-19_16h08.01.095,mfe_c_object,2022.2.4,59.95743022147381,
flanker_main_block_1.csv,img/rightArrow.png,img/leftArrow.png,img/leftArrow.png,7,0,right,"[0, 0]","[0.0385, 0]","[-0.0385, 0]",img/object_images/Vacuum01.jpg,"[0.035, 0.035]",,,,,,,,,,,,,0,3,3,0,0,4,4,3,,,,,,,,,,,,,,,3.87875751503006,,,,,,,,,,,1,,,,,,,,,,,,,,818.4298312000465,818.4298312000465,818.4298312000465,818.4298312000465,818.4298312000465,818.6325302000623,818.7823852000292,822.4576462999685,822.4576462999685,822.4576462999685,['k'],[0.7836959999985993],,,,,,,,,,,,,,,,,,,,,,,,,,,,,,,,,,,,,,,,,,,,,,,,,,,,,,,,260018,2024-03-19_16h08.01.095,mfe_c_object,2022.2.4,59.95743022147381,
flanker_main_block_1.csv,img/rightArrow.png,img/leftArrow.png,img/leftArrow.png,7,0,right,"[0, 0]","[0.0385, 0]","[-0.0385, 0]",img/object_images/watch01.jpg,"[0.035, 0.035]",,,,,,,,,,,,,0,3,3,0,0,5,5,29,,,,,,,,,,,,,,,3.541082164328657,,,,,,,,,,,1,,,,,,,,,,,,,,822.4576462999685,822.4576462999685,822.4576462999685,822.4576462999685,822.4576462999685,822.6698949000565,822.820033499971,826.1346300999867,826.1346300999867,826.1346300999867,['k'],[0.740267499932088],,,,,,,,,,,,,,,,,,,,,,,,,,,,,,,,,,,,,,,,,,,,,,,,,,,,,,,,260018,2024-03-19_16h08.01.095,mfe_c_object,2022.2.4,59.95743022147381,
flanker_main_block_1.csv,img/rightArrow.png,img/rightArrow.png,img/rightArrow.png,5,1,right,"[0, 0]","[0.0385, 0]","[-0.0385, 0]",img/object_images/judge_gavel01.jpg,"[0.035, 0.035]",,,,,,,,,,,,,0,3,3,0,0,6,6,23,,,,,,,,,,,,,,,3.809619238476954,,,,,,,,,,,1,,,,,,,,,,,,,,826.1346300999867,826.1346300999867,826.1406711000018,826.1346300999867,826.1346300999867,826.3403417000081,826.4900711000664,830.0757764000446,830.0757764000446,830.0757764000446,['k'],[0.6403025999898091],,,,,,,,,,,,,,,,,,,,,,,,,,,,,,,,,,,,,,,,,,,,,,,,,,,,,,,,260018,2024-03-19_16h08.01.095,mfe_c_object,2022.2.4,59.95743022147381,
flanker_main_block_1.csv,img/rightArrow.png,img/rightArrow.png,img/rightArrow.png,5,1,right,"[0, 0]","[0.0385, 0]","[-0.0385, 0]",img/object_images/towel02.jpg,"[0.035, 0.035]",,,,,,,,,,,,,0,3,3,0,0,7,7,31,,,,,,,,,,,,,,,3.8777555110220443,,,,,,,,,,,1,,,,,,,,,,,,,,830.0757764000446,830.0757764000446,830.0757764000446,830.0757764000446,830.0757764000446,830.2776496000588,830.4274071999826,834.0998983000172,834.0998983000172,834.0998983000172,['k'],[0.5937721999362111],,,,,,,,,,,,,,,,,,,,,,,,,,,,,,,,,,,,,,,,,,,,,,,,,,,,,,,,260018,2024-03-19_16h08.01.095,mfe_c_object,2022.2.4,59.95743022147381,
flanker_main_block_1.csv,img/rightArrow.png,img/leftArrow.png,img/leftArrow.png,7,0,right,"[0, 0]","[0.0385, 0]","[-0.0385, 0]",img/object_images/MetalWire01.jpg,"[0.035, 0.035]",,,,,,,,,,,,,0,3,3,0,0,8,8,13,,,,,,,,,,,,,,,3.902805611222445,,,,,,,,,,,1,,,,,,,,,,,,,,834.0998983000172,834.0998983000172,834.0998983000172,834.0998983000172,834.0998983000172,834.3148485999554,834.4648359999992,838.1338275000453,838.1338275000453,838.1338275000453,['k'],[0.52204760001041],,,,,,,,,,,,,,,,,,,,,,,,,,,,,,,,,,,,,,,,,,,,,,,,,,,,,,,,260018,2024-03-19_16h08.01.095,mfe_c_object,2022.2.4,59.95743022147381,
flanker_main_block_1.csv,img/rightArrow.png,img/rightArrow.png,img/rightArrow.png,5,1,right,"[0, 0]","[0.0385, 0]","[-0.0385, 0]",img/object_images/tool02.jpg,"[0.035, 0.035]",,,,,,,,,,,,,0,3,3,0,0,9,9,12,,,,,,,,,,,,,,,3.846693386773547,,,,,,,,,,,1,,,,,,,,,,,,,,838.1338275000453,838.1338275000453,838.1338275000453,838.1338275000453,838.1338275000453,838.3354663000209,838.4855488999747,842.1251195999794,842.1251195999794,842.1251195999794,['k'],[0.44739069999195635],,,,,,,,,,,,,,,,,,,,,,,,,,,,,,,,,,,,,,,,,,,,,,,,,,,,,,,,260018,2024-03-19_16h08.01.095,mfe_c_object,2022.2.4,59.95743022147381,
flanker_main_block_1.csv,img/leftArrow.png,img/leftArrow.png,img/leftArrow.png,6,1,left,"[0, 0]","[0.0385, 0]","[-0.0385, 0]",img/object_images/acoustic_capo01.jpg,"[0.035, 0.035]",,,,,,,,,,,,,0,3,3,0,0,10,10,27,,,,,,,,,,,,,,,3.753507014028056,,,,,,,,,,,1,,,,,,,,,,,,,,842.1251195999794,842.1251195999794,842.1251195999794,842.1251195999794,842.1251195999794,842.33952769998,842.4895336000482,846.0495765999658,846.0495765999658,846.0495765999658,['s'],[0.8007196999387816],,,,,,,,,,,,,,,,,,,,,,,,,,,,,,,,,,,,,,,,,,,,,,,,,,,,,,,,260018,2024-03-19_16h08.01.095,mfe_c_object,2022.2.4,59.95743022147381,
flanker_main_block_1.csv,img/leftArrow.png,img/rightArrow.png,img/rightArrow.png,8,0,left,"[0, 0]","[0.0385, 0]","[-0.0385, 0]",img/object_images/Ring02.jpg,"[0.035, 0.035]",,,,,,,,,,,,,0,3,3,0,0,11,11,0,,,,,,,,,,,,,,,3.8476953907815634,,,,,,,,,,,1,,,,,,,,,,,,,,846.0495765999658,846.0495765999658,846.0495765999658,846.0495765999658,846.0495765999658,846.2600819000509,846.4099505000049,850.0274120999966,850.0274120999966,850.0274120999966,['s'],[0.7885758000193164],,,,,,,,,,,,,,,,,,,,,,,,,,,,,,,,,,,,,,,,,,,,,,,,,,,,,,,,260018,2024-03-19_16h08.01.095,mfe_c_object,2022.2.4,59.95743022147381,
flanker_main_block_1.csv,img/rightArrow.png,img/rightArrow.png,img/rightArrow.png,5,1,right,"[0, 0]","[0.0385, 0]","[-0.0385, 0]",img/object_images/Tin01.jpg,"[0.035, 0.035]",,,,,,,,,,,,,0,3,3,0,0,12,12,30,,,,,,,,,,,,,,,3.6523046092184366,,,,,,,,,,,1,,,,,,,,,,,,,,850.0274120999966,850.0274120999966,850.0274120999966,850.0274120999966,850.0274120999966,850.2310456000268,850.3809359000297,853.8136921999976,853.8136921999976,853.8136921999976,['k'],[0.7057664999738336],,,,,,,,,,,,,,,,,,,,,,,,,,,,,,,,,,,,,,,,,,,,,,,,,,,,,,,,260018,2024-03-19_16h08.01.095,mfe_c_object,2022.2.4,59.95743022147381,
flanker_main_block_1.csv,img/leftArrow.png,img/rightArrow.png,img/rightArrow.png,8,0,left,"[0, 0]","[0.0385, 0]","[-0.0385, 0]",img/object_images/pot01 (1).jpg,"[0.035, 0.035]",,,,,,,,,,,,,0,3,3,0,0,13,13,22,,,,,,,,,,,,,,,3.8376753507014025,,,,,,,,,,,1,,,,,,,,,,,,,,853.8136921999976,853.8136921999976,853.8136921999976,853.8136921999976,853.8136921999976,854.0179311999818,854.1677466999972,857.7879391000606,857.7879391000606,857.7879391000606,['s'],[1.0407921000150964],,,,,,,,,,,,,,,,,,,,,,,,,,,,,,,,,,,,,,,,,,,,,,,,,,,,,,,,260018,2024-03-19_16h08.01.095,mfe_c_object,2022.2.4,59.95743022147381,
flanker_main_block_1.csv,img/rightArrow.png,img/leftArrow.png,img/leftArrow.png,7,0,right,"[0, 0]","[0.0385, 0]","[-0.0385, 0]",img/object_images/gauze01.jpg,"[0.035, 0.035]",,,,,,,,,,,,,0,3,3,0,0,14,14,14,,,,,,,,,,,,,,,3.917835671342685,,,,,,,,,,,1,,,,,,,,,,,,,,857.7879391000606,857.7879391000606,857.7879391000606,857.7879391000606,857.7879391000606,857.9885072000325,858.1386033999734,861.8394855000079,861.8394855000079,861.8394855000079,['k'],[0.7540127999382094],,,,,,,,,,,,,,,,,,,,,,,,,,,,,,,,,,,,,,,,,,,,,,,,,,,,,,,,260018,2024-03-19_16h08.01.095,mfe_c_object,2022.2.4,59.95743022147381,
flanker_main_block_1.csv,img/leftArrow.png,img/rightArrow.png,img/rightArrow.png,8,0,left,"[0, 0]","[0.0385, 0]","[-0.0385, 0]",img/object_images/fridge03.jpg,"[0.035, 0.035]",,,,,,,,,,,,,0,3,3,0,0,15,15,8,,,,,,,,,,,,,,,3.5220440881763526,,,,,,,,,,,1,,,,,,,,,,,,,,861.8394855000079,861.8394855000079,861.8394855000079,861.8394855000079,861.8394855000079,862.0425513000228,862.1925784000196,865.4898427999578,865.4898427999578,865.4898427999578,['s'],[0.7817370999837294],,,,,,,,,,,,,,,,,,,,,,,,,,,,,,,,,,,,,,,,,,,,,,,,,,,,,,,,260018,2024-03-19_16h08.01.095,mfe_c_object,2022.2.4,59.95743022147381,
flanker_main_block_1.csv,img/rightArrow.png,img/rightArrow.png,img/rightArrow.png,5,1,right,"[0, 0]","[0.0385, 0]","[-0.0385, 0]",img/object_images/stapler.jpg,"[0.035, 0.035]",,,,,,,,,,,,,0,3,3,0,0,16,16,7,,,,,,,,,,,,,,,3.7665330661322645,,,,,,,,,,,1,,,,,,,,,,,,,,865.4898427999578,865.4898427999578,865.4959397000493,865.4898427999578,865.4898427999578,865.6961697000079,865.8461422000546,869.4207640000386,869.4207640000386,869.4207640000386,['k'],[0.8601065999828279],,,,,,,,,,,,,,,,,,,,,,,,,,,,,,,,,,,,,,,,,,,,,,,,,,,,,,,,260018,2024-03-19_16h08.01.095,mfe_c_object,2022.2.4,59.95743022147381,
flanker_main_block_1.csv,img/leftArrow.png,img/leftArrow.png,img/leftArrow.png,6,1,left,"[0, 0]","[0.0385, 0]","[-0.0385, 0]",img/object_images/bow01.jpg,"[0.035, 0.035]",,,,,,,,,,,,,0,3,3,0,0,17,17,2,,,,,,,,,,,,,,,3.9529058116232463,,,,,,,,,,,1,,,,,,,,,,,,,,869.4207640000386,869.4207640000386,869.4207640000386,869.4207640000386,869.4207640000386,869.6334836999886,869.7835275999969,873.5169217999792,873.5169217999792,873.5169217999792,['s'],[0.6727802000241354],,,,,,,,,,,,,,,,,,,,,,,,,,,,,,,,,,,,,,,,,,,,,,,,,,,,,,,,260018,2024-03-19_16h08.01.095,mfe_c_object,2022.2.4,59.95743022147381,
flanker_main_block_1.csv,img/rightArrow.png,img/leftArrow.png,img/leftArrow.png,7,0,right,"[0, 0]","[0.0385, 0]","[-0.0385, 0]",img/object_images/toy04.jpg,"[0.035, 0.035]",,,,,,,,,,,,,0,3,3,0,0,18,18,11,,,,,,,,,,,,,,,3.6192384769539077,,,,,,,,,,,1,,,,,,,,,,,,,,873.5169217999792,873.5169217999792,873.5169217999792,873.5169217999792,873.5169217999792,873.7207761000609,873.8709187000059,877.2722852999577,877.2722852999577,877.2722852999577,['k'],[0.84053040004801],,,,,,,,,,,,,,,,,,,,,,,,,,,,,,,,,,,,,,,,,,,,,,,,,,,,,,,,260018,2024-03-19_16h08.01.095,mfe_c_object,2022.2.4,59.95743022147381,
flanker_main_block_1.csv,img/leftArrow.png,img/leftArrow.png,img/leftArrow.png,6,1,left,"[0, 0]","[0.0385, 0]","[-0.0385, 0]",img/object_images/video_game07.jpg,"[0.035, 0.035]",,,,,,,,,,,,,0,3,3,0,0,19,19,10,,,,,,,,,,,,,,,3.9318637274549095,,,,,,,,,,,1,,,,,,,,,,,,,,877.2722852999577,877.2722852999577,877.2722852999577,877.2722852999577,877.2722852999577,877.4746424000477,877.6244095000438,881.3401468000375,881.3401468000375,881.3401468000375,['s'],[0.6221550999907777],,,,,,,,,,,,,,,,,,,,,,,,,,,,,,,,,,,,,,,,,,,,,,,,,,,,,,,,260018,2024-03-19_16h08.01.095,mfe_c_object,2022.2.4,59.95743022147381,
flanker_main_block_1.csv,img/rightArrow.png,img/rightArrow.png,img/rightArrow.png,5,1,right,"[0, 0]","[0.0385, 0]","[-0.0385, 0]",img/object_images/tool09.jpg,"[0.035, 0.035]",,,,,,,,,,,,,0,3,3,0,0,20,20,18,,,,,,,,,,,,,,,3.5571142284569137,,,,,,,,,,,1,,,,,,,,,,,,,,881.3401468000375,881.3401468000375,881.3462633000454,881.3401468000375,881.3401468000375,881.5453072000528,881.6951800000388,885.0300494000548,885.0300494000548,885.0300494000548,['k'],[0.6579892000881955],,,,,,,,,,,,,,,,,,,,,,,,,,,,,,,,,,,,,,,,,,,,,,,,,,,,,,,,260018,2024-03-19_16h08.01.095,mfe_c_object,2022.2.4,59.95743022147381,
flanker_main_block_1.csv,img/leftArrow.png,img/rightArrow.png,img/rightArrow.png,8,0,left,"[0, 0]","[0.0385, 0]","[-0.0385, 0]",img/object_images/bottle05.jpg,"[0.035, 0.035]",,,,,,,,,,,,,0,3,3,0,0,21,21,26,,,,,,,,,,,,,,,3.7805611222444893,,,,,,,,,,,1,,,,,,,,,,,,,,885.0300494000548,885.0300494000548,885.0300494000548,885.0300494000548,885.0300494000548,885.2324564000592,885.3822681000456,888.9582500000251,888.9582500000251,888.9582500000251,['s'],[0.911859399988316],,,,,,,,,,,,,,,,,,,,,,,,,,,,,,,,,,,,,,,,,,,,,,,,,,,,,,,,260018,2024-03-19_16h08.01.095,mfe_c_object,2022.2.4,59.95743022147381,
flanker_main_block_1.csv,img/leftArrow.png,img/rightArrow.png,img/rightArrow.png,8,0,left,"[0, 0]","[0.0385, 0]","[-0.0385, 0]",img/object_images/helmet01.jpg,"[0.035, 0.035]",,,,,,,,,,,,,0,3,3,0,0,22,22,15,,,,,,,,,,,,,,,3.7364729458917836,,,,,,,,,,,1,,,,,,,,,,,,,,888.9582500000251,888.9582500000251,888.9582500000251,888.9582500000251,888.9582500000251,889.1696878999937,889.3195845000446,892.8489955000114,892.8489955000114,892.8489955000114,['s'],[0.6230531999608502],,,,,,,,,,,,,,,,,,,,,,,,,,,,,,,,,,,,,,,,,,,,,,,,,,,,,,,,260018,2024-03-19_16h08.01.095,mfe_c_object,2022.2.4,59.95743022147381,
flanker_main_block_1.csv,img/leftArrow.png,img/rightArrow.png,img/rightArrow.png,8,0,left,"[0, 0]","[0.0385, 0]","[-0.0385, 0]",img/object_images/dart01.jpg,"[0.035, 0.035]",,,,,,,,,,,,,0,3,3,0,0,23,23,4,,,,,,,,,,,,,,,3.972945891783567,,,,,,,,,,,1,,,,,,,,,,,,,,892.8489955000114,892.8489955000114,892.8489955000114,892.8489955000114,892.8489955000114,893.0568124999991,893.2067186000058,896.953785700025,896.953785700025,896.953785700025,['s'],[0.5649468000046909],,,,,,,,,,,,,,,,,,,,,,,,,,,,,,,,,,,,,,,,,,,,,,,,,,,,,,,,260018,2024-03-19_16h08.01.095,mfe_c_object,2022.2.4,59.95743022147381,
flanker_main_block_1.csv,img/rightArrow.png,img/leftArrow.png,img/leftArrow.png,7,0,right,"[0, 0]","[0.0385, 0]","[-0.0385, 0]",img/object_images/jewel04.jpg,"[0.035, 0.035]",,,,,,,,,,,,,0,3,3,0,0,24,24,20,,,,,,,,,,,,,,,3.8777555110220443,,,,,,,,,,,1,,,,,,,,,,,,,,896.953785700025,896.953785700025,896.9603130000178,896.953785700025,896.953785700025,897.1613415000029,897.3110633000033,900.9610952000367,900.9610952000367,900.9610952000367,['k'],[0.715321300085634],,,,,,,,,,,,,,,,,,,,,,,,,,,,,,,,,,,,,,,,,,,,,,,,,,,,,,,,260018,2024-03-19_16h08.01.095,mfe_c_object,2022.2.4,59.95743022147381,
flanker_main_block_1.csv,img/rightArrow.png,img/rightArrow.png,img/rightArrow.png,5,1,right,"[0, 0]","[0.0385, 0]","[-0.0385, 0]",img/object_images/crown02.jpg,"[0.035, 0.035]",,,,,,,,,,,,,0,3,3,0,0,25,25,21,,,,,,,,,,,,,,,3.905811623246493,,,,,,,,,,,1,,,,,,,,,,,,,,900.9610952000367,900.9610952000367,900.9610952000367,900.9610952000367,900.9610952000367,901.1649631999899,901.3149008000037,904.9980725999922,904.9980725999922,904.9980725999922,['k'],[0.6286996999988332],,,,,,,,,,,,,,,,,,,,,,,,,,,,,,,,,,,,,,,,,,,,,,,,,,,,,,,,260018,2024-03-19_16h08.01.095,mfe_c_object,2022.2.4,59.95743022147381,
flanker_main_block_1.csv,img/rightArrow.png,img/leftArrow.png,img/leftArrow.png,7,0,right,"[0, 0]","[0.0385, 0]","[-0.0385, 0]",img/object_images/outlet01.jpg,"[0.035, 0.035]",,,,,,,,,,,,,0,3,3,0,0,26,26,25,,,,,,,,,,,,,,,3.5180360721442883,,,,,,,,,,,1,,,,,,,,,,,,,,904.9980725999922,904.9980725999922,904.9980725999922,904.9980725999922,904.9980725999922,905.2022388000041,905.3522832000162,908.6543539999984,908.6543539999984,908.6543539999984,['k'],[0.6391507999505848],,,,,,,,,,,,,,,,,,,,,,,,,,,,,,,,,,,,,,,,,,,,,,,,,,,,,,,,260018,2024-03-19_16h08.01.095,mfe_c_object,2022.2.4,59.95743022147381,
flanker_main_block_1.csv,img/rightArrow.png,img/leftArrow.png,img/leftArrow.png,7,0,right,"[0, 0]","[0.0385, 0]","[-0.0385, 0]",img/object_images/guitar02.jpg,"[0.035, 0.035]",,,,,,,,,,,,,0,3,3,0,0,27,27,1,,,,,,,,,,,,,,,3.975951903807615,,,,,,,,,,,1,,,,,,,,,,,,,,908.6543539999984,908.6543539999984,908.6543539999984,908.6543539999984,908.6543539999984,908.8558728999924,909.0057523000287,912.771467100014,912.771467100014,912.771467100014,['k'],[0.7914324998855591],,,,,,,,,,,,,,,,,,,,,,,,,,,,,,,,,,,,,,,,,,,,,,,,,,,,,,,,260018,2024-03-19_16h08.01.095,mfe_c_object,2022.2.4,59.95743022147381,
flanker_main_block_1.csv,img/leftArrow.png,img/leftArrow.png,img/leftArrow.png,6,1,left,"[0, 0]","[0.0385, 0]","[-0.0385, 0]",img/object_images/shovel03.jpg,"[0.035, 0.035]",,,,,,,,,,,,,0,3,3,0,0,28,28,19,,,,,,,,,,,,,,,3.6302605210420844,,,,,,,,,,,1,,,,,,,,,,,,,,912.771467100014,912.771467100014,912.777646600036,912.771467100014,912.771467100014,912.9770057999995,913.1266574000474,916.6187824000372,916.6187824000372,916.6187824000372,['s'],[0.6584543000208214],,,,,,,,,,,,,,,,,,,,,,,,,,,,,,,,,,,,,,,,,,,,,,,,,,,,,,,,260018,2024-03-19_16h08.01.095,mfe_c_object,2022.2.4,59.95743022147381,
flanker_main_block_1.csv,img/leftArrow.png,img/rightArrow.png,img/rightArrow.png,8,0,left,"[0, 0]","[0.0385, 0]","[-0.0385, 0]",img/object_images/Stool01.jpg,"[0.035, 0.035]",,,,,,,,,,,,,0,3,3,0,0,29,29,5,,,,,,,,,,,,,,,3.686372745490982,,,,,,,,,,,1,,,,,,,,,,,,,,916.6187824000372,916.6187824000372,916.6187824000372,916.6187824000372,916.6187824000372,916.8305464000441,916.9804451999953,920.445679299999,920.445679299999,920.445679299999,['s'],[0.650811200030148],,,,,,,,,,,,,,,,,,,,,,,,,,,,,,,,,,,,,,,,,,,,,,,,,,,,,,,,260018,2024-03-19_16h08.01.095,mfe_c_object,2022.2.4,59.95743022147381,
flanker_main_block_1.csv,img/leftArrow.png,img/leftArrow.png,img/leftArrow.png,6,1,left,"[0, 0]","[0.0385, 0]","[-0.0385, 0]",img/object_images/bird_house02.jpg,"[0.035, 0.035]",,,,,,,,,,,,,0,3,3,0,0,30,30,16,,,,,,,,,,,,,,,3.7164328657314627,,,,,,,,,,,1,,,,,,,,,,,,,,920.445679299999,920.445679299999,920.4519980000332,920.445679299999,920.445679299999,920.6510521000018,920.8010114000645,924.301451300038,924.301451300038,924.301451300038,['s'],[0.648452699999325],,,,,,,,,,,,,,,,,,,,,,,,,,,,,,,,,,,,,,,,,,,,,,,,,,,,,,,,260018,2024-03-19_16h08.01.095,mfe_c_object,2022.2.4,59.95743022147381,
flanker_main_block_1.csv,img/rightArrow.png,img/rightArrow.png,img/rightArrow.png,5,1,right,"[0, 0]","[0.0385, 0]","[-0.0385, 0]",img/object_images/ornament01.jpg,"[0.035, 0.035]",,,,,,,,,,,,,0,3,3,0,0,31,31,9,,,,,,,,,,,,,,,3.7074148296593186,,,,,,,,,,,1,,,,,,,,,,,,,,924.301451300038,924.301451300038,924.301451300038,924.301451300038,924.301451300038,924.5049186999677,924.6549824000103,928.0073288000422,928.0073288000422,928.0073288000422,['k'],[1.0642383000813425],,,,,,,,,,,,,,,,,,,,,,,,,,,,,,,,,,,,,,,,,,,,,,,,,,,,,,,,260018,2024-03-19_16h08.01.095,mfe_c_object,2022.2.4,59.95743022147381,
flanker_main_block_1.csv,,,,,,,,,,,,,,,,,,,,,,,,0,3,3,0,,,,,,,,,,,,,,,,,,,,,,,,,,,,,,,,,,,,,,,,,,,,,,,,,,,,,,,,2,928.0073288000422,938.0005558000412,k,0.3250184999778867,,,,,,,,,,,,,,,,,,,,,,,,,,,,,,,,,,,,,,,,,,,,,,,,,,,260018,2024-03-19_16h08.01.095,mfe_c_object,2022.2.4,59.95743022147381,
flanker_main_block_10.csv,img/leftArrow.png,img/leftArrow.png,img/leftArrow.png,6,1,left,"[0, 0]","[0.0385, 0]","[-0.0385, 0]",img/object_images/bicycle01.jpg,"[0.035, 0.035]",,,,,,,,,,,,,0,4,4,9,0,0,0,24,,,,,,,,,,,,,,938.690696900012,3.594188376753507,,,,,,,,,,,1,,,,,,,,,,938.3511625999818,938.3511625999818,k,0.31093590008094907,940.8748495000182,940.8748495000182,940.8748495000182,940.8748495000182,940.8748495000182,941.0882323000114,941.2381604999537,944.6063642000081,944.6063642000081,944.6063642000081,['s'],[0.6592103000730276],,,,,,,,,,,,,,,,,,,,,,,,,,,,,,,,,,,,,,,,,,,,,,,,,,,,,,,,260018,2024-03-19_16h08.01.095,mfe_c_object,2022.2.4,59.95743022147381,
flanker_main_block_10.csv,img/rightArrow.png,img/leftArrow.png,img/leftArrow.png,7,0,right,"[0, 0]","[0.0385, 0]","[-0.0385, 0]",img/object_images/WoodBox01.jpg,"[0.035, 0.035]",,,,,,,,,,,,,0,4,4,9,0,1,1,21,,,,,,,,,,,,,,,3.650300601202405,,,,,,,,,,,1,,,,,,,,,,,,,,944.6063642000081,944.6063642000081,944.6063642000081,944.6063642000081,944.6063642000081,944.808646599995,944.9583610000554,948.3967047999613,948.3967047999613,948.3967047999613,['k'],[0.5910838000709191],,,,,,,,,,,,,,,,,,,,,,,,,,,,,,,,,,,,,,,,,,,,,,,,,,,,,,,,260018,2024-03-19_16h08.01.095,mfe_c_object,2022.2.4,59.95743022147381,
flanker_main_block_10.csv,img/rightArrow.png,img/leftArrow.png,img/leftArrow.png,7,0,right,"[0, 0]","[0.0385, 0]","[-0.0385, 0]",img/object_images/perfume02.jpg,"[0.035, 0.035]",,,,,,,,,,,,,0,4,4,9,0,2,2,1,,,,,,,,,,,,,,,3.5951903807615233,,,,,,,,,,,1,,,,,,,,,,,,,,948.3967047999613,948.3967047999613,948.3967047999613,948.3967047999613,948.3967047999613,948.6122632999904,948.7455169999739,952.1304575999966,952.1304575999966,952.1304575999966,['k'],[0.6564072999171913],,,,,,,,,,,,,,,,,,,,,,,,,,,,,,,,,,,,,,,,,,,,,,,,,,,,,,,,260018,2024-03-19_16h08.01.095,mfe_c_object,2022.2.4,59.95743022147381,
flanker_main_block_10.csv,img/rightArrow.png,img/rightArrow.png,img/rightArrow.png,5,1,right,"[0, 0]","[0.0385, 0]","[-0.0385, 0]",img/object_images/audio_port01.jpg,"[0.035, 0.035]",,,,,,,,,,,,,0,4,4,9,0,3,3,20,,,,,,,,,,,,,,,3.7224448897795592,,,,,,,,,,,1,,,,,,,,,,,,,,952.1304575999966,952.1304575999966,952.1304575999966,952.1304575999966,952.1304575999966,952.3326608999632,952.482758600032,955.9874962000176,955.9874962000176,955.9874962000176,['k'],[0.5876389000331983],,,,,,,,,,,,,,,,,,,,,,,,,,,,,,,,,,,,,,,,,,,,,,,,,,,,,,,,260018,2024-03-19_16h08.01.095,mfe_c_object,2022.2.4,59.95743022147381,
flanker_main_block_10.csv,img/rightArrow.png,img/rightArrow.png,img/rightArrow.png,5,1,right,"[0, 0]","[0.0385, 0]","[-0.0385, 0]",img/object_images/toilet_paper_dispenser01.jpg,"[0.035, 0.035]",,,,,,,,,,,,,0,4,4,9,0,4,4,3,,,,,,,,,,,,,,,3.7424849699398797,,,,,,,,,,,1,,,,,,,,,,,,,,955.9874962000176,955.9874962000176,955.9874962000176,955.9874962000176,955.9874962000176,956.1865949999774,956.3363278000616,959.8794816000154,959.8794816000154,959.8794816000154,['k'],[0.834515199996531],,,,,,,,,,,,,,,,,,,,,,,,,,,,,,,,,,,,,,,,,,,,,,,,,,,,,,,,260018,2024-03-19_16h08.01.095,mfe_c_object,2022.2.4,59.95743022147381,
flanker_main_block_10.csv,img/leftArrow.png,img/rightArrow.png,img/rightArrow.png,8,0,left,"[0, 0]","[0.0385, 0]","[-0.0385, 0]",img/object_images/shoes07.jpg,"[0.035, 0.035]",,,,,,,,,,,,,0,4,4,9,0,5,5,12,,,,,,,,,,,,,,,3.6102204408817635,,,,,,,,,,,1,,,,,,,,,,,,,,959.8794816000154,959.8794816000154,959.8794816000154,959.8794816000154,959.8794816000154,960.0903938000556,960.2403600000544,963.6234521999722,963.6234521999722,963.6234521999722,['s'],[0.5186272000428289],,,,,,,,,,,,,,,,,,,,,,,,,,,,,,,,,,,,,,,,,,,,,,,,,,,,,,,,260018,2024-03-19_16h08.01.095,mfe_c_object,2022.2.4,59.95743022147381,
flanker_main_block_10.csv,img/rightArrow.png,img/rightArrow.png,img/rightArrow.png,5,1,right,"[0, 0]","[0.0385, 0]","[-0.0385, 0]",img/object_images/purse04.jpg,"[0.035, 0.035]",,,,,,,,,,,,,0,4,4,9,0,6,6,22,,,,,,,,,,,,,,,3.5691382765531063,,,,,,,,,,,1,,,,,,,,,,,,,,963.6234521999722,963.6234521999722,963.6234521999722,963.6234521999722,963.6234521999722,963.827599399956,963.9774449999677,967.329022299964,967.329022299964,967.329022299964,['k'],[0.8140291000017896],,,,,,,,,,,,,,,,,,,,,,,,,,,,,,,,,,,,,,,,,,,,,,,,,,,,,,,,260018,2024-03-19_16h08.01.095,mfe_c_object,2022.2.4,59.95743022147381,
flanker_main_block_10.csv,img/leftArrow.png,img/rightArrow.png,img/rightArrow.png,8,0,left,"[0, 0]","[0.0385, 0]","[-0.0385, 0]",img/object_images/cellphone03.jpg,"[0.035, 0.035]",,,,,,,,,,,,,0,4,4,9,0,7,7,29,,,,,,,,,,,,,,,3.808617234468938,,,,,,,,,,,1,,,,,,,,,,,,,,967.329022299964,967.329022299964,967.329022299964,967.329022299964,967.329022299964,967.5312443999574,967.6815242000157,971.2836386000272,971.2836386000272,971.2836386000272,None,,,,,,,,,,,,,,,,,,,,,,,,,,,,,,,,,,,,,,,,,,,,,,,,,,,,,,,,,260018,2024-03-19_16h08.01.095,mfe_c_object,2022.2.4,59.95743022147381,
flanker_main_block_10.csv,img/rightArrow.png,img/leftArrow.png,img/leftArrow.png,7,0,right,"[0, 0]","[0.0385, 0]","[-0.0385, 0]",img/object_images/boat_toy10.jpg,"[0.035, 0.035]",,,,,,,,,,,,,0,4,4,9,0,8,8,25,,,,,,,,,,,,,,,3.712424849699399,,,,,,,,,,,1,,,,,,,,,,,,,,971.2836386000272,971.2836386000272,971.2836386000272,971.2836386000272,971.2836386000272,971.4851053999737,971.6350635000272,975.1386661999859,975.1386661999859,975.1386661999859,None,,,,,,,,,,,,,,,,,,,,,,,,,,,,,,,,,,,,,,,,,,,,,,,,,,,,,,,,,260018,2024-03-19_16h08.01.095,mfe_c_object,2022.2.4,59.95743022147381,
flanker_main_block_10.csv,img/rightArrow.png,img/leftArrow.png,img/leftArrow.png,7,0,right,"[0, 0]","[0.0385, 0]","[-0.0385, 0]",img/object_images/bottle09.jpg,"[0.035, 0.035]",,,,,,,,,,,,,0,4,4,9,0,9,9,28,,,,,,,,,,,,,,,3.822645290581162,,,,,,,,,,,1,,,,,,,,,,,,,,975.1386661999859,975.1386661999859,975.1386661999859,975.1386661999859,975.1386661999859,975.3389216000214,975.4889334000181,979.1198237000499,979.1198237000499,979.1198237000499,None,,,,,,,,,,,,,,,,,,,,,,,,,,,,,,,,,,,,,,,,,,,,,,,,,,,,,,,,,260018,2024-03-19_16h08.01.095,mfe_c_object,2022.2.4,59.95743022147381,
flanker_main_block_10.csv,img/rightArrow.png,img/leftArrow.png,img/leftArrow.png,7,0,right,"[0, 0]","[0.0385, 0]","[-0.0385, 0]",img/object_images/fan02.jpg,"[0.035, 0.035]",,,,,,,,,,,,,0,4,4,9,0,10,10,13,,,,,,,,,,,,,,,3.8657314629258517,,,,,,,,,,,1,,,,,,,,,,,,,,979.1198237000499,979.1198237000499,979.1198237000499,979.1198237000499,979.1198237000499,979.326253999956,979.4762387999799,983.1518179000122,983.1518179000122,983.1518179000122,None,,,,,,,,,,,,,,,,,,,,,,,,,,,,,,,,,,,,,,,,,,,,,,,,,,,,,,,,,260018,2024-03-19_16h08.01.095,mfe_c_object,2022.2.4,59.95743022147381,
