whichBlock,middleStim,leftStim,rightStim,stimNum,congruent,target,locationC,locationR,locationL,straightObj,imageSize,whichSurpriseBlock,old_object_in_surp,new_object_in_surp,which_side_old_object_displayed,prac_block_loop.thisRepN,prac_block_loop.thisTrialN,prac_block_loop.thisN,prac_block_loop.thisIndex,prac_trial_loop.thisRepN,prac_trial_loop.thisTrialN,prac_trial_loop.thisN,prac_trial_loop.thisIndex,task_block_loop.thisRepN,task_block_loop.thisTrialN,task_block_loop.thisN,task_block_loop.thisIndex,task_trial_loop.thisRepN,task_trial_loop.thisTrialN,task_trial_loop.thisN,task_trial_loop.thisIndex,surprise_block_loop.thisRepN,surprise_block_loop.thisTrialN,surprise_block_loop.thisN,surprise_block_loop.thisIndex,trials.thisRepN,trials.thisTrialN,trials.thisN,trials.thisIndex,prac_blockText.started,prac_reminder_text.started,prac_reminder_keyResp.started,prac_reminder_keyResp.keys,prac_reminder_keyResp.rt,initFixation_img.started,ISI,bigObject.started,cover_background_2.started,prac_centerImg.started,prac_stim_keyResp.started,prac_centerImg.stopped,cover_background_2.stopped,bigObject.stopped,prac_stim_keyResp.stopped,prac_stim_keyResp.keys,accuracy,prac_stim_keyResp.rt,prac_blockFeed_text.started,prac_pressContinue.started,prac_blockFeed_keyResp.started,prac_blockFeed_keyResp.keys,prac_blockFeed_keyResp.rt,ringBell_text.started,bellKey.started,bellKey.keys,bellKey.rt,task_blockText.started,task_blockReminders_keyResp.started,task_blockReminders_keyResp.keys,task_blockReminders_keyResp.rt,bigObject_2.started,cover_background.started,task_centerImg.started,task_fixImg.started,task1_stim_keyResp.started,task_centerImg.stopped,cover_background.stopped,bigObject_2.stopped,task_fixImg.stopped,task1_stim_keyResp.stopped,task1_stim_keyResp.keys,task1_stim_keyResp.rt,blockFeedCat,task_blockFeed_text.started,task_blockFeed_keyResp.started,task_blockFeed_keyResp.keys,task_blockFeed_keyResp.rt,ringBell_text_2.started,bellKey_2.started,bellKey_2.keys,bellKey_2.rt,errorNumbers_text_2.started,errorNum_text_box.started,errorN_key_resp_2.started,errorNum_text_box.text,errorN_key_resp_2.keys,errorN_key_resp_2.rt,errorNumbers_text_3.started,errorPercent_text_box.started,errorN_key_resp_3.started,errorPercent_text_box.text,errorN_key_resp_3.keys,errorN_key_resp_3.rt,botherRate_text.started,bother_text_box.started,botherRate_key_resp.started,bother_text_box.text,botherRate_key_resp.keys,botherRate_key_resp.rt,ringBell_text_3.started,bellKey_3.started,bellKey_3.keys,bellKey_3.rt,instruct_surprise1.started,instruct_surp1_key_resp.keys,instruct_surp1_key_resp.rt,text_2.started,task_blockText_2.started,task_blockReminders_keyResp_2.started,task_blockReminders_keyResp_2.keys,task_blockReminders_keyResp_2.rt,thisISI3,polygon.started,polygon.stopped,text.started,old_object_image.started,new_object_image.started,instructsurpA1_right.started,instructsurpA2_left.started,surprise_key_resp.started,surprise_key_resp.keys,surprise_key_resp.rt,ringBell_text_4.started,bellKey_4.started,bellKey_4.keys,bellKey_4.rt,finishMessage_text.started,id,date,expName,psychopyVersion,frameRate,
flanker_practice_block.csv,img/leftArrow.png,img/leftArrow.png,img/leftArrow.png,6,1,left,"[0, 0]","[0.0385, 0]","[-0.0385, 0]",img/object_images/skate_board02.jpg,"[0.035, 0.035]",,,,,0,0,0,0,0,0,0,9,,,,,,,,,,,,,,,,,152.29361479985528,152.29361479985528,152.29361479985528,k,36.08865220006555,188.42351230001077,3.729458917835671,190.65260589984246,190.65260589984246,190.65260589984246,190.65260589984246,190.86330910003744,191.013156699948,194.5266950998921,194.5266950998921,None,0,,,,,,,,,,,,,,,,,,,,,,,,,,,,,,,,,,,,,,,,,,,,,,,,,,,,,,,,,,,,,,,,,,,,,,,,,,,,,,,,,,260001,2024-03-05_12h24.38.253,mfe_c_object,2022.2.4,59.9485880623067,
flanker_practice_block.csv,img/rightArrow.png,img/leftArrow.png,img/leftArrow.png,7,0,right,"[0, 0]","[0.0385, 0]","[-0.0385, 0]",img/object_images/crane02.jpg,"[0.035, 0.035]",,,,,0,0,0,0,0,1,1,17,,,,,,,,,,,,,,,,,,,,,,,3.5811623246492985,194.5266950998921,194.5266950998921,194.5266950998921,194.5266950998921,194.73375899996608,194.88376270001754,198.27787270001136,198.27787270001136,['k'],1,[0.0796701000072062],,,,,,,,,,,,,,,,,,,,,,,,,,,,,,,,,,,,,,,,,,,,,,,,,,,,,,,,,,,,,,,,,,,,,,,,,,,,,,,,,260001,2024-03-05_12h24.38.253,mfe_c_object,2022.2.4,59.9485880623067,
flanker_practice_block.csv,img/rightArrow.png,img/rightArrow.png,img/rightArrow.png,5,1,right,"[0, 0]","[0.0385, 0]","[-0.0385, 0]",img/object_images/hot_air_balloon01.jpg,"[0.035, 0.035]",,,,,0,0,0,0,0,2,2,12,,,,,,,,,,,,,,,,,,,,,,,3.5430861723446894,198.27787270001136,198.27787270001136,198.27787270001136,198.27787270001136,198.4874249000568,198.63750119996257,201.96277169999667,201.96277169999667,['s'],0,[1.4883367998991162],,,,,,,,,,,,,,,,,,,,,,,,,,,,,,,,,,,,,,,,,,,,,,,,,,,,,,,,,,,,,,,,,,,,,,,,,,,,,,,,,260001,2024-03-05_12h24.38.253,mfe_c_object,2022.2.4,59.9485880623067,
flanker_practice_block.csv,img/rightArrow.png,img/rightArrow.png,img/rightArrow.png,5,1,right,"[0, 0]","[0.0385, 0]","[-0.0385, 0]",img/object_images/usb_drive01.jpg,"[0.035, 0.035]",,,,,0,0,0,0,0,3,3,19,,,,,,,,,,,,,,,,,,,,,,,3.823647294589178,201.96277169999667,201.96277169999667,201.96277169999667,201.96277169999667,202.17446889984421,202.32451639999636,205.94276620005257,205.94276620005257,['s'],0,[1.747551100095734],,,,,,,,,,,,,,,,,,,,,,,,,,,,,,,,,,,,,,,,,,,,,,,,,,,,,,,,,,,,,,,,,,,,,,,,,,,,,,,,,260001,2024-03-05_12h24.38.253,mfe_c_object,2022.2.4,59.9485880623067,
flanker_practice_block.csv,img/leftArrow.png,img/rightArrow.png,img/rightArrow.png,8,0,left,"[0, 0]","[0.0385, 0]","[-0.0385, 0]",img/object_images/spoon01.jpg,"[0.035, 0.035]",,,,,0,0,0,0,0,4,4,18,,,,,,,,,,,,,,,,,,,,,,,3.769539078156313,205.94276620005257,205.94276620005257,205.94276620005257,205.94276620005257,206.14519959990866,206.29498260002583,209.86643269984052,209.86643269984052,['k'],0,[1.4879589001648128],,,,,,,,,,,,,,,,,,,,,,,,,,,,,,,,,,,,,,,,,,,,,,,,,,,,,,,,,,,,,,,,,,,,,,,,,,,,,,,,,260001,2024-03-05_12h24.38.253,mfe_c_object,2022.2.4,59.9485880623067,
flanker_practice_block.csv,img/rightArrow.png,img/leftArrow.png,img/leftArrow.png,7,0,right,"[0, 0]","[0.0385, 0]","[-0.0385, 0]",img/object_images/rock04.jpg,"[0.035, 0.035]",,,,,0,0,0,0,0,5,5,16,,,,,,,,,,,,,,,,,,,,,,,3.9939879759519035,209.86643269984052,209.86643269984052,209.86643269984052,209.86643269984052,210.06605320004746,210.21587689989246,214.01615369995125,214.01615369995125,['s'],0,[0.9719187002629042],,,,,,,,,,,,,,,,,,,,,,,,,,,,,,,,,,,,,,,,,,,,,,,,,,,,,,,,,,,,,,,,,,,,,,,,,,,,,,,,,260001,2024-03-05_12h24.38.253,mfe_c_object,2022.2.4,59.9485880623067,
flanker_practice_block.csv,img/leftArrow.png,img/rightArrow.png,img/rightArrow.png,8,0,left,"[0, 0]","[0.0385, 0]","[-0.0385, 0]",img/object_images/car_toy05.jpg,"[0.035, 0.035]",,,,,0,0,0,0,0,6,6,3,,,,,,,,,,,,,,,,,,,,,,,3.506012024048096,214.01615369995125,214.01615369995125,214.01615369995125,214.01615369995125,214.21999730006792,214.3699705998879,217.6650928000454,217.6650928000454,['s'],1,[1.6538911000825465],,,,,,,,,,,,,,,,,,,,,,,,,,,,,,,,,,,,,,,,,,,,,,,,,,,,,,,,,,,,,,,,,,,,,,,,,,,,,,,,,260001,2024-03-05_12h24.38.253,mfe_c_object,2022.2.4,59.9485880623067,
flanker_practice_block.csv,img/leftArrow.png,img/leftArrow.png,img/leftArrow.png,6,1,left,"[0, 0]","[0.0385, 0]","[-0.0385, 0]",img/object_images/vacuum_cleaner01.jpg,"[0.035, 0.035]",,,,,0,0,0,0,0,7,7,7,,,,,,,,,,,,,,,,,,,,,,,3.749498997995992,217.6650928000454,217.6650928000454,217.6650928000454,217.6650928000454,217.87360709998757,218.02351940004155,221.57094409991987,221.57094409991987,['s'],1,[1.5642360001802444],,,,,,,,,,,,,,,,,,,,,,,,,,,,,,,,,,,,,,,,,,,,,,,,,,,,,,,,,,,,,,,,,,,,,,,,,,,,,,,,,260001,2024-03-05_12h24.38.253,mfe_c_object,2022.2.4,59.9485880623067,
flanker_practice_block.csv,img/rightArrow.png,img/leftArrow.png,img/leftArrow.png,7,0,right,"[0, 0]","[0.0385, 0]","[-0.0385, 0]",img/object_images/headset03.jpg,"[0.035, 0.035]",,,,,0,0,0,0,0,8,8,11,,,,,,,,,,,,,,,,,,,,,,,3.7765531062124245,221.57094409991987,221.57094409991987,221.57094409991987,221.57094409991987,221.7776225998532,221.92742559988983,225.4993348000571,225.4993348000571,['k'],1,[1.050791600253433],,,,,,,,,,,,,,,,,,,,,,,,,,,,,,,,,,,,,,,,,,,,,,,,,,,,,,,,,,,,,,,,,,,,,,,,,,,,,,,,,260001,2024-03-05_12h24.38.253,mfe_c_object,2022.2.4,59.9485880623067,
flanker_practice_block.csv,img/rightArrow.png,img/leftArrow.png,img/leftArrow.png,7,0,right,"[0, 0]","[0.0385, 0]","[-0.0385, 0]",img/object_images/accordion02.jpg,"[0.035, 0.035]",,,,,0,0,0,0,0,9,9,0,,,,,,,,,,,,,,,,,,,,,,,3.823647294589178,225.4993348000571,225.4993348000571,225.4993348000571,225.4993348000571,225.69804989988916,225.84823739994317,229.48176719993353,229.48176719993353,['s'],0,[1.0984899001196027],,,,,,,,,,,,,,,,,,,,,,,,,,,,,,,,,,,,,,,,,,,,,,,,,,,,,,,,,,,,,,,,,,,,,,,,,,,,,,,,,260001,2024-03-05_12h24.38.253,mfe_c_object,2022.2.4,59.9485880623067,
flanker_practice_block.csv,img/rightArrow.png,img/rightArrow.png,img/rightArrow.png,5,1,right,"[0, 0]","[0.0385, 0]","[-0.0385, 0]",img/object_images/knife03.jpg,"[0.035, 0.035]",,,,,0,0,0,0,0,10,10,5,,,,,,,,,,,,,,,,,,,,,,,3.8947895791583163,229.48176719993353,229.48176719993353,229.48176719993353,229.48176719993353,229.68558359984308,229.83552940003574,233.5358816999942,233.5358816999942,['k'],1,[1.1561721002217382],,,,,,,,,,,,,,,,,,,,,,,,,,,,,,,,,,,,,,,,,,,,,,,,,,,,,,,,,,,,,,,,,,,,,,,,,,,,,,,,,260001,2024-03-05_12h24.38.253,mfe_c_object,2022.2.4,59.9485880623067,
flanker_practice_block.csv,img/leftArrow.png,img/leftArrow.png,img/leftArrow.png,6,1,left,"[0, 0]","[0.0385, 0]","[-0.0385, 0]",img/object_images/joystick02.jpg,"[0.035, 0.035]",,,,,0,0,0,0,0,11,11,4,,,,,,,,,,,,,,,,,,,,,,,3.935871743486974,233.5358816999942,233.5358816999942,233.5358816999942,233.5358816999942,233.73952499986626,233.88961139996536,237.64968719985336,237.64968719985336,['k'],0,[2.6068764000665396],,,,,,,,,,,,,,,,,,,,,,,,,,,,,,,,,,,,,,,,,,,,,,,,,,,,,,,,,,,,,,,,,,,,,,,,,,,,,,,,,260001,2024-03-05_12h24.38.253,mfe_c_object,2022.2.4,59.9485880623067,
flanker_practice_block.csv,img/rightArrow.png,img/rightArrow.png,img/rightArrow.png,5,1,right,"[0, 0]","[0.0385, 0]","[-0.0385, 0]",img/object_images/basketball_hoop01.jpg,"[0.035, 0.035]",,,,,0,0,0,0,0,12,12,6,,,,,,,,,,,,,,,,,,,,,,,3.875751503006012,237.64968719985336,237.64968719985336,237.64968719985336,237.64968719985336,237.86035729991272,238.01001559989527,241.6907660998404,241.6907660998404,['k'],1,[1.2197334999218583],,,,,,,,,,,,,,,,,,,,,,,,,,,,,,,,,,,,,,,,,,,,,,,,,,,,,,,,,,,,,,,,,,,,,,,,,,,,,,,,,260001,2024-03-05_12h24.38.253,mfe_c_object,2022.2.4,59.9485880623067,
flanker_practice_block.csv,img/leftArrow.png,img/rightArrow.png,img/rightArrow.png,8,0,left,"[0, 0]","[0.0385, 0]","[-0.0385, 0]",img/object_images/Typewritter01.jpg,"[0.035, 0.035]",,,,,0,0,0,0,0,13,13,8,,,,,,,,,,,,,,,,,,,,,,,3.769539078156313,241.6907660998404,241.6907660998404,241.6907660998404,241.6907660998404,241.89788359985687,242.0476420999039,245.60956879984587,245.60956879984587,['s'],1,[0.7082314002327621],,,,,,,,,,,,,,,,,,,,,,,,,,,,,,,,,,,,,,,,,,,,,,,,,,,,,,,,,,,,,,,,,,,,,,,,,,,,,,,,,260001,2024-03-05_12h24.38.253,mfe_c_object,2022.2.4,59.9485880623067,
flanker_practice_block.csv,img/leftArrow.png,img/rightArrow.png,img/rightArrow.png,8,0,left,"[0, 0]","[0.0385, 0]","[-0.0385, 0]",img/object_images/trumpet02.jpg,"[0.035, 0.035]",,,,,0,0,0,0,0,14,14,10,,,,,,,,,,,,,,,,,,,,,,,3.5551102204408815,245.60956879984587,245.60956879984587,245.60956879984587,245.60956879984587,245.8182242999319,245.96819609985687,249.31369640002958,249.31369640002958,['s'],1,[0.7638034000992775],,,,,,,,,,,,,,,,,,,,,,,,,,,,,,,,,,,,,,,,,,,,,,,,,,,,,,,,,,,,,,,,,,,,,,,,,,,,,,,,,260001,2024-03-05_12h24.38.253,mfe_c_object,2022.2.4,59.9485880623067,
flanker_practice_block.csv,img/rightArrow.png,img/leftArrow.png,img/leftArrow.png,7,0,right,"[0, 0]","[0.0385, 0]","[-0.0385, 0]",img/object_images/staple_remover01.jpg,"[0.035, 0.035]",,,,,0,0,0,0,0,15,15,15,,,,,,,,,,,,,,,,,,,,,,,3.7895791583166334,249.31369640002958,249.31369640002958,249.31369640002958,249.31369640002958,249.5217889000196,249.6718335999176,253.25297639984637,253.25297639984637,['k'],1,[0.4686169002670795],,,,,,,,,,,,,,,,,,,,,,,,,,,,,,,,,,,,,,,,,,,,,,,,,,,,,,,,,,,,,,,,,,,,,,,,,,,,,,,,,260001,2024-03-05_12h24.38.253,mfe_c_object,2022.2.4,59.9485880623067,
flanker_practice_block.csv,img/leftArrow.png,img/leftArrow.png,img/leftArrow.png,6,1,left,"[0, 0]","[0.0385, 0]","[-0.0385, 0]",img/object_images/usb01.jpg,"[0.035, 0.035]",,,,,0,0,0,0,0,16,16,14,,,,,,,,,,,,,,,,,,,,,,,3.744488977955912,253.25297639984637,253.25297639984637,253.25297639984637,253.25297639984637,253.45936720003374,253.6092775000725,257.16126129985787,257.16126129985787,['s'],1,[0.7850184000562876],,,,,,,,,,,,,,,,,,,,,,,,,,,,,,,,,,,,,,,,,,,,,,,,,,,,,,,,,,,,,,,,,,,,,,,,,,,,,,,,,260001,2024-03-05_12h24.38.253,mfe_c_object,2022.2.4,59.9485880623067,
flanker_practice_block.csv,img/leftArrow.png,img/rightArrow.png,img/rightArrow.png,8,0,left,"[0, 0]","[0.0385, 0]","[-0.0385, 0]",img/object_images/binoculars01.jpg,"[0.035, 0.035]",,,,,0,0,0,0,0,17,17,1,,,,,,,,,,,,,,,,,,,,,,,3.778557114228457,257.16126129985787,257.16126129985787,257.16126129985787,257.16126129985787,257.36313259997405,257.51305419998243,261.11842149985023,261.11842149985023,['s'],1,[1.0923586001154035],,,,,,,,,,,,,,,,,,,,,,,,,,,,,,,,,,,,,,,,,,,,,,,,,,,,,,,,,,,,,,,,,,,,,,,,,,,,,,,,,260001,2024-03-05_12h24.38.253,mfe_c_object,2022.2.4,59.9485880623067,
flanker_practice_block.csv,img/leftArrow.png,img/leftArrow.png,img/leftArrow.png,6,1,left,"[0, 0]","[0.0385, 0]","[-0.0385, 0]",img/object_images/hair_brush03.jpg,"[0.035, 0.035]",,,,,0,0,0,0,0,18,18,2,,,,,,,,,,,,,,,,,,,,,,,3.906813627254509,261.11842149985023,261.11842149985023,261.11842149985023,261.11842149985023,261.3340238998644,261.4836545998696,265.17592099984176,265.17592099984176,['s'],1,[0.8472392000257969],,,,,,,,,,,,,,,,,,,,,,,,,,,,,,,,,,,,,,,,,,,,,,,,,,,,,,,,,,,,,,,,,,,,,,,,,,,,,,,,,260001,2024-03-05_12h24.38.253,mfe_c_object,2022.2.4,59.9485880623067,
flanker_practice_block.csv,img/rightArrow.png,img/rightArrow.png,img/rightArrow.png,5,1,right,"[0, 0]","[0.0385, 0]","[-0.0385, 0]",img/object_images/handle_bar01.jpg,"[0.035, 0.035]",,,,,0,0,0,0,0,19,19,13,,,,,,,,,,,,,,,,,,,,,,,3.5150300601202407,265.17592099984176,265.17592099984176,265.17592099984176,265.17592099984176,265.3880717998836,265.5375977999065,268.6911474999506,268.6911474999506,['k'],1,[0.7345092000905424],,,,,,,,,,,,,,,,,,,,,,,,,,,,,,,,,,,,,,,,,,,,,,,,,,,,,,,,,,,,,,,,,,,,,,,,,,,,,,,,,260001,2024-03-05_12h24.38.253,mfe_c_object,2022.2.4,59.9485880623067,
flanker_practice_block.csv,,,,,,,,,,,,,,,,0,0,0,0,,,,,,,,,,,,,,,,,,,,,,,,,,,,,,,,,,,,,,,268.6911474999506,268.6911474999506,268.6911474999506,k,3.3303338999394327,,,,,,,,,,,,,,,,,,,,,,,,,,,,,,,,,,,,,,,,,,,,,,,,,,,,,,,,,,,,,,,,,,,,,,,,,,,,260001,2024-03-05_12h24.38.253,mfe_c_object,2022.2.4,59.9485880623067,
flanker_practice_block.csv,img/rightArrow.png,img/leftArrow.png,img/leftArrow.png,7,0,right,"[0, 0]","[0.0385, 0]","[-0.0385, 0]",img/object_images/rock04.jpg,"[0.035, 0.035]",,,,,1,0,1,0,0,0,0,16,,,,,,,,,,,,,,,,,272.0437320000492,272.0437320000492,272.0437320000492,k,65.12179310014471,337.19980719988234,3.6442885771543088,339.409348399844,339.409348399844,339.409348399844,339.409348399844,339.6123464999255,339.7622086999472,343.2067374000326,343.2067374000326,['k'],1,[0.8289659002330154],,,,,,,,,,,,,,,,,,,,,,,,,,,,,,,,,,,,,,,,,,,,,,,,,,,,,,,,,,,,,,,,,,,,,,,,,,,,,,,,,260001,2024-03-05_12h24.38.253,mfe_c_object,2022.2.4,59.9485880623067,
flanker_practice_block.csv,img/rightArrow.png,img/leftArrow.png,img/leftArrow.png,7,0,right,"[0, 0]","[0.0385, 0]","[-0.0385, 0]",img/object_images/headset03.jpg,"[0.035, 0.035]",,,,,1,0,1,0,0,1,1,11,,,,,,,,,,,,,,,,,,,,,,,3.964929859719439,343.2067374000326,343.2067374000326,343.2067374000326,343.2067374000326,343.4159802000504,343.565781599842,347.32070409995504,347.32070409995504,['k'],1,[0.7508361001964658],,,,,,,,,,,,,,,,,,,,,,,,,,,,,,,,,,,,,,,,,,,,,,,,,,,,,,,,,,,,,,,,,,,,,,,,,,,,,,,,,260001,2024-03-05_12h24.38.253,mfe_c_object,2022.2.4,59.9485880623067,
flanker_practice_block.csv,img/leftArrow.png,img/leftArrow.png,img/leftArrow.png,6,1,left,"[0, 0]","[0.0385, 0]","[-0.0385, 0]",img/object_images/vacuum_cleaner01.jpg,"[0.035, 0.035]",,,,,1,0,1,0,0,2,2,7,,,,,,,,,,,,,,,,,,,,,,,3.7254509018036073,347.32070409995504,347.32070409995504,347.32070409995504,347.32070409995504,347.52006509993225,347.6698191999458,351.1948166000657,351.1948166000657,['s'],1,[0.7507591999601573],,,,,,,,,,,,,,,,,,,,,,,,,,,,,,,,,,,,,,,,,,,,,,,,,,,,,,,,,,,,,,,,,,,,,,,,,,,,,,,,,260001,2024-03-05_12h24.38.253,mfe_c_object,2022.2.4,59.9485880623067,
flanker_practice_block.csv,img/leftArrow.png,img/leftArrow.png,img/leftArrow.png,6,1,left,"[0, 0]","[0.0385, 0]","[-0.0385, 0]",img/object_images/joystick02.jpg,"[0.035, 0.035]",,,,,1,0,1,0,0,3,3,4,,,,,,,,,,,,,,,,,,,,,,,3.6523046092184366,351.1948166000657,351.1948166000657,351.1948166000657,351.1948166000657,351.40739189996384,351.55718789994717,355.00399250001647,355.00399250001647,['s'],1,[0.6913900002837181],,,,,,,,,,,,,,,,,,,,,,,,,,,,,,,,,,,,,,,,,,,,,,,,,,,,,,,,,,,,,,,,,,,,,,,,,,,,,,,,,260001,2024-03-05_12h24.38.253,mfe_c_object,2022.2.4,59.9485880623067,
flanker_practice_block.csv,img/leftArrow.png,img/rightArrow.png,img/rightArrow.png,8,0,left,"[0, 0]","[0.0385, 0]","[-0.0385, 0]",img/object_images/Typewritter01.jpg,"[0.035, 0.035]",,,,,1,0,1,0,0,4,4,8,,,,,,,,,,,,,,,,,,,,,,,3.663326653306613,355.00399250001647,355.00399250001647,355.00399250001647,355.00399250001647,355.2112219000701,355.3611177999992,358.8421093998477,358.8421093998477,['s'],1,[0.8505019003059715],,,,,,,,,,,,,,,,,,,,,,,,,,,,,,,,,,,,,,,,,,,,,,,,,,,,,,,,,,,,,,,,,,,,,,,,,,,,,,,,,260001,2024-03-05_12h24.38.253,mfe_c_object,2022.2.4,59.9485880623067,
flanker_practice_block.csv,img/rightArrow.png,img/leftArrow.png,img/leftArrow.png,7,0,right,"[0, 0]","[0.0385, 0]","[-0.0385, 0]",img/object_images/accordion02.jpg,"[0.035, 0.035]",,,,,1,0,1,0,0,5,5,0,,,,,,,,,,,,,,,,,,,,,,,3.9448897795591185,358.8421093998477,358.8421093998477,358.8421093998477,358.8421093998477,359.04854099988006,359.1983662999701,362.95972859999165,362.95972859999165,['k'],1,[0.6679191999137402],,,,,,,,,,,,,,,,,,,,,,,,,,,,,,,,,,,,,,,,,,,,,,,,,,,,,,,,,,,,,,,,,,,,,,,,,,,,,,,,,260001,2024-03-05_12h24.38.253,mfe_c_object,2022.2.4,59.9485880623067,
flanker_practice_block.csv,img/leftArrow.png,img/rightArrow.png,img/rightArrow.png,8,0,left,"[0, 0]","[0.0385, 0]","[-0.0385, 0]",img/object_images/spoon01.jpg,"[0.035, 0.035]",,,,,1,0,1,0,0,6,6,18,,,,,,,,,,,,,,,,,,,,,,,3.5250501002004007,362.95972859999165,362.95972859999165,362.95972859999165,362.95972859999165,363.16895639989525,363.3188571999781,366.62201569997706,366.62201569997706,['s'],1,[0.7668239001650363],,,,,,,,,,,,,,,,,,,,,,,,,,,,,,,,,,,,,,,,,,,,,,,,,,,,,,,,,,,,,,,,,,,,,,,,,,,,,,,,,260001,2024-03-05_12h24.38.253,mfe_c_object,2022.2.4,59.9485880623067,
flanker_practice_block.csv,img/rightArrow.png,img/leftArrow.png,img/leftArrow.png,7,0,right,"[0, 0]","[0.0385, 0]","[-0.0385, 0]",img/object_images/crane02.jpg,"[0.035, 0.035]",,,,,1,0,1,0,0,7,7,17,,,,,,,,,,,,,,,,,,,,,,,3.947895791583166,366.62201569997706,366.62201569997706,366.62201569997706,366.62201569997706,366.8226634999737,366.9726108000614,370.71394039993174,370.71394039993174,['k'],1,[0.7285186001099646],,,,,,,,,,,,,,,,,,,,,,,,,,,,,,,,,,,,,,,,,,,,,,,,,,,,,,,,,,,,,,,,,,,,,,,,,,,,,,,,,260001,2024-03-05_12h24.38.253,mfe_c_object,2022.2.4,59.9485880623067,
flanker_practice_block.csv,img/leftArrow.png,img/leftArrow.png,img/leftArrow.png,6,1,left,"[0, 0]","[0.0385, 0]","[-0.0385, 0]",img/object_images/usb01.jpg,"[0.035, 0.035]",,,,,1,0,1,0,0,8,8,14,,,,,,,,,,,,,,,,,,,,,,,3.593186372745491,370.71394039993174,370.71394039993174,370.71394039993174,370.71394039993174,370.92676740000024,371.076785299927,374.45398769993335,374.45398769993335,['s'],1,[0.7324485001154244],,,,,,,,,,,,,,,,,,,,,,,,,,,,,,,,,,,,,,,,,,,,,,,,,,,,,,,,,,,,,,,,,,,,,,,,,,,,,,,,,260001,2024-03-05_12h24.38.253,mfe_c_object,2022.2.4,59.9485880623067,
flanker_practice_block.csv,img/leftArrow.png,img/rightArrow.png,img/rightArrow.png,8,0,left,"[0, 0]","[0.0385, 0]","[-0.0385, 0]",img/object_images/car_toy05.jpg,"[0.035, 0.035]",,,,,1,0,1,0,0,9,9,3,,,,,,,,,,,,,,,,,,,,,,,3.841683366733467,374.45398769993335,374.45398769993335,374.45398769993335,374.45398769993335,374.663828499848,374.81387399998493,378.44130810000934,378.44130810000934,['s'],1,[0.680281100096181],,,,,,,,,,,,,,,,,,,,,,,,,,,,,,,,,,,,,,,,,,,,,,,,,,,,,,,,,,,,,,,,,,,,,,,,,,,,,,,,,260001,2024-03-05_12h24.38.253,mfe_c_object,2022.2.4,59.9485880623067,
flanker_practice_block.csv,img/rightArrow.png,img/leftArrow.png,img/leftArrow.png,7,0,right,"[0, 0]","[0.0385, 0]","[-0.0385, 0]",img/object_images/staple_remover01.jpg,"[0.035, 0.035]",,,,,1,0,1,0,0,10,10,15,,,,,,,,,,,,,,,,,,,,,,,3.503006012024048,378.44130810000934,378.44130810000934,378.44130810000934,378.44130810000934,378.65105149988085,378.80098389997147,382.1127869999036,382.1127869999036,['k'],1,[0.5895510001573712],,,,,,,,,,,,,,,,,,,,,,,,,,,,,,,,,,,,,,,,,,,,,,,,,,,,,,,,,,,,,,,,,,,,,,,,,,,,,,,,,260001,2024-03-05_12h24.38.253,mfe_c_object,2022.2.4,59.9485880623067,
flanker_practice_block.csv,img/rightArrow.png,img/rightArrow.png,img/rightArrow.png,5,1,right,"[0, 0]","[0.0385, 0]","[-0.0385, 0]",img/object_images/basketball_hoop01.jpg,"[0.035, 0.035]",,,,,1,0,1,0,0,11,11,6,,,,,,,,,,,,,,,,,,,,,,,3.8887775551102206,382.1127869999036,382.1127869999036,382.1127869999036,382.1127869999036,382.32149029988796,382.47157539986074,386.14330759993754,386.14330759993754,['k'],1,[0.8773614999372512],,,,,,,,,,,,,,,,,,,,,,,,,,,,,,,,,,,,,,,,,,,,,,,,,,,,,,,,,,,,,,,,,,,,,,,,,,,,,,,,,260001,2024-03-05_12h24.38.253,mfe_c_object,2022.2.4,59.9485880623067,
flanker_practice_block.csv,img/leftArrow.png,img/leftArrow.png,img/leftArrow.png,6,1,left,"[0, 0]","[0.0385, 0]","[-0.0385, 0]",img/object_images/hair_brush03.jpg,"[0.035, 0.035]",,,,,1,0,1,0,0,12,12,2,,,,,,,,,,,,,,,,,,,,,,,3.748496993987976,386.14330759993754,386.14330759993754,386.14330759993754,386.14330759993754,386.35884530004114,386.49222470005043,390.0325906998478,390.0325906998478,['s'],1,[0.7832763001788408],,,,,,,,,,,,,,,,,,,,,,,,,,,,,,,,,,,,,,,,,,,,,,,,,,,,,,,,,,,,,,,,,,,,,,,,,,,,,,,,,260001,2024-03-05_12h24.38.253,mfe_c_object,2022.2.4,59.9485880623067,
flanker_practice_block.csv,img/rightArrow.png,img/rightArrow.png,img/rightArrow.png,5,1,right,"[0, 0]","[0.0385, 0]","[-0.0385, 0]",img/object_images/usb_drive01.jpg,"[0.035, 0.035]",,,,,1,0,1,0,0,13,13,19,,,,,,,,,,,,,,,,,,,,,,,3.535070140280561,390.0325906998478,390.0325906998478,390.0325906998478,390.0325906998478,390.2465130998753,390.39600139996037,393.7169758998789,393.7169758998789,['k'],1,[0.6781436002347618],,,,,,,,,,,,,,,,,,,,,,,,,,,,,,,,,,,,,,,,,,,,,,,,,,,,,,,,,,,,,,,,,,,,,,,,,,,,,,,,,260001,2024-03-05_12h24.38.253,mfe_c_object,2022.2.4,59.9485880623067,
flanker_practice_block.csv,img/rightArrow.png,img/rightArrow.png,img/rightArrow.png,5,1,right,"[0, 0]","[0.0385, 0]","[-0.0385, 0]",img/object_images/hot_air_balloon01.jpg,"[0.035, 0.035]",,,,,1,0,1,0,0,14,14,12,,,,,,,,,,,,,,,,,,,,,,,3.724448897795591,393.7169758998789,393.7169758998789,393.7169758998789,393.7169758998789,393.9163700998761,394.06632069987245,397.5897929999046,397.5897929999046,['k'],1,[0.537361399969086],,,,,,,,,,,,,,,,,,,,,,,,,,,,,,,,,,,,,,,,,,,,,,,,,,,,,,,,,,,,,,,,,,,,,,,,,,,,,,,,,260001,2024-03-05_12h24.38.253,mfe_c_object,2022.2.4,59.9485880623067,
flanker_practice_block.csv,img/rightArrow.png,img/rightArrow.png,img/rightArrow.png,5,1,right,"[0, 0]","[0.0385, 0]","[-0.0385, 0]",img/object_images/handle_bar01.jpg,"[0.035, 0.035]",,,,,1,0,1,0,0,15,15,13,,,,,,,,,,,,,,,,,,,,,,,3.94188376753507,397.5897929999046,397.5897929999046,397.5897929999046,397.5897929999046,397.8036205000244,397.95360559993424,401.6782660000026,401.6782660000026,['k'],1,[0.6238530999980867],,,,,,,,,,,,,,,,,,,,,,,,,,,,,,,,,,,,,,,,,,,,,,,,,,,,,,,,,,,,,,,,,,,,,,,,,,,,,,,,,260001,2024-03-05_12h24.38.253,mfe_c_object,2022.2.4,59.9485880623067,
flanker_practice_block.csv,img/leftArrow.png,img/rightArrow.png,img/rightArrow.png,8,0,left,"[0, 0]","[0.0385, 0]","[-0.0385, 0]",img/object_images/trumpet02.jpg,"[0.035, 0.035]",,,,,1,0,1,0,0,16,16,10,,,,,,,,,,,,,,,,,,,,,,,3.967935871743487,401.6782660000026,401.6782660000026,401.6782660000026,401.6782660000026,401.8910417999141,402.04104469995946,405.79773440002464,405.79773440002464,['s'],1,[0.6241903998889029],,,,,,,,,,,,,,,,,,,,,,,,,,,,,,,,,,,,,,,,,,,,,,,,,,,,,,,,,,,,,,,,,,,,,,,,,,,,,,,,,260001,2024-03-05_12h24.38.253,mfe_c_object,2022.2.4,59.9485880623067,
flanker_practice_block.csv,img/leftArrow.png,img/leftArrow.png,img/leftArrow.png,6,1,left,"[0, 0]","[0.0385, 0]","[-0.0385, 0]",img/object_images/skate_board02.jpg,"[0.035, 0.035]",,,,,1,0,1,0,0,17,17,9,,,,,,,,,,,,,,,,,,,,,,,3.5070140280561124,405.79773440002464,405.79773440002464,405.79773440002464,405.79773440002464,406.0118431998417,406.16182260005735,409.44784599984996,409.44784599984996,['s'],1,[0.6008758002426475],,,,,,,,,,,,,,,,,,,,,,,,,,,,,,,,,,,,,,,,,,,,,,,,,,,,,,,,,,,,,,,,,,,,,,,,,,,,,,,,,260001,2024-03-05_12h24.38.253,mfe_c_object,2022.2.4,59.9485880623067,
flanker_practice_block.csv,img/rightArrow.png,img/rightArrow.png,img/rightArrow.png,5,1,right,"[0, 0]","[0.0385, 0]","[-0.0385, 0]",img/object_images/knife03.jpg,"[0.035, 0.035]",,,,,1,0,1,0,0,18,18,5,,,,,,,,,,,,,,,,,,,,,,,3.715430861723447,409.44784599984996,409.44784599984996,409.44784599984996,409.44784599984996,409.64918169984594,409.79872339987196,413.3038945000153,413.3038945000153,['k'],1,[0.6158552002161741],,,,,,,,,,,,,,,,,,,,,,,,,,,,,,,,,,,,,,,,,,,,,,,,,,,,,,,,,,,,,,,,,,,,,,,,,,,,,,,,,260001,2024-03-05_12h24.38.253,mfe_c_object,2022.2.4,59.9485880623067,
flanker_practice_block.csv,img/leftArrow.png,img/rightArrow.png,img/rightArrow.png,8,0,left,"[0, 0]","[0.0385, 0]","[-0.0385, 0]",img/object_images/binoculars01.jpg,"[0.035, 0.035]",,,,,1,0,1,0,0,19,19,1,,,,,,,,,,,,,,,,,,,,,,,3.8837675350701404,413.3038945000153,413.3038945000153,413.3038945000153,413.3038945000153,413.5194959999062,413.66935039986856,417.1882986999117,417.1882986999117,['s'],1,[0.46348150027915835],,,,,,,,,,,,,,,,,,,,,,,,,,,,,,,,,,,,,,,,,,,,,,,,,,,,,,,,,,,,,,,,,,,,,,,,,,,,,,,,,260001,2024-03-05_12h24.38.253,mfe_c_object,2022.2.4,59.9485880623067,
flanker_practice_block.csv,,,,,,,,,,,,,,,,1,0,1,0,,,,,,,,,,,,,,,,,,,,,,,,,,,,,,,,,,,,,,,417.1882986999117,417.1882986999117,417.1882986999117,k,1.793565400177613,,,,,,,,,,,,,,,,,,,,,,,,,,,,,,,,,,,,,,,,,,,,,,,,,,,,,,,,,,,,,,,,,,,,,,,,,,,,260001,2024-03-05_12h24.38.253,mfe_c_object,2022.2.4,59.9485880623067,
,,,,,,,,,,,,,,,,,,,,,,,,,,,,,,,,,,,,,,,,,,,,,,,,,,,,,,,,,,,,,,,419.00718499999493,419.00718499999493,c,174.59937510010786,,,,,,,,,,,,,,,,,,,,,,,,,,,,,,,,,,,,,,,,,,,,,,,,,,,,,,,,,,,,,,,,,,,,,,,,260001,2024-03-05_12h24.38.253,mfe_c_object,2022.2.4,59.9485880623067,
flanker_main_block_8.csv,img/rightArrow.png,img/leftArrow.png,img/leftArrow.png,7,0,right,"[0, 0]","[0.0385, 0]","[-0.0385, 0]",img/object_images/car03.jpg,"[0.035, 0.035]",,,,,,,,,,,,,0,0,0,7,0,0,0,11,,,,,,,,,,,,,,604.328139099991,3.9338677354709417,,,,,,,,,,1,,,,,,,,,,,593.6559390998445,593.6559390998445,k,10.646945400163531,606.516102500027,606.516102500027,606.516102500027,606.516102500027,606.516102500027,606.7293725998607,606.8792399000376,610.5870987998787,610.5870987998787,610.5870987998787,['k'],[0.6426195001695305],,,,,,,,,,,,,,,,,,,,,,,,,,,,,,,,,,,,,,,,,,,,,,,,,,,,,,,,260001,2024-03-05_12h24.38.253,mfe_c_object,2022.2.4,59.9485880623067,
flanker_main_block_8.csv,img/leftArrow.png,img/rightArrow.png,img/rightArrow.png,8,0,left,"[0, 0]","[0.0385, 0]","[-0.0385, 0]",img/object_images/jewel01.jpg,"[0.035, 0.035]",,,,,,,,,,,,,0,0,0,7,0,1,1,0,,,,,,,,,,,,,,,3.881763527054108,,,,,,,,,,1,,,,,,,,,,,,,,,610.5870987998787,610.5870987998787,610.5870987998787,610.5870987998787,610.5870987998787,610.8000636000652,610.9500327999704,614.6118417000398,614.6118417000398,614.6118417000398,['s'],[0.5481048000510782],,,,,,,,,,,,,,,,,,,,,,,,,,,,,,,,,,,,,,,,,,,,,,,,,,,,,,,,260001,2024-03-05_12h24.38.253,mfe_c_object,2022.2.4,59.9485880623067,
flanker_main_block_8.csv,img/leftArrow.png,img/leftArrow.png,img/leftArrow.png,6,1,left,"[0, 0]","[0.0385, 0]","[-0.0385, 0]",img/object_images/bag06.jpg,"[0.035, 0.035]",,,,,,,,,,,,,0,0,0,7,0,2,2,28,,,,,,,,,,,,,,,3.8567134268537075,,,,,,,,,,1,,,,,,,,,,,,,,,614.6118417000398,614.6118417000398,614.6118417000398,614.6118417000398,614.6118417000398,614.820930399932,614.9707231000066,618.6060854999814,618.6060854999814,618.6060854999814,['s'],[0.6503049002494663],,,,,,,,,,,,,,,,,,,,,,,,,,,,,,,,,,,,,,,,,,,,,,,,,,,,,,,,260001,2024-03-05_12h24.38.253,mfe_c_object,2022.2.4,59.9485880623067,
flanker_main_block_8.csv,img/rightArrow.png,img/leftArrow.png,img/leftArrow.png,7,0,right,"[0, 0]","[0.0385, 0]","[-0.0385, 0]",img/object_images/screwdriver01.jpg,"[0.035, 0.035]",,,,,,,,,,,,,0,0,0,7,0,3,3,31,,,,,,,,,,,,,,,3.5290581162324646,,,,,,,,,,1,,,,,,,,,,,,,,,618.6060854999814,618.6060854999814,618.6060854999814,618.6060854999814,618.6060854999814,618.8081290998962,618.958014999982,622.2761837998405,622.2761837998405,622.2761837998405,['k'],[0.5200396999716759],,,,,,,,,,,,,,,,,,,,,,,,,,,,,,,,,,,,,,,,,,,,,,,,,,,,,,,,260001,2024-03-05_12h24.38.253,mfe_c_object,2022.2.4,59.9485880623067,
flanker_main_block_8.csv,img/leftArrow.png,img/leftArrow.png,img/leftArrow.png,6,1,left,"[0, 0]","[0.0385, 0]","[-0.0385, 0]",img/object_images/shower_head03.jpg,"[0.035, 0.035]",,,,,,,,,,,,,0,0,0,7,0,4,4,5,,,,,,,,,,,,,,,3.504008016032064,,,,,,,,,,1,,,,,,,,,,,,,,,622.2761837998405,622.2761837998405,622.2761837998405,622.2761837998405,622.2761837998405,622.4784810000565,622.6283646998927,625.9648051999975,625.9648051999975,625.9648051999975,['s'],[0.4505884002428502],,,,,,,,,,,,,,,,,,,,,,,,,,,,,,,,,,,,,,,,,,,,,,,,,,,,,,,,260001,2024-03-05_12h24.38.253,mfe_c_object,2022.2.4,59.9485880623067,
flanker_main_block_8.csv,img/rightArrow.png,img/leftArrow.png,img/leftArrow.png,7,0,right,"[0, 0]","[0.0385, 0]","[-0.0385, 0]",img/object_images/satellite01.jpg,"[0.035, 0.035]",,,,,,,,,,,,,0,0,0,7,0,5,5,24,,,,,,,,,,,,,,,3.7324649298597197,,,,,,,,,,1,,,,,,,,,,,,,,,625.9648051999975,625.9648051999975,625.9648051999975,625.9648051999975,625.9648051999975,626.165563199902,626.3155159999151,629.8368377999868,629.8368377999868,629.8368377999868,['k'],[0.48983360012061894],,,,,,,,,,,,,,,,,,,,,,,,,,,,,,,,,,,,,,,,,,,,,,,,,,,,,,,,260001,2024-03-05_12h24.38.253,mfe_c_object,2022.2.4,59.9485880623067,
flanker_main_block_8.csv,img/rightArrow.png,img/rightArrow.png,img/rightArrow.png,5,1,right,"[0, 0]","[0.0385, 0]","[-0.0385, 0]",img/object_images/hair_brush05.jpg,"[0.035, 0.035]",,,,,,,,,,,,,0,0,0,7,0,6,6,12,,,,,,,,,,,,,,,3.5851703406813624,,,,,,,,,,1,,,,,,,,,,,,,,,629.8368377999868,629.8368377999868,629.8368377999868,629.8368377999868,629.8368377999868,630.0359942999203,630.1859430999029,633.5611791999545,633.5611791999545,633.5611791999545,['k'],[0.5218443002086133],,,,,,,,,,,,,,,,,,,,,,,,,,,,,,,,,,,,,,,,,,,,,,,,,,,,,,,,260001,2024-03-05_12h24.38.253,mfe_c_object,2022.2.4,59.9485880623067,
flanker_main_block_8.csv,img/leftArrow.png,img/leftArrow.png,img/leftArrow.png,6,1,left,"[0, 0]","[0.0385, 0]","[-0.0385, 0]",img/object_images/tool11.jpg,"[0.035, 0.035]",,,,,,,,,,,,,0,0,0,7,0,7,7,17,,,,,,,,,,,,,,,3.55811623246493,,,,,,,,,,1,,,,,,,,,,,,,,,633.5611791999545,633.5611791999545,633.5611791999545,633.5611791999545,633.5611791999545,633.7731838000473,633.9230479998514,637.2537403998431,637.2537403998431,637.2537403998431,['s'],[0.5420536000747234],,,,,,,,,,,,,,,,,,,,,,,,,,,,,,,,,,,,,,,,,,,,,,,,,,,,,,,,260001,2024-03-05_12h24.38.253,mfe_c_object,2022.2.4,59.9485880623067,
flanker_main_block_8.csv,img/rightArrow.png,img/leftArrow.png,img/leftArrow.png,7,0,right,"[0, 0]","[0.0385, 0]","[-0.0385, 0]",img/object_images/car04.jpg,"[0.035, 0.035]",,,,,,,,,,,,,0,0,0,7,0,8,8,16,,,,,,,,,,,,,,,3.8527054108216436,,,,,,,,,,1,,,,,,,,,,,,,,,637.2537403998431,637.2537403998431,637.2598713999614,637.2537403998431,637.2537403998431,637.4600406000391,637.6100053999107,641.2428706998471,641.2428706998471,641.2428706998471,['k'],[0.48084660014137626],,,,,,,,,,,,,,,,,,,,,,,,,,,,,,,,,,,,,,,,,,,,,,,,,,,,,,,,260001,2024-03-05_12h24.38.253,mfe_c_object,2022.2.4,59.9485880623067,
flanker_main_block_8.csv,img/rightArrow.png,img/leftArrow.png,img/leftArrow.png,7,0,right,"[0, 0]","[0.0385, 0]","[-0.0385, 0]",img/object_images/mask01.jpg,"[0.035, 0.035]",,,,,,,,,,,,,0,0,0,7,0,9,9,8,,,,,,,,,,,,,,,3.658316633266533,,,,,,,,,,1,,,,,,,,,,,,,,,641.2428706998471,641.2428706998471,641.2489902998786,641.2428706998471,641.2428706998471,641.4641513999086,641.5973672999535,645.0329670999199,645.0329670999199,645.0329670999199,['k'],[0.4517987002618611],,,,,,,,,,,,,,,,,,,,,,,,,,,,,,,,,,,,,,,,,,,,,,,,,,,,,,,,260001,2024-03-05_12h24.38.253,mfe_c_object,2022.2.4,59.9485880623067,
flanker_main_block_8.csv,img/rightArrow.png,img/rightArrow.png,img/rightArrow.png,5,1,right,"[0, 0]","[0.0385, 0]","[-0.0385, 0]",img/object_images/chair04.jpg,"[0.035, 0.035]",,,,,,,,,,,,,0,0,0,7,0,10,10,23,,,,,,,,,,,,,,,3.579158316633267,,,,,,,,,,1,,,,,,,,,,,,,,,645.0329670999199,645.0329670999199,645.0329670999199,645.0329670999199,645.0329670999199,645.2346500998829,645.3848031999078,648.7576428998727,648.7576428998727,648.7576428998727,['k'],[0.41319010010920465],,,,,,,,,,,,,,,,,,,,,,,,,,,,,,,,,,,,,,,,,,,,,,,,,,,,,,,,260001,2024-03-05_12h24.38.253,mfe_c_object,2022.2.4,59.9485880623067,
flanker_main_block_8.csv,img/leftArrow.png,img/leftArrow.png,img/leftArrow.png,6,1,left,"[0, 0]","[0.0385, 0]","[-0.0385, 0]",img/object_images/jewelry07.jpg,"[0.035, 0.035]",,,,,,,,,,,,,0,0,0,7,0,11,11,10,,,,,,,,,,,,,,,3.614228456913828,,,,,,,,,,1,,,,,,,,,,,,,,,648.7576428998727,648.7576428998727,648.7576428998727,648.7576428998727,648.7576428998727,648.971600000048,649.1215969999321,652.5111736999825,652.5111736999825,652.5111736999825,['s'],[0.5770020999480039],,,,,,,,,,,,,,,,,,,,,,,,,,,,,,,,,,,,,,,,,,,,,,,,,,,,,,,,260001,2024-03-05_12h24.38.253,mfe_c_object,2022.2.4,59.9485880623067,
flanker_main_block_8.csv,img/rightArrow.png,img/rightArrow.png,img/rightArrow.png,5,1,right,"[0, 0]","[0.0385, 0]","[-0.0385, 0]",img/object_images/slinky_toy01.jpg,"[0.035, 0.035]",,,,,,,,,,,,,0,0,0,7,0,12,12,19,,,,,,,,,,,,,,,3.9238476953907817,,,,,,,,,,1,,,,,,,,,,,,,,,652.5111736999825,652.5111736999825,652.5111736999825,652.5111736999825,652.5111736999825,652.7257000999525,652.875407199841,656.5980682000518,656.5980682000518,656.5980682000518,['k'],[0.40777500020340085],,,,,,,,,,,,,,,,,,,,,,,,,,,,,,,,,,,,,,,,,,,,,,,,,,,,,,,,260001,2024-03-05_12h24.38.253,mfe_c_object,2022.2.4,59.9485880623067,
flanker_main_block_8.csv,img/rightArrow.png,img/rightArrow.png,img/rightArrow.png,5,1,right,"[0, 0]","[0.0385, 0]","[-0.0385, 0]",img/object_images/WitchHat02.jpg,"[0.035, 0.035]",,,,,,,,,,,,,0,0,0,7,0,13,13,4,,,,,,,,,,,,,,,3.7675350701402803,,,,,,,,,,1,,,,,,,,,,,,,,,656.5980682000518,656.5980682000518,656.5980682000518,656.5980682000518,656.5980682000518,656.8129020999186,656.9627916000318,660.4930656000506,660.4930656000506,660.4930656000506,['k'],[0.47377869999036193],,,,,,,,,,,,,,,,,,,,,,,,,,,,,,,,,,,,,,,,,,,,,,,,,,,,,,,,260001,2024-03-05_12h24.38.253,mfe_c_object,2022.2.4,59.9485880623067,
flanker_main_block_8.csv,img/leftArrow.png,img/rightArrow.png,img/rightArrow.png,8,0,left,"[0, 0]","[0.0385, 0]","[-0.0385, 0]",img/object_images/ladle02.jpg,"[0.035, 0.035]",,,,,,,,,,,,,0,0,0,7,0,14,14,21,,,,,,,,,,,,,,,3.6372745490981964,,,,,,,,,,1,,,,,,,,,,,,,,,660.4930656000506,660.4930656000506,660.4994820998982,660.4930656000506,660.4930656000506,660.6999886999838,660.8499008000363,664.2710953999776,664.2710953999776,664.2710953999776,['s'],[0.41799270012415946],,,,,,,,,,,,,,,,,,,,,,,,,,,,,,,,,,,,,,,,,,,,,,,,,,,,,,,,260001,2024-03-05_12h24.38.253,mfe_c_object,2022.2.4,59.9485880623067,
flanker_main_block_8.csv,img/rightArrow.png,img/rightArrow.png,img/rightArrow.png,5,1,right,"[0, 0]","[0.0385, 0]","[-0.0385, 0]",img/object_images/lemon_squeezer02.jpg,"[0.035, 0.035]",,,,,,,,,,,,,0,0,0,7,0,15,15,27,,,,,,,,,,,,,,,3.7635270541082164,,,,,,,,,,1,,,,,,,,,,,,,,,664.2710953999776,664.2710953999776,664.2710953999776,664.2710953999776,664.2710953999776,664.4704398999456,664.6204696998466,668.1658890000544,668.1658890000544,668.1658890000544,['k'],[0.4642370000947267],,,,,,,,,,,,,,,,,,,,,,,,,,,,,,,,,,,,,,,,,,,,,,,,,,,,,,,,260001,2024-03-05_12h24.38.253,mfe_c_object,2022.2.4,59.9485880623067,
flanker_main_block_8.csv,img/leftArrow.png,img/leftArrow.png,img/leftArrow.png,6,1,left,"[0, 0]","[0.0385, 0]","[-0.0385, 0]",img/object_images/ice_tray03.jpg,"[0.035, 0.035]",,,,,,,,,,,,,0,0,0,7,0,16,16,2,,,,,,,,,,,,,,,3.882765531062124,,,,,,,,,,1,,,,,,,,,,,,,,,668.1658890000544,668.1658890000544,668.1720817999449,668.1658890000544,668.1658890000544,668.3744715999346,668.5242667999119,672.1947882999666,672.1947882999666,672.1947882999666,['s'],[0.488875700160861],,,,,,,,,,,,,,,,,,,,,,,,,,,,,,,,,,,,,,,,,,,,,,,,,,,,,,,,260001,2024-03-05_12h24.38.253,mfe_c_object,2022.2.4,59.9485880623067,
flanker_main_block_8.csv,img/rightArrow.png,img/leftArrow.png,img/leftArrow.png,7,0,right,"[0, 0]","[0.0385, 0]","[-0.0385, 0]",img/object_images/belt01.jpg,"[0.035, 0.035]",,,,,,,,,,,,,0,0,0,7,0,17,17,7,,,,,,,,,,,,,,,3.934869739478958,,,,,,,,,,1,,,,,,,,,,,,,,,672.1947882999666,672.1947882999666,672.1947882999666,672.1947882999666,672.1947882999666,672.3951303998474,672.5450953000691,676.2670338000171,676.2670338000171,676.2670338000171,['k'],[0.40442689997144043],,,,,,,,,,,,,,,,,,,,,,,,,,,,,,,,,,,,,,,,,,,,,,,,,,,,,,,,260001,2024-03-05_12h24.38.253,mfe_c_object,2022.2.4,59.9485880623067,
flanker_main_block_8.csv,img/rightArrow.png,img/leftArrow.png,img/leftArrow.png,7,0,right,"[0, 0]","[0.0385, 0]","[-0.0385, 0]",img/object_images/ribbon01.jpg,"[0.035, 0.035]",,,,,,,,,,,,,0,0,0,7,0,18,18,13,,,,,,,,,,,,,,,3.8266533066132267,,,,,,,,,,1,,,,,,,,,,,,,,,676.2670338000171,676.2670338000171,676.2670338000171,676.2670338000171,676.2670338000171,676.4824339000043,676.6157386999112,680.2975779999979,680.2975779999979,680.2975779999979,['k'],[0.4190323001239449],,,,,,,,,,,,,,,,,,,,,,,,,,,,,,,,,,,,,,,,,,,,,,,,,,,,,,,,260001,2024-03-05_12h24.38.253,mfe_c_object,2022.2.4,59.9485880623067,
flanker_main_block_8.csv,img/leftArrow.png,img/leftArrow.png,img/leftArrow.png,6,1,left,"[0, 0]","[0.0385, 0]","[-0.0385, 0]",img/object_images/binoculars03.jpg,"[0.035, 0.035]",,,,,,,,,,,,,0,0,0,7,0,19,19,14,,,,,,,,,,,,,,,3.9539078156312626,,,,,,,,,,1,,,,,,,,,,,,,,,680.2975779999979,680.2975779999979,680.2975779999979,680.2975779999979,680.2975779999979,680.503259500023,680.6532062999904,684.3798221999314,684.3798221999314,684.3798221999314,['s'],[0.4850657000206411],,,,,,,,,,,,,,,,,,,,,,,,,,,,,,,,,,,,,,,,,,,,,,,,,,,,,,,,260001,2024-03-05_12h24.38.253,mfe_c_object,2022.2.4,59.9485880623067,
flanker_main_block_8.csv,img/leftArrow.png,img/rightArrow.png,img/rightArrow.png,8,0,left,"[0, 0]","[0.0385, 0]","[-0.0385, 0]",img/object_images/tv01.jpg,"[0.035, 0.035]",,,,,,,,,,,,,0,0,0,7,0,20,20,1,,,,,,,,,,,,,,,3.6362725450901805,,,,,,,,,,1,,,,,,,,,,,,,,,684.3798221999314,684.3798221999314,684.3857648998965,684.3798221999314,684.3798221999314,684.5911846999079,684.7407345999964,688.1607641999144,688.1607641999144,688.1607641999144,['s'],[0.46710350015200675],,,,,,,,,,,,,,,,,,,,,,,,,,,,,,,,,,,,,,,,,,,,,,,,,,,,,,,,260001,2024-03-05_12h24.38.253,mfe_c_object,2022.2.4,59.9485880623067,
flanker_main_block_8.csv,img/leftArrow.png,img/rightArrow.png,img/rightArrow.png,8,0,left,"[0, 0]","[0.0385, 0]","[-0.0385, 0]",img/object_images/razor01.jpg,"[0.035, 0.035]",,,,,,,,,,,,,0,0,0,7,0,21,21,26,,,,,,,,,,,,,,,3.905811623246493,,,,,,,,,,1,,,,,,,,,,,,,,,688.1607641999144,688.1607641999144,688.1607641999144,688.1607641999144,688.1607641999144,688.3609793998767,688.5109957000241,692.2166042998433,692.2166042998433,692.2166042998433,['s'],[0.4137602001428604],,,,,,,,,,,,,,,,,,,,,,,,,,,,,,,,,,,,,,,,,,,,,,,,,,,,,,,,260001,2024-03-05_12h24.38.253,mfe_c_object,2022.2.4,59.9485880623067,
flanker_main_block_8.csv,img/leftArrow.png,img/rightArrow.png,img/rightArrow.png,8,0,left,"[0, 0]","[0.0385, 0]","[-0.0385, 0]",img/object_images/shoes10.jpg,"[0.035, 0.035]",,,,,,,,,,,,,0,0,0,7,0,22,22,22,,,,,,,,,,,,,,,3.55310621242485,,,,,,,,,,1,,,,,,,,,,,,,,,692.2166042998433,692.2166042998433,692.2166042998433,692.2166042998433,692.2166042998433,692.4319120999426,692.5818318000529,696.0201798998751,696.0201798998751,696.0201798998751,['s'],[0.5506133001763374],,,,,,,,,,,,,,,,,,,,,,,,,,,,,,,,,,,,,,,,,,,,,,,,,,,,,,,,260001,2024-03-05_12h24.38.253,mfe_c_object,2022.2.4,59.9485880623067,
flanker_main_block_8.csv,img/leftArrow.png,img/leftArrow.png,img/leftArrow.png,6,1,left,"[0, 0]","[0.0385, 0]","[-0.0385, 0]",img/object_images/toaster02.jpg,"[0.035, 0.035]",,,,,,,,,,,,,0,0,0,7,0,23,23,20,,,,,,,,,,,,,,,3.6983967935871744,,,,,,,,,,1,,,,,,,,,,,,,,,696.0201798998751,696.0201798998751,696.0201798998751,696.0201798998751,696.0201798998751,696.2191103999503,696.3689043999184,699.8665747998748,699.8665747998748,699.8665747998748,['s'],[0.5626014000736177],,,,,,,,,,,,,,,,,,,,,,,,,,,,,,,,,,,,,,,,,,,,,,,,,,,,,,,,260001,2024-03-05_12h24.38.253,mfe_c_object,2022.2.4,59.9485880623067,
flanker_main_block_8.csv,img/rightArrow.png,img/leftArrow.png,img/leftArrow.png,7,0,right,"[0, 0]","[0.0385, 0]","[-0.0385, 0]",img/object_images/rock03.jpg,"[0.035, 0.035]",,,,,,,,,,,,,0,0,0,7,0,24,24,15,,,,,,,,,,,,,,,3.81062124248497,,,,,,,,,,1,,,,,,,,,,,,,,,699.8665747998748,699.8665747998748,699.8665747998748,699.8665747998748,699.8665747998748,700.0730802000035,700.2228727999609,703.8250106999185,703.8250106999185,703.8250106999185,['k'],[0.5254805001895875],,,,,,,,,,,,,,,,,,,,,,,,,,,,,,,,,,,,,,,,,,,,,,,,,,,,,,,,260001,2024-03-05_12h24.38.253,mfe_c_object,2022.2.4,59.9485880623067,
flanker_main_block_8.csv,img/rightArrow.png,img/rightArrow.png,img/rightArrow.png,5,1,right,"[0, 0]","[0.0385, 0]","[-0.0385, 0]",img/object_images/key02.jpg,"[0.035, 0.035]",,,,,,,,,,,,,0,0,0,7,0,25,25,18,,,,,,,,,,,,,,,3.879759519038076,,,,,,,,,,1,,,,,,,,,,,,,,,703.8250106999185,703.8250106999185,703.8250106999185,703.8250106999185,703.8250106999185,704.0268091000617,704.1768171999138,707.8421342000365,707.8421342000365,707.8421342000365,['k'],[0.4380597001872957],,,,,,,,,,,,,,,,,,,,,,,,,,,,,,,,,,,,,,,,,,,,,,,,,,,,,,,,260001,2024-03-05_12h24.38.253,mfe_c_object,2022.2.4,59.9485880623067,
flanker_main_block_8.csv,img/rightArrow.png,img/rightArrow.png,img/rightArrow.png,5,1,right,"[0, 0]","[0.0385, 0]","[-0.0385, 0]",img/object_images/MeasuringCup01.jpg,"[0.035, 0.035]",,,,,,,,,,,,,0,0,0,7,0,26,26,9,,,,,,,,,,,,,,,3.850701402805611,,,,,,,,,,1,,,,,,,,,,,,,,,707.8421342000365,707.8421342000365,707.8482631000225,707.8421342000365,707.8421342000365,708.0474859999958,708.1972207999788,711.8370751000475,711.8370751000475,711.8370751000475,['k'],[0.42088670027442276],,,,,,,,,,,,,,,,,,,,,,,,,,,,,,,,,,,,,,,,,,,,,,,,,,,,,,,,260001,2024-03-05_12h24.38.253,mfe_c_object,2022.2.4,59.9485880623067,
flanker_main_block_8.csv,img/leftArrow.png,img/rightArrow.png,img/rightArrow.png,8,0,left,"[0, 0]","[0.0385, 0]","[-0.0385, 0]",img/object_images/yarn02.jpg,"[0.035, 0.035]",,,,,,,,,,,,,0,0,0,7,0,27,27,25,,,,,,,,,,,,,,,3.853707414829659,,,,,,,,,,1,,,,,,,,,,,,,,,711.8370751000475,711.8370751000475,711.8370751000475,711.8370751000475,711.8370751000475,712.0515463000629,712.2014792999253,715.8445301000029,715.8445301000029,715.8445301000029,['s'],[0.48197340010665357],,,,,,,,,,,,,,,,,,,,,,,,,,,,,,,,,,,,,,,,,,,,,,,,,,,,,,,,260001,2024-03-05_12h24.38.253,mfe_c_object,2022.2.4,59.9485880623067,
flanker_main_block_8.csv,img/leftArrow.png,img/rightArrow.png,img/rightArrow.png,8,0,left,"[0, 0]","[0.0385, 0]","[-0.0385, 0]",img/object_images/fan05.jpg,"[0.035, 0.035]",,,,,,,,,,,,,0,0,0,7,0,28,28,3,,,,,,,,,,,,,,,3.920841683366733,,,,,,,,,,1,,,,,,,,,,,,,,,715.8445301000029,715.8445301000029,715.8445301000029,715.8445301000029,715.8445301000029,716.0556031998713,716.2053495999426,719.9100291999057,719.9100291999057,719.9100291999057,['s'],[0.498072300106287],,,,,,,,,,,,,,,,,,,,,,,,,,,,,,,,,,,,,,,,,,,,,,,,,,,,,,,,260001,2024-03-05_12h24.38.253,mfe_c_object,2022.2.4,59.9485880623067,
flanker_main_block_8.csv,img/rightArrow.png,img/rightArrow.png,img/rightArrow.png,5,1,right,"[0, 0]","[0.0385, 0]","[-0.0385, 0]",img/object_images/dress03.jpg,"[0.035, 0.035]",,,,,,,,,,,,,0,0,0,7,0,29,29,30,,,,,,,,,,,,,,,3.627254509018036,,,,,,,,,,1,,,,,,,,,,,,,,,719.9100291999057,719.9100291999057,719.9100291999057,719.9100291999057,719.9100291999057,720.1095280000009,720.2593334000558,723.6900450999383,723.6900450999383,723.6900450999383,['k'],[0.42415800015442073],,,,,,,,,,,,,,,,,,,,,,,,,,,,,,,,,,,,,,,,,,,,,,,,,,,,,,,,260001,2024-03-05_12h24.38.253,mfe_c_object,2022.2.4,59.9485880623067,
flanker_main_block_8.csv,img/leftArrow.png,img/rightArrow.png,img/rightArrow.png,8,0,left,"[0, 0]","[0.0385, 0]","[-0.0385, 0]",img/object_images/cards01.jpg,"[0.035, 0.035]",,,,,,,,,,,,,0,0,0,7,0,30,30,29,,,,,,,,,,,,,,,3.6112224448897794,,,,,,,,,,1,,,,,,,,,,,,,,,723.6900450999383,723.6900450999383,723.6900450999383,723.6900450999383,723.6900450999383,723.896597399842,724.0466117998585,727.4451359000523,727.4451359000523,727.4451359000523,['s'],[0.5642769001424313],,,,,,,,,,,,,,,,,,,,,,,,,,,,,,,,,,,,,,,,,,,,,,,,,,,,,,,,260001,2024-03-05_12h24.38.253,mfe_c_object,2022.2.4,59.9485880623067,
flanker_main_block_8.csv,img/leftArrow.png,img/leftArrow.png,img/leftArrow.png,6,1,left,"[0, 0]","[0.0385, 0]","[-0.0385, 0]",img/object_images/cutting_board01.jpg,"[0.035, 0.035]",,,,,,,,,,,,,0,0,0,7,0,31,31,6,,,,,,,,,,,,,,,3.753507014028056,,,,,,,,,,1,,,,,,,,,,,,,,,727.4451359000523,727.4451359000523,727.45146199991,727.4451359000523,727.4451359000523,727.6505632998887,727.8003296998795,731.2179817999713,731.2179817999713,731.2179817999713,['s'],[0.7940242001786828],,,,,,,,,,,,,,,,,,,,,,,,,,,,,,,,,,,,,,,,,,,,,,,,,,,,,,,,260001,2024-03-05_12h24.38.253,mfe_c_object,2022.2.4,59.9485880623067,
flanker_main_block_8.csv,,,,,,,,,,,,,,,,,,,,,,,,0,0,0,7,,,,,,,,,,,,,,,,,,,,,,,,,,,,,,,,,,,,,,,,,,,,,,,,,,,,,,,,2,731.2179817999713,741.1961232998874,k,0.8747523999772966,,,,,,,,,,,,,,,,,,,,,,,,,,,,,,,,,,,,,,,,,,,,,,,,,,,260001,2024-03-05_12h24.38.253,mfe_c_object,2022.2.4,59.9485880623067,
flanker_main_block_1.csv,img/leftArrow.png,img/rightArrow.png,img/rightArrow.png,8,0,left,"[0, 0]","[0.0385, 0]","[-0.0385, 0]",img/object_images/Stool01.jpg,"[0.035, 0.035]",,,,,,,,,,,,,0,1,1,0,0,0,0,5,,,,,,,,,,,,,,749.7421817998402,3.967935871743487,,,,,,,,,,1,,,,,,,,,,,742.0973060000688,742.0973060000688,k,7.62164910021238,751.9783687000163,751.9783687000163,751.9783687000163,751.9783687000163,751.9783687000163,752.1916811999399,752.3416249000002,756.0912603000179,756.0912603000179,756.0912603000179,['s'],[0.7243709000758827],,,,,,,,,,,,,,,,,,,,,,,,,,,,,,,,,,,,,,,,,,,,,,,,,,,,,,,,260001,2024-03-05_12h24.38.253,mfe_c_object,2022.2.4,59.9485880623067,
flanker_main_block_1.csv,img/rightArrow.png,img/leftArrow.png,img/leftArrow.png,7,0,right,"[0, 0]","[0.0385, 0]","[-0.0385, 0]",img/object_images/Vacuum01.jpg,"[0.035, 0.035]",,,,,,,,,,,,,0,1,1,0,0,1,1,3,,,,,,,,,,,,,,,3.853707414829659,,,,,,,,,,1,,,,,,,,,,,,,,,756.0912603000179,756.0912603000179,756.0912603000179,756.0912603000179,756.0912603000179,756.2957895,756.4455941000488,760.0825660999399,760.0825660999399,760.0825660999399,['k'],[0.3479029000736773],,,,,,,,,,,,,,,,,,,,,,,,,,,,,,,,,,,,,,,,,,,,,,,,,,,,,,,,260001,2024-03-05_12h24.38.253,mfe_c_object,2022.2.4,59.9485880623067,
flanker_main_block_1.csv,img/leftArrow.png,img/leftArrow.png,img/leftArrow.png,6,1,left,"[0, 0]","[0.0385, 0]","[-0.0385, 0]",img/object_images/frisbee01.jpg,"[0.035, 0.035]",,,,,,,,,,,,,0,1,1,0,0,2,2,6,,,,,,,,,,,,,,,3.594188376753507,,,,,,,,,,1,,,,,,,,,,,,,,,760.0825660999399,760.0825660999399,760.0825660999399,760.0825660999399,760.0825660999399,760.2829966000281,760.4329701999668,763.8150774000678,763.8150774000678,763.8150774000678,['s'],[0.5247971001081169],,,,,,,,,,,,,,,,,,,,,,,,,,,,,,,,,,,,,,,,,,,,,,,,,,,,,,,,260001,2024-03-05_12h24.38.253,mfe_c_object,2022.2.4,59.9485880623067,
flanker_main_block_1.csv,img/rightArrow.png,img/rightArrow.png,img/rightArrow.png,5,1,right,"[0, 0]","[0.0385, 0]","[-0.0385, 0]",img/object_images/tool02.jpg,"[0.035, 0.035]",,,,,,,,,,,,,0,1,1,0,0,3,3,12,,,,,,,,,,,,,,,3.8927855711422845,,,,,,,,,,1,,,,,,,,,,,,,,,763.8150774000678,763.8150774000678,763.821372400038,763.8150774000678,763.8150774000678,764.0367695000023,764.1700315000489,767.8781433000695,767.8781433000695,767.8781433000695,['k'],[0.32044550008140504],,,,,,,,,,,,,,,,,,,,,,,,,,,,,,,,,,,,,,,,,,,,,,,,,,,,,,,,260001,2024-03-05_12h24.38.253,mfe_c_object,2022.2.4,59.9485880623067,
flanker_main_block_1.csv,img/leftArrow.png,img/rightArrow.png,img/rightArrow.png,8,0,left,"[0, 0]","[0.0385, 0]","[-0.0385, 0]",img/object_images/pot01 (1).jpg,"[0.035, 0.035]",,,,,,,,,,,,,0,1,1,0,0,4,4,22,,,,,,,,,,,,,,,3.80561122244489,,,,,,,,,,0,,,,,,,,,,,,,,,767.8781433000695,767.8781433000695,767.8781433000695,767.8781433000695,767.8781433000695,768.09074159991,768.2404270998668,771.8226191999856,771.8226191999856,771.8226191999856,['k'],[0.3537957000080496],,,,,,,,,,,,,,,,,,,,,,,,,,,,,,,,,,,,,,,,,,,,,,,,,,,,,,,,260001,2024-03-05_12h24.38.253,mfe_c_object,2022.2.4,59.9485880623067,
flanker_main_block_1.csv,img/leftArrow.png,img/leftArrow.png,img/leftArrow.png,6,1,left,"[0, 0]","[0.0385, 0]","[-0.0385, 0]",img/object_images/mirror01.jpg,"[0.035, 0.035]",,,,,,,,,,,,,0,1,1,0,0,5,5,28,,,,,,,,,,,,,,,3.770541082164329,,,,,,,,,,1,,,,,,,,,,,,,,,771.8226191999856,771.8226191999856,771.8288775000256,771.8226191999856,771.8226191999856,772.0280315999407,772.1782627999783,775.730957099935,775.730957099935,775.730957099935,['s'],[0.4880604001227766],,,,,,,,,,,,,,,,,,,,,,,,,,,,,,,,,,,,,,,,,,,,,,,,,,,,,,,,260001,2024-03-05_12h24.38.253,mfe_c_object,2022.2.4,59.9485880623067,
flanker_main_block_1.csv,img/rightArrow.png,img/leftArrow.png,img/leftArrow.png,7,0,right,"[0, 0]","[0.0385, 0]","[-0.0385, 0]",img/object_images/jewel04.jpg,"[0.035, 0.035]",,,,,,,,,,,,,0,1,1,0,0,6,6,20,,,,,,,,,,,,,,,3.6703406813627253,,,,,,,,,,1,,,,,,,,,,,,,,,775.730957099935,775.730957099935,775.730957099935,775.730957099935,775.730957099935,775.9321283998434,776.0820136000402,779.53532549995,779.53532549995,779.53532549995,['k'],[0.379931400064379],,,,,,,,,,,,,,,,,,,,,,,,,,,,,,,,,,,,,,,,,,,,,,,,,,,,,,,,260001,2024-03-05_12h24.38.253,mfe_c_object,2022.2.4,59.9485880623067,
flanker_main_block_1.csv,img/rightArrow.png,img/leftArrow.png,img/leftArrow.png,7,0,right,"[0, 0]","[0.0385, 0]","[-0.0385, 0]",img/object_images/watch01.jpg,"[0.035, 0.035]",,,,,,,,,,,,,0,1,1,0,0,7,7,29,,,,,,,,,,,,,,,3.8326653306613223,,,,,,,,,,0,,,,,,,,,,,,,,,779.53532549995,779.53532549995,779.53532549995,779.53532549995,779.53532549995,779.7358108998742,779.8856674998533,783.5058641000651,783.5058641000651,783.5058641000651,['s'],[0.36809050012379885],,,,,,,,,,,,,,,,,,,,,,,,,,,,,,,,,,,,,,,,,,,,,,,,,,,,,,,,260001,2024-03-05_12h24.38.253,mfe_c_object,2022.2.4,59.9485880623067,
flanker_main_block_1.csv,img/leftArrow.png,img/rightArrow.png,img/rightArrow.png,8,0,left,"[0, 0]","[0.0385, 0]","[-0.0385, 0]",img/object_images/bottle05.jpg,"[0.035, 0.035]",,,,,,,,,,,,,0,1,1,0,0,8,8,26,,,,,,,,,,,,,,,3.775551102204409,,,,,,,,,,1,,,,,,,,,,,,,,,783.5058641000651,783.5058641000651,783.5058641000651,783.5058641000651,783.5058641000651,783.7064008000307,783.8563842999283,787.4244533998426,787.4244533998426,787.4244533998426,['s'],[0.5572268001269549],,,,,,,,,,,,,,,,,,,,,,,,,,,,,,,,,,,,,,,,,,,,,,,,,,,,,,,,260001,2024-03-05_12h24.38.253,mfe_c_object,2022.2.4,59.9485880623067,
flanker_main_block_1.csv,img/rightArrow.png,img/rightArrow.png,img/rightArrow.png,5,1,right,"[0, 0]","[0.0385, 0]","[-0.0385, 0]",img/object_images/crown02.jpg,"[0.035, 0.035]",,,,,,,,,,,,,0,1,1,0,0,9,9,21,,,,,,,,,,,,,,,4.0,,,,,,,,,,1,,,,,,,,,,,,,,,787.4244533998426,787.4244533998426,787.4244533998426,787.4244533998426,787.4244533998426,787.6271261000074,787.7771248999052,791.5820277000312,791.5820277000312,791.5820277000312,['k'],[0.28658650000579655],,,,,,,,,,,,,,,,,,,,,,,,,,,,,,,,,,,,,,,,,,,,,,,,,,,,,,,,260001,2024-03-05_12h24.38.253,mfe_c_object,2022.2.4,59.9485880623067,
flanker_main_block_1.csv,img/leftArrow.png,img/rightArrow.png,img/rightArrow.png,8,0,left,"[0, 0]","[0.0385, 0]","[-0.0385, 0]",img/object_images/Ring02.jpg,"[0.035, 0.035]",,,,,,,,,,,,,0,1,1,0,0,10,10,0,,,,,,,,,,,,,,,3.947895791583166,,,,,,,,,,1,,,,,,,,,,,,,,,791.5820277000312,791.5820277000312,791.5820277000312,791.5820277000312,791.5820277000312,791.7812331998721,791.9311762000434,795.668752099853,795.668752099853,795.668752099853,['s'],[0.44118790002539754],,,,,,,,,,,,,,,,,,,,,,,,,,,,,,,,,,,,,,,,,,,,,,,,,,,,,,,,260001,2024-03-05_12h24.38.253,mfe_c_object,2022.2.4,59.9485880623067,
flanker_main_block_1.csv,img/leftArrow.png,img/leftArrow.png,img/leftArrow.png,6,1,left,"[0, 0]","[0.0385, 0]","[-0.0385, 0]",img/object_images/video_game07.jpg,"[0.035, 0.035]",,,,,,,,,,,,,0,1,1,0,0,11,11,10,,,,,,,,,,,,,,,3.9519038076152304,,,,,,,,,,1,,,,,,,,,,,,,,,795.668752099853,795.668752099853,795.668752099853,795.668752099853,795.668752099853,795.8687493999023,796.0185380999465,799.753565599909,799.753565599909,799.753565599909,['s'],[0.43455970007926226],,,,,,,,,,,,,,,,,,,,,,,,,,,,,,,,,,,,,,,,,,,,,,,,,,,,,,,,260001,2024-03-05_12h24.38.253,mfe_c_object,2022.2.4,59.9485880623067,
flanker_main_block_1.csv,img/rightArrow.png,img/rightArrow.png,img/rightArrow.png,5,1,right,"[0, 0]","[0.0385, 0]","[-0.0385, 0]",img/object_images/tool09.jpg,"[0.035, 0.035]",,,,,,,,,,,,,0,1,1,0,0,12,12,18,,,,,,,,,,,,,,,3.620240480961924,,,,,,,,,,1,,,,,,,,,,,,,,,799.753565599909,799.753565599909,799.753565599909,799.753565599909,799.753565599909,799.9559583000373,800.1059459999669,803.509023200022,803.509023200022,803.509023200022,['k'],[0.40556770004332066],,,,,,,,,,,,,,,,,,,,,,,,,,,,,,,,,,,,,,,,,,,,,,,,,,,,,,,,260001,2024-03-05_12h24.38.253,mfe_c_object,2022.2.4,59.9485880623067,
flanker_main_block_1.csv,img/rightArrow.png,img/rightArrow.png,img/rightArrow.png,5,1,right,"[0, 0]","[0.0385, 0]","[-0.0385, 0]",img/object_images/ornament01.jpg,"[0.035, 0.035]",,,,,,,,,,,,,0,1,1,0,0,13,13,9,,,,,,,,,,,,,,,3.712424849699399,,,,,,,,,,1,,,,,,,,,,,,,,,803.509023200022,803.509023200022,803.509023200022,803.509023200022,803.509023200022,803.709798600059,803.8598614998627,807.3631948998664,807.3631948998664,807.3631948998664,['k'],[0.4099134001880884],,,,,,,,,,,,,,,,,,,,,,,,,,,,,,,,,,,,,,,,,,,,,,,,,,,,,,,,260001,2024-03-05_12h24.38.253,mfe_c_object,2022.2.4,59.9485880623067,
flanker_main_block_1.csv,img/leftArrow.png,img/leftArrow.png,img/leftArrow.png,6,1,left,"[0, 0]","[0.0385, 0]","[-0.0385, 0]",img/object_images/bow01.jpg,"[0.035, 0.035]",,,,,,,,,,,,,0,1,1,0,0,14,14,2,,,,,,,,,,,,,,,3.715430861723447,,,,,,,,,,1,,,,,,,,,,,,,,,807.3631948998664,807.3631948998664,807.3631948998664,807.3631948998664,807.3631948998664,807.5638677000534,807.7137004998513,811.221228200011,811.221228200011,811.221228200011,['s'],[0.34007090004161],,,,,,,,,,,,,,,,,,,,,,,,,,,,,,,,,,,,,,,,,,,,,,,,,,,,,,,,260001,2024-03-05_12h24.38.253,mfe_c_object,2022.2.4,59.9485880623067,
flanker_main_block_1.csv,img/rightArrow.png,img/leftArrow.png,img/leftArrow.png,7,0,right,"[0, 0]","[0.0385, 0]","[-0.0385, 0]",img/object_images/MetalWire01.jpg,"[0.035, 0.035]",,,,,,,,,,,,,0,1,1,0,0,15,15,13,,,,,,,,,,,,,,,3.5180360721442883,,,,,,,,,,1,,,,,,,,,,,,,,,811.221228200011,811.221228200011,811.221228200011,811.221228200011,811.221228200011,811.4342116999906,811.5842784000561,814.882033099886,814.882033099886,814.882033099886,"['k', 's']","[0.3937270001042634, 0.4018614001106471]",,,,,,,,,,,,,,,,,,,,,,,,,,,,,,,,,,,,,,,,,,,,,,,,,,,,,,,,260001,2024-03-05_12h24.38.253,mfe_c_object,2022.2.4,59.9485880623067,
flanker_main_block_1.csv,img/leftArrow.png,img/leftArrow.png,img/leftArrow.png,6,1,left,"[0, 0]","[0.0385, 0]","[-0.0385, 0]",img/object_images/bird_house02.jpg,"[0.035, 0.035]",,,,,,,,,,,,,0,1,1,0,0,16,16,16,,,,,,,,,,,,,,,3.760521042084168,,,,,,,,,,1,,,,,,,,,,,,,,,814.882033099886,814.882033099886,814.8880710999947,814.882033099886,814.882033099886,815.0880048999097,815.2378099998459,818.7863137999084,818.7863137999084,818.7863137999084,['s'],[0.4373078001663089],,,,,,,,,,,,,,,,,,,,,,,,,,,,,,,,,,,,,,,,,,,,,,,,,,,,,,,,260001,2024-03-05_12h24.38.253,mfe_c_object,2022.2.4,59.9485880623067,
flanker_main_block_1.csv,img/rightArrow.png,img/leftArrow.png,img/leftArrow.png,7,0,right,"[0, 0]","[0.0385, 0]","[-0.0385, 0]",img/object_images/outlet01.jpg,"[0.035, 0.035]",,,,,,,,,,,,,0,1,1,0,0,17,17,25,,,,,,,,,,,,,,,3.5871743486973946,,,,,,,,,,1,,,,,,,,,,,,,,,818.7863137999084,818.7863137999084,818.7926036999561,818.7863137999084,818.7863137999084,818.9917140998878,819.1420622000005,822.506364800036,822.506364800036,822.506364800036,['k'],[0.38037230004556477],,,,,,,,,,,,,,,,,,,,,,,,,,,,,,,,,,,,,,,,,,,,,,,,,,,,,,,,260001,2024-03-05_12h24.38.253,mfe_c_object,2022.2.4,59.9485880623067,
flanker_main_block_1.csv,img/leftArrow.png,img/rightArrow.png,img/rightArrow.png,8,0,left,"[0, 0]","[0.0385, 0]","[-0.0385, 0]",img/object_images/fridge03.jpg,"[0.035, 0.035]",,,,,,,,,,,,,0,1,1,0,0,18,18,8,,,,,,,,,,,,,,,3.5861723446893787,,,,,,,,,,1,,,,,,,,,,,,,,,822.506364800036,822.506364800036,822.5126358999405,822.506364800036,822.506364800036,822.7120475000702,822.8620404000394,826.2288412000053,826.2288412000053,826.2288412000053,['s'],[0.4201926002278924],,,,,,,,,,,,,,,,,,,,,,,,,,,,,,,,,,,,,,,,,,,,,,,,,,,,,,,,260001,2024-03-05_12h24.38.253,mfe_c_object,2022.2.4,59.9485880623067,
flanker_main_block_1.csv,img/leftArrow.png,img/rightArrow.png,img/rightArrow.png,8,0,left,"[0, 0]","[0.0385, 0]","[-0.0385, 0]",img/object_images/dart01.jpg,"[0.035, 0.035]",,,,,,,,,,,,,0,1,1,0,0,19,19,4,,,,,,,,,,,,,,,3.748496993987976,,,,,,,,,,1,,,,,,,,,,,,,,,826.2288412000053,826.2288412000053,826.2288412000053,826.2288412000053,826.2288412000053,826.432478700066,826.5824366000015,830.1183939999901,830.1183939999901,830.1183939999901,['s'],[0.4271950002294034],,,,,,,,,,,,,,,,,,,,,,,,,,,,,,,,,,,,,,,,,,,,,,,,,,,,,,,,260001,2024-03-05_12h24.38.253,mfe_c_object,2022.2.4,59.9485880623067,
flanker_main_block_1.csv,img/leftArrow.png,img/leftArrow.png,img/leftArrow.png,6,1,left,"[0, 0]","[0.0385, 0]","[-0.0385, 0]",img/object_images/shovel03.jpg,"[0.035, 0.035]",,,,,,,,,,,,,0,1,1,0,0,20,20,19,,,,,,,,,,,,,,,3.9368737474949898,,,,,,,,,,1,,,,,,,,,,,,,,,830.1183939999901,830.1183939999901,830.1183939999901,830.1183939999901,830.1183939999901,830.3197792000137,830.4697265999857,834.2117947000079,834.2117947000079,834.2117947000079,['s'],[0.46427800017409027],,,,,,,,,,,,,,,,,,,,,,,,,,,,,,,,,,,,,,,,,,,,,,,,,,,,,,,,260001,2024-03-05_12h24.38.253,mfe_c_object,2022.2.4,59.9485880623067,
flanker_main_block_1.csv,img/leftArrow.png,img/rightArrow.png,img/rightArrow.png,8,0,left,"[0, 0]","[0.0385, 0]","[-0.0385, 0]",img/object_images/helmet01.jpg,"[0.035, 0.035]",,,,,,,,,,,,,0,1,1,0,0,21,21,15,,,,,,,,,,,,,,,3.937875751503006,,,,,,,,,,1,,,,,,,,,,,,,,,834.2117947000079,834.2117947000079,834.2117947000079,834.2117947000079,834.2117947000079,834.4238175000064,834.5739306998439,838.2856868000235,838.2856868000235,838.2856868000235,['s'],[0.39555490016937256],,,,,,,,,,,,,,,,,,,,,,,,,,,,,,,,,,,,,,,,,,,,,,,,,,,,,,,,260001,2024-03-05_12h24.38.253,mfe_c_object,2022.2.4,59.9485880623067,
flanker_main_block_1.csv,img/rightArrow.png,img/leftArrow.png,img/leftArrow.png,7,0,right,"[0, 0]","[0.0385, 0]","[-0.0385, 0]",img/object_images/guitar02.jpg,"[0.035, 0.035]",,,,,,,,,,,,,0,1,1,0,0,22,22,1,,,,,,,,,,,,,,,3.758517034068136,,,,,,,,,,0,,,,,,,,,,,,,,,838.2856868000235,838.2856868000235,838.2915900999215,838.2856868000235,838.2856868000235,838.4945920000318,838.6446662999224,842.1778533998877,842.1778533998877,842.1778533998877,"['s', 'k']","[0.3775159001816064, 0.5536969001404941]",,,,,,,,,,,,,,,,,,,,,,,,,,,,,,,,,,,,,,,,,,,,,,,,,,,,,,,,260001,2024-03-05_12h24.38.253,mfe_c_object,2022.2.4,59.9485880623067,
flanker_main_block_1.csv,img/rightArrow.png,img/rightArrow.png,img/rightArrow.png,5,1,right,"[0, 0]","[0.0385, 0]","[-0.0385, 0]",img/object_images/towel02.jpg,"[0.035, 0.035]",,,,,,,,,,,,,0,1,1,0,0,23,23,31,,,,,,,,,,,,,,,3.8547094188376754,,,,,,,,,,1,,,,,,,,,,,,,,,842.1778533998877,842.1778533998877,842.1778533998877,842.1778533998877,842.1778533998877,842.3819748000242,842.5320158998948,846.1707865998615,846.1707865998615,846.1707865998615,['k'],[0.3974877002183348],,,,,,,,,,,,,,,,,,,,,,,,,,,,,,,,,,,,,,,,,,,,,,,,,,,,,,,,260001,2024-03-05_12h24.38.253,mfe_c_object,2022.2.4,59.9485880623067,
flanker_main_block_1.csv,img/leftArrow.png,img/leftArrow.png,img/leftArrow.png,6,1,left,"[0, 0]","[0.0385, 0]","[-0.0385, 0]",img/object_images/toy03.jpg,"[0.035, 0.035]",,,,,,,,,,,,,0,1,1,0,0,24,24,24,,,,,,,,,,,,,,,3.6783567134268536,,,,,,,,,,1,,,,,,,,,,,,,,,846.1707865998615,846.1707865998615,846.1707865998615,846.1707865998615,846.1707865998615,846.385856699897,846.5357498000376,849.9790427999105,849.9790427999105,849.9790427999105,['s'],[0.5332826999947429],,,,,,,,,,,,,,,,,,,,,,,,,,,,,,,,,,,,,,,,,,,,,,,,,,,,,,,,260001,2024-03-05_12h24.38.253,mfe_c_object,2022.2.4,59.9485880623067,
flanker_main_block_1.csv,img/rightArrow.png,img/rightArrow.png,img/rightArrow.png,5,1,right,"[0, 0]","[0.0385, 0]","[-0.0385, 0]",img/object_images/judge_gavel01.jpg,"[0.035, 0.035]",,,,,,,,,,,,,0,1,1,0,0,25,25,23,,,,,,,,,,,,,,,3.9509018036072145,,,,,,,,,,1,,,,,,,,,,,,,,,849.9790427999105,849.9790427999105,849.9851629000623,849.9790427999105,849.9790427999105,850.1896329000592,850.339571399847,854.0782349999063,854.0782349999063,854.0782349999063,['k'],[0.403540100203827],,,,,,,,,,,,,,,,,,,,,,,,,,,,,,,,,,,,,,,,,,,,,,,,,,,,,,,,260001,2024-03-05_12h24.38.253,mfe_c_object,2022.2.4,59.9485880623067,
flanker_main_block_1.csv,img/rightArrow.png,img/leftArrow.png,img/leftArrow.png,7,0,right,"[0, 0]","[0.0385, 0]","[-0.0385, 0]",img/object_images/toy04.jpg,"[0.035, 0.035]",,,,,,,,,,,,,0,1,1,0,0,26,26,11,,,,,,,,,,,,,,,3.907815631262525,,,,,,,,,,1,,,,,,,,,,,,,,,854.0782349999063,854.0782349999063,854.0782349999063,854.0782349999063,854.0782349999063,854.2938250000589,854.426998199895,858.1475432999432,858.1475432999432,858.1475432999432,['k'],[0.5371624000836164],,,,,,,,,,,,,,,,,,,,,,,,,,,,,,,,,,,,,,,,,,,,,,,,,,,,,,,,260001,2024-03-05_12h24.38.253,mfe_c_object,2022.2.4,59.9485880623067,
flanker_main_block_1.csv,img/rightArrow.png,img/rightArrow.png,img/rightArrow.png,5,1,right,"[0, 0]","[0.0385, 0]","[-0.0385, 0]",img/object_images/Tin01.jpg,"[0.035, 0.035]",,,,,,,,,,,,,0,1,1,0,0,27,27,30,,,,,,,,,,,,,,,3.882765531062124,,,,,,,,,,1,,,,,,,,,,,,,,,858.1475432999432,858.1475432999432,858.1475432999432,858.1475432999432,858.1475432999432,858.3479985999875,858.4978695998434,862.1621009998489,862.1621009998489,862.1621009998489,['k'],[0.38810080010443926],,,,,,,,,,,,,,,,,,,,,,,,,,,,,,,,,,,,,,,,,,,,,,,,,,,,,,,,260001,2024-03-05_12h24.38.253,mfe_c_object,2022.2.4,59.9485880623067,
flanker_main_block_1.csv,img/leftArrow.png,img/rightArrow.png,img/rightArrow.png,8,0,left,"[0, 0]","[0.0385, 0]","[-0.0385, 0]",img/object_images/sink01.jpg,"[0.035, 0.035]",,,,,,,,,,,,,0,1,1,0,0,28,28,17,,,,,,,,,,,,,,,3.524048096192385,,,,,,,,,,1,,,,,,,,,,,,,,,862.1621009998489,862.1621009998489,862.1682158999611,862.1621009998489,862.1621009998489,862.3685516999103,862.5184849998914,865.820621999912,865.820621999912,865.820621999912,['s'],[0.46929560019634664],,,,,,,,,,,,,,,,,,,,,,,,,,,,,,,,,,,,,,,,,,,,,,,,,,,,,,,,260001,2024-03-05_12h24.38.253,mfe_c_object,2022.2.4,59.9485880623067,
flanker_main_block_1.csv,img/rightArrow.png,img/leftArrow.png,img/leftArrow.png,7,0,right,"[0, 0]","[0.0385, 0]","[-0.0385, 0]",img/object_images/gauze01.jpg,"[0.035, 0.035]",,,,,,,,,,,,,0,1,1,0,0,29,29,14,,,,,,,,,,,,,,,3.835671342685371,,,,,,,,,,1,,,,,,,,,,,,,,,865.820621999912,865.820621999912,865.820621999912,865.820621999912,865.820621999912,866.0224721999839,866.1720734999981,869.7894502000418,869.7894502000418,869.7894502000418,['k'],[0.4023275002837181],,,,,,,,,,,,,,,,,,,,,,,,,,,,,,,,,,,,,,,,,,,,,,,,,,,,,,,,260001,2024-03-05_12h24.38.253,mfe_c_object,2022.2.4,59.9485880623067,
flanker_main_block_1.csv,img/leftArrow.png,img/leftArrow.png,img/leftArrow.png,6,1,left,"[0, 0]","[0.0385, 0]","[-0.0385, 0]",img/object_images/acoustic_capo01.jpg,"[0.035, 0.035]",,,,,,,,,,,,,0,1,1,0,0,30,30,27,,,,,,,,,,,,,,,3.6132264529058116,,,,,,,,,,1,,,,,,,,,,,,,,,869.7894502000418,869.7894502000418,869.7894502000418,869.7894502000418,869.7894502000418,869.9926719998475,870.1427267999388,873.5449890999589,873.5449890999589,873.5449890999589,['s'],[0.3856865002308041],,,,,,,,,,,,,,,,,,,,,,,,,,,,,,,,,,,,,,,,,,,,,,,,,,,,,,,,260001,2024-03-05_12h24.38.253,mfe_c_object,2022.2.4,59.9485880623067,
flanker_main_block_1.csv,img/rightArrow.png,img/rightArrow.png,img/rightArrow.png,5,1,right,"[0, 0]","[0.0385, 0]","[-0.0385, 0]",img/object_images/stapler.jpg,"[0.035, 0.035]",,,,,,,,,,,,,0,1,1,0,0,31,31,7,,,,,,,,,,,,,,,3.9559118236472948,,,,,,,,,,1,,,,,,,,,,,,,,,873.5449890999589,873.5449890999589,873.5449890999589,873.5449890999589,873.5449890999589,873.7465464000124,873.8965399998706,877.4991842999589,877.4991842999589,877.4991842999589,['k'],[0.3895976999774575],,,,,,,,,,,,,,,,,,,,,,,,,,,,,,,,,,,,,,,,,,,,,,,,,,,,,,,,260001,2024-03-05_12h24.38.253,mfe_c_object,2022.2.4,59.9485880623067,
flanker_main_block_1.csv,,,,,,,,,,,,,,,,,,,,,,,,0,1,1,0,,,,,,,,,,,,,,,,,,,,,,,,,,,,,,,,,,,,,,,,,,,,,,,,,,,,,,,,2,877.4991842999589,887.4924415999558,k,0.8670686001423746,,,,,,,,,,,,,,,,,,,,,,,,,,,,,,,,,,,,,,,,,,,,,,,,,,,260001,2024-03-05_12h24.38.253,mfe_c_object,2022.2.4,59.9485880623067,
flanker_main_block_12.csv,img/leftArrow.png,img/rightArrow.png,img/rightArrow.png,8,0,left,"[0, 0]","[0.0385, 0]","[-0.0385, 0]",img/object_images/couch01.jpg,"[0.035, 0.035]",,,,,,,,,,,,,0,2,2,11,0,0,0,4,,,,,,,,,,,,,,893.9411829998717,3.5961923847695387,,,,,,,,,,0,,,,,,,,,,,888.3814787999727,888.3814787999727,k,5.521939300000668,896.1050489998888,896.1050489998888,896.1050489998888,896.1050489998888,896.1050489998888,896.3191800999921,896.4690598000307,899.8351642000489,899.8351642000489,899.8351642000489,['k'],[0.8778717003297061],,,,,,,,,,,,,,,,,,,,,,,,,,,,,,,,,,,,,,,,,,,,,,,,,,,,,,,,260001,2024-03-05_12h24.38.253,mfe_c_object,2022.2.4,59.9485880623067,
flanker_main_block_12.csv,img/rightArrow.png,img/leftArrow.png,img/leftArrow.png,7,0,right,"[0, 0]","[0.0385, 0]","[-0.0385, 0]",img/object_images/skate_board01.jpg,"[0.035, 0.035]",,,,,,,,,,,,,0,2,2,11,0,1,1,9,,,,,,,,,,,,,,,3.6773547094188377,,,,,,,,,,1,,,,,,,,,,,,,,,899.8351642000489,899.8351642000489,899.8351642000489,899.8351642000489,899.8351642000489,900.0395281000528,900.1894710999914,903.6696088998578,903.6696088998578,903.6696088998578,['k'],[0.40404920023866],,,,,,,,,,,,,,,,,,,,,,,,,,,,,,,,,,,,,,,,,,,,,,,,,,,,,,,,260001,2024-03-05_12h24.38.253,mfe_c_object,2022.2.4,59.9485880623067,
flanker_main_block_12.csv,img/leftArrow.png,img/rightArrow.png,img/rightArrow.png,8,0,left,"[0, 0]","[0.0385, 0]","[-0.0385, 0]",img/object_images/Trowel01.jpg,"[0.035, 0.035]",,,,,,,,,,,,,0,2,2,11,0,2,2,27,,,,,,,,,,,,,,,3.8687374749498997,,,,,,,,,,0,,,,,,,,,,,,,,,903.6696088998578,903.6696088998578,903.6696088998578,903.6696088998578,903.6696088998578,903.8764833998866,904.0266678000335,907.6766896999907,907.6766896999907,907.6766896999907,['k'],[0.5298310001380742],,,,,,,,,,,,,,,,,,,,,,,,,,,,,,,,,,,,,,,,,,,,,,,,,,,,,,,,260001,2024-03-05_12h24.38.253,mfe_c_object,2022.2.4,59.9485880623067,
flanker_main_block_12.csv,img/leftArrow.png,img/rightArrow.png,img/rightArrow.png,8,0,left,"[0, 0]","[0.0385, 0]","[-0.0385, 0]",img/object_images/pen01.jpg,"[0.035, 0.035]",,,,,,,,,,,,,0,2,2,11,0,3,3,5,,,,,,,,,,,,,,,3.668336673346693,,,,,,,,,,1,,,,,,,,,,,,,,,907.6766896999907,907.6766896999907,907.6766896999907,907.6766896999907,907.6766896999907,907.8806658000685,908.0308620999567,911.5112596999388,911.5112596999388,911.5112596999388,['s'],[0.4265709000173956],,,,,,,,,,,,,,,,,,,,,,,,,,,,,,,,,,,,,,,,,,,,,,,,,,,,,,,,260001,2024-03-05_12h24.38.253,mfe_c_object,2022.2.4,59.9485880623067,
flanker_main_block_12.csv,img/rightArrow.png,img/rightArrow.png,img/rightArrow.png,5,1,right,"[0, 0]","[0.0385, 0]","[-0.0385, 0]",img/object_images/drone01.jpg,"[0.035, 0.035]",,,,,,,,,,,,,0,2,2,11,0,4,4,6,,,,,,,,,,,,,,,3.9198396793587174,,,,,,,,,,1,,,,,,,,,,,,,,,911.5112596999388,911.5112596999388,911.5112596999388,911.5112596999388,911.5112596999388,911.7178992999252,911.8677550000139,915.5699712999631,915.5699712999631,915.5699712999631,['k'],[0.37611670000478625],,,,,,,,,,,,,,,,,,,,,,,,,,,,,,,,,,,,,,,,,,,,,,,,,,,,,,,,260001,2024-03-05_12h24.38.253,mfe_c_object,2022.2.4,59.9485880623067,
flanker_main_block_12.csv,img/rightArrow.png,img/rightArrow.png,img/rightArrow.png,5,1,right,"[0, 0]","[0.0385, 0]","[-0.0385, 0]",img/object_images/mail_box02.jpg,"[0.035, 0.035]",,,,,,,,,,,,,0,2,2,11,0,5,5,31,,,,,,,,,,,,,,,3.787575150300601,,,,,,,,,,1,,,,,,,,,,,,,,,915.5699712999631,915.5699712999631,915.5699712999631,915.5699712999631,915.5699712999631,915.7720214999281,915.9219470999669,919.4957479999866,919.4957479999866,919.4957479999866,['k'],[0.3734865002334118],,,,,,,,,,,,,,,,,,,,,,,,,,,,,,,,,,,,,,,,,,,,,,,,,,,,,,,,260001,2024-03-05_12h24.38.253,mfe_c_object,2022.2.4,59.9485880623067,
flanker_main_block_12.csv,img/rightArrow.png,img/rightArrow.png,img/rightArrow.png,5,1,right,"[0, 0]","[0.0385, 0]","[-0.0385, 0]",img/object_images/scarf01.jpg,"[0.035, 0.035]",,,,,,,,,,,,,0,2,2,11,0,6,6,2,,,,,,,,,,,,,,,3.7314629258517034,,,,,,,,,,1,,,,,,,,,,,,,,,919.4957479999866,919.4957479999866,919.4957479999866,919.4957479999866,919.4957479999866,919.7093746999744,919.8593218000606,923.3624704999384,923.3624704999384,923.3624704999384,['k'],[0.3516826000995934],,,,,,,,,,,,,,,,,,,,,,,,,,,,,,,,,,,,,,,,,,,,,,,,,,,,,,,,260001,2024-03-05_12h24.38.253,mfe_c_object,2022.2.4,59.9485880623067,
flanker_main_block_12.csv,img/leftArrow.png,img/leftArrow.png,img/leftArrow.png,6,1,left,"[0, 0]","[0.0385, 0]","[-0.0385, 0]",img/object_images/clip04.jpg,"[0.035, 0.035]",,,,,,,,,,,,,0,2,2,11,0,7,7,7,,,,,,,,,,,,,,,3.627254509018036,,,,,,,,,,1,,,,,,,,,,,,,,,923.3624704999384,923.3624704999384,923.3624704999384,923.3624704999384,923.3624704999384,923.5632005999796,923.7130942000076,927.1380254998803,927.1380254998803,927.1380254998803,['s'],[0.29282910004258156],,,,,,,,,,,,,,,,,,,,,,,,,,,,,,,,,,,,,,,,,,,,,,,,,,,,,,,,260001,2024-03-05_12h24.38.253,mfe_c_object,2022.2.4,59.9485880623067,
flanker_main_block_12.csv,img/rightArrow.png,img/rightArrow.png,img/rightArrow.png,5,1,right,"[0, 0]","[0.0385, 0]","[-0.0385, 0]",img/object_images/shoes12.jpg,"[0.035, 0.035]",,,,,,,,,,,,,0,2,2,11,0,8,8,24,,,,,,,,,,,,,,,3.8296593186372747,,,,,,,,,,1,,,,,,,,,,,,,,,927.1380254998803,927.1380254998803,927.1380254998803,927.1380254998803,927.1380254998803,927.3502607999835,927.4999871000182,931.1217612000182,931.1217612000182,931.1217612000182,['k'],[0.3173456001095474],,,,,,,,,,,,,,,,,,,,,,,,,,,,,,,,,,,,,,,,,,,,,,,,,,,,,,,,260001,2024-03-05_12h24.38.253,mfe_c_object,2022.2.4,59.9485880623067,
flanker_main_block_12.csv,img/leftArrow.png,img/rightArrow.png,img/rightArrow.png,8,0,left,"[0, 0]","[0.0385, 0]","[-0.0385, 0]",img/object_images/tool06.jpg,"[0.035, 0.035]",,,,,,,,,,,,,0,2,2,11,0,9,9,22,,,,,,,,,,,,,,,3.8046092184368736,,,,,,,,,,1,,,,,,,,,,,,,,,931.1217612000182,931.1217612000182,931.1217612000182,931.1217612000182,931.1217612000182,931.3208735999651,931.4706804000307,935.0758690000512,935.0758690000512,935.0758690000512,['s'],[0.36524190031923354],,,,,,,,,,,,,,,,,,,,,,,,,,,,,,,,,,,,,,,,,,,,,,,,,,,,,,,,260001,2024-03-05_12h24.38.253,mfe_c_object,2022.2.4,59.9485880623067,
flanker_main_block_12.csv,img/rightArrow.png,img/rightArrow.png,img/rightArrow.png,5,1,right,"[0, 0]","[0.0385, 0]","[-0.0385, 0]",img/object_images/pitcher09.jpg,"[0.035, 0.035]",,,,,,,,,,,,,0,2,2,11,0,10,10,3,,,,,,,,,,,,,,,3.6843687374749496,,,,,,,,,,1,,,,,,,,,,,,,,,935.0758690000512,935.0758690000512,935.0758690000512,935.0758690000512,935.0758690000512,935.2749870000407,935.4248216999695,938.8943874000106,938.8943874000106,938.8943874000106,['k'],[0.33088900009170175],,,,,,,,,,,,,,,,,,,,,,,,,,,,,,,,,,,,,,,,,,,,,,,,,,,,,,,,260001,2024-03-05_12h24.38.253,mfe_c_object,2022.2.4,59.9485880623067,
flanker_main_block_12.csv,img/leftArrow.png,img/leftArrow.png,img/leftArrow.png,6,1,left,"[0, 0]","[0.0385, 0]","[-0.0385, 0]",img/object_images/book02.jpg,"[0.035, 0.035]",,,,,,,,,,,,,0,2,2,11,0,11,11,16,,,,,,,,,,,,,,,3.5080160320641283,,,,,,,,,,1,,,,,,,,,,,,,,,938.8943874000106,938.8943874000106,938.8943874000106,938.8943874000106,938.8943874000106,939.095390399918,939.2453391000163,942.5439653999638,942.5439653999638,942.5439653999638,['s'],[0.33624950028024614],,,,,,,,,,,,,,,,,,,,,,,,,,,,,,,,,,,,,,,,,,,,,,,,,,,,,,,,260001,2024-03-05_12h24.38.253,mfe_c_object,2022.2.4,59.9485880623067,
flanker_main_block_12.csv,img/leftArrow.png,img/rightArrow.png,img/rightArrow.png,8,0,left,"[0, 0]","[0.0385, 0]","[-0.0385, 0]",img/object_images/blender01.jpg,"[0.035, 0.035]",,,,,,,,,,,,,0,2,2,11,0,12,12,18,,,,,,,,,,,,,,,3.8997995991983965,,,,,,,,,,0,,,,,,,,,,,,,,,942.5439653999638,942.5439653999638,942.5502712999005,942.5439653999638,942.5439653999638,942.7656435000245,942.8991777000483,946.5856544999406,946.5856544999406,946.5856544999406,['k'],[0.2559228001628071],,,,,,,,,,,,,,,,,,,,,,,,,,,,,,,,,,,,,,,,,,,,,,,,,,,,,,,,260001,2024-03-05_12h24.38.253,mfe_c_object,2022.2.4,59.9485880623067,
flanker_main_block_12.csv,img/rightArrow.png,img/leftArrow.png,img/leftArrow.png,7,0,right,"[0, 0]","[0.0385, 0]","[-0.0385, 0]",img/object_images/chair06.jpg,"[0.035, 0.035]",,,,,,,,,,,,,0,2,2,11,0,13,13,1,,,,,,,,,,,,,,,3.8396793587174347,,,,,,,,,,0,,,,,,,,,,,,,,,946.5856544999406,946.5856544999406,946.5856544999406,946.5856544999406,946.5856544999406,946.7863258998841,946.9362826999277,950.5708037998993,950.5708037998993,950.5708037998993,['s'],[0.45374790020287037],,,,,,,,,,,,,,,,,,,,,,,,,,,,,,,,,,,,,,,,,,,,,,,,,,,,,,,,260001,2024-03-05_12h24.38.253,mfe_c_object,2022.2.4,59.9485880623067,
flanker_main_block_12.csv,img/rightArrow.png,img/leftArrow.png,img/leftArrow.png,7,0,right,"[0, 0]","[0.0385, 0]","[-0.0385, 0]",img/object_images/Violin01.jpg,"[0.035, 0.035]",,,,,,,,,,,,,0,2,2,11,0,14,14,15,,,,,,,,,,,,,,,3.8036072144288577,,,,,,,,,,1,,,,,,,,,,,,,,,950.5708037998993,950.5708037998993,950.5708037998993,950.5708037998993,950.5708037998993,950.7736773998477,950.9236065999139,954.52678129985,954.52678129985,954.52678129985,['k'],[0.41222660010680556],,,,,,,,,,,,,,,,,,,,,,,,,,,,,,,,,,,,,,,,,,,,,,,,,,,,,,,,260001,2024-03-05_12h24.38.253,mfe_c_object,2022.2.4,59.9485880623067,
flanker_main_block_12.csv,img/rightArrow.png,img/rightArrow.png,img/rightArrow.png,5,1,right,"[0, 0]","[0.0385, 0]","[-0.0385, 0]",img/object_images/egg_slicer01.jpg,"[0.035, 0.035]",,,,,,,,,,,,,0,2,2,11,0,15,15,25,,,,,,,,,,,,,,,3.7715430861723447,,,,,,,,,,1,,,,,,,,,,,,,,,954.52678129985,954.52678129985,954.52678129985,954.52678129985,954.52678129985,954.7278912998736,954.8775966998655,958.423647099873,958.423647099873,958.423647099873,['k'],[0.40863300021737814],,,,,,,,,,,,,,,,,,,,,,,,,,,,,,,,,,,,,,,,,,,,,,,,,,,,,,,,260001,2024-03-05_12h24.38.253,mfe_c_object,2022.2.4,59.9485880623067,
flanker_main_block_12.csv,img/rightArrow.png,img/leftArrow.png,img/leftArrow.png,7,0,right,"[0, 0]","[0.0385, 0]","[-0.0385, 0]",img/object_images/chain01.jpg,"[0.035, 0.035]",,,,,,,,,,,,,0,2,2,11,0,16,16,8,,,,,,,,,,,,,,,3.580160320641282,,,,,,,,,,1,,,,,,,,,,,,,,,958.423647099873,958.423647099873,958.429703499889,958.423647099873,958.423647099873,958.631617099978,958.7815276000183,962.2071873999666,962.2071873999666,962.2071873999666,['k'],[0.3368560001254082],,,,,,,,,,,,,,,,,,,,,,,,,,,,,,,,,,,,,,,,,,,,,,,,,,,,,,,,260001,2024-03-05_12h24.38.253,mfe_c_object,2022.2.4,59.9485880623067,
flanker_main_block_12.csv,img/leftArrow.png,img/leftArrow.png,img/leftArrow.png,6,1,left,"[0, 0]","[0.0385, 0]","[-0.0385, 0]",img/object_images/airfryer02.jpg,"[0.035, 0.035]",,,,,,,,,,,,,0,2,2,11,0,17,17,11,,,,,,,,,,,,,,,3.8567134268537075,,,,,,,,,,1,,,,,,,,,,,,,,,962.2071873999666,962.2071873999666,962.2071873999666,962.2071873999666,962.2071873999666,962.4187507999595,962.568572399905,966.2034966000356,966.2034966000356,966.2034966000356,['s'],[0.3198417001403868],,,,,,,,,,,,,,,,,,,,,,,,,,,,,,,,,,,,,,,,,,,,,,,,,,,,,,,,260001,2024-03-05_12h24.38.253,mfe_c_object,2022.2.4,59.9485880623067,
flanker_main_block_12.csv,img/rightArrow.png,img/rightArrow.png,img/rightArrow.png,5,1,right,"[0, 0]","[0.0385, 0]","[-0.0385, 0]",img/object_images/computer_mouse01.jpg,"[0.035, 0.035]",,,,,,,,,,,,,0,2,2,11,0,18,18,21,,,,,,,,,,,,,,,3.691382765531062,,,,,,,,,,1,,,,,,,,,,,,,,,966.2034966000356,966.2034966000356,966.2034966000356,966.2034966000356,966.2034966000356,966.4059468999039,966.5559737000149,970.0432495998684,970.0432495998684,970.0432495998684,['k'],[0.37149390019476414],,,,,,,,,,,,,,,,,,,,,,,,,,,,,,,,,,,,,,,,,,,,,,,,,,,,,,,,260001,2024-03-05_12h24.38.253,mfe_c_object,2022.2.4,59.9485880623067,
flanker_main_block_12.csv,img/leftArrow.png,img/leftArrow.png,img/leftArrow.png,6,1,left,"[0, 0]","[0.0385, 0]","[-0.0385, 0]",img/object_images/bag_pipes01.jpg,"[0.035, 0.035]",,,,,,,,,,,,,0,2,2,11,0,19,19,30,,,,,,,,,,,,,,,3.7464929859719436,,,,,,,,,,1,,,,,,,,,,,,,,,970.0432495998684,970.0432495998684,970.0432495998684,970.0432495998684,970.0432495998684,970.2434171000496,970.3931419998407,973.9323670000304,973.9323670000304,973.9323670000304,['s'],[0.33211950003169477],,,,,,,,,,,,,,,,,,,,,,,,,,,,,,,,,,,,,,,,,,,,,,,,,,,,,,,,260001,2024-03-05_12h24.38.253,mfe_c_object,2022.2.4,59.9485880623067,
flanker_main_block_12.csv,img/rightArrow.png,img/leftArrow.png,img/leftArrow.png,7,0,right,"[0, 0]","[0.0385, 0]","[-0.0385, 0]",img/object_images/fork02.jpg,"[0.035, 0.035]",,,,,,,,,,,,,0,2,2,11,0,20,20,19,,,,,,,,,,,,,,,3.866733466933868,,,,,,,,,,1,,,,,,,,,,,,,,,973.9323670000304,973.9323670000304,973.9323670000304,973.9323670000304,973.9323670000304,974.1468716999516,974.2969553999137,977.941256799968,977.941256799968,977.941256799968,['k'],[0.39438750012777746],,,,,,,,,,,,,,,,,,,,,,,,,,,,,,,,,,,,,,,,,,,,,,,,,,,,,,,,260001,2024-03-05_12h24.38.253,mfe_c_object,2022.2.4,59.9485880623067,
flanker_main_block_12.csv,img/rightArrow.png,img/rightArrow.png,img/rightArrow.png,5,1,right,"[0, 0]","[0.0385, 0]","[-0.0385, 0]",img/object_images/toy01.jpg,"[0.035, 0.035]",,,,,,,,,,,,,0,2,2,11,0,21,21,13,,,,,,,,,,,,,,,3.657314629258517,,,,,,,,,,1,,,,,,,,,,,,,,,977.941256799968,977.941256799968,977.941256799968,977.941256799968,977.941256799968,978.1509881999809,978.3010239000432,981.7373460000381,981.7373460000381,981.7373460000381,['k'],[0.34628130006603897],,,,,,,,,,,,,,,,,,,,,,,,,,,,,,,,,,,,,,,,,,,,,,,,,,,,,,,,260001,2024-03-05_12h24.38.253,mfe_c_object,2022.2.4,59.9485880623067,
flanker_main_block_12.csv,img/leftArrow.png,img/rightArrow.png,img/rightArrow.png,8,0,left,"[0, 0]","[0.0385, 0]","[-0.0385, 0]",img/object_images/box03.jpg,"[0.035, 0.035]",,,,,,,,,,,,,0,2,2,11,0,22,22,10,,,,,,,,,,,,,,,3.642284569138276,,,,,,,,,,1,,,,,,,,,,,,,,,981.7373460000381,981.7373460000381,981.7373460000381,981.7373460000381,981.7373460000381,981.9381057999562,982.0881900000386,985.5193795000669,985.5193795000669,985.5193795000669,['s'],[0.4853437002748251],,,,,,,,,,,,,,,,,,,,,,,,,,,,,,,,,,,,,,,,,,,,,,,,,,,,,,,,260001,2024-03-05_12h24.38.253,mfe_c_object,2022.2.4,59.9485880623067,
flanker_main_block_12.csv,img/rightArrow.png,img/leftArrow.png,img/leftArrow.png,7,0,right,"[0, 0]","[0.0385, 0]","[-0.0385, 0]",img/object_images/bell03.jpg,"[0.035, 0.035]",,,,,,,,,,,,,0,2,2,11,0,23,23,28,,,,,,,,,,,,,,,3.823647294589178,,,,,,,,,,1,,,,,,,,,,,,,,,985.5193795000669,985.5193795000669,985.525450799847,985.5193795000669,985.5193795000669,985.7253520998638,985.8752933999058,989.4776798998937,989.4776798998937,989.4776798998937,['k'],[0.3923776000738144],,,,,,,,,,,,,,,,,,,,,,,,,,,,,,,,,,,,,,,,,,,,,,,,,,,,,,,,260001,2024-03-05_12h24.38.253,mfe_c_object,2022.2.4,59.9485880623067,
flanker_main_block_12.csv,img/rightArrow.png,img/leftArrow.png,img/leftArrow.png,7,0,right,"[0, 0]","[0.0385, 0]","[-0.0385, 0]",img/object_images/toothbrush01.jpg,"[0.035, 0.035]",,,,,,,,,,,,,0,2,2,11,0,24,24,29,,,,,,,,,,,,,,,3.5190380761523046,,,,,,,,,,0,,,,,,,,,,,,,,,989.4776798998937,989.4776798998937,989.4776798998937,989.4776798998937,989.4776798998937,989.6793410999235,989.8291889000684,993.1319949999452,993.1319949999452,993.1319949999452,['s'],[0.3458520001731813],,,,,,,,,,,,,,,,,,,,,,,,,,,,,,,,,,,,,,,,,,,,,,,,,,,,,,,,260001,2024-03-05_12h24.38.253,mfe_c_object,2022.2.4,59.9485880623067,
flanker_main_block_12.csv,img/leftArrow.png,img/leftArrow.png,img/leftArrow.png,6,1,left,"[0, 0]","[0.0385, 0]","[-0.0385, 0]",img/object_images/hair_brush01.jpg,"[0.035, 0.035]",,,,,,,,,,,,,0,2,2,11,0,25,25,17,,,,,,,,,,,,,,,3.5430861723446894,,,,,,,,,,1,,,,,,,,,,,,,,,993.1319949999452,993.1319949999452,993.1319949999452,993.1319949999452,993.1319949999452,993.3329841999803,993.482827699976,996.8225763000082,996.8225763000082,996.8225763000082,['s'],[0.8266289001330733],,,,,,,,,,,,,,,,,,,,,,,,,,,,,,,,,,,,,,,,,,,,,,,,,,,,,,,,260001,2024-03-05_12h24.38.253,mfe_c_object,2022.2.4,59.9485880623067,
flanker_main_block_12.csv,img/leftArrow.png,img/leftArrow.png,img/leftArrow.png,6,1,left,"[0, 0]","[0.0385, 0]","[-0.0385, 0]",img/object_images/floss02.jpg,"[0.035, 0.035]",,,,,,,,,,,,,0,2,2,11,0,26,26,20,,,,,,,,,,,,,,,3.8006012024048097,,,,,,,,,,0,,,,,,,,,,,,,,,996.8225763000082,996.8225763000082,996.8225763000082,996.8225763000082,996.8225763000082,997.0366684000473,997.1867022998631,1000.755834300071,1000.755834300071,1000.755834300071,['k'],[0.4162896000780165],,,,,,,,,,,,,,,,,,,,,,,,,,,,,,,,,,,,,,,,,,,,,,,,,,,,,,,,260001,2024-03-05_12h24.38.253,mfe_c_object,2022.2.4,59.9485880623067,
flanker_main_block_12.csv,img/leftArrow.png,img/leftArrow.png,img/leftArrow.png,6,1,left,"[0, 0]","[0.0385, 0]","[-0.0385, 0]",img/object_images/video_game03.jpg,"[0.035, 0.035]",,,,,,,,,,,,,0,2,2,11,0,27,27,0,,,,,,,,,,,,,,,3.6472945891783564,,,,,,,,,,1,,,,,,,,,,,,,,,1000.755834300071,1000.755834300071,1000.755834300071,1000.755834300071,1000.755834300071,1000.9572876999155,1001.107151000062,1004.5378620000556,1004.5378620000556,1004.5378620000556,['s'],[0.49897810025140643],,,,,,,,,,,,,,,,,,,,,,,,,,,,,,,,,,,,,,,,,,,,,,,,,,,,,,,,260001,2024-03-05_12h24.38.253,mfe_c_object,2022.2.4,59.9485880623067,
flanker_main_block_12.csv,img/leftArrow.png,img/leftArrow.png,img/leftArrow.png,6,1,left,"[0, 0]","[0.0385, 0]","[-0.0385, 0]",img/object_images/tripod01.jpg,"[0.035, 0.035]",,,,,,,,,,,,,0,2,2,11,0,28,28,23,,,,,,,,,,,,,,,3.5250501002004007,,,,,,,,,,1,,,,,,,,,,,,,,,1004.5378620000556,1004.5378620000556,1004.544151699869,1004.5378620000556,1004.5378620000556,1004.7444195998833,1004.8942636998836,1008.199914699886,1008.199914699886,1008.199914699886,['s'],[0.42114610015414655],,,,,,,,,,,,,,,,,,,,,,,,,,,,,,,,,,,,,,,,,,,,,,,,,,,,,,,,260001,2024-03-05_12h24.38.253,mfe_c_object,2022.2.4,59.9485880623067,
flanker_main_block_12.csv,img/rightArrow.png,img/leftArrow.png,img/leftArrow.png,7,0,right,"[0, 0]","[0.0385, 0]","[-0.0385, 0]",img/object_images/computer_mouse02.jpg,"[0.035, 0.035]",,,,,,,,,,,,,0,2,2,11,0,29,29,26,,,,,,,,,,,,,,,3.8997995991983965,,,,,,,,,,1,,,,,,,,,,,,,,,1008.199914699886,1008.199914699886,1008.199914699886,1008.199914699886,1008.199914699886,1008.4147151999641,1008.5646571000107,1012.2346784998663,1012.2346784998663,1012.2346784998663,['k'],[0.4325602001044899],,,,,,,,,,,,,,,,,,,,,,,,,,,,,,,,,,,,,,,,,,,,,,,,,,,,,,,,260001,2024-03-05_12h24.38.253,mfe_c_object,2022.2.4,59.9485880623067,
flanker_main_block_12.csv,img/leftArrow.png,img/rightArrow.png,img/rightArrow.png,8,0,left,"[0, 0]","[0.0385, 0]","[-0.0385, 0]",img/object_images/soap03.jpg,"[0.035, 0.035]",,,,,,,,,,,,,0,2,2,11,0,30,30,12,,,,,,,,,,,,,,,3.559118236472946,,,,,,,,,,0,,,,,,,,,,,,,,,1012.2346784998663,1012.2346784998663,1012.2346784998663,1012.2346784998663,1012.2346784998663,1012.4352557000238,1012.5851427000016,1015.9476200998761,1015.9476200998761,1015.9476200998761,['k'],[0.4289579999167472],,,,,,,,,,,,,,,,,,,,,,,,,,,,,,,,,,,,,,,,,,,,,,,,,,,,,,,,260001,2024-03-05_12h24.38.253,mfe_c_object,2022.2.4,59.9485880623067,
flanker_main_block_12.csv,img/leftArrow.png,img/rightArrow.png,img/rightArrow.png,8,0,left,"[0, 0]","[0.0385, 0]","[-0.0385, 0]",img/object_images/rock02.jpg,"[0.035, 0.035]",,,,,,,,,,,,,0,2,2,11,0,31,31,14,,,,,,,,,,,,,,,3.9839679358717435,,,,,,,,,,1,,,,,,,,,,,,,,,1015.9476200998761,1015.9476200998761,1015.9476200998761,1015.9476200998761,1015.9476200998761,1016.1559758998919,1016.3058424999472,1019.9489124999382,1019.9489124999382,1019.9489124999382,['s'],[0.3714815001003444],,,,,,,,,,,,,,,,,,,,,,,,,,,,,,,,,,,,,,,,,,,,,,,,,,,,,,,,260001,2024-03-05_12h24.38.253,mfe_c_object,2022.2.4,59.9485880623067,
flanker_main_block_12.csv,,,,,,,,,,,,,,,,,,,,,,,,0,2,2,11,,,,,,,,,,,,,,,,,,,,,,,,,,,,,,,,,,,,,,,,,,,,,,,,,,,,,,,,1,1019.9489124999382,1029.9349185999017,k,0.4650235001463443,,,,,,,,,,,,,,,,,,,,,,,,,,,,,,,,,,,,,,,,,,,,,,,,,,,260001,2024-03-05_12h24.38.253,mfe_c_object,2022.2.4,59.9485880623067,
flanker_main_block_5.csv,img/leftArrow.png,img/rightArrow.png,img/rightArrow.png,8,0,left,"[0, 0]","[0.0385, 0]","[-0.0385, 0]",img/object_images/jewel02.jpg,"[0.035, 0.035]",,,,,,,,,,,,,0,3,3,4,0,0,0,16,,,,,,,,,,,,,,1034.6470538000576,3.9529058116232463,,,,,,,,,,0,,,,,,,,,,,1030.4191457999405,1030.4191457999405,k,4.204330200096592,1036.8304091000464,1036.8304091000464,1036.8304091000464,1036.8304091000464,1036.8304091000464,1037.0433503000531,1037.1932856000494,1040.9339379000012,1040.9339379000012,1040.9339379000012,['k'],[0.6966262001078576],,,,,,,,,,,,,,,,,,,,,,,,,,,,,,,,,,,,,,,,,,,,,,,,,,,,,,,,260001,2024-03-05_12h24.38.253,mfe_c_object,2022.2.4,59.9485880623067,
flanker_main_block_5.csv,img/leftArrow.png,img/rightArrow.png,img/rightArrow.png,8,0,left,"[0, 0]","[0.0385, 0]","[-0.0385, 0]",img/object_images/belt03.jpg,"[0.035, 0.035]",,,,,,,,,,,,,0,3,3,4,0,1,1,24,,,,,,,,,,,,,,,3.8977955911823647,,,,,,,,,,1,,,,,,,,,,,,,,,1040.9339379000012,1040.9339379000012,1040.9339379000012,1040.9339379000012,1040.9339379000012,1041.1474390998483,1041.2974209999666,1044.9686129000038,1044.9686129000038,1044.9686129000038,['s'],[0.47378860018216074],,,,,,,,,,,,,,,,,,,,,,,,,,,,,,,,,,,,,,,,,,,,,,,,,,,,,,,,260001,2024-03-05_12h24.38.253,mfe_c_object,2022.2.4,59.9485880623067,
flanker_main_block_5.csv,img/leftArrow.png,img/leftArrow.png,img/leftArrow.png,6,1,left,"[0, 0]","[0.0385, 0]","[-0.0385, 0]",img/object_images/helmet03.jpg,"[0.035, 0.035]",,,,,,,,,,,,,0,3,3,4,0,2,2,15,,,,,,,,,,,,,,,3.723446893787575,,,,,,,,,,1,,,,,,,,,,,,,,,1044.9686129000038,1044.9686129000038,1044.9686129000038,1044.9686129000038,1044.9686129000038,1045.1682581000496,1045.3181012000423,1048.844951499952,1048.844951499952,1048.844951499952,['s'],[0.46244080015458167],,,,,,,,,,,,,,,,,,,,,,,,,,,,,,,,,,,,,,,,,,,,,,,,,,,,,,,,260001,2024-03-05_12h24.38.253,mfe_c_object,2022.2.4,59.9485880623067,
flanker_main_block_5.csv,img/rightArrow.png,img/leftArrow.png,img/leftArrow.png,7,0,right,"[0, 0]","[0.0385, 0]","[-0.0385, 0]",img/object_images/bookmark01.jpg,"[0.035, 0.035]",,,,,,,,,,,,,0,3,3,4,0,3,3,1,,,,,,,,,,,,,,,3.844689378757515,,,,,,,,,,1,,,,,,,,,,,,,,,1048.844951499952,1048.844951499952,1048.844951499952,1048.844951499952,1048.844951499952,1049.0552628999576,1049.2052380999085,1052.825104800053,1052.825104800053,1052.825104800053,['k'],[0.41852249996736646],,,,,,,,,,,,,,,,,,,,,,,,,,,,,,,,,,,,,,,,,,,,,,,,,,,,,,,,260001,2024-03-05_12h24.38.253,mfe_c_object,2022.2.4,59.9485880623067,
flanker_main_block_5.csv,img/leftArrow.png,img/leftArrow.png,img/leftArrow.png,6,1,left,"[0, 0]","[0.0385, 0]","[-0.0385, 0]",img/object_images/water_gun01.jpg,"[0.035, 0.035]",,,,,,,,,,,,,0,3,3,4,0,4,4,2,,,,,,,,,,,,,,,3.842685370741483,,,,,,,,,,1,,,,,,,,,,,,,,,1052.825104800053,1052.825104800053,1052.825104800053,1052.825104800053,1052.825104800053,1053.0259276998695,1053.1759941999335,1056.8294271000195,1056.8294271000195,1056.8294271000195,['s'],[0.43016730016097426],,,,,,,,,,,,,,,,,,,,,,,,,,,,,,,,,,,,,,,,,,,,,,,,,,,,,,,,260001,2024-03-05_12h24.38.253,mfe_c_object,2022.2.4,59.9485880623067,
flanker_main_block_5.csv,img/rightArrow.png,img/rightArrow.png,img/rightArrow.png,5,1,right,"[0, 0]","[0.0385, 0]","[-0.0385, 0]",img/object_images/lock03.jpg,"[0.035, 0.035]",,,,,,,,,,,,,0,3,3,4,0,5,5,31,,,,,,,,,,,,,,,3.712424849699399,,,,,,,,,,1,,,,,,,,,,,,,,,1056.8294271000195,1056.8294271000195,1056.8294271000195,1056.8294271000195,1056.8294271000195,1057.029814899899,1057.179803200066,1060.6847605998628,1060.6847605998628,1060.6847605998628,['k'],[0.32267790008336306],,,,,,,,,,,,,,,,,,,,,,,,,,,,,,,,,,,,,,,,,,,,,,,,,,,,,,,,260001,2024-03-05_12h24.38.253,mfe_c_object,2022.2.4,59.9485880623067,
flanker_main_block_5.csv,img/rightArrow.png,img/leftArrow.png,img/leftArrow.png,7,0,right,"[0, 0]","[0.0385, 0]","[-0.0385, 0]",img/object_images/dice01.jpg,"[0.035, 0.035]",,,,,,,,,,,,,0,3,3,4,0,6,6,30,,,,,,,,,,,,,,,3.6382765531062122,,,,,,,,,,1,,,,,,,,,,,,,,,1060.6847605998628,1060.6847605998628,1060.6847605998628,1060.6847605998628,1060.6847605998628,1060.8837951999158,1061.0337612000294,1064.4718537998851,1064.4718537998851,1064.4718537998851,['k'],[0.4424841001164168],,,,,,,,,,,,,,,,,,,,,,,,,,,,,,,,,,,,,,,,,,,,,,,,,,,,,,,,260001,2024-03-05_12h24.38.253,mfe_c_object,2022.2.4,59.9485880623067,
flanker_main_block_5.csv,img/rightArrow.png,img/rightArrow.png,img/rightArrow.png,5,1,right,"[0, 0]","[0.0385, 0]","[-0.0385, 0]",img/object_images/Eyeliner01.jpg,"[0.035, 0.035]",,,,,,,,,,,,,0,3,3,4,0,7,7,10,,,,,,,,,,,,,,,3.6603206412825653,,,,,,,,,,1,,,,,,,,,,,,,,,1064.4718537998851,1064.4718537998851,1064.4718537998851,1064.4718537998851,1064.4718537998851,1064.6709954000544,1064.820887999842,1068.2956648999825,1068.2956648999825,1068.2956648999825,['k'],[0.3909307001158595],,,,,,,,,,,,,,,,,,,,,,,,,,,,,,,,,,,,,,,,,,,,,,,,,,,,,,,,260001,2024-03-05_12h24.38.253,mfe_c_object,2022.2.4,59.9485880623067,
flanker_main_block_5.csv,img/rightArrow.png,img/leftArrow.png,img/leftArrow.png,7,0,right,"[0, 0]","[0.0385, 0]","[-0.0385, 0]",img/object_images/bottle06.jpg,"[0.035, 0.035]",,,,,,,,,,,,,0,3,3,4,0,8,8,27,,,,,,,,,,,,,,,4.0,,,,,,,,,,1,,,,,,,,,,,,,,,1068.2956648999825,1068.2956648999825,1068.2956648999825,1068.2956648999825,1068.2956648999825,1068.508029700024,1068.6582418000326,1072.4264918998815,1072.4264918998815,1072.4264918998815,['k'],[0.3994778001215309],,,,,,,,,,,,,,,,,,,,,,,,,,,,,,,,,,,,,,,,,,,,,,,,,,,,,,,,260001,2024-03-05_12h24.38.253,mfe_c_object,2022.2.4,59.9485880623067,
flanker_main_block_5.csv,img/rightArrow.png,img/rightArrow.png,img/rightArrow.png,5,1,right,"[0, 0]","[0.0385, 0]","[-0.0385, 0]",img/object_images/bucket01.jpg,"[0.035, 0.035]",,,,,,,,,,,,,0,3,3,4,0,9,9,5,,,,,,,,,,,,,,,3.867735470941884,,,,,,,,,,1,,,,,,,,,,,,,,,1072.4264918998815,1072.4264918998815,1072.4264918998815,1072.4264918998815,1072.4264918998815,1072.6289977999404,1072.778822900029,1076.429445100017,1076.429445100017,1076.429445100017,['k'],[0.2853616001084447],,,,,,,,,,,,,,,,,,,,,,,,,,,,,,,,,,,,,,,,,,,,,,,,,,,,,,,,260001,2024-03-05_12h24.38.253,mfe_c_object,2022.2.4,59.9485880623067,
flanker_main_block_5.csv,img/rightArrow.png,img/rightArrow.png,img/rightArrow.png,5,1,right,"[0, 0]","[0.0385, 0]","[-0.0385, 0]",img/object_images/frame01.jpg,"[0.035, 0.035]",,,,,,,,,,,,,0,3,3,4,0,10,10,14,,,,,,,,,,,,,,,3.554108216432866,,,,,,,,,,1,,,,,,,,,,,,,,,1076.429445100017,1076.429445100017,1076.429445100017,1076.429445100017,1076.429445100017,1076.6329286999535,1076.7829211000353,1080.1168195998762,1080.1168195998762,1080.1168195998762,['k'],[0.3460059000644833],,,,,,,,,,,,,,,,,,,,,,,,,,,,,,,,,,,,,,,,,,,,,,,,,,,,,,,,260001,2024-03-05_12h24.38.253,mfe_c_object,2022.2.4,59.9485880623067,
flanker_main_block_5.csv,img/rightArrow.png,img/leftArrow.png,img/leftArrow.png,7,0,right,"[0, 0]","[0.0385, 0]","[-0.0385, 0]",img/object_images/piano03.jpg,"[0.035, 0.035]",,,,,,,,,,,,,0,3,3,4,0,11,11,18,,,,,,,,,,,,,,,3.6523046092184366,,,,,,,,,,1,,,,,,,,,,,,,,,1080.1168195998762,1080.1168195998762,1080.1168195998762,1080.1168195998762,1080.1168195998762,1080.3201025000308,1080.4699368998408,1083.9135531999636,1083.9135531999636,1083.9135531999636,['k'],[0.3381527999881655],,,,,,,,,,,,,,,,,,,,,,,,,,,,,,,,,,,,,,,,,,,,,,,,,,,,,,,,260001,2024-03-05_12h24.38.253,mfe_c_object,2022.2.4,59.9485880623067,
flanker_main_block_5.csv,img/rightArrow.png,img/leftArrow.png,img/leftArrow.png,7,0,right,"[0, 0]","[0.0385, 0]","[-0.0385, 0]",img/object_images/ToolBag01.jpg,"[0.035, 0.035]",,,,,,,,,,,,,0,3,3,4,0,12,12,6,,,,,,,,,,,,,,,3.7164328657314627,,,,,,,,,,0,,,,,,,,,,,,,,,1083.9135531999636,1083.9135531999636,1083.9135531999636,1083.9135531999636,1083.9135531999636,1084.123885100009,1084.2737747998908,1087.7759424999822,1087.7759424999822,1087.7759424999822,['s'],[0.24532610015012324],,,,,,,,,,,,,,,,,,,,,,,,,,,,,,,,,,,,,,,,,,,,,,,,,,,,,,,,260001,2024-03-05_12h24.38.253,mfe_c_object,2022.2.4,59.9485880623067,
flanker_main_block_5.csv,img/rightArrow.png,img/leftArrow.png,img/leftArrow.png,7,0,right,"[0, 0]","[0.0385, 0]","[-0.0385, 0]",img/object_images/note_book02.jpg,"[0.035, 0.035]",,,,,,,,,,,,,0,3,3,4,0,13,13,23,,,,,,,,,,,,,,,3.6122244488977957,,,,,,,,,,1,,,,,,,,,,,,,,,1087.7759424999822,1087.7759424999822,1087.7759424999822,1087.7759424999822,1087.7759424999822,1087.9776290999725,1088.1276227999479,1091.544830699917,1091.544830699917,1091.544830699917,['k'],[0.31089800014160573],,,,,,,,,,,,,,,,,,,,,,,,,,,,,,,,,,,,,,,,,,,,,,,,,,,,,,,,260001,2024-03-05_12h24.38.253,mfe_c_object,2022.2.4,59.9485880623067,
flanker_main_block_5.csv,img/leftArrow.png,img/leftArrow.png,img/leftArrow.png,6,1,left,"[0, 0]","[0.0385, 0]","[-0.0385, 0]",img/object_images/joystick03.jpg,"[0.035, 0.035]",,,,,,,,,,,,,0,3,3,4,0,14,14,11,,,,,,,,,,,,,,,3.7314629258517034,,,,,,,,,,0,,,,,,,,,,,,,,,1091.544830699917,1091.544830699917,1091.544830699917,1091.544830699917,1091.544830699917,1091.7480452000163,1091.8980592999142,1095.416580799967,1095.416580799967,1095.416580799967,['k'],[0.24663950013928115],,,,,,,,,,,,,,,,,,,,,,,,,,,,,,,,,,,,,,,,,,,,,,,,,,,,,,,,260001,2024-03-05_12h24.38.253,mfe_c_object,2022.2.4,59.9485880623067,
flanker_main_block_5.csv,img/leftArrow.png,img/leftArrow.png,img/leftArrow.png,6,1,left,"[0, 0]","[0.0385, 0]","[-0.0385, 0]",img/object_images/TreeSlice01.jpg,"[0.035, 0.035]",,,,,,,,,,,,,0,3,3,4,0,15,15,4,,,,,,,,,,,,,,,3.9819639278557117,,,,,,,,,,1,,,,,,,,,,,,,,,1095.416580799967,1095.416580799967,1095.416580799967,1095.416580799967,1095.416580799967,1095.6185936999973,1095.7685409998521,1099.5353872000705,1099.5353872000705,1099.5353872000705,['s'],[0.3422951002139598],,,,,,,,,,,,,,,,,,,,,,,,,,,,,,,,,,,,,,,,,,,,,,,,,,,,,,,,260001,2024-03-05_12h24.38.253,mfe_c_object,2022.2.4,59.9485880623067,
flanker_main_block_5.csv,img/leftArrow.png,img/leftArrow.png,img/leftArrow.png,6,1,left,"[0, 0]","[0.0385, 0]","[-0.0385, 0]",img/object_images/origami01.jpg,"[0.035, 0.035]",,,,,,,,,,,,,0,3,3,4,0,16,16,0,,,,,,,,,,,,,,,3.7284569138276553,,,,,,,,,,0,,,,,,,,,,,,,,,1099.5353872000705,1099.5353872000705,1099.5353872000705,1099.5353872000705,1099.5353872000705,1099.7394226999022,1099.8895638000686,1103.4050073998515,1103.4050073998515,1103.4050073998515,['k'],[0.34392679994925857],,,,,,,,,,,,,,,,,,,,,,,,,,,,,,,,,,,,,,,,,,,,,,,,,,,,,,,,260001,2024-03-05_12h24.38.253,mfe_c_object,2022.2.4,59.9485880623067,
flanker_main_block_5.csv,img/rightArrow.png,img/leftArrow.png,img/leftArrow.png,7,0,right,"[0, 0]","[0.0385, 0]","[-0.0385, 0]",img/object_images/scale02.jpg,"[0.035, 0.035]",,,,,,,,,,,,,0,3,3,4,0,17,17,25,,,,,,,,,,,,,,,3.6753507014028055,,,,,,,,,,1,,,,,,,,,,,,,,,1103.4050073998515,1103.4050073998515,1103.4114389999304,1103.4050073998515,1103.4050073998515,1103.6265942000318,1103.7599328998476,1107.2130837999284,1107.2130837999284,1107.2130837999284,['k'],[0.3699738001450896],,,,,,,,,,,,,,,,,,,,,,,,,,,,,,,,,,,,,,,,,,,,,,,,,,,,,,,,260001,2024-03-05_12h24.38.253,mfe_c_object,2022.2.4,59.9485880623067,
flanker_main_block_5.csv,img/leftArrow.png,img/leftArrow.png,img/leftArrow.png,6,1,left,"[0, 0]","[0.0385, 0]","[-0.0385, 0]",img/object_images/nut_cracker01.jpg,"[0.035, 0.035]",,,,,,,,,,,,,0,3,3,4,0,18,18,20,,,,,,,,,,,,,,,3.7995991983967934,,,,,,,,,,1,,,,,,,,,,,,,,,1107.2130837999284,1107.2130837999284,1107.2130837999284,1107.2130837999284,1107.2130837999284,1107.4138476999942,1107.5637145999353,1111.1494566998444,1111.1494566998444,1111.1494566998444,['s'],[0.48253480019047856],,,,,,,,,,,,,,,,,,,,,,,,,,,,,,,,,,,,,,,,,,,,,,,,,,,,,,,,260001,2024-03-05_12h24.38.253,mfe_c_object,2022.2.4,59.9485880623067,
flanker_main_block_5.csv,img/leftArrow.png,img/rightArrow.png,img/rightArrow.png,8,0,left,"[0, 0]","[0.0385, 0]","[-0.0385, 0]",img/object_images/trumpet01.jpg,"[0.035, 0.035]",,,,,,,,,,,,,0,3,3,4,0,19,19,8,,,,,,,,,,,,,,,3.8887775551102206,,,,,,,,,,1,,,,,,,,,,,,,,,1111.1494566998444,1111.1494566998444,1111.1494566998444,1111.1494566998444,1111.1494566998444,1111.351060200017,1111.5008878998924,1115.1901823000517,1115.1901823000517,1115.1901823000517,['s'],[0.48989810002967715],,,,,,,,,,,,,,,,,,,,,,,,,,,,,,,,,,,,,,,,,,,,,,,,,,,,,,,,260001,2024-03-05_12h24.38.253,mfe_c_object,2022.2.4,59.9485880623067,
flanker_main_block_5.csv,img/leftArrow.png,img/rightArrow.png,img/rightArrow.png,8,0,left,"[0, 0]","[0.0385, 0]","[-0.0385, 0]",img/object_images/yoga_mat01.jpg,"[0.035, 0.035]",,,,,,,,,,,,,0,3,3,4,0,20,20,28,,,,,,,,,,,,,,,3.8627254509018036,,,,,,,,,,1,,,,,,,,,,,,,,,1115.1901823000517,1115.1901823000517,1115.1901823000517,1115.1901823000517,1115.1901823000517,1115.4049797998741,1115.5548175000586,1119.1857592999004,1119.1857592999004,1119.1857592999004,['s'],[0.35353590012528],,,,,,,,,,,,,,,,,,,,,,,,,,,,,,,,,,,,,,,,,,,,,,,,,,,,,,,,260001,2024-03-05_12h24.38.253,mfe_c_object,2022.2.4,59.9485880623067,
flanker_main_block_5.csv,img/rightArrow.png,img/leftArrow.png,img/leftArrow.png,7,0,right,"[0, 0]","[0.0385, 0]","[-0.0385, 0]",img/object_images/usb03.jpg,"[0.035, 0.035]",,,,,,,,,,,,,0,3,3,4,0,21,21,13,,,,,,,,,,,,,,,3.527054108216433,,,,,,,,,,1,,,,,,,,,,,,,,,1119.1857592999004,1119.1857592999004,1119.1920165999327,1119.1857592999004,1119.1857592999004,1119.392374600051,1119.5423874000553,1122.842738599982,1122.842738599982,1122.842738599982,['k'],[0.49369650008156896],,,,,,,,,,,,,,,,,,,,,,,,,,,,,,,,,,,,,,,,,,,,,,,,,,,,,,,,260001,2024-03-05_12h24.38.253,mfe_c_object,2022.2.4,59.9485880623067,
flanker_main_block_5.csv,img/rightArrow.png,img/rightArrow.png,img/rightArrow.png,5,1,right,"[0, 0]","[0.0385, 0]","[-0.0385, 0]",img/object_images/pitcher07.jpg,"[0.035, 0.035]",,,,,,,,,,,,,0,3,3,4,0,22,22,19,,,,,,,,,,,,,,,3.9428857715430863,,,,,,,,,,1,,,,,,,,,,,,,,,1122.842738599982,1122.842738599982,1122.842738599982,1122.842738599982,1122.842738599982,1123.0461101999972,1123.1960628998931,1126.9312525000423,1126.9312525000423,1126.9312525000423,['k'],[0.45246790000237525],,,,,,,,,,,,,,,,,,,,,,,,,,,,,,,,,,,,,,,,,,,,,,,,,,,,,,,,260001,2024-03-05_12h24.38.253,mfe_c_object,2022.2.4,59.9485880623067,
flanker_main_block_5.csv,img/leftArrow.png,img/rightArrow.png,img/rightArrow.png,8,0,left,"[0, 0]","[0.0385, 0]","[-0.0385, 0]",img/object_images/Shoes05.jpg,"[0.035, 0.035]",,,,,,,,,,,,,0,3,3,4,0,23,23,26,,,,,,,,,,,,,,,3.965931863727455,,,,,,,,,,1,,,,,,,,,,,,,,,1126.9312525000423,1126.9312525000423,1126.9312525000423,1126.9312525000423,1126.9312525000423,1127.1335268998519,1127.2834337998647,1131.033069099998,1131.033069099998,1131.033069099998,['s'],[0.47670500027015805],,,,,,,,,,,,,,,,,,,,,,,,,,,,,,,,,,,,,,,,,,,,,,,,,,,,,,,,260001,2024-03-05_12h24.38.253,mfe_c_object,2022.2.4,59.9485880623067,
