whichBlock,middleStim,leftStim,rightStim,stimNum,congruent,target,locationC,locationR,locationL,straightObj,imageSize,whichSurpriseBlock,old_object_in_surp,new_object_in_surp,which_side_old_object_displayed,prac_block_loop.thisRepN,prac_block_loop.thisTrialN,prac_block_loop.thisN,prac_block_loop.thisIndex,prac_trial_loop.thisRepN,prac_trial_loop.thisTrialN,prac_trial_loop.thisN,prac_trial_loop.thisIndex,task_block_loop.thisRepN,task_block_loop.thisTrialN,task_block_loop.thisN,task_block_loop.thisIndex,task_trial_loop.thisRepN,task_trial_loop.thisTrialN,task_trial_loop.thisN,task_trial_loop.thisIndex,surprise_block_loop.thisRepN,surprise_block_loop.thisTrialN,surprise_block_loop.thisN,surprise_block_loop.thisIndex,trials.thisRepN,trials.thisTrialN,trials.thisN,trials.thisIndex,prac_blockText.started,prac_reminder_text.started,prac_reminder_keyResp.started,prac_reminder_keyResp.keys,prac_reminder_keyResp.rt,initFixation_img.started,ISI,bigObject.started,cover_background_2.started,prac_centerImg.started,prac_stim_keyResp.started,prac_centerImg.stopped,cover_background_2.stopped,bigObject.stopped,prac_stim_keyResp.stopped,prac_stim_keyResp.keys,prac_stim_keyResp.rt,accuracy,prac_blockFeed_text.started,prac_pressContinue.started,prac_blockFeed_keyResp.started,prac_blockFeed_keyResp.keys,prac_blockFeed_keyResp.rt,ringBell_text.started,bellKey.started,bellKey.keys,bellKey.rt,task_blockText.started,task_blockReminders_keyResp.started,task_blockReminders_keyResp.keys,task_blockReminders_keyResp.rt,bigObject_2.started,cover_background.started,task_centerImg.started,task_fixImg.started,task1_stim_keyResp.started,task_centerImg.stopped,cover_background.stopped,bigObject_2.stopped,task_fixImg.stopped,task1_stim_keyResp.stopped,task1_stim_keyResp.keys,task1_stim_keyResp.rt,blockFeedCat,task_blockFeed_text.started,task_blockFeed_keyResp.started,task_blockFeed_keyResp.keys,task_blockFeed_keyResp.rt,ringBell_text_2.started,bellKey_2.started,bellKey_2.keys,bellKey_2.rt,errorNumbers_text_2.started,errorNum_text_box.started,errorN_key_resp_2.started,errorNum_text_box.text,errorN_key_resp_2.keys,errorN_key_resp_2.rt,errorNumbers_text_3.started,errorPercent_text_box.started,errorN_key_resp_3.started,errorPercent_text_box.text,errorN_key_resp_3.keys,errorN_key_resp_3.rt,botherRate_text.started,bother_text_box.started,botherRate_key_resp.started,bother_text_box.text,botherRate_key_resp.keys,botherRate_key_resp.rt,ringBell_text_3.started,bellKey_3.started,bellKey_3.keys,bellKey_3.rt,instruct_surprise1.started,instruct_surp1_key_resp.keys,instruct_surp1_key_resp.rt,text_2.started,task_blockText_2.started,task_blockReminders_keyResp_2.started,task_blockReminders_keyResp_2.keys,task_blockReminders_keyResp_2.rt,thisISI3,polygon.started,polygon.stopped,text.started,old_object_image.started,new_object_image.started,instructsurpA1_right.started,instructsurpA2_left.started,surprise_key_resp.started,surprise_key_resp.keys,surprise_key_resp.rt,ringBell_text_4.started,bellKey_4.started,bellKey_4.keys,bellKey_4.rt,finishMessage_text.started,id,date,expName,psychopyVersion,frameRate,
flanker_practice_block.csv,img/leftArrow.png,img/rightArrow.png,img/rightArrow.png,8,0,left,"[0, 0]","[0.0385, 0]","[-0.0385, 0]",img/object_images/binoculars01.jpg,"[0.035, 0.035]",,,,,0,0,0,0,0,0,0,1,,,,,,,,,,,,,,,,,137.27573069999926,137.27573069999926,137.27573069999926,k,23.45889799995348,160.76999870000873,3.893787575150301,162.98419400001876,162.98419400001876,162.98419400001876,162.98419400001876,163.19134789996315,163.34149689995684,167.03206759993918,167.03206759993918,['s'],[0.7969999000197276],1,,,,,,,,,,,,,,,,,,,,,,,,,,,,,,,,,,,,,,,,,,,,,,,,,,,,,,,,,,,,,,,,,,,,,,,,,,,,,,,,,260024,2024-03-30_11h06.14.545,mfe_c_object,2022.2.4,59.958940126237756,
flanker_practice_block.csv,img/rightArrow.png,img/leftArrow.png,img/leftArrow.png,7,0,right,"[0, 0]","[0.0385, 0]","[-0.0385, 0]",img/object_images/staple_remover01.jpg,"[0.035, 0.035]",,,,,0,0,0,0,0,1,1,15,,,,,,,,,,,,,,,,,,,,,,,3.9048096192384767,167.03206759993918,167.03206759993918,167.03206759993918,167.03206759993918,167.2453035999788,167.39516630000435,171.1075514999684,171.1075514999684,['k'],[0.852900700061582],1,,,,,,,,,,,,,,,,,,,,,,,,,,,,,,,,,,,,,,,,,,,,,,,,,,,,,,,,,,,,,,,,,,,,,,,,,,,,,,,,,260024,2024-03-30_11h06.14.545,mfe_c_object,2022.2.4,59.958940126237756,
flanker_practice_block.csv,img/leftArrow.png,img/leftArrow.png,img/leftArrow.png,6,1,left,"[0, 0]","[0.0385, 0]","[-0.0385, 0]",img/object_images/vacuum_cleaner01.jpg,"[0.035, 0.035]",,,,,0,0,0,0,0,2,2,7,,,,,,,,,,,,,,,,,,,,,,,3.8396793587174347,171.1075514999684,171.1075514999684,171.1075514999684,171.1075514999684,171.31606410001405,171.46589310001582,175.10507980000693,175.10507980000693,['s'],[0.6413920999038965],1,,,,,,,,,,,,,,,,,,,,,,,,,,,,,,,,,,,,,,,,,,,,,,,,,,,,,,,,,,,,,,,,,,,,,,,,,,,,,,,,,260024,2024-03-30_11h06.14.545,mfe_c_object,2022.2.4,59.958940126237756,
flanker_practice_block.csv,img/rightArrow.png,img/leftArrow.png,img/leftArrow.png,7,0,right,"[0, 0]","[0.0385, 0]","[-0.0385, 0]",img/object_images/rock04.jpg,"[0.035, 0.035]",,,,,0,0,0,0,0,3,3,16,,,,,,,,,,,,,,,,,,,,,,,3.627254509018036,175.10507980000693,175.10507980000693,175.10507980000693,175.10507980000693,175.32052009995095,175.47021679999307,178.89251269993838,178.89251269993838,['k'],[0.5401481000008062],1,,,,,,,,,,,,,,,,,,,,,,,,,,,,,,,,,,,,,,,,,,,,,,,,,,,,,,,,,,,,,,,,,,,,,,,,,,,,,,,,,260024,2024-03-30_11h06.14.545,mfe_c_object,2022.2.4,59.958940126237756,
flanker_practice_block.csv,img/leftArrow.png,img/rightArrow.png,img/rightArrow.png,8,0,left,"[0, 0]","[0.0385, 0]","[-0.0385, 0]",img/object_images/trumpet02.jpg,"[0.035, 0.035]",,,,,0,0,0,0,0,4,4,10,,,,,,,,,,,,,,,,,,,,,,,3.633266533066132,178.89251269993838,178.89251269993838,178.89251269993838,178.89251269993838,179.10718479997013,179.2570216000313,182.6769881999353,182.6769881999353,['s'],[0.6485281999921426],1,,,,,,,,,,,,,,,,,,,,,,,,,,,,,,,,,,,,,,,,,,,,,,,,,,,,,,,,,,,,,,,,,,,,,,,,,,,,,,,,,260024,2024-03-30_11h06.14.545,mfe_c_object,2022.2.4,59.958940126237756,
flanker_practice_block.csv,img/leftArrow.png,img/leftArrow.png,img/leftArrow.png,6,1,left,"[0, 0]","[0.0385, 0]","[-0.0385, 0]",img/object_images/usb01.jpg,"[0.035, 0.035]",,,,,0,0,0,0,0,5,5,14,,,,,,,,,,,,,,,,,,,,,,,3.651302605210421,182.6769881999353,182.6769881999353,182.6769881999353,182.6769881999353,182.8776196000399,183.02742179995403,186.47900759999175,186.47900759999175,['s'],[0.5201621999731287],1,,,,,,,,,,,,,,,,,,,,,,,,,,,,,,,,,,,,,,,,,,,,,,,,,,,,,,,,,,,,,,,,,,,,,,,,,,,,,,,,,260024,2024-03-30_11h06.14.545,mfe_c_object,2022.2.4,59.958940126237756,
flanker_practice_block.csv,img/leftArrow.png,img/leftArrow.png,img/leftArrow.png,6,1,left,"[0, 0]","[0.0385, 0]","[-0.0385, 0]",img/object_images/skate_board02.jpg,"[0.035, 0.035]",,,,,0,0,0,0,0,6,6,9,,,,,,,,,,,,,,,,,,,,,,,3.5771543086172346,186.47900759999175,186.47900759999175,186.47900759999175,186.47900759999175,186.6813542000018,186.83123829995748,190.22180960001424,190.22180960001424,['s'],[0.55908969999291],1,,,,,,,,,,,,,,,,,,,,,,,,,,,,,,,,,,,,,,,,,,,,,,,,,,,,,,,,,,,,,,,,,,,,,,,,,,,,,,,,,260024,2024-03-30_11h06.14.545,mfe_c_object,2022.2.4,59.958940126237756,
flanker_practice_block.csv,img/rightArrow.png,img/leftArrow.png,img/leftArrow.png,7,0,right,"[0, 0]","[0.0385, 0]","[-0.0385, 0]",img/object_images/crane02.jpg,"[0.035, 0.035]",,,,,0,0,0,0,0,7,7,17,,,,,,,,,,,,,,,,,,,,,,,3.633266533066132,190.22180960001424,190.22180960001424,190.22180960001424,190.22180960001424,190.43512159993406,190.58506760001183,193.99625770002604,193.99625770002604,['k'],[0.5032560999970883],1,,,,,,,,,,,,,,,,,,,,,,,,,,,,,,,,,,,,,,,,,,,,,,,,,,,,,,,,,,,,,,,,,,,,,,,,,,,,,,,,,260024,2024-03-30_11h06.14.545,mfe_c_object,2022.2.4,59.958940126237756,
flanker_practice_block.csv,img/rightArrow.png,img/rightArrow.png,img/rightArrow.png,5,1,right,"[0, 0]","[0.0385, 0]","[-0.0385, 0]",img/object_images/hot_air_balloon01.jpg,"[0.035, 0.035]",,,,,0,0,0,0,0,8,8,12,,,,,,,,,,,,,,,,,,,,,,,3.713426853707415,193.99625770002604,193.99625770002604,193.99625770002604,193.99625770002604,194.20624269999098,194.355461500003,197.84816870000213,197.84816870000213,['k'],[0.5777121999999508],1,,,,,,,,,,,,,,,,,,,,,,,,,,,,,,,,,,,,,,,,,,,,,,,,,,,,,,,,,,,,,,,,,,,,,,,,,,,,,,,,,260024,2024-03-30_11h06.14.545,mfe_c_object,2022.2.4,59.958940126237756,
flanker_practice_block.csv,img/leftArrow.png,img/rightArrow.png,img/rightArrow.png,8,0,left,"[0, 0]","[0.0385, 0]","[-0.0385, 0]",img/object_images/spoon01.jpg,"[0.035, 0.035]",,,,,0,0,0,0,0,9,9,18,,,,,,,,,,,,,,,,,,,,,,,3.915831663326653,197.84816870000213,197.84816870000213,197.84816870000213,197.84816870000213,198.05935019999743,198.20925519999582,201.93373229994904,201.93373229994904,['s'],[0.4774512000149116],1,,,,,,,,,,,,,,,,,,,,,,,,,,,,,,,,,,,,,,,,,,,,,,,,,,,,,,,,,,,,,,,,,,,,,,,,,,,,,,,,,260024,2024-03-30_11h06.14.545,mfe_c_object,2022.2.4,59.958940126237756,
flanker_practice_block.csv,img/leftArrow.png,img/rightArrow.png,img/rightArrow.png,8,0,left,"[0, 0]","[0.0385, 0]","[-0.0385, 0]",img/object_images/Typewritter01.jpg,"[0.035, 0.035]",,,,,0,0,0,0,0,10,10,8,,,,,,,,,,,,,,,,,,,,,,,3.9889779559118237,201.93373229994904,201.93373229994904,201.93373229994904,201.93373229994904,202.14707980002277,202.2969947999809,206.07805430004373,206.07805430004373,['s'],[0.5682413999456912],1,,,,,,,,,,,,,,,,,,,,,,,,,,,,,,,,,,,,,,,,,,,,,,,,,,,,,,,,,,,,,,,,,,,,,,,,,,,,,,,,,260024,2024-03-30_11h06.14.545,mfe_c_object,2022.2.4,59.958940126237756,
flanker_practice_block.csv,img/rightArrow.png,img/leftArrow.png,img/leftArrow.png,7,0,right,"[0, 0]","[0.0385, 0]","[-0.0385, 0]",img/object_images/accordion02.jpg,"[0.035, 0.035]",,,,,0,0,0,0,0,11,11,0,,,,,,,,,,,,,,,,,,,,,,,3.8627254509018036,206.07805430004373,206.07805430004373,206.07805430004373,206.07805430004373,206.28429919993505,206.43433439999353,210.09808999998495,210.09808999998495,['k'],[0.48008739994838834],1,,,,,,,,,,,,,,,,,,,,,,,,,,,,,,,,,,,,,,,,,,,,,,,,,,,,,,,,,,,,,,,,,,,,,,,,,,,,,,,,,260024,2024-03-30_11h06.14.545,mfe_c_object,2022.2.4,59.958940126237756,
flanker_practice_block.csv,img/rightArrow.png,img/rightArrow.png,img/rightArrow.png,5,1,right,"[0, 0]","[0.0385, 0]","[-0.0385, 0]",img/object_images/usb_drive01.jpg,"[0.035, 0.035]",,,,,0,0,0,0,0,12,12,19,,,,,,,,,,,,,,,,,,,,,,,3.8647294589178354,210.09808999998495,210.09808999998495,210.09808999998495,210.09808999998495,210.3049619999947,210.4549730999861,214.1378916000249,214.1378916000249,['k'],[0.38731800008099526],1,,,,,,,,,,,,,,,,,,,,,,,,,,,,,,,,,,,,,,,,,,,,,,,,,,,,,,,,,,,,,,,,,,,,,,,,,,,,,,,,,260024,2024-03-30_11h06.14.545,mfe_c_object,2022.2.4,59.958940126237756,
flanker_practice_block.csv,img/leftArrow.png,img/leftArrow.png,img/leftArrow.png,6,1,left,"[0, 0]","[0.0385, 0]","[-0.0385, 0]",img/object_images/hair_brush03.jpg,"[0.035, 0.035]",,,,,0,0,0,0,0,13,13,2,,,,,,,,,,,,,,,,,,,,,,,3.9669338677354706,214.1378916000249,214.1378916000249,214.1378916000249,214.1378916000249,214.3423480000347,214.49228000000585,218.2555604999652,218.2555604999652,['s'],[0.5157785000046715],1,,,,,,,,,,,,,,,,,,,,,,,,,,,,,,,,,,,,,,,,,,,,,,,,,,,,,,,,,,,,,,,,,,,,,,,,,,,,,,,,,260024,2024-03-30_11h06.14.545,mfe_c_object,2022.2.4,59.958940126237756,
flanker_practice_block.csv,img/rightArrow.png,img/rightArrow.png,img/rightArrow.png,5,1,right,"[0, 0]","[0.0385, 0]","[-0.0385, 0]",img/object_images/handle_bar01.jpg,"[0.035, 0.035]",,,,,0,0,0,0,0,14,14,13,,,,,,,,,,,,,,,,,,,,,,,3.9859719438877756,218.2555604999652,218.2555604999652,218.2555604999652,218.2555604999652,218.46306460001506,218.61294349993113,222.3953230000334,222.3953230000334,['k'],[0.4215760000515729],1,,,,,,,,,,,,,,,,,,,,,,,,,,,,,,,,,,,,,,,,,,,,,,,,,,,,,,,,,,,,,,,,,,,,,,,,,,,,,,,,,260024,2024-03-30_11h06.14.545,mfe_c_object,2022.2.4,59.958940126237756,
flanker_practice_block.csv,img/rightArrow.png,img/rightArrow.png,img/rightArrow.png,5,1,right,"[0, 0]","[0.0385, 0]","[-0.0385, 0]",img/object_images/knife03.jpg,"[0.035, 0.035]",,,,,0,0,0,0,0,15,15,5,,,,,,,,,,,,,,,,,,,,,,,3.6753507014028055,222.3953230000334,222.3953230000334,222.3953230000334,222.3953230000334,222.6008611000143,222.75048399996012,226.21754420001525,226.21754420001525,['k'],[0.5062253000214696],1,,,,,,,,,,,,,,,,,,,,,,,,,,,,,,,,,,,,,,,,,,,,,,,,,,,,,,,,,,,,,,,,,,,,,,,,,,,,,,,,,260024,2024-03-30_11h06.14.545,mfe_c_object,2022.2.4,59.958940126237756,
flanker_practice_block.csv,img/leftArrow.png,img/leftArrow.png,img/leftArrow.png,6,1,left,"[0, 0]","[0.0385, 0]","[-0.0385, 0]",img/object_images/joystick02.jpg,"[0.035, 0.035]",,,,,0,0,0,0,0,16,16,4,,,,,,,,,,,,,,,,,,,,,,,3.534068136272545,226.21754420001525,226.21754420001525,226.21754420001525,226.21754420001525,226.42099949996918,226.57113399996888,229.897985199932,229.897985199932,['s'],[0.5399647000012919],1,,,,,,,,,,,,,,,,,,,,,,,,,,,,,,,,,,,,,,,,,,,,,,,,,,,,,,,,,,,,,,,,,,,,,,,,,,,,,,,,,260024,2024-03-30_11h06.14.545,mfe_c_object,2022.2.4,59.958940126237756,
flanker_practice_block.csv,img/rightArrow.png,img/leftArrow.png,img/leftArrow.png,7,0,right,"[0, 0]","[0.0385, 0]","[-0.0385, 0]",img/object_images/headset03.jpg,"[0.035, 0.035]",,,,,0,0,0,0,0,17,17,11,,,,,,,,,,,,,,,,,,,,,,,3.6793587174348694,229.897985199932,229.897985199932,229.897985199932,229.897985199932,230.10820999997668,230.25796730001457,233.74304610001855,233.74304610001855,['k'],[0.3793422000017017],1,,,,,,,,,,,,,,,,,,,,,,,,,,,,,,,,,,,,,,,,,,,,,,,,,,,,,,,,,,,,,,,,,,,,,,,,,,,,,,,,,260024,2024-03-30_11h06.14.545,mfe_c_object,2022.2.4,59.958940126237756,
flanker_practice_block.csv,img/rightArrow.png,img/rightArrow.png,img/rightArrow.png,5,1,right,"[0, 0]","[0.0385, 0]","[-0.0385, 0]",img/object_images/basketball_hoop01.jpg,"[0.035, 0.035]",,,,,0,0,0,0,0,18,18,6,,,,,,,,,,,,,,,,,,,,,,,3.6392785571142285,233.74304610001855,233.74304610001855,233.74304610001855,233.74304610001855,233.9452762999572,234.09502639994025,237.52414919994771,237.52414919994771,['k'],[0.43019560002721846],1,,,,,,,,,,,,,,,,,,,,,,,,,,,,,,,,,,,,,,,,,,,,,,,,,,,,,,,,,,,,,,,,,,,,,,,,,,,,,,,,,260024,2024-03-30_11h06.14.545,mfe_c_object,2022.2.4,59.958940126237756,
flanker_practice_block.csv,img/leftArrow.png,img/rightArrow.png,img/rightArrow.png,8,0,left,"[0, 0]","[0.0385, 0]","[-0.0385, 0]",img/object_images/car_toy05.jpg,"[0.035, 0.035]",,,,,0,0,0,0,0,19,19,3,,,,,,,,,,,,,,,,,,,,,,,3.5250501002004007,237.52414919994771,237.52414919994771,237.52414919994771,237.52414919994771,237.73241549998056,237.88231050001923,241.05073070002254,241.05073070002254,['s'],[0.5065414999844506],1,,,,,,,,,,,,,,,,,,,,,,,,,,,,,,,,,,,,,,,,,,,,,,,,,,,,,,,,,,,,,,,,,,,,,,,,,,,,,,,,,260024,2024-03-30_11h06.14.545,mfe_c_object,2022.2.4,59.958940126237756,
flanker_practice_block.csv,,,,,,,,,,,,,,,,0,0,0,0,,,,,,,,,,,,,,,,,,,,,,,,,,,,,,,,,,,,,,,241.05073070002254,241.05073070002254,241.05073070002254,k,5.978008299949579,,,,,,,,,,,,,,,,,,,,,,,,,,,,,,,,,,,,,,,,,,,,,,,,,,,,,,,,,,,,,,,,,,,,,,,,,,,,260024,2024-03-30_11h06.14.545,mfe_c_object,2022.2.4,59.958940126237756,
,,,,,,,,,,,,,,,,,,,,,,,,,,,,,,,,,,,,,,,,,,,,,,,,,,,,,,,,,,,,,,,247.05730250000488,247.05730250000488,c,153.16443000000436,,,,,,,,,,,,,,,,,,,,,,,,,,,,,,,,,,,,,,,,,,,,,,,,,,,,,,,,,,,,,,,,,,,,,,,,260024,2024-03-30_11h06.14.545,mfe_c_object,2022.2.4,59.958940126237756,
flanker_main_block_12.csv,img/rightArrow.png,img/leftArrow.png,img/leftArrow.png,7,0,right,"[0, 0]","[0.0385, 0]","[-0.0385, 0]",img/object_images/toothbrush01.jpg,"[0.035, 0.035]",,,,,,,,,,,,,0,0,0,11,0,0,0,29,,,,,,,,,,,,,,415.06442169996444,3.5440881763527052,,,,,,,,,,,1,,,,,,,,,,400.264219100005,400.264219100005,k,14.773103999905288,417.26411849993747,417.26411849993747,417.26411849993747,417.26411849993747,417.26411849993747,417.47812919993885,417.6282342999475,420.96540200000163,420.96540200000163,420.96540200000163,['k'],[0.541162799927406],,,,,,,,,,,,,,,,,,,,,,,,,,,,,,,,,,,,,,,,,,,,,,,,,,,,,,,,260024,2024-03-30_11h06.14.545,mfe_c_object,2022.2.4,59.958940126237756,
flanker_main_block_12.csv,img/rightArrow.png,img/rightArrow.png,img/rightArrow.png,5,1,right,"[0, 0]","[0.0385, 0]","[-0.0385, 0]",img/object_images/scarf01.jpg,"[0.035, 0.035]",,,,,,,,,,,,,0,0,0,11,0,1,1,2,,,,,,,,,,,,,,,3.711422845691383,,,,,,,,,,,1,,,,,,,,,,,,,,420.96540200000163,420.96540200000163,420.96540200000163,420.96540200000163,420.96540200000163,421.1653526999289,421.3153341000434,424.82554039999377,424.82554039999377,424.82554039999377,['k'],[0.5118887999560684],,,,,,,,,,,,,,,,,,,,,,,,,,,,,,,,,,,,,,,,,,,,,,,,,,,,,,,,260024,2024-03-30_11h06.14.545,mfe_c_object,2022.2.4,59.958940126237756,
flanker_main_block_12.csv,img/rightArrow.png,img/leftArrow.png,img/leftArrow.png,7,0,right,"[0, 0]","[0.0385, 0]","[-0.0385, 0]",img/object_images/chair06.jpg,"[0.035, 0.035]",,,,,,,,,,,,,0,0,0,11,0,2,2,1,,,,,,,,,,,,,,,3.902805611222445,,,,,,,,,,,1,,,,,,,,,,,,,,424.82554039999377,424.82554039999377,424.82554039999377,424.82554039999377,424.82554039999377,425.0357210999355,425.18568280001637,428.9422751000384,428.9422751000384,428.9422751000384,['k'],[0.4998048000270501],,,,,,,,,,,,,,,,,,,,,,,,,,,,,,,,,,,,,,,,,,,,,,,,,,,,,,,,260024,2024-03-30_11h06.14.545,mfe_c_object,2022.2.4,59.958940126237756,
flanker_main_block_12.csv,img/leftArrow.png,img/leftArrow.png,img/leftArrow.png,6,1,left,"[0, 0]","[0.0385, 0]","[-0.0385, 0]",img/object_images/airfryer02.jpg,"[0.035, 0.035]",,,,,,,,,,,,,0,0,0,11,0,3,3,11,,,,,,,,,,,,,,,3.9939879759519035,,,,,,,,,,,1,,,,,,,,,,,,,,428.9422751000384,428.9422751000384,428.9422751000384,428.9422751000384,428.9422751000384,429.1565634999424,429.3065398000181,433.07368409994524,433.07368409994524,433.07368409994524,['s'],[0.7506593000143766],,,,,,,,,,,,,,,,,,,,,,,,,,,,,,,,,,,,,,,,,,,,,,,,,,,,,,,,260024,2024-03-30_11h06.14.545,mfe_c_object,2022.2.4,59.958940126237756,
flanker_main_block_12.csv,img/rightArrow.png,img/leftArrow.png,img/leftArrow.png,7,0,right,"[0, 0]","[0.0385, 0]","[-0.0385, 0]",img/object_images/fork02.jpg,"[0.035, 0.035]",,,,,,,,,,,,,0,0,0,11,0,4,4,19,,,,,,,,,,,,,,,3.535070140280561,,,,,,,,,,,1,,,,,,,,,,,,,,433.07368409994524,433.07368409994524,433.07368409994524,433.07368409994524,433.07368409994524,433.2771681000013,433.42726080003195,436.7477130999323,436.7477130999323,436.7477130999323,['k'],[0.48267569998279214],,,,,,,,,,,,,,,,,,,,,,,,,,,,,,,,,,,,,,,,,,,,,,,,,,,,,,,,260024,2024-03-30_11h06.14.545,mfe_c_object,2022.2.4,59.958940126237756,
flanker_main_block_12.csv,img/rightArrow.png,img/rightArrow.png,img/rightArrow.png,5,1,right,"[0, 0]","[0.0385, 0]","[-0.0385, 0]",img/object_images/computer_mouse01.jpg,"[0.035, 0.035]",,,,,,,,,,,,,0,0,0,11,0,5,5,21,,,,,,,,,,,,,,,3.712424849699399,,,,,,,,,,,1,,,,,,,,,,,,,,436.7477130999323,436.7477130999323,436.7477130999323,436.7477130999323,436.7477130999323,436.94767499994487,437.09764389996417,440.6352624000283,440.6352624000283,440.6352624000283,['k'],[0.43306910002138466],,,,,,,,,,,,,,,,,,,,,,,,,,,,,,,,,,,,,,,,,,,,,,,,,,,,,,,,260024,2024-03-30_11h06.14.545,mfe_c_object,2022.2.4,59.958940126237756,
flanker_main_block_12.csv,img/rightArrow.png,img/rightArrow.png,img/rightArrow.png,5,1,right,"[0, 0]","[0.0385, 0]","[-0.0385, 0]",img/object_images/drone01.jpg,"[0.035, 0.035]",,,,,,,,,,,,,0,0,0,11,0,6,6,6,,,,,,,,,,,,,,,3.6352705410821646,,,,,,,,,,,1,,,,,,,,,,,,,,440.6352624000283,440.6352624000283,440.6352624000283,440.6352624000283,440.6352624000283,440.8347842999501,440.9847305000294,444.40396429994144,444.40396429994144,444.40396429994144,['k'],[0.457535499939695],,,,,,,,,,,,,,,,,,,,,,,,,,,,,,,,,,,,,,,,,,,,,,,,,,,,,,,,260024,2024-03-30_11h06.14.545,mfe_c_object,2022.2.4,59.958940126237756,
flanker_main_block_12.csv,img/rightArrow.png,img/leftArrow.png,img/leftArrow.png,7,0,right,"[0, 0]","[0.0385, 0]","[-0.0385, 0]",img/object_images/computer_mouse02.jpg,"[0.035, 0.035]",,,,,,,,,,,,,0,0,0,11,0,7,7,26,,,,,,,,,,,,,,,3.760521042084168,,,,,,,,,,,1,,,,,,,,,,,,,,444.40396429994144,444.40396429994144,444.40396429994144,444.40396429994144,444.40396429994144,444.60518059995957,444.7551938999677,448.3193508000113,448.3193508000113,448.3193508000113,['k'],[0.5367172999540344],,,,,,,,,,,,,,,,,,,,,,,,,,,,,,,,,,,,,,,,,,,,,,,,,,,,,,,,260024,2024-03-30_11h06.14.545,mfe_c_object,2022.2.4,59.958940126237756,
flanker_main_block_12.csv,img/leftArrow.png,img/rightArrow.png,img/rightArrow.png,8,0,left,"[0, 0]","[0.0385, 0]","[-0.0385, 0]",img/object_images/rock02.jpg,"[0.035, 0.035]",,,,,,,,,,,,,0,0,0,11,0,8,8,14,,,,,,,,,,,,,,,3.8977955911823647,,,,,,,,,,,1,,,,,,,,,,,,,,448.3193508000113,448.3193508000113,448.3193508000113,448.3193508000113,448.3193508000113,448.52600910002366,448.67594440001994,452.3815669999458,452.3815669999458,452.3815669999458,['s'],[0.5421489999862388],,,,,,,,,,,,,,,,,,,,,,,,,,,,,,,,,,,,,,,,,,,,,,,,,,,,,,,,260024,2024-03-30_11h06.14.545,mfe_c_object,2022.2.4,59.958940126237756,
flanker_main_block_12.csv,img/rightArrow.png,img/rightArrow.png,img/rightArrow.png,5,1,right,"[0, 0]","[0.0385, 0]","[-0.0385, 0]",img/object_images/shoes12.jpg,"[0.035, 0.035]",,,,,,,,,,,,,0,0,0,11,0,9,9,24,,,,,,,,,,,,,,,3.9839679358717435,,,,,,,,,,,1,,,,,,,,,,,,,,452.3815669999458,452.3815669999458,452.3815669999458,452.3815669999458,452.3815669999458,452.5965680000372,452.7463797000237,456.4936818999704,456.4936818999704,456.4936818999704,['k'],[0.4555849999887869],,,,,,,,,,,,,,,,,,,,,,,,,,,,,,,,,,,,,,,,,,,,,,,,,,,,,,,,260024,2024-03-30_11h06.14.545,mfe_c_object,2022.2.4,59.958940126237756,
flanker_main_block_12.csv,img/leftArrow.png,img/leftArrow.png,img/leftArrow.png,6,1,left,"[0, 0]","[0.0385, 0]","[-0.0385, 0]",img/object_images/hair_brush01.jpg,"[0.035, 0.035]",,,,,,,,,,,,,0,0,0,11,0,10,10,17,,,,,,,,,,,,,,,3.8897795591182365,,,,,,,,,,,1,,,,,,,,,,,,,,456.4936818999704,456.4936818999704,456.5001006999519,456.4936818999704,456.4936818999704,456.7007297000382,456.8505466999486,460.5133447999833,460.5133447999833,460.5133447999833,['s'],[0.43160469993017614],,,,,,,,,,,,,,,,,,,,,,,,,,,,,,,,,,,,,,,,,,,,,,,,,,,,,,,,260024,2024-03-30_11h06.14.545,mfe_c_object,2022.2.4,59.958940126237756,
flanker_main_block_12.csv,img/leftArrow.png,img/rightArrow.png,img/rightArrow.png,8,0,left,"[0, 0]","[0.0385, 0]","[-0.0385, 0]",img/object_images/pen01.jpg,"[0.035, 0.035]",,,,,,,,,,,,,0,0,0,11,0,11,11,5,,,,,,,,,,,,,,,3.6102204408817635,,,,,,,,,,,1,,,,,,,,,,,,,,460.5133447999833,460.5133447999833,460.51940069999546,460.5133447999833,460.5133447999833,460.7212281000102,460.8713176000165,464.25907729996834,464.25907729996834,464.25907729996834,['s'],[0.4921165000414476],,,,,,,,,,,,,,,,,,,,,,,,,,,,,,,,,,,,,,,,,,,,,,,,,,,,,,,,260024,2024-03-30_11h06.14.545,mfe_c_object,2022.2.4,59.958940126237756,
flanker_main_block_12.csv,img/leftArrow.png,img/rightArrow.png,img/rightArrow.png,8,0,left,"[0, 0]","[0.0385, 0]","[-0.0385, 0]",img/object_images/Trowel01.jpg,"[0.035, 0.035]",,,,,,,,,,,,,0,0,0,11,0,12,12,27,,,,,,,,,,,,,,,3.6663326653306614,,,,,,,,,,,1,,,,,,,,,,,,,,464.25907729996834,464.25907729996834,464.25907729996834,464.25907729996834,464.25907729996834,464.45832109998446,464.60855210002046,468.0613822999876,468.0613822999876,468.0613822999876,['s'],[0.6091850999509916],,,,,,,,,,,,,,,,,,,,,,,,,,,,,,,,,,,,,,,,,,,,,,,,,,,,,,,,260024,2024-03-30_11h06.14.545,mfe_c_object,2022.2.4,59.958940126237756,
flanker_main_block_12.csv,img/leftArrow.png,img/leftArrow.png,img/leftArrow.png,6,1,left,"[0, 0]","[0.0385, 0]","[-0.0385, 0]",img/object_images/floss02.jpg,"[0.035, 0.035]",,,,,,,,,,,,,0,0,0,11,0,13,13,20,,,,,,,,,,,,,,,3.5831663326653307,,,,,,,,,,,1,,,,,,,,,,,,,,468.0613822999876,468.0613822999876,468.0613822999876,468.0613822999876,468.0613822999876,468.2623510999838,468.4122826999519,471.7837044999469,471.7837044999469,471.7837044999469,['s'],[0.510902400012128],,,,,,,,,,,,,,,,,,,,,,,,,,,,,,,,,,,,,,,,,,,,,,,,,,,,,,,,260024,2024-03-30_11h06.14.545,mfe_c_object,2022.2.4,59.958940126237756,
flanker_main_block_12.csv,img/leftArrow.png,img/rightArrow.png,img/rightArrow.png,8,0,left,"[0, 0]","[0.0385, 0]","[-0.0385, 0]",img/object_images/soap03.jpg,"[0.035, 0.035]",,,,,,,,,,,,,0,0,0,11,0,14,14,12,,,,,,,,,,,,,,,3.849699398797595,,,,,,,,,,,1,,,,,,,,,,,,,,471.7837044999469,471.7837044999469,471.7837044999469,471.7837044999469,471.7837044999469,471.9992210000055,472.1323800999671,475.7832120000385,475.7832120000385,475.7832120000385,['s'],[0.5090576999355108],,,,,,,,,,,,,,,,,,,,,,,,,,,,,,,,,,,,,,,,,,,,,,,,,,,,,,,,260024,2024-03-30_11h06.14.545,mfe_c_object,2022.2.4,59.958940126237756,
flanker_main_block_12.csv,img/rightArrow.png,img/rightArrow.png,img/rightArrow.png,5,1,right,"[0, 0]","[0.0385, 0]","[-0.0385, 0]",img/object_images/toy01.jpg,"[0.035, 0.035]",,,,,,,,,,,,,0,0,0,11,0,15,15,13,,,,,,,,,,,,,,,3.823647294589178,,,,,,,,,,,1,,,,,,,,,,,,,,475.7832120000385,475.7832120000385,475.7832120000385,475.7832120000385,475.7832120000385,475.9865354000358,476.13643219997175,479.74135559995193,479.74135559995193,479.74135559995193,['k'],[0.4453586000017822],,,,,,,,,,,,,,,,,,,,,,,,,,,,,,,,,,,,,,,,,,,,,,,,,,,,,,,,260024,2024-03-30_11h06.14.545,mfe_c_object,2022.2.4,59.958940126237756,
flanker_main_block_12.csv,img/rightArrow.png,img/rightArrow.png,img/rightArrow.png,5,1,right,"[0, 0]","[0.0385, 0]","[-0.0385, 0]",img/object_images/egg_slicer01.jpg,"[0.035, 0.035]",,,,,,,,,,,,,0,0,0,11,0,16,16,25,,,,,,,,,,,,,,,3.623246492985972,,,,,,,,,,,1,,,,,,,,,,,,,,479.74135559995193,479.74135559995193,479.74135559995193,479.74135559995193,479.74135559995193,479.9406160999788,480.09058359998744,483.5078924000263,483.5078924000263,483.5078924000263,['k'],[0.5276638000505045],,,,,,,,,,,,,,,,,,,,,,,,,,,,,,,,,,,,,,,,,,,,,,,,,,,,,,,,260024,2024-03-30_11h06.14.545,mfe_c_object,2022.2.4,59.958940126237756,
flanker_main_block_12.csv,img/rightArrow.png,img/leftArrow.png,img/leftArrow.png,7,0,right,"[0, 0]","[0.0385, 0]","[-0.0385, 0]",img/object_images/skate_board01.jpg,"[0.035, 0.035]",,,,,,,,,,,,,0,0,0,11,0,17,17,9,,,,,,,,,,,,,,,3.909819639278557,,,,,,,,,,,1,,,,,,,,,,,,,,483.5078924000263,483.5078924000263,483.5078924000263,483.5078924000263,483.5078924000263,483.71092310000677,483.8607759999577,487.56086760002654,487.56086760002654,487.56086760002654,['k'],[0.609101300011389],,,,,,,,,,,,,,,,,,,,,,,,,,,,,,,,,,,,,,,,,,,,,,,,,,,,,,,,260024,2024-03-30_11h06.14.545,mfe_c_object,2022.2.4,59.958940126237756,
flanker_main_block_12.csv,img/leftArrow.png,img/rightArrow.png,img/rightArrow.png,8,0,left,"[0, 0]","[0.0385, 0]","[-0.0385, 0]",img/object_images/tool06.jpg,"[0.035, 0.035]",,,,,,,,,,,,,0,0,0,11,0,18,18,22,,,,,,,,,,,,,,,3.9519038076152304,,,,,,,,,,,1,,,,,,,,,,,,,,487.56086760002654,487.56086760002654,487.56086760002654,487.56086760002654,487.56086760002654,487.76623860001564,487.91498959995806,491.64483260002453,491.64483260002453,491.64483260002453,['s'],[0.5314626999897882],,,,,,,,,,,,,,,,,,,,,,,,,,,,,,,,,,,,,,,,,,,,,,,,,,,,,,,,260024,2024-03-30_11h06.14.545,mfe_c_object,2022.2.4,59.958940126237756,
flanker_main_block_12.csv,img/rightArrow.png,img/leftArrow.png,img/leftArrow.png,7,0,right,"[0, 0]","[0.0385, 0]","[-0.0385, 0]",img/object_images/chain01.jpg,"[0.035, 0.035]",,,,,,,,,,,,,0,0,0,11,0,19,19,8,,,,,,,,,,,,,,,3.8557114228456912,,,,,,,,,,,1,,,,,,,,,,,,,,491.64483260002453,491.64483260002453,491.6510484999744,491.64483260002453,491.64483260002453,491.8523838999681,492.00262069993187,495.6375104000326,495.6375104000326,495.6375104000326,['k'],[0.41715640004258603],,,,,,,,,,,,,,,,,,,,,,,,,,,,,,,,,,,,,,,,,,,,,,,,,,,,,,,,260024,2024-03-30_11h06.14.545,mfe_c_object,2022.2.4,59.958940126237756,
flanker_main_block_12.csv,img/leftArrow.png,img/leftArrow.png,img/leftArrow.png,6,1,left,"[0, 0]","[0.0385, 0]","[-0.0385, 0]",img/object_images/tripod01.jpg,"[0.035, 0.035]",,,,,,,,,,,,,0,0,0,11,0,20,20,23,,,,,,,,,,,,,,,3.9619238476953904,,,,,,,,,,,1,,,,,,,,,,,,,,495.6375104000326,495.6375104000326,495.6375104000326,495.6375104000326,495.6375104000326,495.8397104999749,495.9897562999977,499.7396602999652,499.7396602999652,499.7396602999652,['s'],[0.5111901999916881],,,,,,,,,,,,,,,,,,,,,,,,,,,,,,,,,,,,,,,,,,,,,,,,,,,,,,,,260024,2024-03-30_11h06.14.545,mfe_c_object,2022.2.4,59.958940126237756,
flanker_main_block_12.csv,img/rightArrow.png,img/leftArrow.png,img/leftArrow.png,7,0,right,"[0, 0]","[0.0385, 0]","[-0.0385, 0]",img/object_images/bell03.jpg,"[0.035, 0.035]",,,,,,,,,,,,,0,0,0,11,0,21,21,28,,,,,,,,,,,,,,,3.844689378757515,,,,,,,,,,,1,,,,,,,,,,,,,,499.7396602999652,499.7396602999652,499.7396602999652,499.7396602999652,499.7396602999652,499.9437295999378,500.0935824000044,503.7300807000138,503.7300807000138,503.7300807000138,['k'],[0.5215093999868259],,,,,,,,,,,,,,,,,,,,,,,,,,,,,,,,,,,,,,,,,,,,,,,,,,,,,,,,260024,2024-03-30_11h06.14.545,mfe_c_object,2022.2.4,59.958940126237756,
flanker_main_block_12.csv,img/rightArrow.png,img/rightArrow.png,img/rightArrow.png,5,1,right,"[0, 0]","[0.0385, 0]","[-0.0385, 0]",img/object_images/pitcher09.jpg,"[0.035, 0.035]",,,,,,,,,,,,,0,0,0,11,0,22,22,3,,,,,,,,,,,,,,,3.8897795591182365,,,,,,,,,,,1,,,,,,,,,,,,,,503.7300807000138,503.7300807000138,503.7300807000138,503.7300807000138,503.7300807000138,503.9312968000304,504.08118590002414,507.7677383000264,507.7677383000264,507.7677383000264,['k'],[0.44225109997205436],,,,,,,,,,,,,,,,,,,,,,,,,,,,,,,,,,,,,,,,,,,,,,,,,,,,,,,,260024,2024-03-30_11h06.14.545,mfe_c_object,2022.2.4,59.958940126237756,
flanker_main_block_12.csv,img/rightArrow.png,img/rightArrow.png,img/rightArrow.png,5,1,right,"[0, 0]","[0.0385, 0]","[-0.0385, 0]",img/object_images/mail_box02.jpg,"[0.035, 0.035]",,,,,,,,,,,,,0,0,0,11,0,23,23,31,,,,,,,,,,,,,,,3.5951903807615233,,,,,,,,,,,1,,,,,,,,,,,,,,507.7677383000264,507.7677383000264,507.7677383000264,507.7677383000264,507.7677383000264,507.96863759995904,508.11846030002926,511.5057573999511,511.5057573999511,511.5057573999511,['k'],[0.4933801000006497],,,,,,,,,,,,,,,,,,,,,,,,,,,,,,,,,,,,,,,,,,,,,,,,,,,,,,,,260024,2024-03-30_11h06.14.545,mfe_c_object,2022.2.4,59.958940126237756,
flanker_main_block_12.csv,img/rightArrow.png,img/leftArrow.png,img/leftArrow.png,7,0,right,"[0, 0]","[0.0385, 0]","[-0.0385, 0]",img/object_images/Violin01.jpg,"[0.035, 0.035]",,,,,,,,,,,,,0,0,0,11,0,24,24,15,,,,,,,,,,,,,,,3.755511022044088,,,,,,,,,,,1,,,,,,,,,,,,,,511.5057573999511,511.5057573999511,511.5057573999511,511.5057573999511,511.5057573999511,511.7055130000226,511.8554852999514,515.4063469000394,515.4063469000394,515.4063469000394,['k'],[0.5311817999463528],,,,,,,,,,,,,,,,,,,,,,,,,,,,,,,,,,,,,,,,,,,,,,,,,,,,,,,,260024,2024-03-30_11h06.14.545,mfe_c_object,2022.2.4,59.958940126237756,
flanker_main_block_12.csv,img/leftArrow.png,img/rightArrow.png,img/rightArrow.png,8,0,left,"[0, 0]","[0.0385, 0]","[-0.0385, 0]",img/object_images/blender01.jpg,"[0.035, 0.035]",,,,,,,,,,,,,0,0,0,11,0,25,25,18,,,,,,,,,,,,,,,3.8917835671342687,,,,,,,,,,,1,,,,,,,,,,,,,,515.4063469000394,515.4063469000394,515.4063469000394,515.4063469000394,515.4063469000394,515.6095980999526,515.7593595000217,519.4808741000015,519.4808741000015,519.4808741000015,['s'],[0.4699503999436274],,,,,,,,,,,,,,,,,,,,,,,,,,,,,,,,,,,,,,,,,,,,,,,,,,,,,,,,260024,2024-03-30_11h06.14.545,mfe_c_object,2022.2.4,59.958940126237756,
flanker_main_block_12.csv,img/leftArrow.png,img/leftArrow.png,img/leftArrow.png,6,1,left,"[0, 0]","[0.0385, 0]","[-0.0385, 0]",img/object_images/video_game03.jpg,"[0.035, 0.035]",,,,,,,,,,,,,0,0,0,11,0,26,26,0,,,,,,,,,,,,,,,3.682364729458918,,,,,,,,,,,1,,,,,,,,,,,,,,519.4808741000015,519.4808741000015,519.4808741000015,519.4808741000015,519.4808741000015,519.6800895000342,519.8301265999908,523.3011575000128,523.3011575000128,523.3011575000128,['s'],[0.47627350001130253],,,,,,,,,,,,,,,,,,,,,,,,,,,,,,,,,,,,,,,,,,,,,,,,,,,,,,,,260024,2024-03-30_11h06.14.545,mfe_c_object,2022.2.4,59.958940126237756,
flanker_main_block_12.csv,img/leftArrow.png,img/rightArrow.png,img/rightArrow.png,8,0,left,"[0, 0]","[0.0385, 0]","[-0.0385, 0]",img/object_images/couch01.jpg,"[0.035, 0.035]",,,,,,,,,,,,,0,0,0,11,0,27,27,4,,,,,,,,,,,,,,,3.8036072144288577,,,,,,,,,,,1,,,,,,,,,,,,,,523.3011575000128,523.3011575000128,523.3011575000128,523.3011575000128,523.3011575000128,523.5005504000001,523.6505304999882,527.2314724000171,527.2314724000171,527.2314724000171,['s'],[0.5275737999472767],,,,,,,,,,,,,,,,,,,,,,,,,,,,,,,,,,,,,,,,,,,,,,,,,,,,,,,,260024,2024-03-30_11h06.14.545,mfe_c_object,2022.2.4,59.958940126237756,
flanker_main_block_12.csv,img/leftArrow.png,img/rightArrow.png,img/rightArrow.png,8,0,left,"[0, 0]","[0.0385, 0]","[-0.0385, 0]",img/object_images/box03.jpg,"[0.035, 0.035]",,,,,,,,,,,,,0,0,0,11,0,28,28,10,,,,,,,,,,,,,,,3.870741482965932,,,,,,,,,,,1,,,,,,,,,,,,,,527.2314724000171,527.2314724000171,527.237741000019,527.2314724000171,527.2314724000171,527.4378721000394,527.587951799971,531.2385668000206,531.2385668000206,531.2385668000206,['s'],[0.4697968000546098],,,,,,,,,,,,,,,,,,,,,,,,,,,,,,,,,,,,,,,,,,,,,,,,,,,,,,,,260024,2024-03-30_11h06.14.545,mfe_c_object,2022.2.4,59.958940126237756,
flanker_main_block_12.csv,img/leftArrow.png,img/leftArrow.png,img/leftArrow.png,6,1,left,"[0, 0]","[0.0385, 0]","[-0.0385, 0]",img/object_images/clip04.jpg,"[0.035, 0.035]",,,,,,,,,,,,,0,0,0,11,0,29,29,7,,,,,,,,,,,,,,,3.9879759519038074,,,,,,,,,,,1,,,,,,,,,,,,,,531.2385668000206,531.2385668000206,531.2385668000206,531.2385668000206,531.2385668000206,531.4420162999304,531.5917954000179,535.3619825999485,535.3619825999485,535.3619825999485,['s'],[0.4552126999478787],,,,,,,,,,,,,,,,,,,,,,,,,,,,,,,,,,,,,,,,,,,,,,,,,,,,,,,,260024,2024-03-30_11h06.14.545,mfe_c_object,2022.2.4,59.958940126237756,
flanker_main_block_12.csv,img/leftArrow.png,img/leftArrow.png,img/leftArrow.png,6,1,left,"[0, 0]","[0.0385, 0]","[-0.0385, 0]",img/object_images/bag_pipes01.jpg,"[0.035, 0.035]",,,,,,,,,,,,,0,0,0,11,0,30,30,30,,,,,,,,,,,,,,,3.632264529058116,,,,,,,,,,,1,,,,,,,,,,,,,,535.3619825999485,535.3619825999485,535.3619825999485,535.3619825999485,535.3619825999485,535.562574999989,535.7126777999802,539.1335284999805,539.1335284999805,539.1335284999805,['s'],[0.49060979997739196],,,,,,,,,,,,,,,,,,,,,,,,,,,,,,,,,,,,,,,,,,,,,,,,,,,,,,,,260024,2024-03-30_11h06.14.545,mfe_c_object,2022.2.4,59.958940126237756,
flanker_main_block_12.csv,img/leftArrow.png,img/leftArrow.png,img/leftArrow.png,6,1,left,"[0, 0]","[0.0385, 0]","[-0.0385, 0]",img/object_images/book02.jpg,"[0.035, 0.035]",,,,,,,,,,,,,0,0,0,11,0,31,31,16,,,,,,,,,,,,,,,3.8326653306613223,,,,,,,,,,,1,,,,,,,,,,,,,,539.1335284999805,539.1335284999805,539.1335284999805,539.1335284999805,539.1335284999805,539.3331386999926,539.4830463000108,543.0001936999615,543.0001936999615,543.0001936999615,['s'],[0.47079529997427016],,,,,,,,,,,,,,,,,,,,,,,,,,,,,,,,,,,,,,,,,,,,,,,,,,,,,,,,260024,2024-03-30_11h06.14.545,mfe_c_object,2022.2.4,59.958940126237756,
flanker_main_block_12.csv,,,,,,,,,,,,,,,,,,,,,,,,0,0,0,11,,,,,,,,,,,,,,,,,,,,,,,,,,,,,,,,,,,,,,,,,,,,,,,,,,,,,,,,2,543.0001936999615,552.9620603999356,k,1.4021218999987468,,,,,,,,,,,,,,,,,,,,,,,,,,,,,,,,,,,,,,,,,,,,,,,,,,,260024,2024-03-30_11h06.14.545,mfe_c_object,2022.2.4,59.958940126237756,
flanker_main_block_6.csv,img/leftArrow.png,img/rightArrow.png,img/rightArrow.png,8,0,left,"[0, 0]","[0.0385, 0]","[-0.0385, 0]",img/object_images/Thermometer01.jpg,"[0.035, 0.035]",,,,,,,,,,,,,0,1,1,5,0,0,0,13,,,,,,,,,,,,,,560.7070807999698,3.5290581162324646,,,,,,,,,,,1,,,,,,,,,,554.397251599934,554.397251599934,k,6.287518700002693,562.8838533000089,562.8838533000089,562.8838533000089,562.8838533000089,562.8838533000089,563.0900441999547,563.2397930000443,566.5548593000276,566.5548593000276,566.5548593000276,['s'],[0.5045978999696672],,,,,,,,,,,,,,,,,,,,,,,,,,,,,,,,,,,,,,,,,,,,,,,,,,,,,,,,260024,2024-03-30_11h06.14.545,mfe_c_object,2022.2.4,59.958940126237756,
flanker_main_block_6.csv,img/leftArrow.png,img/leftArrow.png,img/leftArrow.png,6,1,left,"[0, 0]","[0.0385, 0]","[-0.0385, 0]",img/object_images/hammer03.jpg,"[0.035, 0.035]",,,,,,,,,,,,,0,1,1,5,0,1,1,11,,,,,,,,,,,,,,,3.848697394789579,,,,,,,,,,,1,,,,,,,,,,,,,,566.5548593000276,566.5548593000276,566.5610495000146,566.5548593000276,566.5548593000276,566.7603063000133,566.9104483999545,570.5433099999791,570.5433099999791,570.5433099999791,['s'],[0.4423460999969393],,,,,,,,,,,,,,,,,,,,,,,,,,,,,,,,,,,,,,,,,,,,,,,,,,,,,,,,260024,2024-03-30_11h06.14.545,mfe_c_object,2022.2.4,59.958940126237756,
flanker_main_block_6.csv,img/leftArrow.png,img/rightArrow.png,img/rightArrow.png,8,0,left,"[0, 0]","[0.0385, 0]","[-0.0385, 0]",img/object_images/paint_brush04.jpg,"[0.035, 0.035]",,,,,,,,,,,,,0,1,1,5,0,2,2,24,,,,,,,,,,,,,,,3.866733466933868,,,,,,,,,,,1,,,,,,,,,,,,,,570.5433099999791,570.5433099999791,570.5433099999791,570.5433099999791,570.5433099999791,570.7476041000336,570.8977082000347,574.549686399987,574.549686399987,574.549686399987,['s'],[0.4453899000072852],,,,,,,,,,,,,,,,,,,,,,,,,,,,,,,,,,,,,,,,,,,,,,,,,,,,,,,,260024,2024-03-30_11h06.14.545,mfe_c_object,2022.2.4,59.958940126237756,
flanker_main_block_6.csv,img/leftArrow.png,img/rightArrow.png,img/rightArrow.png,8,0,left,"[0, 0]","[0.0385, 0]","[-0.0385, 0]",img/object_images/note_book01.jpg,"[0.035, 0.035]",,,,,,,,,,,,,0,1,1,5,0,3,3,1,,,,,,,,,,,,,,,3.8246492985971945,,,,,,,,,,,1,,,,,,,,,,,,,,574.549686399987,574.549686399987,574.549686399987,574.549686399987,574.549686399987,574.7517853999743,574.901577899931,578.5230122000212,578.5230122000212,578.5230122000212,['s'],[0.46277320000808686],,,,,,,,,,,,,,,,,,,,,,,,,,,,,,,,,,,,,,,,,,,,,,,,,,,,,,,,260024,2024-03-30_11h06.14.545,mfe_c_object,2022.2.4,59.958940126237756,
flanker_main_block_6.csv,img/rightArrow.png,img/rightArrow.png,img/rightArrow.png,5,1,right,"[0, 0]","[0.0385, 0]","[-0.0385, 0]",img/object_images/book03.jpg,"[0.035, 0.035]",,,,,,,,,,,,,0,1,1,5,0,4,4,30,,,,,,,,,,,,,,,3.5861723446893787,,,,,,,,,,,1,,,,,,,,,,,,,,578.5230122000212,578.5230122000212,578.5230122000212,578.5230122000212,578.5230122000212,578.722309499979,578.8724112999626,582.2454389999621,582.2454389999621,582.2454389999621,['k'],[0.36159899993799627],,,,,,,,,,,,,,,,,,,,,,,,,,,,,,,,,,,,,,,,,,,,,,,,,,,,,,,,260024,2024-03-30_11h06.14.545,mfe_c_object,2022.2.4,59.958940126237756,
flanker_main_block_6.csv,img/leftArrow.png,img/leftArrow.png,img/leftArrow.png,6,1,left,"[0, 0]","[0.0385, 0]","[-0.0385, 0]",img/object_images/Oven01.jpg,"[0.035, 0.035]",,,,,,,,,,,,,0,1,1,5,0,5,5,5,,,,,,,,,,,,,,,3.822645290581162,,,,,,,,,,,1,,,,,,,,,,,,,,582.2454389999621,582.2454389999621,582.2454389999621,582.2454389999621,582.2454389999621,582.4595102999592,582.6095021000365,586.2115615999792,586.2115615999792,586.2115615999792,['s'],[0.39057000004686415],,,,,,,,,,,,,,,,,,,,,,,,,,,,,,,,,,,,,,,,,,,,,,,,,,,,,,,,260024,2024-03-30_11h06.14.545,mfe_c_object,2022.2.4,59.958940126237756,
flanker_main_block_6.csv,img/rightArrow.png,img/leftArrow.png,img/leftArrow.png,7,0,right,"[0, 0]","[0.0385, 0]","[-0.0385, 0]",img/object_images/clock02.jpg,"[0.035, 0.035]",,,,,,,,,,,,,0,1,1,5,0,6,6,7,,,,,,,,,,,,,,,3.9899799599198396,,,,,,,,,,,1,,,,,,,,,,,,,,586.2115615999792,586.2115615999792,586.2115615999792,586.2115615999792,586.2115615999792,586.4134951999877,586.5633503999561,590.3479539999971,590.3479539999971,590.3479539999971,['k'],[0.5455420000944287],,,,,,,,,,,,,,,,,,,,,,,,,,,,,,,,,,,,,,,,,,,,,,,,,,,,,,,,260024,2024-03-30_11h06.14.545,mfe_c_object,2022.2.4,59.958940126237756,
flanker_main_block_6.csv,img/rightArrow.png,img/leftArrow.png,img/leftArrow.png,7,0,right,"[0, 0]","[0.0385, 0]","[-0.0385, 0]",img/object_images/bell02.jpg,"[0.035, 0.035]",,,,,,,,,,,,,0,1,1,5,0,7,7,14,,,,,,,,,,,,,,,3.5180360721442883,,,,,,,,,,,1,,,,,,,,,,,,,,590.3479539999971,590.3479539999971,590.3479539999971,590.3479539999971,590.3479539999971,590.5506837000139,590.7007363999728,594.0053561000386,594.0053561000386,594.0053561000386,['k'],[0.464688100037165],,,,,,,,,,,,,,,,,,,,,,,,,,,,,,,,,,,,,,,,,,,,,,,,,,,,,,,,260024,2024-03-30_11h06.14.545,mfe_c_object,2022.2.4,59.958940126237756,
flanker_main_block_6.csv,img/rightArrow.png,img/rightArrow.png,img/rightArrow.png,5,1,right,"[0, 0]","[0.0385, 0]","[-0.0385, 0]",img/object_images/floppy_disk03.jpg,"[0.035, 0.035]",,,,,,,,,,,,,0,1,1,5,0,8,8,15,,,,,,,,,,,,,,,3.9529058116232463,,,,,,,,,,,1,,,,,,,,,,,,,,594.0053561000386,594.0053561000386,594.0053561000386,594.0053561000386,594.0053561000386,594.2045966000296,594.3544072000077,598.101703900029,598.101703900029,598.101703900029,['k'],[0.4716585000278428],,,,,,,,,,,,,,,,,,,,,,,,,,,,,,,,,,,,,,,,,,,,,,,,,,,,,,,,260024,2024-03-30_11h06.14.545,mfe_c_object,2022.2.4,59.958940126237756,
flanker_main_block_6.csv,img/leftArrow.png,img/rightArrow.png,img/rightArrow.png,8,0,left,"[0, 0]","[0.0385, 0]","[-0.0385, 0]",img/object_images/pen03.jpg,"[0.035, 0.035]",,,,,,,,,,,,,0,1,1,5,0,9,9,26,,,,,,,,,,,,,,,3.770541082164329,,,,,,,,,,,1,,,,,,,,,,,,,,598.101703900029,598.101703900029,598.101703900029,598.101703900029,598.101703900029,598.3086675000377,598.4589005999733,602.0237689999631,602.0237689999631,602.0237689999631,['s'],[0.374966699979268],,,,,,,,,,,,,,,,,,,,,,,,,,,,,,,,,,,,,,,,,,,,,,,,,,,,,,,,260024,2024-03-30_11h06.14.545,mfe_c_object,2022.2.4,59.958940126237756,
flanker_main_block_6.csv,img/rightArrow.png,img/rightArrow.png,img/rightArrow.png,5,1,right,"[0, 0]","[0.0385, 0]","[-0.0385, 0]",img/object_images/compass01.jpg,"[0.035, 0.035]",,,,,,,,,,,,,0,1,1,5,0,10,10,8,,,,,,,,,,,,,,,3.592184368737475,,,,,,,,,,,1,,,,,,,,,,,,,,602.0237689999631,602.0237689999631,602.0237689999631,602.0237689999631,602.0237689999631,602.2292020999594,602.37930219993,605.7691315000411,605.7691315000411,605.7691315000411,['k'],[0.34109859995078295],,,,,,,,,,,,,,,,,,,,,,,,,,,,,,,,,,,,,,,,,,,,,,,,,,,,,,,,260024,2024-03-30_11h06.14.545,mfe_c_object,2022.2.4,59.958940126237756,
flanker_main_block_6.csv,img/rightArrow.png,img/leftArrow.png,img/leftArrow.png,7,0,right,"[0, 0]","[0.0385, 0]","[-0.0385, 0]",img/object_images/chair05.jpg,"[0.035, 0.035]",,,,,,,,,,,,,0,1,1,5,0,11,11,2,,,,,,,,,,,,,,,3.597194388777555,,,,,,,,,,,1,,,,,,,,,,,,,,605.7691315000411,605.7691315000411,605.7691315000411,605.7691315000411,605.7691315000411,605.9828886999749,606.1327446999494,609.5022414999548,609.5022414999548,609.5022414999548,['k'],[0.44337560003623366],,,,,,,,,,,,,,,,,,,,,,,,,,,,,,,,,,,,,,,,,,,,,,,,,,,,,,,,260024,2024-03-30_11h06.14.545,mfe_c_object,2022.2.4,59.958940126237756,
flanker_main_block_6.csv,img/leftArrow.png,img/leftArrow.png,img/leftArrow.png,6,1,left,"[0, 0]","[0.0385, 0]","[-0.0385, 0]",img/object_images/knit05.jpg,"[0.035, 0.035]",,,,,,,,,,,,,0,1,1,5,0,12,12,6,,,,,,,,,,,,,,,3.881763527054108,,,,,,,,,,,1,,,,,,,,,,,,,,609.5022414999548,609.5022414999548,609.5022414999548,609.5022414999548,609.5022414999548,609.7035347999772,609.8533070000121,613.5203454999719,613.5203454999719,613.5203454999719,['s'],[0.4467449999647215],,,,,,,,,,,,,,,,,,,,,,,,,,,,,,,,,,,,,,,,,,,,,,,,,,,,,,,,260024,2024-03-30_11h06.14.545,mfe_c_object,2022.2.4,59.958940126237756,
flanker_main_block_6.csv,img/rightArrow.png,img/rightArrow.png,img/rightArrow.png,5,1,right,"[0, 0]","[0.0385, 0]","[-0.0385, 0]",img/object_images/lid01.jpg,"[0.035, 0.035]",,,,,,,,,,,,,0,1,1,5,0,13,13,23,,,,,,,,,,,,,,,3.601202404809619,,,,,,,,,,,1,,,,,,,,,,,,,,613.5203454999719,613.5203454999719,613.5203454999719,613.5203454999719,613.5203454999719,613.723979900009,613.8740582999308,617.2533309999853,617.2533309999853,617.2533309999853,['k'],[0.37232339999172837],,,,,,,,,,,,,,,,,,,,,,,,,,,,,,,,,,,,,,,,,,,,,,,,,,,,,,,,260024,2024-03-30_11h06.14.545,mfe_c_object,2022.2.4,59.958940126237756,
flanker_main_block_6.csv,img/rightArrow.png,img/leftArrow.png,img/leftArrow.png,7,0,right,"[0, 0]","[0.0385, 0]","[-0.0385, 0]",img/object_images/crutches02.jpg,"[0.035, 0.035]",,,,,,,,,,,,,0,1,1,5,0,14,14,0,,,,,,,,,,,,,,,3.741482965931864,,,,,,,,,,,1,,,,,,,,,,,,,,617.2533309999853,617.2533309999853,617.2595105000073,617.2533309999853,617.2533309999853,617.4609723000322,617.6109769999748,621.1254755000118,621.1254755000118,621.1254755000118,['k'],[0.462770999991335],,,,,,,,,,,,,,,,,,,,,,,,,,,,,,,,,,,,,,,,,,,,,,,,,,,,,,,,260024,2024-03-30_11h06.14.545,mfe_c_object,2022.2.4,59.958940126237756,
flanker_main_block_6.csv,img/leftArrow.png,img/leftArrow.png,img/leftArrow.png,6,1,left,"[0, 0]","[0.0385, 0]","[-0.0385, 0]",img/object_images/pillows01.jpg,"[0.035, 0.035]",,,,,,,,,,,,,0,1,1,5,0,15,15,3,,,,,,,,,,,,,,,3.8166332665330662,,,,,,,,,,,1,,,,,,,,,,,,,,621.1254755000118,621.1254755000118,621.1315682999557,621.1254755000118,621.1254755000118,621.3315181999933,621.4815445999848,625.0781707999995,625.0781707999995,625.0781707999995,['s'],[0.39934300002641976],,,,,,,,,,,,,,,,,,,,,,,,,,,,,,,,,,,,,,,,,,,,,,,,,,,,,,,,260024,2024-03-30_11h06.14.545,mfe_c_object,2022.2.4,59.958940126237756,
flanker_main_block_6.csv,img/rightArrow.png,img/leftArrow.png,img/leftArrow.png,7,0,right,"[0, 0]","[0.0385, 0]","[-0.0385, 0]",img/object_images/floppy_disk02.jpg,"[0.035, 0.035]",,,,,,,,,,,,,0,1,1,5,0,16,16,12,,,,,,,,,,,,,,,3.8577154308617234,,,,,,,,,,,1,,,,,,,,,,,,,,625.0781707999995,625.0781707999995,625.0847626000177,625.0781707999995,625.0781707999995,625.2855574999703,625.4353673999431,629.0846097000176,629.0846097000176,629.0846097000176,['k'],[0.46233250002842396],,,,,,,,,,,,,,,,,,,,,,,,,,,,,,,,,,,,,,,,,,,,,,,,,,,,,,,,260024,2024-03-30_11h06.14.545,mfe_c_object,2022.2.4,59.958940126237756,
flanker_main_block_6.csv,img/rightArrow.png,img/rightArrow.png,img/rightArrow.png,5,1,right,"[0, 0]","[0.0385, 0]","[-0.0385, 0]",img/object_images/Staples01.jpg,"[0.035, 0.035]",,,,,,,,,,,,,0,1,1,5,0,17,17,29,,,,,,,,,,,,,,,3.6663326653306614,,,,,,,,,,,1,,,,,,,,,,,,,,629.0846097000176,629.0846097000176,629.0846097000176,629.0846097000176,629.0846097000176,629.2894799000351,629.4395777999889,632.8874016000191,632.8874016000191,632.8874016000191,['k'],[0.4077973000239581],,,,,,,,,,,,,,,,,,,,,,,,,,,,,,,,,,,,,,,,,,,,,,,,,,,,,,,,260024,2024-03-30_11h06.14.545,mfe_c_object,2022.2.4,59.958940126237756,
flanker_main_block_6.csv,img/leftArrow.png,img/rightArrow.png,img/rightArrow.png,8,0,left,"[0, 0]","[0.0385, 0]","[-0.0385, 0]",img/object_images/clip03.jpg,"[0.035, 0.035]",,,,,,,,,,,,,0,1,1,5,0,18,18,31,,,,,,,,,,,,,,,3.6122244488977957,,,,,,,,,,,1,,,,,,,,,,,,,,632.8874016000191,632.8874016000191,632.8935245999601,632.8874016000191,632.8874016000191,633.0932448999956,633.243182700011,636.6408008999424,636.6408008999424,636.6408008999424,['s'],[0.41356110002379864],,,,,,,,,,,,,,,,,,,,,,,,,,,,,,,,,,,,,,,,,,,,,,,,,,,,,,,,260024,2024-03-30_11h06.14.545,mfe_c_object,2022.2.4,59.958940126237756,
flanker_main_block_6.csv,img/leftArrow.png,img/leftArrow.png,img/leftArrow.png,6,1,left,"[0, 0]","[0.0385, 0]","[-0.0385, 0]",img/object_images/chess_piece02.jpg,"[0.035, 0.035]",,,,,,,,,,,,,0,1,1,5,0,19,19,9,,,,,,,,,,,,,,,3.6543086172344688,,,,,,,,,,,1,,,,,,,,,,,,,,636.6408008999424,636.6408008999424,636.6467616000446,636.6408008999424,636.6408008999424,636.8469400999602,636.9967955999309,640.4761108999373,640.4761108999373,640.4761108999373,['s'],[0.4362866999581456],,,,,,,,,,,,,,,,,,,,,,,,,,,,,,,,,,,,,,,,,,,,,,,,,,,,,,,,260024,2024-03-30_11h06.14.545,mfe_c_object,2022.2.4,59.958940126237756,
flanker_main_block_6.csv,img/rightArrow.png,img/leftArrow.png,img/leftArrow.png,7,0,right,"[0, 0]","[0.0385, 0]","[-0.0385, 0]",img/object_images/microscope01.jpg,"[0.035, 0.035]",,,,,,,,,,,,,0,1,1,5,0,20,20,16,,,,,,,,,,,,,,,3.879759519038076,,,,,,,,,,,1,,,,,,,,,,,,,,640.4761108999373,640.4761108999373,640.4761108999373,640.4761108999373,640.4761108999373,640.6842882999917,640.8340164000401,644.498338400037,644.498338400037,644.498338400037,['k'],[0.416411199956201],,,,,,,,,,,,,,,,,,,,,,,,,,,,,,,,,,,,,,,,,,,,,,,,,,,,,,,,260024,2024-03-30_11h06.14.545,mfe_c_object,2022.2.4,59.958940126237756,
flanker_main_block_6.csv,img/leftArrow.png,img/leftArrow.png,img/leftArrow.png,6,1,left,"[0, 0]","[0.0385, 0]","[-0.0385, 0]",img/object_images/knife04.jpg,"[0.035, 0.035]",,,,,,,,,,,,,0,1,1,5,0,21,21,27,,,,,,,,,,,,,,,3.5450901803607215,,,,,,,,,,,1,,,,,,,,,,,,,,644.498338400037,644.498338400037,644.5046797000105,644.498338400037,644.498338400037,644.7049750000006,644.854620099999,648.1897726999596,648.1897726999596,648.1897726999596,['s'],[0.34658599994145334],,,,,,,,,,,,,,,,,,,,,,,,,,,,,,,,,,,,,,,,,,,,,,,,,,,,,,,,260024,2024-03-30_11h06.14.545,mfe_c_object,2022.2.4,59.958940126237756,
flanker_main_block_6.csv,img/rightArrow.png,img/rightArrow.png,img/rightArrow.png,5,1,right,"[0, 0]","[0.0385, 0]","[-0.0385, 0]",img/object_images/wire02.jpg,"[0.035, 0.035]",,,,,,,,,,,,,0,1,1,5,0,22,22,21,,,,,,,,,,,,,,,3.5601202404809618,,,,,,,,,,,1,,,,,,,,,,,,,,648.1897726999596,648.1897726999596,648.1897726999596,648.1897726999596,648.1897726999596,648.3917521999683,648.5416231999407,651.9006983999861,651.9006983999861,651.9006983999861,['k'],[0.5038540000095963],,,,,,,,,,,,,,,,,,,,,,,,,,,,,,,,,,,,,,,,,,,,,,,,,,,,,,,,260024,2024-03-30_11h06.14.545,mfe_c_object,2022.2.4,59.958940126237756,
flanker_main_block_6.csv,img/leftArrow.png,img/rightArrow.png,img/rightArrow.png,8,0,left,"[0, 0]","[0.0385, 0]","[-0.0385, 0]",img/object_images/usb02.jpg,"[0.035, 0.035]",,,,,,,,,,,,,0,1,1,5,0,23,23,25,,,,,,,,,,,,,,,3.6342685370741483,,,,,,,,,,,1,,,,,,,,,,,,,,651.9006983999861,651.9006983999861,651.9006983999861,651.9006983999861,651.9006983999861,652.1123923000414,652.2619869000046,655.6762939000037,655.6762939000037,655.6762939000037,['s'],[0.4479046000633389],,,,,,,,,,,,,,,,,,,,,,,,,,,,,,,,,,,,,,,,,,,,,,,,,,,,,,,,260024,2024-03-30_11h06.14.545,mfe_c_object,2022.2.4,59.958940126237756,
flanker_main_block_6.csv,img/leftArrow.png,img/rightArrow.png,img/rightArrow.png,8,0,left,"[0, 0]","[0.0385, 0]","[-0.0385, 0]",img/object_images/pitcher01.jpg,"[0.035, 0.035]",,,,,,,,,,,,,0,1,1,5,0,24,24,4,,,,,,,,,,,,,,,3.8286573146292584,,,,,,,,,,,1,,,,,,,,,,,,,,655.6762939000037,655.6762939000037,655.6825398999499,655.6762939000037,655.6762939000037,655.8826506999321,656.0324222999625,659.647506600013,659.647506600013,659.647506600013,['s'],[0.5047702000010759],,,,,,,,,,,,,,,,,,,,,,,,,,,,,,,,,,,,,,,,,,,,,,,,,,,,,,,,260024,2024-03-30_11h06.14.545,mfe_c_object,2022.2.4,59.958940126237756,
flanker_main_block_6.csv,img/leftArrow.png,img/leftArrow.png,img/leftArrow.png,6,1,left,"[0, 0]","[0.0385, 0]","[-0.0385, 0]",img/object_images/cellphone01.jpg,"[0.035, 0.035]",,,,,,,,,,,,,0,1,1,5,0,25,25,20,,,,,,,,,,,,,,,3.5551102204408815,,,,,,,,,,,1,,,,,,,,,,,,,,659.647506600013,659.647506600013,659.6535289000021,659.647506600013,659.647506600013,659.8533024999779,660.003282199963,663.3385868000332,663.3385868000332,663.3385868000332,['s'],[0.3974867999786511],,,,,,,,,,,,,,,,,,,,,,,,,,,,,,,,,,,,,,,,,,,,,,,,,,,,,,,,260024,2024-03-30_11h06.14.545,mfe_c_object,2022.2.4,59.958940126237756,
flanker_main_block_6.csv,img/leftArrow.png,img/leftArrow.png,img/leftArrow.png,6,1,left,"[0, 0]","[0.0385, 0]","[-0.0385, 0]",img/object_images/tennis_racket02.jpg,"[0.035, 0.035]",,,,,,,,,,,,,0,1,1,5,0,26,26,10,,,,,,,,,,,,,,,3.8567134268537075,,,,,,,,,,,1,,,,,,,,,,,,,,663.3385868000332,663.3385868000332,663.3385868000332,663.3385868000332,663.3385868000332,663.5403076999355,663.690307199955,667.3406461999984,667.3406461999984,667.3406461999984,['s'],[0.37786120001692325],,,,,,,,,,,,,,,,,,,,,,,,,,,,,,,,,,,,,,,,,,,,,,,,,,,,,,,,260024,2024-03-30_11h06.14.545,mfe_c_object,2022.2.4,59.958940126237756,
flanker_main_block_6.csv,img/rightArrow.png,img/rightArrow.png,img/rightArrow.png,5,1,right,"[0, 0]","[0.0385, 0]","[-0.0385, 0]",img/object_images/motorcycle01.jpg,"[0.035, 0.035]",,,,,,,,,,,,,0,1,1,5,0,27,27,17,,,,,,,,,,,,,,,3.788577154308617,,,,,,,,,,,1,,,,,,,,,,,,,,667.3406461999984,667.3406461999984,667.3406461999984,667.3406461999984,667.3406461999984,667.5443205999909,667.6941048000008,671.2694410999538,671.2694410999538,671.2694410999538,['k'],[0.4077347000129521],,,,,,,,,,,,,,,,,,,,,,,,,,,,,,,,,,,,,,,,,,,,,,,,,,,,,,,,260024,2024-03-30_11h06.14.545,mfe_c_object,2022.2.4,59.958940126237756,
flanker_main_block_6.csv,img/leftArrow.png,img/rightArrow.png,img/rightArrow.png,8,0,left,"[0, 0]","[0.0385, 0]","[-0.0385, 0]",img/object_images/tv02.jpg,"[0.035, 0.035]",,,,,,,,,,,,,0,1,1,5,0,28,28,18,,,,,,,,,,,,,,,3.8847695390781563,,,,,,,,,,,1,,,,,,,,,,,,,,671.2694410999538,671.2694410999538,671.2694410999538,671.2694410999538,671.2694410999538,671.48155269993,671.6315033000428,675.2962679000339,675.2962679000339,675.2962679000339,['s'],[0.4306053000036627],,,,,,,,,,,,,,,,,,,,,,,,,,,,,,,,,,,,,,,,,,,,,,,,,,,,,,,,260024,2024-03-30_11h06.14.545,mfe_c_object,2022.2.4,59.958940126237756,
flanker_main_block_6.csv,img/rightArrow.png,img/leftArrow.png,img/leftArrow.png,7,0,right,"[0, 0]","[0.0385, 0]","[-0.0385, 0]",img/object_images/retainer01.jpg,"[0.035, 0.035]",,,,,,,,,,,,,0,1,1,5,0,29,29,22,,,,,,,,,,,,,,,3.844689378757515,,,,,,,,,,,1,,,,,,,,,,,,,,675.2962679000339,675.2962679000339,675.3032094000373,675.2962679000339,675.2962679000339,675.5189026000444,675.6521194999805,679.2823561000405,679.2823561000405,679.2823561000405,['k'],[0.42855109996162355],,,,,,,,,,,,,,,,,,,,,,,,,,,,,,,,,,,,,,,,,,,,,,,,,,,,,,,,260024,2024-03-30_11h06.14.545,mfe_c_object,2022.2.4,59.958940126237756,
flanker_main_block_6.csv,img/rightArrow.png,img/rightArrow.png,img/rightArrow.png,5,1,right,"[0, 0]","[0.0385, 0]","[-0.0385, 0]",img/object_images/ear_bud01.jpg,"[0.035, 0.035]",,,,,,,,,,,,,0,1,1,5,0,30,30,19,,,,,,,,,,,,,,,3.713426853707415,,,,,,,,,,,1,,,,,,,,,,,,,,679.2823561000405,679.2823561000405,679.2887302000308,679.2823561000405,679.2823561000405,679.4894450999564,679.639476899989,683.1376229999587,683.1376229999587,683.1376229999587,['k'],[0.38625059998594224],,,,,,,,,,,,,,,,,,,,,,,,,,,,,,,,,,,,,,,,,,,,,,,,,,,,,,,,260024,2024-03-30_11h06.14.545,mfe_c_object,2022.2.4,59.958940126237756,
flanker_main_block_6.csv,img/rightArrow.png,img/leftArrow.png,img/leftArrow.png,7,0,right,"[0, 0]","[0.0385, 0]","[-0.0385, 0]",img/object_images/bottle01.jpg,"[0.035, 0.035]",,,,,,,,,,,,,0,1,1,5,0,31,31,28,,,,,,,,,,,,,,,3.8657314629258517,,,,,,,,,,,1,,,,,,,,,,,,,,683.1376229999587,683.1376229999587,683.1435619000113,683.1376229999587,683.1376229999587,683.343352099997,683.4931940999813,687.0125879000407,687.0125879000407,687.0125879000407,['k'],[0.4592614999273792],,,,,,,,,,,,,,,,,,,,,,,,,,,,,,,,,,,,,,,,,,,,,,,,,,,,,,,,260024,2024-03-30_11h06.14.545,mfe_c_object,2022.2.4,59.958940126237756,
flanker_main_block_6.csv,,,,,,,,,,,,,,,,,,,,,,,,0,1,1,5,,,,,,,,,,,,,,,,,,,,,,,,,,,,,,,,,,,,,,,,,,,,,,,,,,,,,,,,2,687.0125879000407,697.0056698999833,k,0.42252050002571195,,,,,,,,,,,,,,,,,,,,,,,,,,,,,,,,,,,,,,,,,,,,,,,,,,,260024,2024-03-30_11h06.14.545,mfe_c_object,2022.2.4,59.958940126237756,
flanker_main_block_3.csv,img/rightArrow.png,img/rightArrow.png,img/rightArrow.png,5,1,right,"[0, 0]","[0.0385, 0]","[-0.0385, 0]",img/object_images/pan03.jpg,"[0.035, 0.035]",,,,,,,,,,,,,0,2,2,2,0,0,0,14,,,,,,,,,,,,,,703.050988300005,3.656312625250501,,,,,,,,,,,1,,,,,,,,,,697.4564649999375,697.4564649999375,k,5.564193399972282,705.2221154000144,705.2221154000144,705.2221154000144,705.2221154000144,705.2221154000144,705.4319294999586,705.5819485000102,709.0100710999686,709.0100710999686,709.0100710999686,['k'],[0.4384641000069678],,,,,,,,,,,,,,,,,,,,,,,,,,,,,,,,,,,,,,,,,,,,,,,,,,,,,,,,260024,2024-03-30_11h06.14.545,mfe_c_object,2022.2.4,59.958940126237756,
flanker_main_block_3.csv,img/leftArrow.png,img/rightArrow.png,img/rightArrow.png,8,0,left,"[0, 0]","[0.0385, 0]","[-0.0385, 0]",img/object_images/tool20.jpg,"[0.035, 0.035]",,,,,,,,,,,,,0,2,2,2,0,1,1,19,,,,,,,,,,,,,,,3.8026052104208414,,,,,,,,,,,1,,,,,,,,,,,,,,709.0100710999686,709.0100710999686,709.0160779999569,709.0100710999686,709.0100710999686,709.2191033000126,709.3691089999629,712.9493997000391,712.9493997000391,712.9493997000391,['s'],[0.5226466000312939],,,,,,,,,,,,,,,,,,,,,,,,,,,,,,,,,,,,,,,,,,,,,,,,,,,,,,,,260024,2024-03-30_11h06.14.545,mfe_c_object,2022.2.4,59.958940126237756,
flanker_main_block_3.csv,img/rightArrow.png,img/leftArrow.png,img/leftArrow.png,7,0,right,"[0, 0]","[0.0385, 0]","[-0.0385, 0]",img/object_images/spray_can01.jpg,"[0.035, 0.035]",,,,,,,,,,,,,0,2,2,2,0,2,2,23,,,,,,,,,,,,,,,3.729458917835671,,,,,,,,,,,1,,,,,,,,,,,,,,712.9493997000391,712.9493997000391,712.9557690999936,712.9493997000391,712.9493997000391,713.1563088999828,713.3064904999919,716.8190487000393,716.8190487000393,716.8190487000393,['k'],[0.398417399963364],,,,,,,,,,,,,,,,,,,,,,,,,,,,,,,,,,,,,,,,,,,,,,,,,,,,,,,,260024,2024-03-30_11h06.14.545,mfe_c_object,2022.2.4,59.958940126237756,
flanker_main_block_3.csv,img/leftArrow.png,img/rightArrow.png,img/rightArrow.png,8,0,left,"[0, 0]","[0.0385, 0]","[-0.0385, 0]",img/object_images/candle02.jpg,"[0.035, 0.035]",,,,,,,,,,,,,0,2,2,2,0,3,3,11,,,,,,,,,,,,,,,3.5400801603206413,,,,,,,,,,,1,,,,,,,,,,,,,,716.8190487000393,716.8190487000393,716.8253604000201,716.8190487000393,716.8190487000393,717.0269356999779,717.1769361000042,720.4913540999405,720.4913540999405,720.4913540999405,['s'],[0.38556329999119043],,,,,,,,,,,,,,,,,,,,,,,,,,,,,,,,,,,,,,,,,,,,,,,,,,,,,,,,260024,2024-03-30_11h06.14.545,mfe_c_object,2022.2.4,59.958940126237756,
flanker_main_block_3.csv,img/leftArrow.png,img/rightArrow.png,img/rightArrow.png,8,0,left,"[0, 0]","[0.0385, 0]","[-0.0385, 0]",img/object_images/hammer02.jpg,"[0.035, 0.035]",,,,,,,,,,,,,0,2,2,2,0,4,4,7,,,,,,,,,,,,,,,3.528056112224449,,,,,,,,,,,1,,,,,,,,,,,,,,720.4913540999405,720.4913540999405,720.4976434999844,720.4913540999405,720.4913540999405,720.6972302999347,720.8470847000135,724.1741740000434,724.1741740000434,724.1741740000434,['s'],[0.4894035999896005],,,,,,,,,,,,,,,,,,,,,,,,,,,,,,,,,,,,,,,,,,,,,,,,,,,,,,,,260024,2024-03-30_11h06.14.545,mfe_c_object,2022.2.4,59.958940126237756,
flanker_main_block_3.csv,img/rightArrow.png,img/leftArrow.png,img/leftArrow.png,7,0,right,"[0, 0]","[0.0385, 0]","[-0.0385, 0]",img/object_images/pen06.jpg,"[0.035, 0.035]",,,,,,,,,,,,,0,2,2,2,0,5,5,15,,,,,,,,,,,,,,,3.730460921843687,,,,,,,,,,,1,,,,,,,,,,,,,,724.1741740000434,724.1741740000434,724.1741740000434,724.1741740000434,724.1741740000434,724.3841908000177,724.5341510999715,728.0320324000204,728.0320324000204,728.0320324000204,['k'],[0.47851829999126494],,,,,,,,,,,,,,,,,,,,,,,,,,,,,,,,,,,,,,,,,,,,,,,,,,,,,,,,260024,2024-03-30_11h06.14.545,mfe_c_object,2022.2.4,59.958940126237756,
flanker_main_block_3.csv,img/leftArrow.png,img/leftArrow.png,img/leftArrow.png,6,1,left,"[0, 0]","[0.0385, 0]","[-0.0385, 0]",img/object_images/floss01.jpg,"[0.035, 0.035]",,,,,,,,,,,,,0,2,2,2,0,6,6,20,,,,,,,,,,,,,,,3.6743486973947896,,,,,,,,,,,1,,,,,,,,,,,,,,728.0320324000204,728.0320324000204,728.0380126000382,728.0320324000204,728.0320324000204,728.238233699929,728.3881973000243,731.8369291999843,731.8369291999843,731.8369291999843,['s'],[0.3486644000513479],,,,,,,,,,,,,,,,,,,,,,,,,,,,,,,,,,,,,,,,,,,,,,,,,,,,,,,,260024,2024-03-30_11h06.14.545,mfe_c_object,2022.2.4,59.958940126237756,
flanker_main_block_3.csv,img/rightArrow.png,img/rightArrow.png,img/rightArrow.png,5,1,right,"[0, 0]","[0.0385, 0]","[-0.0385, 0]",img/object_images/office_supplies01.jpg,"[0.035, 0.035]",,,,,,,,,,,,,0,2,2,2,0,7,7,5,,,,,,,,,,,,,,,3.5210420841683367,,,,,,,,,,,1,,,,,,,,,,,,,,731.8369291999843,731.8369291999843,731.8431809999747,731.8369291999843,731.8369291999843,732.0585850999923,732.1917410999304,735.4898440999677,735.4898440999677,735.4898440999677,['k'],[0.3437970000086352],,,,,,,,,,,,,,,,,,,,,,,,,,,,,,,,,,,,,,,,,,,,,,,,,,,,,,,,260024,2024-03-30_11h06.14.545,mfe_c_object,2022.2.4,59.958940126237756,
flanker_main_block_3.csv,img/rightArrow.png,img/leftArrow.png,img/leftArrow.png,7,0,right,"[0, 0]","[0.0385, 0]","[-0.0385, 0]",img/object_images/cup01.jpg,"[0.035, 0.035]",,,,,,,,,,,,,0,2,2,2,0,8,8,2,,,,,,,,,,,,,,,3.571142284569138,,,,,,,,,,,1,,,,,,,,,,,,,,735.4898440999677,735.4898440999677,735.4964353999821,735.4898440999677,735.4898440999677,735.6955435000127,735.8453413000097,739.196060199989,739.196060199989,739.196060199989,['k'],[0.5708348999032751],,,,,,,,,,,,,,,,,,,,,,,,,,,,,,,,,,,,,,,,,,,,,,,,,,,,,,,,260024,2024-03-30_11h06.14.545,mfe_c_object,2022.2.4,59.958940126237756,
flanker_main_block_3.csv,img/leftArrow.png,img/rightArrow.png,img/rightArrow.png,8,0,left,"[0, 0]","[0.0385, 0]","[-0.0385, 0]",img/object_images/bag04.jpg,"[0.035, 0.035]",,,,,,,,,,,,,0,2,2,2,0,9,9,27,,,,,,,,,,,,,,,3.7925851703406814,,,,,,,,,,,1,,,,,,,,,,,,,,739.196060199989,739.196060199989,739.196060199989,739.196060199989,739.196060199989,739.3993165999418,739.5491231000051,743.1332271000138,743.1332271000138,743.1332271000138,['s'],[0.44032050005625933],,,,,,,,,,,,,,,,,,,,,,,,,,,,,,,,,,,,,,,,,,,,,,,,,,,,,,,,260024,2024-03-30_11h06.14.545,mfe_c_object,2022.2.4,59.958940126237756,
flanker_main_block_3.csv,img/rightArrow.png,img/leftArrow.png,img/leftArrow.png,7,0,right,"[0, 0]","[0.0385, 0]","[-0.0385, 0]",img/object_images/sink_filter01 (1).jpg,"[0.035, 0.035]",,,,,,,,,,,,,0,2,2,2,0,10,10,0,,,,,,,,,,,,,,,3.963927855711423,,,,,,,,,,,1,,,,,,,,,,,,,,743.1332271000138,743.1332271000138,743.1332271000138,743.1332271000138,743.1332271000138,743.3365303999744,743.4863755999831,747.2353503999766,747.2353503999766,747.2353503999766,['k'],[0.4464867999777198],,,,,,,,,,,,,,,,,,,,,,,,,,,,,,,,,,,,,,,,,,,,,,,,,,,,,,,,260024,2024-03-30_11h06.14.545,mfe_c_object,2022.2.4,59.958940126237756,
flanker_main_block_3.csv,img/leftArrow.png,img/leftArrow.png,img/leftArrow.png,6,1,left,"[0, 0]","[0.0385, 0]","[-0.0385, 0]",img/object_images/board01.jpg,"[0.035, 0.035]",,,,,,,,,,,,,0,2,2,2,0,11,11,18,,,,,,,,,,,,,,,3.6042084168336674,,,,,,,,,,,1,,,,,,,,,,,,,,747.2353503999766,747.2353503999766,747.2416039999807,747.2353503999766,747.2353503999766,747.4573037000373,747.5903919000411,750.9774399999296,750.9774399999296,750.9774399999296,['s'],[0.34456749993842095],,,,,,,,,,,,,,,,,,,,,,,,,,,,,,,,,,,,,,,,,,,,,,,,,,,,,,,,260024,2024-03-30_11h06.14.545,mfe_c_object,2022.2.4,59.958940126237756,
flanker_main_block_3.csv,img/rightArrow.png,img/leftArrow.png,img/leftArrow.png,7,0,right,"[0, 0]","[0.0385, 0]","[-0.0385, 0]",img/object_images/camera05.jpg,"[0.035, 0.035]",,,,,,,,,,,,,0,2,2,2,0,12,12,13,,,,,,,,,,,,,,,3.758517034068136,,,,,,,,,,,1,,,,,,,,,,,,,,750.9774399999296,750.9774399999296,750.9774399999296,750.9774399999296,750.9774399999296,751.177825700026,751.3276225000154,754.8739035000326,754.8739035000326,754.8739035000326,['k'],[0.41045339999254793],,,,,,,,,,,,,,,,,,,,,,,,,,,,,,,,,,,,,,,,,,,,,,,,,,,,,,,,260024,2024-03-30_11h06.14.545,mfe_c_object,2022.2.4,59.958940126237756,
flanker_main_block_3.csv,img/leftArrow.png,img/leftArrow.png,img/leftArrow.png,6,1,left,"[0, 0]","[0.0385, 0]","[-0.0385, 0]",img/object_images/video_game02.jpg,"[0.035, 0.035]",,,,,,,,,,,,,0,2,2,2,0,13,13,17,,,,,,,,,,,,,,,3.6072144288577155,,,,,,,,,,,1,,,,,,,,,,,,,,754.8739035000326,754.8739035000326,754.880281199934,754.8739035000326,754.8739035000326,755.0816995999776,755.231396600022,758.6388606999535,758.6388606999535,758.6388606999535,['s'],[0.4978146000066772],,,,,,,,,,,,,,,,,,,,,,,,,,,,,,,,,,,,,,,,,,,,,,,,,,,,,,,,260024,2024-03-30_11h06.14.545,mfe_c_object,2022.2.4,59.958940126237756,
flanker_main_block_3.csv,img/leftArrow.png,img/leftArrow.png,img/leftArrow.png,6,1,left,"[0, 0]","[0.0385, 0]","[-0.0385, 0]",img/object_images/razor02.jpg,"[0.035, 0.035]",,,,,,,,,,,,,0,2,2,2,0,14,14,26,,,,,,,,,,,,,,,3.751503006012024,,,,,,,,,,,1,,,,,,,,,,,,,,758.6388606999535,758.6388606999535,758.6388606999535,758.6388606999535,758.6388606999535,758.8519338000333,759.0019257999957,762.5363100999966,762.5363100999966,762.5363100999966,['s'],[0.5097251998959109],,,,,,,,,,,,,,,,,,,,,,,,,,,,,,,,,,,,,,,,,,,,,,,,,,,,,,,,260024,2024-03-30_11h06.14.545,mfe_c_object,2022.2.4,59.958940126237756,
flanker_main_block_3.csv,img/leftArrow.png,img/leftArrow.png,img/leftArrow.png,6,1,left,"[0, 0]","[0.0385, 0]","[-0.0385, 0]",img/object_images/hat13.jpg,"[0.035, 0.035]",,,,,,,,,,,,,0,2,2,2,0,15,15,1,,,,,,,,,,,,,,,3.907815631262525,,,,,,,,,,,1,,,,,,,,,,,,,,762.5363100999966,762.5363100999966,762.5363100999966,762.5363100999966,762.5363100999966,762.7392856000224,762.8892376000294,766.6014646999538,766.6014646999538,766.6014646999538,['s'],[0.45306329999584705],,,,,,,,,,,,,,,,,,,,,,,,,,,,,,,,,,,,,,,,,,,,,,,,,,,,,,,,260024,2024-03-30_11h06.14.545,mfe_c_object,2022.2.4,59.958940126237756,
flanker_main_block_3.csv,img/leftArrow.png,img/leftArrow.png,img/leftArrow.png,6,1,left,"[0, 0]","[0.0385, 0]","[-0.0385, 0]",img/object_images/clipboard01.jpg,"[0.035, 0.035]",,,,,,,,,,,,,0,2,2,2,0,16,16,24,,,,,,,,,,,,,,,3.672344689378758,,,,,,,,,,,1,,,,,,,,,,,,,,766.6014646999538,766.6014646999538,766.6077889000298,766.6014646999538,766.6014646999538,766.8099303999916,766.9598182999762,770.4098072999623,770.4098072999623,770.4098072999623,['s'],[0.33872899995185435],,,,,,,,,,,,,,,,,,,,,,,,,,,,,,,,,,,,,,,,,,,,,,,,,,,,,,,,260024,2024-03-30_11h06.14.545,mfe_c_object,2022.2.4,59.958940126237756,
flanker_main_block_3.csv,img/rightArrow.png,img/rightArrow.png,img/rightArrow.png,5,1,right,"[0, 0]","[0.0385, 0]","[-0.0385, 0]",img/object_images/socks01.jpg,"[0.035, 0.035]",,,,,,,,,,,,,0,2,2,2,0,17,17,10,,,,,,,,,,,,,,,3.911823647294589,,,,,,,,,,,1,,,,,,,,,,,,,,770.4098072999623,770.4098072999623,770.4098072999623,770.4098072999623,770.4098072999623,770.6137320999987,770.7636844000081,774.4647948000347,774.4647948000347,774.4647948000347,['k'],[0.34598610003013164],,,,,,,,,,,,,,,,,,,,,,,,,,,,,,,,,,,,,,,,,,,,,,,,,,,,,,,,260024,2024-03-30_11h06.14.545,mfe_c_object,2022.2.4,59.958940126237756,
flanker_main_block_3.csv,img/rightArrow.png,img/leftArrow.png,img/leftArrow.png,7,0,right,"[0, 0]","[0.0385, 0]","[-0.0385, 0]",img/object_images/duster01.jpg,"[0.035, 0.035]",,,,,,,,,,,,,0,2,2,2,0,18,18,3,,,,,,,,,,,,,,,3.960921843687375,,,,,,,,,,,1,,,,,,,,,,,,,,774.4647948000347,774.4647948000347,774.4647948000347,774.4647948000347,774.4647948000347,774.6677155999932,774.8174825999886,778.5695519000292,778.5695519000292,778.5695519000292,['k'],[0.4602741999551654],,,,,,,,,,,,,,,,,,,,,,,,,,,,,,,,,,,,,,,,,,,,,,,,,,,,,,,,260024,2024-03-30_11h06.14.545,mfe_c_object,2022.2.4,59.958940126237756,
flanker_main_block_3.csv,img/rightArrow.png,img/rightArrow.png,img/rightArrow.png,5,1,right,"[0, 0]","[0.0385, 0]","[-0.0385, 0]",img/object_images/knife01.jpg,"[0.035, 0.035]",,,,,,,,,,,,,0,2,2,2,0,19,19,30,,,,,,,,,,,,,,,3.623246492985972,,,,,,,,,,,1,,,,,,,,,,,,,,778.5695519000292,778.5695519000292,778.5695519000292,778.5695519000292,778.5695519000292,778.7719340999611,778.9217224000022,782.3364464000333,782.3364464000333,782.3364464000333,['k'],[0.44230070000048727],,,,,,,,,,,,,,,,,,,,,,,,,,,,,,,,,,,,,,,,,,,,,,,,,,,,,,,,260024,2024-03-30_11h06.14.545,mfe_c_object,2022.2.4,59.958940126237756,
flanker_main_block_3.csv,img/rightArrow.png,img/leftArrow.png,img/leftArrow.png,7,0,right,"[0, 0]","[0.0385, 0]","[-0.0385, 0]",img/object_images/hat09.jpg,"[0.035, 0.035]",,,,,,,,,,,,,0,2,2,2,0,20,20,4,,,,,,,,,,,,,,,3.765531062124248,,,,,,,,,,,1,,,,,,,,,,,,,,782.3364464000333,782.3364464000333,782.3424435999477,782.3364464000333,782.3364464000333,782.5422050999478,782.6921282999683,786.239576300024,786.239576300024,786.239576300024,['k'],[0.46824860002379864],,,,,,,,,,,,,,,,,,,,,,,,,,,,,,,,,,,,,,,,,,,,,,,,,,,,,,,,260024,2024-03-30_11h06.14.545,mfe_c_object,2022.2.4,59.958940126237756,
flanker_main_block_3.csv,img/leftArrow.png,img/rightArrow.png,img/rightArrow.png,8,0,left,"[0, 0]","[0.0385, 0]","[-0.0385, 0]",img/object_images/glasses03.jpg,"[0.035, 0.035]",,,,,,,,,,,,,0,2,2,2,0,21,21,31,,,,,,,,,,,,,,,3.81062124248497,,,,,,,,,,,1,,,,,,,,,,,,,,786.239576300024,786.239576300024,786.2457974000135,786.239576300024,786.239576300024,786.4461098000174,786.595961199957,790.1938592999941,790.1938592999941,790.1938592999941,['s'],[0.42879150004591793],,,,,,,,,,,,,,,,,,,,,,,,,,,,,,,,,,,,,,,,,,,,,,,,,,,,,,,,260024,2024-03-30_11h06.14.545,mfe_c_object,2022.2.4,59.958940126237756,
flanker_main_block_3.csv,img/rightArrow.png,img/rightArrow.png,img/rightArrow.png,5,1,right,"[0, 0]","[0.0385, 0]","[-0.0385, 0]",img/object_images/bow_tie03.jpg,"[0.035, 0.035]",,,,,,,,,,,,,0,2,2,2,0,22,22,29,,,,,,,,,,,,,,,3.6803607214428857,,,,,,,,,,,1,,,,,,,,,,,,,,790.1938592999941,790.1938592999941,790.1938592999941,790.1938592999941,790.1938592999941,790.400171599933,790.5503643000266,794.0140842000255,794.0140842000255,794.0140842000255,['k'],[0.35444080003071576],,,,,,,,,,,,,,,,,,,,,,,,,,,,,,,,,,,,,,,,,,,,,,,,,,,,,,,,260024,2024-03-30_11h06.14.545,mfe_c_object,2022.2.4,59.958940126237756,
flanker_main_block_3.csv,img/rightArrow.png,img/rightArrow.png,img/rightArrow.png,5,1,right,"[0, 0]","[0.0385, 0]","[-0.0385, 0]",img/object_images/dust_pan01.jpg,"[0.035, 0.035]",,,,,,,,,,,,,0,2,2,2,0,23,23,6,,,,,,,,,,,,,,,3.8977955911823647,,,,,,,,,,,1,,,,,,,,,,,,,,794.0140842000255,794.0140842000255,794.0202750000171,794.0140842000255,794.0140842000255,794.2205232999986,794.3703820999945,798.0506203999976,798.0506203999976,798.0506203999976,['k'],[0.4217725000344217],,,,,,,,,,,,,,,,,,,,,,,,,,,,,,,,,,,,,,,,,,,,,,,,,,,,,,,,260024,2024-03-30_11h06.14.545,mfe_c_object,2022.2.4,59.958940126237756,
flanker_main_block_3.csv,img/rightArrow.png,img/rightArrow.png,img/rightArrow.png,5,1,right,"[0, 0]","[0.0385, 0]","[-0.0385, 0]",img/object_images/tool13.jpg,"[0.035, 0.035]",,,,,,,,,,,,,0,2,2,2,0,24,24,12,,,,,,,,,,,,,,,3.50501002004008,,,,,,,,,,,1,,,,,,,,,,,,,,798.0506203999976,798.0506203999976,798.0570045999484,798.0506203999976,798.0506203999976,798.2579343999969,798.4078785999445,801.6957155000418,801.6957155000418,801.6957155000418,['k'],[0.3860269000288099],,,,,,,,,,,,,,,,,,,,,,,,,,,,,,,,,,,,,,,,,,,,,,,,,,,,,,,,260024,2024-03-30_11h06.14.545,mfe_c_object,2022.2.4,59.958940126237756,
flanker_main_block_3.csv,img/leftArrow.png,img/rightArrow.png,img/rightArrow.png,8,0,left,"[0, 0]","[0.0385, 0]","[-0.0385, 0]",img/object_images/Candle_Holder01.jpg,"[0.035, 0.035]",,,,,,,,,,,,,0,2,2,2,0,25,25,25,,,,,,,,,,,,,,,3.9038076152304613,,,,,,,,,,,1,,,,,,,,,,,,,,801.6957155000418,801.6957155000418,801.6957155000418,801.6957155000418,801.6957155000418,801.8949776999652,802.0448538999772,805.7717974999687,805.7717974999687,805.7717974999687,['s'],[0.4283944999333471],,,,,,,,,,,,,,,,,,,,,,,,,,,,,,,,,,,,,,,,,,,,,,,,,,,,,,,,260024,2024-03-30_11h06.14.545,mfe_c_object,2022.2.4,59.958940126237756,
flanker_main_block_3.csv,img/leftArrow.png,img/rightArrow.png,img/rightArrow.png,8,0,left,"[0, 0]","[0.0385, 0]","[-0.0385, 0]",img/object_images/sign02.jpg,"[0.035, 0.035]",,,,,,,,,,,,,0,2,2,2,0,26,26,9,,,,,,,,,,,,,,,3.8927855711422845,,,,,,,,,,,1,,,,,,,,,,,,,,805.7717974999687,805.7717974999687,805.7717974999687,805.7717974999687,805.7717974999687,805.9817955000326,806.1324591999874,809.796904399991,809.796904399991,809.796904399991,['s'],[0.43976700003258884],,,,,,,,,,,,,,,,,,,,,,,,,,,,,,,,,,,,,,,,,,,,,,,,,,,,,,,,260024,2024-03-30_11h06.14.545,mfe_c_object,2022.2.4,59.958940126237756,
flanker_main_block_3.csv,img/leftArrow.png,img/rightArrow.png,img/rightArrow.png,8,0,left,"[0, 0]","[0.0385, 0]","[-0.0385, 0]",img/object_images/Confetti 01.jpg,"[0.035, 0.035]",,,,,,,,,,,,,0,2,2,2,0,27,27,28,,,,,,,,,,,,,,,3.823647294589178,,,,,,,,,,,1,,,,,,,,,,,,,,809.796904399991,809.796904399991,809.8031271999935,809.796904399991,809.796904399991,810.0029551000334,810.1529541999334,813.7624176000245,813.7624176000245,813.7624176000245,['s'],[0.45514950004871935],,,,,,,,,,,,,,,,,,,,,,,,,,,,,,,,,,,,,,,,,,,,,,,,,,,,,,,,260024,2024-03-30_11h06.14.545,mfe_c_object,2022.2.4,59.958940126237756,
flanker_main_block_3.csv,img/leftArrow.png,img/leftArrow.png,img/leftArrow.png,6,1,left,"[0, 0]","[0.0385, 0]","[-0.0385, 0]",img/object_images/vase02.jpg,"[0.035, 0.035]",,,,,,,,,,,,,0,2,2,2,0,28,28,8,,,,,,,,,,,,,,,3.8957915831663326,,,,,,,,,,,1,,,,,,,,,,,,,,813.7624176000245,813.7624176000245,813.7624176000245,813.7624176000245,813.7624176000245,813.973531799973,814.1235610999865,817.7870118999854,817.7870118999854,817.7870118999854,['s'],[0.4101826000260189],,,,,,,,,,,,,,,,,,,,,,,,,,,,,,,,,,,,,,,,,,,,,,,,,,,,,,,,260024,2024-03-30_11h06.14.545,mfe_c_object,2022.2.4,59.958940126237756,
flanker_main_block_3.csv,img/rightArrow.png,img/leftArrow.png,img/leftArrow.png,7,0,right,"[0, 0]","[0.0385, 0]","[-0.0385, 0]",img/object_images/perfume01.jpg,"[0.035, 0.035]",,,,,,,,,,,,,0,2,2,2,0,29,29,16,,,,,,,,,,,,,,,3.721442885771543,,,,,,,,,,,1,,,,,,,,,,,,,,817.7870118999854,817.7870118999854,817.793363600038,817.7870118999854,817.7870118999854,817.994353499962,818.1442284999648,821.6420434999745,821.6420434999745,821.6420434999745,['k'],[0.48952140007168055],,,,,,,,,,,,,,,,,,,,,,,,,,,,,,,,,,,,,,,,,,,,,,,,,,,,,,,,260024,2024-03-30_11h06.14.545,mfe_c_object,2022.2.4,59.958940126237756,
flanker_main_block_3.csv,img/rightArrow.png,img/rightArrow.png,img/rightArrow.png,5,1,right,"[0, 0]","[0.0385, 0]","[-0.0385, 0]",img/object_images/lemon_squeezer01.jpg,"[0.035, 0.035]",,,,,,,,,,,,,0,2,2,2,0,30,30,22,,,,,,,,,,,,,,,3.7685370741482966,,,,,,,,,,,1,,,,,,,,,,,,,,821.6420434999745,821.6420434999745,821.6481007999973,821.6420434999745,821.6420434999745,821.8481888000388,821.997879600036,825.545416799956,825.545416799956,825.545416799956,['k'],[0.4502730999374762],,,,,,,,,,,,,,,,,,,,,,,,,,,,,,,,,,,,,,,,,,,,,,,,,,,,,,,,260024,2024-03-30_11h06.14.545,mfe_c_object,2022.2.4,59.958940126237756,
flanker_main_block_3.csv,img/leftArrow.png,img/leftArrow.png,img/leftArrow.png,6,1,left,"[0, 0]","[0.0385, 0]","[-0.0385, 0]",img/object_images/ruler02.jpg,"[0.035, 0.035]",,,,,,,,,,,,,0,2,2,2,0,31,31,21,,,,,,,,,,,,,,,3.809619238476954,,,,,,,,,,,1,,,,,,,,,,,,,,825.545416799956,825.545416799956,825.5515913999407,825.545416799956,825.545416799956,825.7521112000104,825.901963799959,829.3546108000446,829.3546108000446,829.3546108000446,['s'],[0.36284889990929514],,,,,,,,,,,,,,,,,,,,,,,,,,,,,,,,,,,,,,,,,,,,,,,,,,,,,,,,260024,2024-03-30_11h06.14.545,mfe_c_object,2022.2.4,59.958940126237756,
flanker_main_block_3.csv,,,,,,,,,,,,,,,,,,,,,,,,0,2,2,2,,,,,,,,,,,,,,,,,,,,,,,,,,,,,,,,,,,,,,,,,,,,,,,,,,,,,,,,2,829.3546108000446,839.3477022999432,k,0.41613419994246215,,,,,,,,,,,,,,,,,,,,,,,,,,,,,,,,,,,,,,,,,,,,,,,,,,,260024,2024-03-30_11h06.14.545,mfe_c_object,2022.2.4,59.958940126237756,
flanker_main_block_1.csv,img/rightArrow.png,img/leftArrow.png,img/leftArrow.png,7,0,right,"[0, 0]","[0.0385, 0]","[-0.0385, 0]",img/object_images/guitar02.jpg,"[0.035, 0.035]",,,,,,,,,,,,,0,3,3,0,0,0,0,1,,,,,,,,,,,,,,840.669729199959,3.656312625250501,,,,,,,,,,,1,,,,,,,,,,839.7816767999902,839.7816767999902,k,0.8629294000566006,842.8548381000292,842.8548381000292,842.8548381000292,842.8548381000292,842.8548381000292,843.069212900009,843.2191247999435,846.6517404000042,846.6517404000042,846.6517404000042,['k'],[0.5732633000006899],,,,,,,,,,,,,,,,,,,,,,,,,,,,,,,,,,,,,,,,,,,,,,,,,,,,,,,,260024,2024-03-30_11h06.14.545,mfe_c_object,2022.2.4,59.958940126237756,
flanker_main_block_1.csv,img/leftArrow.png,img/rightArrow.png,img/rightArrow.png,8,0,left,"[0, 0]","[0.0385, 0]","[-0.0385, 0]",img/object_images/helmet01.jpg,"[0.035, 0.035]",,,,,,,,,,,,,0,3,3,0,0,1,1,15,,,,,,,,,,,,,,,3.7575150300601203,,,,,,,,,,,1,,,,,,,,,,,,,,846.6517404000042,846.6517404000042,846.6580471999478,846.6517404000042,846.6517404000042,846.8730664999457,847.0062820999883,850.5364919999847,850.5364919999847,850.5364919999847,['s'],[0.4729891000315547],,,,,,,,,,,,,,,,,,,,,,,,,,,,,,,,,,,,,,,,,,,,,,,,,,,,,,,,260024,2024-03-30_11h06.14.545,mfe_c_object,2022.2.4,59.958940126237756,
flanker_main_block_1.csv,img/leftArrow.png,img/rightArrow.png,img/rightArrow.png,8,0,left,"[0, 0]","[0.0385, 0]","[-0.0385, 0]",img/object_images/sink01.jpg,"[0.035, 0.035]",,,,,,,,,,,,,0,3,3,0,0,2,2,17,,,,,,,,,,,,,,,3.8587174348697393,,,,,,,,,,,1,,,,,,,,,,,,,,850.5364919999847,850.5364919999847,850.5428667999804,850.5364919999847,850.5364919999847,850.7437401999487,850.8935302000027,854.5265809999546,854.5265809999546,854.5265809999546,['s'],[0.45174950000364333],,,,,,,,,,,,,,,,,,,,,,,,,,,,,,,,,,,,,,,,,,,,,,,,,,,,,,,,260024,2024-03-30_11h06.14.545,mfe_c_object,2022.2.4,59.958940126237756,
flanker_main_block_1.csv,img/rightArrow.png,img/leftArrow.png,img/leftArrow.png,7,0,right,"[0, 0]","[0.0385, 0]","[-0.0385, 0]",img/object_images/outlet01.jpg,"[0.035, 0.035]",,,,,,,,,,,,,0,3,3,0,0,3,3,25,,,,,,,,,,,,,,,3.6783567134268536,,,,,,,,,,,1,,,,,,,,,,,,,,854.5265809999546,854.5265809999546,854.5265809999546,854.5265809999546,854.5265809999546,854.730865499936,854.8808209999697,858.356582300039,858.356582300039,858.356582300039,['k'],[0.5969990999437869],,,,,,,,,,,,,,,,,,,,,,,,,,,,,,,,,,,,,,,,,,,,,,,,,,,,,,,,260024,2024-03-30_11h06.14.545,mfe_c_object,2022.2.4,59.958940126237756,
flanker_main_block_1.csv,img/leftArrow.png,img/rightArrow.png,img/rightArrow.png,8,0,left,"[0, 0]","[0.0385, 0]","[-0.0385, 0]",img/object_images/pot01 (1).jpg,"[0.035, 0.035]",,,,,,,,,,,,,0,3,3,0,0,4,4,22,,,,,,,,,,,,,,,3.971943887775551,,,,,,,,,,,1,,,,,,,,,,,,,,858.356582300039,858.356582300039,858.3625847999938,858.356582300039,858.356582300039,858.5680991000263,858.7179707000032,862.4686864999821,862.4686864999821,862.4686864999821,['s'],[0.41578459995798767],,,,,,,,,,,,,,,,,,,,,,,,,,,,,,,,,,,,,,,,,,,,,,,,,,,,,,,,260024,2024-03-30_11h06.14.545,mfe_c_object,2022.2.4,59.958940126237756,
flanker_main_block_1.csv,img/rightArrow.png,img/rightArrow.png,img/rightArrow.png,5,1,right,"[0, 0]","[0.0385, 0]","[-0.0385, 0]",img/object_images/Tin01.jpg,"[0.035, 0.035]",,,,,,,,,,,,,0,3,3,0,0,5,5,30,,,,,,,,,,,,,,,3.8907815631262523,,,,,,,,,,,1,,,,,,,,,,,,,,862.4686864999821,862.4686864999821,862.4686864999821,862.4686864999821,862.4686864999821,862.6724451000337,862.8222151999362,866.5085054000374,866.5085054000374,866.5085054000374,['k'],[0.3432881999760866],,,,,,,,,,,,,,,,,,,,,,,,,,,,,,,,,,,,,,,,,,,,,,,,,,,,,,,,260024,2024-03-30_11h06.14.545,mfe_c_object,2022.2.4,59.958940126237756,
flanker_main_block_1.csv,img/rightArrow.png,img/leftArrow.png,img/leftArrow.png,7,0,right,"[0, 0]","[0.0385, 0]","[-0.0385, 0]",img/object_images/jewel04.jpg,"[0.035, 0.035]",,,,,,,,,,,,,0,3,3,0,0,6,6,20,,,,,,,,,,,,,,,3.6653306613226455,,,,,,,,,,,1,,,,,,,,,,,,,,866.5085054000374,866.5085054000374,866.5085054000374,866.5085054000374,866.5085054000374,866.7097052999306,866.8595484000398,870.3054868000327,870.3054868000327,870.3054868000327,['k'],[0.5032005999237299],,,,,,,,,,,,,,,,,,,,,,,,,,,,,,,,,,,,,,,,,,,,,,,,,,,,,,,,260024,2024-03-30_11h06.14.545,mfe_c_object,2022.2.4,59.958940126237756,
flanker_main_block_1.csv,img/leftArrow.png,img/rightArrow.png,img/rightArrow.png,8,0,left,"[0, 0]","[0.0385, 0]","[-0.0385, 0]",img/object_images/fridge03.jpg,"[0.035, 0.035]",,,,,,,,,,,,,0,3,3,0,0,7,7,8,,,,,,,,,,,,,,,3.681362725450902,,,,,,,,,,,1,,,,,,,,,,,,,,870.3054868000327,870.3054868000327,870.3116573999869,870.3054868000327,870.3054868000327,870.5132857999997,870.6632587999338,874.124566799961,874.124566799961,874.124566799961,['s'],[0.44317370001226664],,,,,,,,,,,,,,,,,,,,,,,,,,,,,,,,,,,,,,,,,,,,,,,,,,,,,,,,260024,2024-03-30_11h06.14.545,mfe_c_object,2022.2.4,59.958940126237756,
flanker_main_block_1.csv,img/rightArrow.png,img/rightArrow.png,img/rightArrow.png,5,1,right,"[0, 0]","[0.0385, 0]","[-0.0385, 0]",img/object_images/judge_gavel01.jpg,"[0.035, 0.035]",,,,,,,,,,,,,0,3,3,0,0,8,8,23,,,,,,,,,,,,,,,3.708416833667335,,,,,,,,,,,1,,,,,,,,,,,,,,874.124566799961,874.124566799961,874.1308008999331,874.124566799961,874.124566799961,874.3337870000396,874.483562999987,877.9685832000105,877.9685832000105,877.9685832000105,['k'],[0.3441841999301687],,,,,,,,,,,,,,,,,,,,,,,,,,,,,,,,,,,,,,,,,,,,,,,,,,,,,,,,260024,2024-03-30_11h06.14.545,mfe_c_object,2022.2.4,59.958940126237756,
flanker_main_block_1.csv,img/rightArrow.png,img/rightArrow.png,img/rightArrow.png,5,1,right,"[0, 0]","[0.0385, 0]","[-0.0385, 0]",img/object_images/ornament01.jpg,"[0.035, 0.035]",,,,,,,,,,,,,0,3,3,0,0,9,9,9,,,,,,,,,,,,,,,3.539078156312625,,,,,,,,,,,1,,,,,,,,,,,,,,877.9685832000105,877.9685832000105,877.9685832000105,877.9685832000105,877.9685832000105,878.1710824000183,878.3212033000309,881.6509866999695,881.6509866999695,881.6509866999695,['k'],[0.35562529996968806],,,,,,,,,,,,,,,,,,,,,,,,,,,,,,,,,,,,,,,,,,,,,,,,,,,,,,,,260024,2024-03-30_11h06.14.545,mfe_c_object,2022.2.4,59.958940126237756,
flanker_main_block_1.csv,img/leftArrow.png,img/leftArrow.png,img/leftArrow.png,6,1,left,"[0, 0]","[0.0385, 0]","[-0.0385, 0]",img/object_images/frisbee01.jpg,"[0.035, 0.035]",,,,,,,,,,,,,0,3,3,0,0,10,10,6,,,,,,,,,,,,,,,3.977955911823647,,,,,,,,,,,1,,,,,,,,,,,,,,881.6509866999695,881.6509866999695,881.6509866999695,881.6509866999695,881.6509866999695,881.8580778000178,882.0078764000209,885.7576990999514,885.7576990999514,885.7576990999514,['s'],[0.3214252000907436],,,,,,,,,,,,,,,,,,,,,,,,,,,,,,,,,,,,,,,,,,,,,,,,,,,,,,,,260024,2024-03-30_11h06.14.545,mfe_c_object,2022.2.4,59.958940126237756,
flanker_main_block_1.csv,img/leftArrow.png,img/leftArrow.png,img/leftArrow.png,6,1,left,"[0, 0]","[0.0385, 0]","[-0.0385, 0]",img/object_images/shovel03.jpg,"[0.035, 0.035]",,,,,,,,,,,,,0,3,3,0,0,11,11,19,,,,,,,,,,,,,,,3.7665330661322645,,,,,,,,,,,1,,,,,,,,,,,,,,885.7576990999514,885.7576990999514,885.7649156999541,885.7576990999514,885.7576990999514,885.9786935999291,886.1118458999554,889.6599536000285,889.6599536000285,889.6599536000285,['s'],[0.445754999993369],,,,,,,,,,,,,,,,,,,,,,,,,,,,,,,,,,,,,,,,,,,,,,,,,,,,,,,,260024,2024-03-30_11h06.14.545,mfe_c_object,2022.2.4,59.958940126237756,
flanker_main_block_1.csv,img/rightArrow.png,img/leftArrow.png,img/leftArrow.png,7,0,right,"[0, 0]","[0.0385, 0]","[-0.0385, 0]",img/object_images/toy04.jpg,"[0.035, 0.035]",,,,,,,,,,,,,0,3,3,0,0,12,12,11,,,,,,,,,,,,,,,3.5400801603206413,,,,,,,,,,,1,,,,,,,,,,,,,,889.6599536000285,889.6599536000285,889.6662323999917,889.6599536000285,889.6599536000285,889.8659112999449,890.0159527999349,893.3303171000443,893.3303171000443,893.3303171000443,['k'],[0.43208990001585335],,,,,,,,,,,,,,,,,,,,,,,,,,,,,,,,,,,,,,,,,,,,,,,,,,,,,,,,260024,2024-03-30_11h06.14.545,mfe_c_object,2022.2.4,59.958940126237756,
flanker_main_block_1.csv,img/rightArrow.png,img/rightArrow.png,img/rightArrow.png,5,1,right,"[0, 0]","[0.0385, 0]","[-0.0385, 0]",img/object_images/tool02.jpg,"[0.035, 0.035]",,,,,,,,,,,,,0,3,3,0,0,13,13,12,,,,,,,,,,,,,,,3.539078156312625,,,,,,,,,,,1,,,,,,,,,,,,,,893.3303171000443,893.3303171000443,893.3361510999966,893.3303171000443,893.3303171000443,893.536225699936,893.6862547999481,897.0010425000219,897.0010425000219,897.0010425000219,['k'],[0.37805980001576245],,,,,,,,,,,,,,,,,,,,,,,,,,,,,,,,,,,,,,,,,,,,,,,,,,,,,,,,260024,2024-03-30_11h06.14.545,mfe_c_object,2022.2.4,59.958940126237756,
flanker_main_block_1.csv,img/rightArrow.png,img/rightArrow.png,img/rightArrow.png,5,1,right,"[0, 0]","[0.0385, 0]","[-0.0385, 0]",img/object_images/tool09.jpg,"[0.035, 0.035]",,,,,,,,,,,,,0,3,3,0,0,14,14,18,,,,,,,,,,,,,,,3.509018036072144,,,,,,,,,,,1,,,,,,,,,,,,,,897.0010425000219,897.0010425000219,897.0071884000208,897.0010425000219,897.0010425000219,897.2066016999306,897.3564869000111,900.6343698999844,900.6343698999844,900.6343698999844,['k'],[0.37897109996993095],,,,,,,,,,,,,,,,,,,,,,,,,,,,,,,,,,,,,,,,,,,,,,,,,,,,,,,,260024,2024-03-30_11h06.14.545,mfe_c_object,2022.2.4,59.958940126237756,
flanker_main_block_1.csv,img/rightArrow.png,img/leftArrow.png,img/leftArrow.png,7,0,right,"[0, 0]","[0.0385, 0]","[-0.0385, 0]",img/object_images/Vacuum01.jpg,"[0.035, 0.035]",,,,,,,,,,,,,0,3,3,0,0,15,15,3,,,,,,,,,,,,,,,3.720440881763527,,,,,,,,,,,1,,,,,,,,,,,,,,900.6343698999844,900.6343698999844,900.6405889999587,900.6343698999844,900.6343698999844,900.8435598999495,900.9935359000228,904.4900259999558,904.4900259999558,904.4900259999558,['k'],[0.425768900080584],,,,,,,,,,,,,,,,,,,,,,,,,,,,,,,,,,,,,,,,,,,,,,,,,,,,,,,,260024,2024-03-30_11h06.14.545,mfe_c_object,2022.2.4,59.958940126237756,
flanker_main_block_1.csv,img/rightArrow.png,img/rightArrow.png,img/rightArrow.png,5,1,right,"[0, 0]","[0.0385, 0]","[-0.0385, 0]",img/object_images/stapler.jpg,"[0.035, 0.035]",,,,,,,,,,,,,0,3,3,0,0,16,16,7,,,,,,,,,,,,,,,3.9619238476953904,,,,,,,,,,,1,,,,,,,,,,,,,,904.4900259999558,904.4900259999558,904.4962991999928,904.4900259999558,904.4900259999558,904.6974591999315,904.8473726999946,908.6512282999465,908.6512282999465,908.6512282999465,['k'],[0.3708905999083072],,,,,,,,,,,,,,,,,,,,,,,,,,,,,,,,,,,,,,,,,,,,,,,,,,,,,,,,260024,2024-03-30_11h06.14.545,mfe_c_object,2022.2.4,59.958940126237756,
flanker_main_block_1.csv,img/leftArrow.png,img/rightArrow.png,img/rightArrow.png,8,0,left,"[0, 0]","[0.0385, 0]","[-0.0385, 0]",img/object_images/Stool01.jpg,"[0.035, 0.035]",,,,,,,,,,,,,0,3,3,0,0,17,17,5,,,,,,,,,,,,,,,3.708416833667335,,,,,,,,,,,1,,,,,,,,,,,,,,908.6512282999465,908.6512282999465,908.6512282999465,908.6512282999465,908.6512282999465,908.8515680000419,909.0014925999567,912.4987531999359,912.4987531999359,912.4987531999359,['s'],[0.5446075999643654],,,,,,,,,,,,,,,,,,,,,,,,,,,,,,,,,,,,,,,,,,,,,,,,,,,,,,,,260024,2024-03-30_11h06.14.545,mfe_c_object,2022.2.4,59.958940126237756,
flanker_main_block_1.csv,img/leftArrow.png,img/rightArrow.png,img/rightArrow.png,8,0,left,"[0, 0]","[0.0385, 0]","[-0.0385, 0]",img/object_images/bottle05.jpg,"[0.035, 0.035]",,,,,,,,,,,,,0,3,3,0,0,18,18,26,,,,,,,,,,,,,,,3.6673346693386777,,,,,,,,,,,1,,,,,,,,,,,,,,912.4987531999359,912.4987531999359,912.5050020000199,912.4987531999359,912.4987531999359,912.7054138999665,912.8552724999608,916.3024694999913,916.3024694999913,916.3024694999913,['s'],[0.42548570001963526],,,,,,,,,,,,,,,,,,,,,,,,,,,,,,,,,,,,,,,,,,,,,,,,,,,,,,,,260024,2024-03-30_11h06.14.545,mfe_c_object,2022.2.4,59.958940126237756,
flanker_main_block_1.csv,img/leftArrow.png,img/leftArrow.png,img/leftArrow.png,6,1,left,"[0, 0]","[0.0385, 0]","[-0.0385, 0]",img/object_images/video_game07.jpg,"[0.035, 0.035]",,,,,,,,,,,,,0,3,3,0,0,19,19,10,,,,,,,,,,,,,,,3.711422845691383,,,,,,,,,,,1,,,,,,,,,,,,,,916.3024694999913,916.3024694999913,916.3087610999355,916.3024694999913,916.3024694999913,916.5094665000215,916.6590790000046,920.1548654999351,920.1548654999351,920.1548654999351,['s'],[0.39771269995253533],,,,,,,,,,,,,,,,,,,,,,,,,,,,,,,,,,,,,,,,,,,,,,,,,,,,,,,,260024,2024-03-30_11h06.14.545,mfe_c_object,2022.2.4,59.958940126237756,
flanker_main_block_1.csv,img/leftArrow.png,img/leftArrow.png,img/leftArrow.png,6,1,left,"[0, 0]","[0.0385, 0]","[-0.0385, 0]",img/object_images/acoustic_capo01.jpg,"[0.035, 0.035]",,,,,,,,,,,,,0,3,3,0,0,20,20,27,,,,,,,,,,,,,,,3.5330661322645294,,,,,,,,,,,1,,,,,,,,,,,,,,920.1548654999351,920.1548654999351,920.1610910999589,920.1548654999351,920.1548654999351,920.3629554000217,920.5131678000325,923.8422787999734,923.8422787999734,923.8422787999734,['s'],[0.3289369000121951],,,,,,,,,,,,,,,,,,,,,,,,,,,,,,,,,,,,,,,,,,,,,,,,,,,,,,,,260024,2024-03-30_11h06.14.545,mfe_c_object,2022.2.4,59.958940126237756,
flanker_main_block_1.csv,img/leftArrow.png,img/leftArrow.png,img/leftArrow.png,6,1,left,"[0, 0]","[0.0385, 0]","[-0.0385, 0]",img/object_images/toy03.jpg,"[0.035, 0.035]",,,,,,,,,,,,,0,3,3,0,0,21,21,24,,,,,,,,,,,,,,,3.75250501002004,,,,,,,,,,,1,,,,,,,,,,,,,,923.8422787999734,923.8422787999734,923.8422787999734,923.8422787999734,923.8422787999734,924.0501330000116,924.2000798999798,927.7512328999583,927.7512328999583,927.7512328999583,['s'],[0.39351950003765523],,,,,,,,,,,,,,,,,,,,,,,,,,,,,,,,,,,,,,,,,,,,,,,,,,,,,,,,260024,2024-03-30_11h06.14.545,mfe_c_object,2022.2.4,59.958940126237756,
flanker_main_block_1.csv,img/leftArrow.png,img/leftArrow.png,img/leftArrow.png,6,1,left,"[0, 0]","[0.0385, 0]","[-0.0385, 0]",img/object_images/bow01.jpg,"[0.035, 0.035]",,,,,,,,,,,,,0,3,3,0,0,22,22,2,,,,,,,,,,,,,,,3.567134268537074,,,,,,,,,,,1,,,,,,,,,,,,,,927.7512328999583,927.7512328999583,927.7512328999583,927.7512328999583,927.7512328999583,927.9538017000305,928.1039150999859,931.4516866999911,931.4516866999911,931.4516866999911,['s'],[0.39657680003438145],,,,,,,,,,,,,,,,,,,,,,,,,,,,,,,,,,,,,,,,,,,,,,,,,,,,,,,,260024,2024-03-30_11h06.14.545,mfe_c_object,2022.2.4,59.958940126237756,
flanker_main_block_1.csv,img/rightArrow.png,img/rightArrow.png,img/rightArrow.png,5,1,right,"[0, 0]","[0.0385, 0]","[-0.0385, 0]",img/object_images/crown02.jpg,"[0.035, 0.035]",,,,,,,,,,,,,0,3,3,0,0,23,23,21,,,,,,,,,,,,,,,3.9819639278557117,,,,,,,,,,,1,,,,,,,,,,,,,,931.4516866999911,931.4516866999911,931.4578547000419,931.4516866999911,931.4516866999911,931.6576223999728,931.8076535,935.57187720004,935.57187720004,935.57187720004,['k'],[0.4081032000249252],,,,,,,,,,,,,,,,,,,,,,,,,,,,,,,,,,,,,,,,,,,,,,,,,,,,,,,,260024,2024-03-30_11h06.14.545,mfe_c_object,2022.2.4,59.958940126237756,
flanker_main_block_1.csv,img/rightArrow.png,img/leftArrow.png,img/leftArrow.png,7,0,right,"[0, 0]","[0.0385, 0]","[-0.0385, 0]",img/object_images/gauze01.jpg,"[0.035, 0.035]",,,,,,,,,,,,,0,3,3,0,0,24,24,14,,,,,,,,,,,,,,,3.5761523046092183,,,,,,,,,,,0,,,,,,,,,,,,,,935.57187720004,935.57187720004,935.5782468999969,935.57187720004,935.57187720004,935.7784206999931,935.9281607000157,939.2786087000277,939.2786087000277,939.2786087000277,['s'],[0.3440567000070587],,,,,,,,,,,,,,,,,,,,,,,,,,,,,,,,,,,,,,,,,,,,,,,,,,,,,,,,260024,2024-03-30_11h06.14.545,mfe_c_object,2022.2.4,59.958940126237756,
flanker_main_block_1.csv,img/rightArrow.png,img/leftArrow.png,img/leftArrow.png,7,0,right,"[0, 0]","[0.0385, 0]","[-0.0385, 0]",img/object_images/MetalWire01.jpg,"[0.035, 0.035]",,,,,,,,,,,,,0,3,3,0,0,25,25,13,,,,,,,,,,,,,,,3.5070140280561124,,,,,,,,,,,1,,,,,,,,,,,,,,939.2786087000277,939.2786087000277,939.2786087000277,939.2786087000277,939.2786087000277,939.4820978000062,939.632227199967,942.9125817000167,942.9125817000167,942.9125817000167,['k'],[0.6615826999768615],,,,,,,,,,,,,,,,,,,,,,,,,,,,,,,,,,,,,,,,,,,,,,,,,,,,,,,,260024,2024-03-30_11h06.14.545,mfe_c_object,2022.2.4,59.958940126237756,
flanker_main_block_1.csv,img/leftArrow.png,img/rightArrow.png,img/rightArrow.png,8,0,left,"[0, 0]","[0.0385, 0]","[-0.0385, 0]",img/object_images/dart01.jpg,"[0.035, 0.035]",,,,,,,,,,,,,0,3,3,0,0,26,26,4,,,,,,,,,,,,,,,3.69438877755511,,,,,,,,,,,1,,,,,,,,,,,,,,942.9125817000167,942.9125817000167,942.9190404999536,942.9125817000167,942.9125817000167,943.1189646000275,943.2688373000128,946.7650911000092,946.7650911000092,946.7650911000092,['s'],[0.43601720000151545],,,,,,,,,,,,,,,,,,,,,,,,,,,,,,,,,,,,,,,,,,,,,,,,,,,,,,,,260024,2024-03-30_11h06.14.545,mfe_c_object,2022.2.4,59.958940126237756,
flanker_main_block_1.csv,img/rightArrow.png,img/leftArrow.png,img/leftArrow.png,7,0,right,"[0, 0]","[0.0385, 0]","[-0.0385, 0]",img/object_images/watch01.jpg,"[0.035, 0.035]",,,,,,,,,,,,,0,3,3,0,0,27,27,29,,,,,,,,,,,,,,,3.7815631262525047,,,,,,,,,,,1,,,,,,,,,,,,,,946.7650911000092,946.7650911000092,946.7650911000092,946.7650911000092,946.7650911000092,946.9732773000142,947.122697899933,950.6877215999411,950.6877215999411,950.6877215999411,['k'],[0.4066194000188261],,,,,,,,,,,,,,,,,,,,,,,,,,,,,,,,,,,,,,,,,,,,,,,,,,,,,,,,260024,2024-03-30_11h06.14.545,mfe_c_object,2022.2.4,59.958940126237756,
flanker_main_block_1.csv,img/leftArrow.png,img/leftArrow.png,img/leftArrow.png,6,1,left,"[0, 0]","[0.0385, 0]","[-0.0385, 0]",img/object_images/bird_house02.jpg,"[0.035, 0.035]",,,,,,,,,,,,,0,3,3,0,0,28,28,16,,,,,,,,,,,,,,,3.7054108216432864,,,,,,,,,,,1,,,,,,,,,,,,,,950.6877215999411,950.6877215999411,950.694068999961,950.6877215999411,950.6877215999411,950.8934463999467,951.0436509000137,954.5268566999584,954.5268566999584,954.5268566999584,['s'],[0.46820409991778433],,,,,,,,,,,,,,,,,,,,,,,,,,,,,,,,,,,,,,,,,,,,,,,,,,,,,,,,260024,2024-03-30_11h06.14.545,mfe_c_object,2022.2.4,59.958940126237756,
flanker_main_block_1.csv,img/leftArrow.png,img/rightArrow.png,img/rightArrow.png,8,0,left,"[0, 0]","[0.0385, 0]","[-0.0385, 0]",img/object_images/Ring02.jpg,"[0.035, 0.035]",,,,,,,,,,,,,0,3,3,0,0,29,29,0,,,,,,,,,,,,,,,3.9749498997995993,,,,,,,,,,,1,,,,,,,,,,,,,,954.5268566999584,954.5268566999584,954.5268566999584,954.5268566999584,954.5268566999584,954.7306218999438,954.8806777000427,958.64586769999,958.64586769999,958.64586769999,['s'],[0.4053340000100434],,,,,,,,,,,,,,,,,,,,,,,,,,,,,,,,,,,,,,,,,,,,,,,,,,,,,,,,260024,2024-03-30_11h06.14.545,mfe_c_object,2022.2.4,59.958940126237756,
flanker_main_block_1.csv,img/leftArrow.png,img/leftArrow.png,img/leftArrow.png,6,1,left,"[0, 0]","[0.0385, 0]","[-0.0385, 0]",img/object_images/mirror01.jpg,"[0.035, 0.035]",,,,,,,,,,,,,0,3,3,0,0,30,30,28,,,,,,,,,,,,,,,3.8527054108216436,,,,,,,,,,,1,,,,,,,,,,,,,,958.64586769999,958.64586769999,958.6520599999931,958.64586769999,958.64586769999,958.8513545999303,959.0013211999321,962.6339330000337,962.6339330000337,962.6339330000337,['s'],[0.3895151000469923],,,,,,,,,,,,,,,,,,,,,,,,,,,,,,,,,,,,,,,,,,,,,,,,,,,,,,,,260024,2024-03-30_11h06.14.545,mfe_c_object,2022.2.4,59.958940126237756,
flanker_main_block_1.csv,img/rightArrow.png,img/rightArrow.png,img/rightArrow.png,5,1,right,"[0, 0]","[0.0385, 0]","[-0.0385, 0]",img/object_images/towel02.jpg,"[0.035, 0.035]",,,,,,,,,,,,,0,3,3,0,0,31,31,31,,,,,,,,,,,,,,,3.7164328657314627,,,,,,,,,,,1,,,,,,,,,,,,,,962.6339330000337,962.6339330000337,962.640431100037,962.6339330000337,962.6339330000337,962.8553792999592,962.9887526000384,966.357685499941,966.357685499941,966.357685499941,['k'],[0.4103781000012532],,,,,,,,,,,,,,,,,,,,,,,,,,,,,,,,,,,,,,,,,,,,,,,,,,,,,,,,260024,2024-03-30_11h06.14.545,mfe_c_object,2022.2.4,59.958940126237756,
flanker_main_block_1.csv,,,,,,,,,,,,,,,,,,,,,,,,0,3,3,0,,,,,,,,,,,,,,,,,,,,,,,,,,,,,,,,,,,,,,,,,,,,,,,,,,,,,,,,2,966.357685499941,976.3510510999477,k,0.4366279999958351,,,,,,,,,,,,,,,,,,,,,,,,,,,,,,,,,,,,,,,,,,,,,,,,,,,260024,2024-03-30_11h06.14.545,mfe_c_object,2022.2.4,59.958940126237756,
flanker_main_block_4.csv,img/leftArrow.png,img/rightArrow.png,img/rightArrow.png,8,0,left,"[0, 0]","[0.0385, 0]","[-0.0385, 0]",img/object_images/faucet01.jpg,"[0.035, 0.035]",,,,,,,,,,,,,0,4,4,3,0,0,0,19,,,,,,,,,,,,,,979.7113865000429,3.743486973947896,,,,,,,,,,,1,,,,,,,,,,976.8228218000149,976.8228218000149,k,2.853351700003259,981.8932495999616,981.8932495999616,981.8932495999616,981.8932495999616,981.8932495999616,982.1078295999905,982.2578438000055,985.7765984999714,985.7765984999714,985.7765984999714,['s'],[0.5664225000655279],,,,,,,,,,,,,,,,,,,,,,,,,,,,,,,,,,,,,,,,,,,,,,,,,,,,,,,,260024,2024-03-30_11h06.14.545,mfe_c_object,2022.2.4,59.958940126237756,
flanker_main_block_4.csv,img/leftArrow.png,img/leftArrow.png,img/leftArrow.png,6,1,left,"[0, 0]","[0.0385, 0]","[-0.0385, 0]",img/object_images/blanket01.jpg,"[0.035, 0.035]",,,,,,,,,,,,,0,4,4,3,0,1,1,31,,,,,,,,,,,,,,,3.5961923847695387,,,,,,,,,,,1,,,,,,,,,,,,,,985.7765984999714,985.7765984999714,985.7765984999714,985.7765984999714,985.7765984999714,985.9784828999545,986.1286624999484,989.5132584000239,989.5132584000239,989.5132584000239,['s'],[0.5228627000469714],,,,,,,,,,,,,,,,,,,,,,,,,,,,,,,,,,,,,,,,,,,,,,,,,,,,,,,,260024,2024-03-30_11h06.14.545,mfe_c_object,2022.2.4,59.958940126237756,
flanker_main_block_4.csv,img/rightArrow.png,img/leftArrow.png,img/leftArrow.png,7,0,right,"[0, 0]","[0.0385, 0]","[-0.0385, 0]",img/object_images/bicycle_lock01.jpg,"[0.035, 0.035]",,,,,,,,,,,,,0,4,4,3,0,2,2,28,,,,,,,,,,,,,,,3.5851703406813624,,,,,,,,,,,1,,,,,,,,,,,,,,989.5132584000239,989.5132584000239,989.5132584000239,989.5132584000239,989.5132584000239,989.7154988000402,989.8654064999428,993.2426243999507,993.2426243999507,993.2426243999507,['k'],[0.4586239999625832],,,,,,,,,,,,,,,,,,,,,,,,,,,,,,,,,,,,,,,,,,,,,,,,,,,,,,,,260024,2024-03-30_11h06.14.545,mfe_c_object,2022.2.4,59.958940126237756,
flanker_main_block_4.csv,img/rightArrow.png,img/leftArrow.png,img/leftArrow.png,7,0,right,"[0, 0]","[0.0385, 0]","[-0.0385, 0]",img/object_images/gift_box04.jpg,"[0.035, 0.035]",,,,,,,,,,,,,0,4,4,3,0,3,3,17,,,,,,,,,,,,,,,3.8887775551102206,,,,,,,,,,,1,,,,,,,,,,,,,,993.2426243999507,993.2426243999507,993.2426243999507,993.2426243999507,993.2426243999507,993.4528397000395,993.602626799955,997.2674724999815,997.2674724999815,997.2674724999815,['k'],[0.4817898999899626],,,,,,,,,,,,,,,,,,,,,,,,,,,,,,,,,,,,,,,,,,,,,,,,,,,,,,,,260024,2024-03-30_11h06.14.545,mfe_c_object,2022.2.4,59.958940126237756,
flanker_main_block_4.csv,img/leftArrow.png,img/leftArrow.png,img/leftArrow.png,6,1,left,"[0, 0]","[0.0385, 0]","[-0.0385, 0]",img/object_images/book01.jpg,"[0.035, 0.035]",,,,,,,,,,,,,0,4,4,3,0,4,4,27,,,,,,,,,,,,,,,3.8997995991983965,,,,,,,,,,,1,,,,,,,,,,,,,,997.2674724999815,997.2674724999815,997.2735147000058,997.2674724999815,997.2674724999815,997.473083699937,997.6231924999738,1001.3065246000187,1001.3065246000187,1001.3065246000187,['s'],[0.3762873000232503],,,,,,,,,,,,,,,,,,,,,,,,,,,,,,,,,,,,,,,,,,,,,,,,,,,,,,,,260024,2024-03-30_11h06.14.545,mfe_c_object,2022.2.4,59.958940126237756,
flanker_main_block_4.csv,img/rightArrow.png,img/leftArrow.png,img/leftArrow.png,7,0,right,"[0, 0]","[0.0385, 0]","[-0.0385, 0]",img/object_images/basket02.jpg,"[0.035, 0.035]",,,,,,,,,,,,,0,4,4,3,0,5,5,13,,,,,,,,,,,,,,,3.7224448897795592,,,,,,,,,,,1,,,,,,,,,,,,,,1001.3065246000187,1001.3065246000187,1001.3065246000187,1001.3065246000187,1001.3065246000187,1001.5106849999866,1001.6605375999352,1005.1590171999997,1005.1590171999997,1005.1590171999997,['k'],[0.4336446999805048],,,,,,,,,,,,,,,,,,,,,,,,,,,,,,,,,,,,,,,,,,,,,,,,,,,,,,,,260024,2024-03-30_11h06.14.545,mfe_c_object,2022.2.4,59.958940126237756,
flanker_main_block_4.csv,img/leftArrow.png,img/rightArrow.png,img/rightArrow.png,8,0,left,"[0, 0]","[0.0385, 0]","[-0.0385, 0]",img/object_images/Pottery01.jpg,"[0.035, 0.035]",,,,,,,,,,,,,0,4,4,3,0,6,6,9,,,,,,,,,,,,,,,3.7284569138276553,,,,,,,,,,,1,,,,,,,,,,,,,,1005.1590171999997,1005.1590171999997,1005.1662226000335,1005.1590171999997,1005.1590171999997,1005.3810869000154,1005.5144106999505,1009.0269554000115,1009.0269554000115,1009.0269554000115,['s'],[0.5326886000111699],,,,,,,,,,,,,,,,,,,,,,,,,,,,,,,,,,,,,,,,,,,,,,,,,,,,,,,,260024,2024-03-30_11h06.14.545,mfe_c_object,2022.2.4,59.958940126237756,
flanker_main_block_4.csv,img/rightArrow.png,img/leftArrow.png,img/leftArrow.png,7,0,right,"[0, 0]","[0.0385, 0]","[-0.0385, 0]",img/object_images/Sprayer01.jpg,"[0.035, 0.035]",,,,,,,,,,,,,0,4,4,3,0,7,7,8,,,,,,,,,,,,,,,3.6082164328657313,,,,,,,,,,,1,,,,,,,,,,,,,,1009.0269554000115,1009.0269554000115,1009.0330881000264,1009.0269554000115,1009.0269554000115,1009.2349884000141,1009.3847907999298,1012.7664841000224,1012.7664841000224,1012.7664841000224,['k'],[0.40838120004627854],,,,,,,,,,,,,,,,,,,,,,,,,,,,,,,,,,,,,,,,,,,,,,,,,,,,,,,,260024,2024-03-30_11h06.14.545,mfe_c_object,2022.2.4,59.958940126237756,
flanker_main_block_4.csv,img/leftArrow.png,img/rightArrow.png,img/rightArrow.png,8,0,left,"[0, 0]","[0.0385, 0]","[-0.0385, 0]",img/object_images/colander01.jpg,"[0.035, 0.035]",,,,,,,,,,,,,0,4,4,3,0,8,8,29,,,,,,,,,,,,,,,3.8557114228456912,,,,,,,,,,,1,,,,,,,,,,,,,,1012.7664841000224,1012.7664841000224,1012.7726129000075,1012.7664841000224,1012.7664841000224,1012.9721142000053,1013.1219940000447,1016.769950499991,1016.769950499991,1016.769950499991,['s'],[0.5815763999707997],,,,,,,,,,,,,,,,,,,,,,,,,,,,,,,,,,,,,,,,,,,,,,,,,,,,,,,,260024,2024-03-30_11h06.14.545,mfe_c_object,2022.2.4,59.958940126237756,
flanker_main_block_4.csv,img/rightArrow.png,img/leftArrow.png,img/leftArrow.png,7,0,right,"[0, 0]","[0.0385, 0]","[-0.0385, 0]",img/object_images/Traffic Sign 01.jpg,"[0.035, 0.035]",,,,,,,,,,,,,0,4,4,3,0,9,9,5,,,,,,,,,,,,,,,3.9128256513026054,,,,,,,,,,,1,,,,,,,,,,,,,,1016.769950499991,1016.769950499991,1016.769950499991,1016.769950499991,1016.769950499991,1016.9759932999732,1017.1260813999688,1020.8235462999437,1020.8235462999437,1020.8235462999437,['k'],[0.4979810999939218],,,,,,,,,,,,,,,,,,,,,,,,,,,,,,,,,,,,,,,,,,,,,,,,,,,,,,,,260024,2024-03-30_11h06.14.545,mfe_c_object,2022.2.4,59.958940126237756,
