whichBlock,middleStim,leftStim,rightStim,stimNum,congruent,target,locationC,locationR,locationL,straightObj,imageSize,whichSurpriseBlock,old_object_in_surp,new_object_in_surp,which_side_old_object_displayed,prac_block_loop.thisRepN,prac_block_loop.thisTrialN,prac_block_loop.thisN,prac_block_loop.thisIndex,prac_trial_loop.thisRepN,prac_trial_loop.thisTrialN,prac_trial_loop.thisN,prac_trial_loop.thisIndex,task_block_loop.thisRepN,task_block_loop.thisTrialN,task_block_loop.thisN,task_block_loop.thisIndex,task_trial_loop.thisRepN,task_trial_loop.thisTrialN,task_trial_loop.thisN,task_trial_loop.thisIndex,surprise_block_loop.thisRepN,surprise_block_loop.thisTrialN,surprise_block_loop.thisN,surprise_block_loop.thisIndex,trials.thisRepN,trials.thisTrialN,trials.thisN,trials.thisIndex,prac_blockText.started,prac_reminder_text.started,prac_reminder_keyResp.started,prac_reminder_keyResp.keys,prac_reminder_keyResp.rt,initFixation_img.started,ISI,bigObject.started,cover_background_2.started,prac_centerImg.started,prac_stim_keyResp.started,prac_centerImg.stopped,cover_background_2.stopped,bigObject.stopped,prac_stim_keyResp.stopped,prac_stim_keyResp.keys,prac_stim_keyResp.rt,accuracy,prac_blockFeed_text.started,prac_pressContinue.started,prac_blockFeed_keyResp.started,prac_blockFeed_keyResp.keys,prac_blockFeed_keyResp.rt,ringBell_text.started,bellKey.started,bellKey.keys,bellKey.rt,task_blockText.started,task_blockReminders_keyResp.started,task_blockReminders_keyResp.keys,task_blockReminders_keyResp.rt,bigObject_2.started,cover_background.started,task_centerImg.started,task_fixImg.started,task1_stim_keyResp.started,task_centerImg.stopped,cover_background.stopped,bigObject_2.stopped,task_fixImg.stopped,task1_stim_keyResp.stopped,task1_stim_keyResp.keys,task1_stim_keyResp.rt,blockFeedCat,task_blockFeed_text.started,task_blockFeed_keyResp.started,task_blockFeed_keyResp.keys,task_blockFeed_keyResp.rt,ringBell_text_2.started,bellKey_2.started,bellKey_2.keys,bellKey_2.rt,errorNumbers_text_2.started,errorNum_text_box.started,errorN_key_resp_2.started,errorNum_text_box.text,errorN_key_resp_2.keys,errorN_key_resp_2.rt,errorNumbers_text_3.started,errorPercent_text_box.started,errorN_key_resp_3.started,errorPercent_text_box.text,errorN_key_resp_3.keys,errorN_key_resp_3.rt,botherRate_text.started,bother_text_box.started,botherRate_key_resp.started,bother_text_box.text,botherRate_key_resp.keys,botherRate_key_resp.rt,ringBell_text_3.started,bellKey_3.started,bellKey_3.keys,bellKey_3.rt,instruct_surprise1.started,instruct_surp1_key_resp.keys,instruct_surp1_key_resp.rt,text_2.started,task_blockText_2.started,task_blockReminders_keyResp_2.started,task_blockReminders_keyResp_2.keys,task_blockReminders_keyResp_2.rt,thisISI3,polygon.started,polygon.stopped,text.started,old_object_image.started,new_object_image.started,instructsurpA1_right.started,instructsurpA2_left.started,surprise_key_resp.started,surprise_key_resp.keys,surprise_key_resp.rt,ringBell_text_4.started,bellKey_4.started,bellKey_4.keys,bellKey_4.rt,finishMessage_text.started,id,date,expName,psychopyVersion,frameRate,
flanker_practice_block.csv,img/rightArrow.png,img/rightArrow.png,img/rightArrow.png,5,1,right,"[0, 0]","[0.0385, 0]","[-0.0385, 0]",img/object_images/handle_bar01.jpg,"[0.035, 0.035]",,,,,0,0,0,0,0,0,0,13,,,,,,,,,,,,,,,,,186.26537599999574,186.26537599999574,186.26537599999574,k,20.525960599996324,206.82643629999802,3.8687374749498997,209.01385740000114,209.01385740000114,209.01385740000114,209.01385740000114,209.2141582999975,209.3639836000002,213.0271681000013,213.0271681000013,['k'],[0.6009661000061897],1,,,,,,,,,,,,,,,,,,,,,,,,,,,,,,,,,,,,,,,,,,,,,,,,,,,,,,,,,,,,,,,,,,,,,,,,,,,,,,,,,260019,2024-03-21_10h58.02.690,mfe_c_object,2022.2.4,59.93382107495383,
flanker_practice_block.csv,img/rightArrow.png,img/leftArrow.png,img/leftArrow.png,7,0,right,"[0, 0]","[0.0385, 0]","[-0.0385, 0]",img/object_images/crane02.jpg,"[0.035, 0.035]",,,,,0,0,0,0,0,1,1,17,,,,,,,,,,,,,,,,,,,,,,,3.9318637274549095,213.0271681000013,213.0271681000013,213.0271681000013,213.0271681000013,213.23486240000057,213.38486310000008,217.12389879999682,217.12389879999682,['s'],[0.555879499996081],0,,,,,,,,,,,,,,,,,,,,,,,,,,,,,,,,,,,,,,,,,,,,,,,,,,,,,,,,,,,,,,,,,,,,,,,,,,,,,,,,,260019,2024-03-21_10h58.02.690,mfe_c_object,2022.2.4,59.93382107495383,
flanker_practice_block.csv,img/rightArrow.png,img/rightArrow.png,img/rightArrow.png,5,1,right,"[0, 0]","[0.0385, 0]","[-0.0385, 0]",img/object_images/basketball_hoop01.jpg,"[0.035, 0.035]",,,,,0,0,0,0,0,2,2,6,,,,,,,,,,,,,,,,,,,,,,,3.527054108216433,217.12389879999682,217.12389879999682,217.12389879999682,217.12389879999682,217.33895729999495,217.48881119999714,220.80128929999773,220.80128929999773,['k'],[0.4915783999967971],1,,,,,,,,,,,,,,,,,,,,,,,,,,,,,,,,,,,,,,,,,,,,,,,,,,,,,,,,,,,,,,,,,,,,,,,,,,,,,,,,,260019,2024-03-21_10h58.02.690,mfe_c_object,2022.2.4,59.93382107495383,
flanker_practice_block.csv,img/leftArrow.png,img/rightArrow.png,img/rightArrow.png,8,0,left,"[0, 0]","[0.0385, 0]","[-0.0385, 0]",img/object_images/binoculars01.jpg,"[0.035, 0.035]",,,,,0,0,0,0,0,3,3,1,,,,,,,,,,,,,,,,,,,,,,,3.5470941883767537,220.80128929999773,220.80128929999773,220.80128929999773,220.80128929999773,221.00931809999747,221.15937609999673,224.50149919999967,224.50149919999967,['s'],[0.4058290999964811],1,,,,,,,,,,,,,,,,,,,,,,,,,,,,,,,,,,,,,,,,,,,,,,,,,,,,,,,,,,,,,,,,,,,,,,,,,,,,,,,,,260019,2024-03-21_10h58.02.690,mfe_c_object,2022.2.4,59.93382107495383,
flanker_practice_block.csv,img/rightArrow.png,img/rightArrow.png,img/rightArrow.png,5,1,right,"[0, 0]","[0.0385, 0]","[-0.0385, 0]",img/object_images/hot_air_balloon01.jpg,"[0.035, 0.035]",,,,,0,0,0,0,0,4,4,12,,,,,,,,,,,,,,,,,,,,,,,3.62124248496994,224.50149919999967,224.50149919999967,224.50149919999967,224.50149919999967,224.71290379999846,224.86279849999846,228.27438650000113,228.27438650000113,['k'],[0.6263936999966973],1,,,,,,,,,,,,,,,,,,,,,,,,,,,,,,,,,,,,,,,,,,,,,,,,,,,,,,,,,,,,,,,,,,,,,,,,,,,,,,,,,260019,2024-03-21_10h58.02.690,mfe_c_object,2022.2.4,59.93382107495383,
flanker_practice_block.csv,img/leftArrow.png,img/rightArrow.png,img/rightArrow.png,8,0,left,"[0, 0]","[0.0385, 0]","[-0.0385, 0]",img/object_images/car_toy05.jpg,"[0.035, 0.035]",,,,,0,0,0,0,0,5,5,3,,,,,,,,,,,,,,,,,,,,,,,3.8847695390781563,228.27438650000113,228.27438650000113,228.27438650000113,228.27438650000113,228.4834139999948,228.63328769999498,232.31368839999777,232.31368839999777,['s'],[0.4359699000051478],1,,,,,,,,,,,,,,,,,,,,,,,,,,,,,,,,,,,,,,,,,,,,,,,,,,,,,,,,,,,,,,,,,,,,,,,,,,,,,,,,,260019,2024-03-21_10h58.02.690,mfe_c_object,2022.2.4,59.93382107495383,
flanker_practice_block.csv,img/leftArrow.png,img/leftArrow.png,img/leftArrow.png,6,1,left,"[0, 0]","[0.0385, 0]","[-0.0385, 0]",img/object_images/usb01.jpg,"[0.035, 0.035]",,,,,0,0,0,0,0,6,6,14,,,,,,,,,,,,,,,,,,,,,,,3.6523046092184366,232.31368839999777,232.31368839999777,232.31368839999777,232.31368839999777,232.52077219999774,232.67075679999834,236.1189527999959,236.1189527999959,['s'],[0.5334962000051746],1,,,,,,,,,,,,,,,,,,,,,,,,,,,,,,,,,,,,,,,,,,,,,,,,,,,,,,,,,,,,,,,,,,,,,,,,,,,,,,,,,260019,2024-03-21_10h58.02.690,mfe_c_object,2022.2.4,59.93382107495383,
flanker_practice_block.csv,img/leftArrow.png,img/rightArrow.png,img/rightArrow.png,8,0,left,"[0, 0]","[0.0385, 0]","[-0.0385, 0]",img/object_images/spoon01.jpg,"[0.035, 0.035]",,,,,0,0,0,0,0,7,7,18,,,,,,,,,,,,,,,,,,,,,,,3.6953907815631264,236.1189527999959,236.1189527999959,236.1189527999959,236.1189527999959,236.32442340000125,236.4744486999989,239.96320639999612,239.96320639999612,['s'],[0.536209300000337],1,,,,,,,,,,,,,,,,,,,,,,,,,,,,,,,,,,,,,,,,,,,,,,,,,,,,,,,,,,,,,,,,,,,,,,,,,,,,,,,,,260019,2024-03-21_10h58.02.690,mfe_c_object,2022.2.4,59.93382107495383,
flanker_practice_block.csv,img/rightArrow.png,img/leftArrow.png,img/leftArrow.png,7,0,right,"[0, 0]","[0.0385, 0]","[-0.0385, 0]",img/object_images/staple_remover01.jpg,"[0.035, 0.035]",,,,,0,0,0,0,0,8,8,15,,,,,,,,,,,,,,,,,,,,,,,3.717434869739479,239.96320639999612,239.96320639999612,239.96320639999612,239.96320639999612,240.1784547999996,240.32841339999868,243.8237336999955,243.8237336999955,['k'],[0.5797654999987572],1,,,,,,,,,,,,,,,,,,,,,,,,,,,,,,,,,,,,,,,,,,,,,,,,,,,,,,,,,,,,,,,,,,,,,,,,,,,,,,,,,260019,2024-03-21_10h58.02.690,mfe_c_object,2022.2.4,59.93382107495383,
flanker_practice_block.csv,img/leftArrow.png,img/leftArrow.png,img/leftArrow.png,6,1,left,"[0, 0]","[0.0385, 0]","[-0.0385, 0]",img/object_images/hair_brush03.jpg,"[0.035, 0.035]",,,,,0,0,0,0,0,9,9,2,,,,,,,,,,,,,,,,,,,,,,,3.787575150300601,243.8237336999955,243.8237336999955,243.8237336999955,243.8237336999955,244.03227289999631,244.18213839999953,247.75779319999856,247.75779319999856,['s'],[0.50355860000127],1,,,,,,,,,,,,,,,,,,,,,,,,,,,,,,,,,,,,,,,,,,,,,,,,,,,,,,,,,,,,,,,,,,,,,,,,,,,,,,,,,260019,2024-03-21_10h58.02.690,mfe_c_object,2022.2.4,59.93382107495383,
flanker_practice_block.csv,img/leftArrow.png,img/rightArrow.png,img/rightArrow.png,8,0,left,"[0, 0]","[0.0385, 0]","[-0.0385, 0]",img/object_images/trumpet02.jpg,"[0.035, 0.035]",,,,,0,0,0,0,0,10,10,10,,,,,,,,,,,,,,,,,,,,,,,3.565130260521042,247.75779319999856,247.75779319999856,247.75779319999856,247.75779319999856,247.96964949999528,248.11944719999883,251.4675197999968,251.4675197999968,['s'],[0.48860810000041965],1,,,,,,,,,,,,,,,,,,,,,,,,,,,,,,,,,,,,,,,,,,,,,,,,,,,,,,,,,,,,,,,,,,,,,,,,,,,,,,,,,260019,2024-03-21_10h58.02.690,mfe_c_object,2022.2.4,59.93382107495383,
flanker_practice_block.csv,img/rightArrow.png,img/leftArrow.png,img/leftArrow.png,7,0,right,"[0, 0]","[0.0385, 0]","[-0.0385, 0]",img/object_images/accordion02.jpg,"[0.035, 0.035]",,,,,0,0,0,0,0,11,11,0,,,,,,,,,,,,,,,,,,,,,,,3.8927855711422845,251.4675197999968,251.4675197999968,251.4675197999968,251.4675197999968,251.67335620000085,251.82322519999434,255.50541140000132,255.50541140000132,['k'],[0.5241247000012663],1,,,,,,,,,,,,,,,,,,,,,,,,,,,,,,,,,,,,,,,,,,,,,,,,,,,,,,,,,,,,,,,,,,,,,,,,,,,,,,,,,260019,2024-03-21_10h58.02.690,mfe_c_object,2022.2.4,59.93382107495383,
flanker_practice_block.csv,img/rightArrow.png,img/rightArrow.png,img/rightArrow.png,5,1,right,"[0, 0]","[0.0385, 0]","[-0.0385, 0]",img/object_images/knife03.jpg,"[0.035, 0.035]",,,,,0,0,0,0,0,12,12,5,,,,,,,,,,,,,,,,,,,,,,,3.8957915831663326,255.50541140000132,255.50541140000132,255.50541140000132,255.50541140000132,255.71052839999902,255.86058090000006,259.57477619999554,259.57477619999554,['k'],[0.4453131999980542],1,,,,,,,,,,,,,,,,,,,,,,,,,,,,,,,,,,,,,,,,,,,,,,,,,,,,,,,,,,,,,,,,,,,,,,,,,,,,,,,,,260019,2024-03-21_10h58.02.690,mfe_c_object,2022.2.4,59.93382107495383,
flanker_practice_block.csv,img/leftArrow.png,img/leftArrow.png,img/leftArrow.png,6,1,left,"[0, 0]","[0.0385, 0]","[-0.0385, 0]",img/object_images/joystick02.jpg,"[0.035, 0.035]",,,,,0,0,0,0,0,13,13,4,,,,,,,,,,,,,,,,,,,,,,,3.5861723446893787,259.57477619999554,259.57477619999554,259.57477619999554,259.57477619999554,259.7814642000012,259.9312951999964,263.30938729999616,263.30938729999616,['s'],[0.4477095999973244],1,,,,,,,,,,,,,,,,,,,,,,,,,,,,,,,,,,,,,,,,,,,,,,,,,,,,,,,,,,,,,,,,,,,,,,,,,,,,,,,,,260019,2024-03-21_10h58.02.690,mfe_c_object,2022.2.4,59.93382107495383,
flanker_practice_block.csv,img/rightArrow.png,img/leftArrow.png,img/leftArrow.png,7,0,right,"[0, 0]","[0.0385, 0]","[-0.0385, 0]",img/object_images/headset03.jpg,"[0.035, 0.035]",,,,,0,0,0,0,0,14,14,11,,,,,,,,,,,,,,,,,,,,,,,3.9919839679358717,263.30938729999616,263.30938729999616,263.30938729999616,263.30938729999616,263.5183606999999,263.6685151999991,267.4505551999973,267.4505551999973,['k'],[0.4257182000001194],1,,,,,,,,,,,,,,,,,,,,,,,,,,,,,,,,,,,,,,,,,,,,,,,,,,,,,,,,,,,,,,,,,,,,,,,,,,,,,,,,,260019,2024-03-21_10h58.02.690,mfe_c_object,2022.2.4,59.93382107495383,
flanker_practice_block.csv,img/leftArrow.png,img/rightArrow.png,img/rightArrow.png,8,0,left,"[0, 0]","[0.0385, 0]","[-0.0385, 0]",img/object_images/Typewritter01.jpg,"[0.035, 0.035]",,,,,0,0,0,0,0,15,15,8,,,,,,,,,,,,,,,,,,,,,,,3.5951903807615233,267.4505551999973,267.4505551999973,267.4505551999973,267.4505551999973,267.6559142999977,267.8061480999968,271.205999699996,271.205999699996,['s'],[0.5570816999970702],1,,,,,,,,,,,,,,,,,,,,,,,,,,,,,,,,,,,,,,,,,,,,,,,,,,,,,,,,,,,,,,,,,,,,,,,,,,,,,,,,,260019,2024-03-21_10h58.02.690,mfe_c_object,2022.2.4,59.93382107495383,
flanker_practice_block.csv,img/rightArrow.png,img/leftArrow.png,img/leftArrow.png,7,0,right,"[0, 0]","[0.0385, 0]","[-0.0385, 0]",img/object_images/rock04.jpg,"[0.035, 0.035]",,,,,0,0,0,0,0,16,16,16,,,,,,,,,,,,,,,,,,,,,,,3.986973947895792,271.205999699996,271.205999699996,271.205999699996,271.205999699996,271.40969770000083,271.5596523999993,275.33893420000095,275.33893420000095,['k'],[0.46489309999742545],1,,,,,,,,,,,,,,,,,,,,,,,,,,,,,,,,,,,,,,,,,,,,,,,,,,,,,,,,,,,,,,,,,,,,,,,,,,,,,,,,,260019,2024-03-21_10h58.02.690,mfe_c_object,2022.2.4,59.93382107495383,
flanker_practice_block.csv,img/leftArrow.png,img/leftArrow.png,img/leftArrow.png,6,1,left,"[0, 0]","[0.0385, 0]","[-0.0385, 0]",img/object_images/vacuum_cleaner01.jpg,"[0.035, 0.035]",,,,,0,0,0,0,0,17,17,7,,,,,,,,,,,,,,,,,,,,,,,3.7274549098196395,275.33893420000095,275.33893420000095,275.33893420000095,275.33893420000095,275.54705860000104,275.6968446999963,279.2287626999969,279.2287626999969,['s'],[0.5233053999982076],1,,,,,,,,,,,,,,,,,,,,,,,,,,,,,,,,,,,,,,,,,,,,,,,,,,,,,,,,,,,,,,,,,,,,,,,,,,,,,,,,,260019,2024-03-21_10h58.02.690,mfe_c_object,2022.2.4,59.93382107495383,
flanker_practice_block.csv,img/leftArrow.png,img/leftArrow.png,img/leftArrow.png,6,1,left,"[0, 0]","[0.0385, 0]","[-0.0385, 0]",img/object_images/skate_board02.jpg,"[0.035, 0.035]",,,,,0,0,0,0,0,18,18,9,,,,,,,,,,,,,,,,,,,,,,,3.50501002004008,279.2287626999969,279.2287626999969,279.2287626999969,279.2287626999969,279.4342298999982,279.5840868999949,282.87810189999436,282.87810189999436,['s'],[0.5537614999993821],1,,,,,,,,,,,,,,,,,,,,,,,,,,,,,,,,,,,,,,,,,,,,,,,,,,,,,,,,,,,,,,,,,,,,,,,,,,,,,,,,,260019,2024-03-21_10h58.02.690,mfe_c_object,2022.2.4,59.93382107495383,
flanker_practice_block.csv,img/rightArrow.png,img/rightArrow.png,img/rightArrow.png,5,1,right,"[0, 0]","[0.0385, 0]","[-0.0385, 0]",img/object_images/usb_drive01.jpg,"[0.035, 0.035]",,,,,0,0,0,0,0,19,19,19,,,,,,,,,,,,,,,,,,,,,,,3.82064128256513,282.87810189999436,282.87810189999436,282.87810189999436,282.87810189999436,283.0879027999981,283.2378394999978,286.7065394999954,286.7065394999954,['k'],[0.5368216999995639],1,,,,,,,,,,,,,,,,,,,,,,,,,,,,,,,,,,,,,,,,,,,,,,,,,,,,,,,,,,,,,,,,,,,,,,,,,,,,,,,,,260019,2024-03-21_10h58.02.690,mfe_c_object,2022.2.4,59.93382107495383,
flanker_practice_block.csv,,,,,,,,,,,,,,,,0,0,0,0,,,,,,,,,,,,,,,,,,,,,,,,,,,,,,,,,,,,,,,286.7065394999954,286.7065394999954,286.7065394999954,k,125.41265230000135,,,,,,,,,,,,,,,,,,,,,,,,,,,,,,,,,,,,,,,,,,,,,,,,,,,,,,,,,,,,,,,,,,,,,,,,,,,,260019,2024-03-21_10h58.02.690,mfe_c_object,2022.2.4,59.93382107495383,
,,,,,,,,,,,,,,,,,,,,,,,,,,,,,,,,,,,,,,,,,,,,,,,,,,,,,,,,,,,,,,,412.1485695999945,412.1485695999945,c,8.417851599995629,,,,,,,,,,,,,,,,,,,,,,,,,,,,,,,,,,,,,,,,,,,,,,,,,,,,,,,,,,,,,,,,,,,,,,,,260019,2024-03-21_10h58.02.690,mfe_c_object,2022.2.4,59.93382107495383,
flanker_main_block_8.csv,img/rightArrow.png,img/leftArrow.png,img/leftArrow.png,7,0,right,"[0, 0]","[0.0385, 0]","[-0.0385, 0]",img/object_images/ribbon01.jpg,"[0.035, 0.035]",,,,,,,,,,,,,0,0,0,7,0,0,0,13,,,,,,,,,,,,,,427.4687855999946,3.943887775551102,,,,,,,,,,,1,,,,,,,,,,420.6048965000009,420.6048965000009,k,6.841241699999955,429.6639967999945,429.6639967999945,429.6639967999945,429.6639967999945,429.6639967999945,429.8675402999943,430.0174277999977,433.75690100000065,433.75690100000065,433.75690100000065,['k'],[0.5099981000021216],,,,,,,,,,,,,,,,,,,,,,,,,,,,,,,,,,,,,,,,,,,,,,,,,,,,,,,,260019,2024-03-21_10h58.02.690,mfe_c_object,2022.2.4,59.93382107495383,
flanker_main_block_8.csv,img/leftArrow.png,img/leftArrow.png,img/leftArrow.png,6,1,left,"[0, 0]","[0.0385, 0]","[-0.0385, 0]",img/object_images/ice_tray03.jpg,"[0.035, 0.035]",,,,,,,,,,,,,0,0,0,7,0,1,1,2,,,,,,,,,,,,,,,3.9198396793587174,,,,,,,,,,,1,,,,,,,,,,,,,,433.75690100000065,433.75690100000065,433.75690100000065,433.75690100000065,433.75690100000065,433.9717442999972,434.12161119999655,437.82364940000116,437.82364940000116,437.82364940000116,['s'],[0.4825992000041879],,,,,,,,,,,,,,,,,,,,,,,,,,,,,,,,,,,,,,,,,,,,,,,,,,,,,,,,260019,2024-03-21_10h58.02.690,mfe_c_object,2022.2.4,59.93382107495383,
flanker_main_block_8.csv,img/rightArrow.png,img/leftArrow.png,img/leftArrow.png,7,0,right,"[0, 0]","[0.0385, 0]","[-0.0385, 0]",img/object_images/belt01.jpg,"[0.035, 0.035]",,,,,,,,,,,,,0,0,0,7,0,2,2,7,,,,,,,,,,,,,,,3.6402805611222444,,,,,,,,,,,1,,,,,,,,,,,,,,437.82364940000116,437.82364940000116,437.82364940000116,437.82364940000116,437.82364940000116,438.0256259999951,438.17553809999663,441.6237523999953,441.6237523999953,441.6237523999953,['k'],[0.5105636000007507],,,,,,,,,,,,,,,,,,,,,,,,,,,,,,,,,,,,,,,,,,,,,,,,,,,,,,,,260019,2024-03-21_10h58.02.690,mfe_c_object,2022.2.4,59.93382107495383,
flanker_main_block_8.csv,img/rightArrow.png,img/rightArrow.png,img/rightArrow.png,5,1,right,"[0, 0]","[0.0385, 0]","[-0.0385, 0]",img/object_images/hair_brush05.jpg,"[0.035, 0.035]",,,,,,,,,,,,,0,0,0,7,0,3,3,12,,,,,,,,,,,,,,,3.7625250501002,,,,,,,,,,,1,,,,,,,,,,,,,,441.6237523999953,441.6237523999953,441.6237523999953,441.6237523999953,441.6237523999953,441.82942219999677,441.97942519999924,445.52912389999983,445.52912389999983,445.52912389999983,['k'],[0.48717620000388706],,,,,,,,,,,,,,,,,,,,,,,,,,,,,,,,,,,,,,,,,,,,,,,,,,,,,,,,260019,2024-03-21_10h58.02.690,mfe_c_object,2022.2.4,59.93382107495383,
flanker_main_block_8.csv,img/leftArrow.png,img/leftArrow.png,img/leftArrow.png,6,1,left,"[0, 0]","[0.0385, 0]","[-0.0385, 0]",img/object_images/tool11.jpg,"[0.035, 0.035]",,,,,,,,,,,,,0,0,0,7,0,4,4,17,,,,,,,,,,,,,,,3.672344689378758,,,,,,,,,,,1,,,,,,,,,,,,,,445.52912389999983,445.52912389999983,445.52912389999983,445.52912389999983,445.52912389999983,445.733435999995,445.8832697999969,449.33283289999963,449.33283289999963,449.33283289999963,['s'],[0.5253751999989618],,,,,,,,,,,,,,,,,,,,,,,,,,,,,,,,,,,,,,,,,,,,,,,,,,,,,,,,260019,2024-03-21_10h58.02.690,mfe_c_object,2022.2.4,59.93382107495383,
flanker_main_block_8.csv,img/rightArrow.png,img/leftArrow.png,img/leftArrow.png,7,0,right,"[0, 0]","[0.0385, 0]","[-0.0385, 0]",img/object_images/mask01.jpg,"[0.035, 0.035]",,,,,,,,,,,,,0,0,0,7,0,5,5,8,,,,,,,,,,,,,,,3.717434869739479,,,,,,,,,,,1,,,,,,,,,,,,,,449.33283289999963,449.33283289999963,449.33283289999963,449.33283289999963,449.33283289999963,449.53717219999817,449.6870875999957,453.18704720000096,453.18704720000096,453.18704720000096,['k'],[0.4732099000029848],,,,,,,,,,,,,,,,,,,,,,,,,,,,,,,,,,,,,,,,,,,,,,,,,,,,,,,,260019,2024-03-21_10h58.02.690,mfe_c_object,2022.2.4,59.93382107495383,
flanker_main_block_8.csv,img/rightArrow.png,img/leftArrow.png,img/leftArrow.png,7,0,right,"[0, 0]","[0.0385, 0]","[-0.0385, 0]",img/object_images/car04.jpg,"[0.035, 0.035]",,,,,,,,,,,,,0,0,0,7,0,6,6,16,,,,,,,,,,,,,,,3.646292585170341,,,,,,,,,,,1,,,,,,,,,,,,,,453.18704720000096,453.18704720000096,453.18704720000096,453.18704720000096,453.18704720000096,453.39102369999455,453.5409746000005,456.9779348999946,456.9779348999946,456.9779348999946,['k'],[0.5470773999986704],,,,,,,,,,,,,,,,,,,,,,,,,,,,,,,,,,,,,,,,,,,,,,,,,,,,,,,,260019,2024-03-21_10h58.02.690,mfe_c_object,2022.2.4,59.93382107495383,
flanker_main_block_8.csv,img/leftArrow.png,img/rightArrow.png,img/rightArrow.png,8,0,left,"[0, 0]","[0.0385, 0]","[-0.0385, 0]",img/object_images/jewel01.jpg,"[0.035, 0.035]",,,,,,,,,,,,,0,0,0,7,0,7,7,0,,,,,,,,,,,,,,,3.960921843687375,,,,,,,,,,,1,,,,,,,,,,,,,,456.9779348999946,456.9779348999946,456.9779348999946,456.9779348999946,456.9779348999946,457.1782355999967,457.32803969999804,461.08735159999924,461.08735159999924,461.08735159999924,['s'],[0.5088990000003832],,,,,,,,,,,,,,,,,,,,,,,,,,,,,,,,,,,,,,,,,,,,,,,,,,,,,,,,260019,2024-03-21_10h58.02.690,mfe_c_object,2022.2.4,59.93382107495383,
flanker_main_block_8.csv,img/leftArrow.png,img/rightArrow.png,img/rightArrow.png,8,0,left,"[0, 0]","[0.0385, 0]","[-0.0385, 0]",img/object_images/yarn02.jpg,"[0.035, 0.035]",,,,,,,,,,,,,0,0,0,7,0,8,8,25,,,,,,,,,,,,,,,3.875751503006012,,,,,,,,,,,1,,,,,,,,,,,,,,461.08735159999924,461.08735159999924,461.08735159999924,461.08735159999924,461.08735159999924,461.2989897000007,461.448925699995,465.1231742999953,465.1231742999953,465.1231742999953,['s'],[0.5346197000035318],,,,,,,,,,,,,,,,,,,,,,,,,,,,,,,,,,,,,,,,,,,,,,,,,,,,,,,,260019,2024-03-21_10h58.02.690,mfe_c_object,2022.2.4,59.93382107495383,
flanker_main_block_8.csv,img/rightArrow.png,img/leftArrow.png,img/leftArrow.png,7,0,right,"[0, 0]","[0.0385, 0]","[-0.0385, 0]",img/object_images/screwdriver01.jpg,"[0.035, 0.035]",,,,,,,,,,,,,0,0,0,7,0,9,9,31,,,,,,,,,,,,,,,3.5190380761523046,,,,,,,,,,,1,,,,,,,,,,,,,,465.1231742999953,465.1231742999953,465.1231742999953,465.1231742999953,465.1231742999953,465.33609729999444,465.4862121999977,468.78552359999594,468.78552359999594,468.78552359999594,['k'],[0.5236277000003611],,,,,,,,,,,,,,,,,,,,,,,,,,,,,,,,,,,,,,,,,,,,,,,,,,,,,,,,260019,2024-03-21_10h58.02.690,mfe_c_object,2022.2.4,59.93382107495383,
flanker_main_block_8.csv,img/rightArrow.png,img/rightArrow.png,img/rightArrow.png,5,1,right,"[0, 0]","[0.0385, 0]","[-0.0385, 0]",img/object_images/chair04.jpg,"[0.035, 0.035]",,,,,,,,,,,,,0,0,0,7,0,10,10,23,,,,,,,,,,,,,,,3.614228456913828,,,,,,,,,,,1,,,,,,,,,,,,,,468.78552359999594,468.78552359999594,468.78552359999594,468.78552359999594,468.78552359999594,468.98991820000083,469.13985169999796,472.54275029999553,472.54275029999553,472.54275029999553,['k'],[0.4609254000024521],,,,,,,,,,,,,,,,,,,,,,,,,,,,,,,,,,,,,,,,,,,,,,,,,,,,,,,,260019,2024-03-21_10h58.02.690,mfe_c_object,2022.2.4,59.93382107495383,
flanker_main_block_8.csv,img/leftArrow.png,img/rightArrow.png,img/rightArrow.png,8,0,left,"[0, 0]","[0.0385, 0]","[-0.0385, 0]",img/object_images/fan05.jpg,"[0.035, 0.035]",,,,,,,,,,,,,0,0,0,7,0,11,11,3,,,,,,,,,,,,,,,3.8246492985971945,,,,,,,,,,,1,,,,,,,,,,,,,,472.54275029999553,472.54275029999553,472.54275029999553,472.54275029999553,472.54275029999553,472.74365989999933,472.89363229999435,476.51302489999944,476.51302489999944,476.51302489999944,['s'],[0.43916950000129873],,,,,,,,,,,,,,,,,,,,,,,,,,,,,,,,,,,,,,,,,,,,,,,,,,,,,,,,260019,2024-03-21_10h58.02.690,mfe_c_object,2022.2.4,59.93382107495383,
flanker_main_block_8.csv,img/leftArrow.png,img/rightArrow.png,img/rightArrow.png,8,0,left,"[0, 0]","[0.0385, 0]","[-0.0385, 0]",img/object_images/cards01.jpg,"[0.035, 0.035]",,,,,,,,,,,,,0,0,0,7,0,12,12,29,,,,,,,,,,,,,,,3.5,,,,,,,,,,,1,,,,,,,,,,,,,,476.51302489999944,476.51302489999944,476.51302489999944,476.51302489999944,476.51302489999944,476.71419949999836,476.8641368999961,480.17377969999507,480.17377969999507,480.17377969999507,['s'],[0.5089836000042851],,,,,,,,,,,,,,,,,,,,,,,,,,,,,,,,,,,,,,,,,,,,,,,,,,,,,,,,260019,2024-03-21_10h58.02.690,mfe_c_object,2022.2.4,59.93382107495383,
flanker_main_block_8.csv,img/leftArrow.png,img/rightArrow.png,img/rightArrow.png,8,0,left,"[0, 0]","[0.0385, 0]","[-0.0385, 0]",img/object_images/tv01.jpg,"[0.035, 0.035]",,,,,,,,,,,,,0,0,0,7,0,13,13,1,,,,,,,,,,,,,,,3.5380761523046096,,,,,,,,,,,1,,,,,,,,,,,,,,480.17377969999507,480.17377969999507,480.17377969999507,480.17377969999507,480.17377969999507,480.3845969999966,480.53448260000005,483.85244659999444,483.85244659999444,483.85244659999444,['s'],[0.6487187999955495],,,,,,,,,,,,,,,,,,,,,,,,,,,,,,,,,,,,,,,,,,,,,,,,,,,,,,,,260019,2024-03-21_10h58.02.690,mfe_c_object,2022.2.4,59.93382107495383,
flanker_main_block_8.csv,img/rightArrow.png,img/leftArrow.png,img/leftArrow.png,7,0,right,"[0, 0]","[0.0385, 0]","[-0.0385, 0]",img/object_images/car03.jpg,"[0.035, 0.035]",,,,,,,,,,,,,0,0,0,7,0,14,14,11,,,,,,,,,,,,,,,3.6082164328657313,,,,,,,,,,,1,,,,,,,,,,,,,,483.85244659999444,483.85244659999444,483.85244659999444,483.85244659999444,483.85244659999444,484.0549705000012,484.2047773999948,487.6664703999995,487.6664703999995,487.6664703999995,['k'],[0.5304608000005828],,,,,,,,,,,,,,,,,,,,,,,,,,,,,,,,,,,,,,,,,,,,,,,,,,,,,,,,260019,2024-03-21_10h58.02.690,mfe_c_object,2022.2.4,59.93382107495383,
flanker_main_block_8.csv,img/leftArrow.png,img/leftArrow.png,img/leftArrow.png,6,1,left,"[0, 0]","[0.0385, 0]","[-0.0385, 0]",img/object_images/toaster02.jpg,"[0.035, 0.035]",,,,,,,,,,,,,0,0,0,7,0,15,15,20,,,,,,,,,,,,,,,3.814629258517034,,,,,,,,,,,1,,,,,,,,,,,,,,487.6664703999995,487.6664703999995,487.6664703999995,487.6664703999995,487.6664703999995,487.8752757999973,488.0252346999987,491.62433609999425,491.62433609999425,491.62433609999425,['s'],[0.5078982999984873],,,,,,,,,,,,,,,,,,,,,,,,,,,,,,,,,,,,,,,,,,,,,,,,,,,,,,,,260019,2024-03-21_10h58.02.690,mfe_c_object,2022.2.4,59.93382107495383,
flanker_main_block_8.csv,img/leftArrow.png,img/rightArrow.png,img/rightArrow.png,8,0,left,"[0, 0]","[0.0385, 0]","[-0.0385, 0]",img/object_images/ladle02.jpg,"[0.035, 0.035]",,,,,,,,,,,,,0,0,0,7,0,16,16,21,,,,,,,,,,,,,,,3.7164328657314627,,,,,,,,,,,1,,,,,,,,,,,,,,491.62433609999425,491.62433609999425,491.63097439999547,491.62433609999425,491.62433609999425,491.84604849999596,491.9792682999978,495.48268449999887,495.48268449999887,495.48268449999887,['s'],[0.5264785999970627],,,,,,,,,,,,,,,,,,,,,,,,,,,,,,,,,,,,,,,,,,,,,,,,,,,,,,,,260019,2024-03-21_10h58.02.690,mfe_c_object,2022.2.4,59.93382107495383,
flanker_main_block_8.csv,img/rightArrow.png,img/rightArrow.png,img/rightArrow.png,5,1,right,"[0, 0]","[0.0385, 0]","[-0.0385, 0]",img/object_images/lemon_squeezer02.jpg,"[0.035, 0.035]",,,,,,,,,,,,,0,0,0,7,0,17,17,27,,,,,,,,,,,,,,,3.606212424849699,,,,,,,,,,,1,,,,,,,,,,,,,,495.48268449999887,495.48268449999887,495.48268449999887,495.48268449999887,495.48268449999887,495.68323339999915,495.83319919999485,499.23570779999864,499.23570779999864,499.23570779999864,['k'],[0.47516470000118716],,,,,,,,,,,,,,,,,,,,,,,,,,,,,,,,,,,,,,,,,,,,,,,,,,,,,,,,260019,2024-03-21_10h58.02.690,mfe_c_object,2022.2.4,59.93382107495383,
flanker_main_block_8.csv,img/rightArrow.png,img/leftArrow.png,img/leftArrow.png,7,0,right,"[0, 0]","[0.0385, 0]","[-0.0385, 0]",img/object_images/rock03.jpg,"[0.035, 0.035]",,,,,,,,,,,,,0,0,0,7,0,18,18,15,,,,,,,,,,,,,,,3.5470941883767537,,,,,,,,,,,1,,,,,,,,,,,,,,499.23570779999864,499.23570779999864,499.23570779999864,499.23570779999864,499.23570779999864,499.43704559999605,499.58691610000096,502.9246739000009,502.9246739000009,502.9246739000009,['k'],[0.5384208000032231],,,,,,,,,,,,,,,,,,,,,,,,,,,,,,,,,,,,,,,,,,,,,,,,,,,,,,,,260019,2024-03-21_10h58.02.690,mfe_c_object,2022.2.4,59.93382107495383,
flanker_main_block_8.csv,img/leftArrow.png,img/leftArrow.png,img/leftArrow.png,6,1,left,"[0, 0]","[0.0385, 0]","[-0.0385, 0]",img/object_images/cutting_board01.jpg,"[0.035, 0.035]",,,,,,,,,,,,,0,0,0,7,0,19,19,6,,,,,,,,,,,,,,,3.6312625250501003,,,,,,,,,,,1,,,,,,,,,,,,,,502.9246739000009,502.9246739000009,502.9246739000009,502.9246739000009,502.9246739000009,503.1239968000009,503.27395599999727,506.7056481999971,506.7056481999971,506.7056481999971,['s'],[0.4657249000010779],,,,,,,,,,,,,,,,,,,,,,,,,,,,,,,,,,,,,,,,,,,,,,,,,,,,,,,,260019,2024-03-21_10h58.02.690,mfe_c_object,2022.2.4,59.93382107495383,
flanker_main_block_8.csv,img/leftArrow.png,img/leftArrow.png,img/leftArrow.png,6,1,left,"[0, 0]","[0.0385, 0]","[-0.0385, 0]",img/object_images/shower_head03.jpg,"[0.035, 0.035]",,,,,,,,,,,,,0,0,0,7,0,20,20,5,,,,,,,,,,,,,,,3.593186372745491,,,,,,,,,,,1,,,,,,,,,,,,,,506.7056481999971,506.7056481999971,506.7056481999971,506.7056481999971,506.7056481999971,506.9112349999996,507.0610940999977,510.4908183000007,510.4908183000007,510.4908183000007,['s'],[0.5170481000022846],,,,,,,,,,,,,,,,,,,,,,,,,,,,,,,,,,,,,,,,,,,,,,,,,,,,,,,,260019,2024-03-21_10h58.02.690,mfe_c_object,2022.2.4,59.93382107495383,
flanker_main_block_8.csv,img/rightArrow.png,img/leftArrow.png,img/leftArrow.png,7,0,right,"[0, 0]","[0.0385, 0]","[-0.0385, 0]",img/object_images/satellite01.jpg,"[0.035, 0.035]",,,,,,,,,,,,,0,0,0,7,0,21,21,24,,,,,,,,,,,,,,,3.782565130260521,,,,,,,,,,,1,,,,,,,,,,,,,,510.4908183000007,510.4908183000007,510.4908183000007,510.4908183000007,510.4908183000007,510.6981608999995,510.8479484999989,514.4597251000014,514.4597251000014,514.4597251000014,['k'],[0.5479168000019854],,,,,,,,,,,,,,,,,,,,,,,,,,,,,,,,,,,,,,,,,,,,,,,,,,,,,,,,260019,2024-03-21_10h58.02.690,mfe_c_object,2022.2.4,59.93382107495383,
flanker_main_block_8.csv,img/leftArrow.png,img/leftArrow.png,img/leftArrow.png,6,1,left,"[0, 0]","[0.0385, 0]","[-0.0385, 0]",img/object_images/binoculars03.jpg,"[0.035, 0.035]",,,,,,,,,,,,,0,0,0,7,0,22,22,14,,,,,,,,,,,,,,,3.524048096192385,,,,,,,,,,,1,,,,,,,,,,,,,,514.4597251000014,514.4597251000014,514.4597251000014,514.4597251000014,514.4597251000014,514.6688703999971,514.8187219999963,518.122533099995,518.122533099995,518.122533099995,['s'],[0.49866360000305576],,,,,,,,,,,,,,,,,,,,,,,,,,,,,,,,,,,,,,,,,,,,,,,,,,,,,,,,260019,2024-03-21_10h58.02.690,mfe_c_object,2022.2.4,59.93382107495383,
flanker_main_block_8.csv,img/rightArrow.png,img/rightArrow.png,img/rightArrow.png,5,1,right,"[0, 0]","[0.0385, 0]","[-0.0385, 0]",img/object_images/key02.jpg,"[0.035, 0.035]",,,,,,,,,,,,,0,0,0,7,0,23,23,18,,,,,,,,,,,,,,,3.7715430861723447,,,,,,,,,,,1,,,,,,,,,,,,,,518.122533099995,518.122533099995,518.122533099995,518.122533099995,518.122533099995,518.3224589999954,518.4724404000008,522.0339738999974,522.0339738999974,522.0339738999974,['k'],[0.5395535999996355],,,,,,,,,,,,,,,,,,,,,,,,,,,,,,,,,,,,,,,,,,,,,,,,,,,,,,,,260019,2024-03-21_10h58.02.690,mfe_c_object,2022.2.4,59.93382107495383,
flanker_main_block_8.csv,img/leftArrow.png,img/rightArrow.png,img/rightArrow.png,8,0,left,"[0, 0]","[0.0385, 0]","[-0.0385, 0]",img/object_images/razor01.jpg,"[0.035, 0.035]",,,,,,,,,,,,,0,0,0,7,0,24,24,26,,,,,,,,,,,,,,,3.8547094188376754,,,,,,,,,,,1,,,,,,,,,,,,,,522.0339738999974,522.0339738999974,522.0401665999962,522.0339738999974,522.0339738999974,522.242948799998,522.3928703999991,526.0363862000013,526.0363862000013,526.0363862000013,['s'],[0.5008531999992556],,,,,,,,,,,,,,,,,,,,,,,,,,,,,,,,,,,,,,,,,,,,,,,,,,,,,,,,260019,2024-03-21_10h58.02.690,mfe_c_object,2022.2.4,59.93382107495383,
flanker_main_block_8.csv,img/leftArrow.png,img/rightArrow.png,img/rightArrow.png,8,0,left,"[0, 0]","[0.0385, 0]","[-0.0385, 0]",img/object_images/shoes10.jpg,"[0.035, 0.035]",,,,,,,,,,,,,0,0,0,7,0,25,25,22,,,,,,,,,,,,,,,3.8256513026052104,,,,,,,,,,,1,,,,,,,,,,,,,,526.0363862000013,526.0363862000013,526.0363862000013,526.0363862000013,526.0363862000013,526.2471019000004,526.3970389999959,530.0216437999989,530.0216437999989,530.0216437999989,['s'],[0.48235760000534356],,,,,,,,,,,,,,,,,,,,,,,,,,,,,,,,,,,,,,,,,,,,,,,,,,,,,,,,260019,2024-03-21_10h58.02.690,mfe_c_object,2022.2.4,59.93382107495383,
flanker_main_block_8.csv,img/rightArrow.png,img/rightArrow.png,img/rightArrow.png,5,1,right,"[0, 0]","[0.0385, 0]","[-0.0385, 0]",img/object_images/WitchHat02.jpg,"[0.035, 0.035]",,,,,,,,,,,,,0,0,0,7,0,26,26,4,,,,,,,,,,,,,,,3.965931863727455,,,,,,,,,,,1,,,,,,,,,,,,,,530.0216437999989,530.0216437999989,530.0216437999989,530.0216437999989,530.0216437999989,530.234174899997,530.3843139999954,534.1176999999952,534.1176999999952,534.1176999999952,['k'],[0.47370869999576826],,,,,,,,,,,,,,,,,,,,,,,,,,,,,,,,,,,,,,,,,,,,,,,,,,,,,,,,260019,2024-03-21_10h58.02.690,mfe_c_object,2022.2.4,59.93382107495383,
flanker_main_block_8.csv,img/rightArrow.png,img/rightArrow.png,img/rightArrow.png,5,1,right,"[0, 0]","[0.0385, 0]","[-0.0385, 0]",img/object_images/dress03.jpg,"[0.035, 0.035]",,,,,,,,,,,,,0,0,0,7,0,27,27,30,,,,,,,,,,,,,,,3.8366733466933867,,,,,,,,,,,1,,,,,,,,,,,,,,534.1176999999952,534.1176999999952,534.1176999999952,534.1176999999952,534.1176999999952,534.3218086999987,534.4715739999956,538.0863409000012,538.0863409000012,538.0863409000012,['k'],[0.43215889999555657],,,,,,,,,,,,,,,,,,,,,,,,,,,,,,,,,,,,,,,,,,,,,,,,,,,,,,,,260019,2024-03-21_10h58.02.690,mfe_c_object,2022.2.4,59.93382107495383,
flanker_main_block_8.csv,img/rightArrow.png,img/rightArrow.png,img/rightArrow.png,5,1,right,"[0, 0]","[0.0385, 0]","[-0.0385, 0]",img/object_images/MeasuringCup01.jpg,"[0.035, 0.035]",,,,,,,,,,,,,0,0,0,7,0,28,28,9,,,,,,,,,,,,,,,3.7144288577154305,,,,,,,,,,,1,,,,,,,,,,,,,,538.0863409000012,538.0863409000012,538.0924536999955,538.0863409000012,538.0863409000012,538.2924166000012,538.4423806999985,541.9404585999946,541.9404585999946,541.9404585999946,['k'],[0.44077850000030594],,,,,,,,,,,,,,,,,,,,,,,,,,,,,,,,,,,,,,,,,,,,,,,,,,,,,,,,260019,2024-03-21_10h58.02.690,mfe_c_object,2022.2.4,59.93382107495383,
flanker_main_block_8.csv,img/leftArrow.png,img/leftArrow.png,img/leftArrow.png,6,1,left,"[0, 0]","[0.0385, 0]","[-0.0385, 0]",img/object_images/bag06.jpg,"[0.035, 0.035]",,,,,,,,,,,,,0,0,0,7,0,29,29,28,,,,,,,,,,,,,,,3.841683366733467,,,,,,,,,,,1,,,,,,,,,,,,,,541.9404585999946,541.9404585999946,541.9466247999953,541.9404585999946,541.9404585999946,542.1461787000007,542.2960749999984,545.9116224999962,545.9116224999962,545.9116224999962,['s'],[0.5060021999961464],,,,,,,,,,,,,,,,,,,,,,,,,,,,,,,,,,,,,,,,,,,,,,,,,,,,,,,,260019,2024-03-21_10h58.02.690,mfe_c_object,2022.2.4,59.93382107495383,
flanker_main_block_8.csv,img/leftArrow.png,img/leftArrow.png,img/leftArrow.png,6,1,left,"[0, 0]","[0.0385, 0]","[-0.0385, 0]",img/object_images/jewelry07.jpg,"[0.035, 0.035]",,,,,,,,,,,,,0,0,0,7,0,30,30,10,,,,,,,,,,,,,,,3.9318637274549095,,,,,,,,,,,1,,,,,,,,,,,,,,545.9116224999962,545.9116224999962,545.9178603999972,545.9116224999962,545.9116224999962,546.133359899999,546.2667683999971,549.986688500001,549.986688500001,549.986688500001,['s'],[0.4869315999967512],,,,,,,,,,,,,,,,,,,,,,,,,,,,,,,,,,,,,,,,,,,,,,,,,,,,,,,,260019,2024-03-21_10h58.02.690,mfe_c_object,2022.2.4,59.93382107495383,
flanker_main_block_8.csv,img/rightArrow.png,img/rightArrow.png,img/rightArrow.png,5,1,right,"[0, 0]","[0.0385, 0]","[-0.0385, 0]",img/object_images/slinky_toy01.jpg,"[0.035, 0.035]",,,,,,,,,,,,,0,0,0,7,0,31,31,19,,,,,,,,,,,,,,,3.659318637274549,,,,,,,,,,,1,,,,,,,,,,,,,,549.986688500001,549.986688500001,549.986688500001,549.986688500001,549.986688500001,550.1876110999947,550.3375209000005,553.6866349999982,553.6866349999982,553.6866349999982,['k'],[0.5160287999970024],,,,,,,,,,,,,,,,,,,,,,,,,,,,,,,,,,,,,,,,,,,,,,,,,,,,,,,,260019,2024-03-21_10h58.02.690,mfe_c_object,2022.2.4,59.93382107495383,
flanker_main_block_8.csv,,,,,,,,,,,,,,,,,,,,,,,,0,0,0,7,,,,,,,,,,,,,,,,,,,,,,,,,,,,,,,,,,,,,,,,,,,,,,,,,,,,,,,,2,553.6866349999982,563.6497129999989,k,1.588493399998697,,,,,,,,,,,,,,,,,,,,,,,,,,,,,,,,,,,,,,,,,,,,,,,,,,,260019,2024-03-21_10h58.02.690,mfe_c_object,2022.2.4,59.93382107495383,
flanker_main_block_7.csv,img/leftArrow.png,img/leftArrow.png,img/leftArrow.png,6,1,left,"[0, 0]","[0.0385, 0]","[-0.0385, 0]",img/object_images/golf_ball03.jpg,"[0.035, 0.035]",,,,,,,,,,,,,0,1,1,6,0,0,0,24,,,,,,,,,,,,,,569.9927069999976,3.6923847695390783,,,,,,,,,,,1,,,,,,,,,,565.2683609999949,565.2683609999949,k,4.689625899998646,572.1734133999998,572.1734133999998,572.1734133999998,572.1734133999998,572.1734133999998,572.3766087999975,572.5264031999977,576.0084308000005,576.0084308000005,576.0084308000005,['s'],[0.4004869999989751],,,,,,,,,,,,,,,,,,,,,,,,,,,,,,,,,,,,,,,,,,,,,,,,,,,,,,,,260019,2024-03-21_10h58.02.690,mfe_c_object,2022.2.4,59.93382107495383,
flanker_main_block_7.csv,img/leftArrow.png,img/leftArrow.png,img/leftArrow.png,6,1,left,"[0, 0]","[0.0385, 0]","[-0.0385, 0]",img/object_images/jewelry01.jpg,"[0.035, 0.035]",,,,,,,,,,,,,0,1,1,6,0,1,1,23,,,,,,,,,,,,,,,3.570140280561122,,,,,,,,,,,1,,,,,,,,,,,,,,576.0084308000005,576.0084308000005,576.014694999998,576.0084308000005,576.0084308000005,576.2301365999956,576.3635390999989,579.7120240000004,579.7120240000004,579.7120240000004,['s'],[0.41492660000221804],,,,,,,,,,,,,,,,,,,,,,,,,,,,,,,,,,,,,,,,,,,,,,,,,,,,,,,,260019,2024-03-21_10h58.02.690,mfe_c_object,2022.2.4,59.93382107495383,
flanker_main_block_7.csv,img/rightArrow.png,img/rightArrow.png,img/rightArrow.png,5,1,right,"[0, 0]","[0.0385, 0]","[-0.0385, 0]",img/object_images/pitcher02.jpg,"[0.035, 0.035]",,,,,,,,,,,,,0,1,1,6,0,2,2,3,,,,,,,,,,,,,,,3.9248496993987976,,,,,,,,,,,1,,,,,,,,,,,,,,579.7120240000004,579.7120240000004,579.7181858999975,579.7120240000004,579.7120240000004,579.9338860999997,580.0671297000008,583.7666589,583.7666589,583.7666589,['k'],[0.3825786000015796],,,,,,,,,,,,,,,,,,,,,,,,,,,,,,,,,,,,,,,,,,,,,,,,,,,,,,,,260019,2024-03-21_10h58.02.690,mfe_c_object,2022.2.4,59.93382107495383,
flanker_main_block_7.csv,img/leftArrow.png,img/rightArrow.png,img/rightArrow.png,8,0,left,"[0, 0]","[0.0385, 0]","[-0.0385, 0]",img/object_images/sleeping_bag01.jpg,"[0.035, 0.035]",,,,,,,,,,,,,0,1,1,6,0,3,3,0,,,,,,,,,,,,,,,3.720440881763527,,,,,,,,,,,1,,,,,,,,,,,,,,583.7666589,583.7666589,583.773457999996,583.7666589,583.7666589,583.9878567999986,584.121143299999,587.6239752999973,587.6239752999973,587.6239752999973,['s'],[0.3848728000011761],,,,,,,,,,,,,,,,,,,,,,,,,,,,,,,,,,,,,,,,,,,,,,,,,,,,,,,,260019,2024-03-21_10h58.02.690,mfe_c_object,2022.2.4,59.93382107495383,
flanker_main_block_7.csv,img/leftArrow.png,img/rightArrow.png,img/rightArrow.png,8,0,left,"[0, 0]","[0.0385, 0]","[-0.0385, 0]",img/object_images/vga_port 01.jpg,"[0.035, 0.035]",,,,,,,,,,,,,0,1,1,6,0,4,4,16,,,,,,,,,,,,,,,3.597194388777555,,,,,,,,,,,1,,,,,,,,,,,,,,587.6239752999973,587.6239752999973,587.6239752999973,587.6239752999973,587.6239752999973,587.8250621999978,587.974950799995,591.3612136999946,591.3612136999946,591.3612136999946,['s'],[0.3659592999974848],,,,,,,,,,,,,,,,,,,,,,,,,,,,,,,,,,,,,,,,,,,,,,,,,,,,,,,,260019,2024-03-21_10h58.02.690,mfe_c_object,2022.2.4,59.93382107495383,
flanker_main_block_7.csv,img/rightArrow.png,img/rightArrow.png,img/rightArrow.png,5,1,right,"[0, 0]","[0.0385, 0]","[-0.0385, 0]",img/object_images/measuring_tape02.jpg,"[0.035, 0.035]",,,,,,,,,,,,,0,1,1,6,0,5,5,29,,,,,,,,,,,,,,,3.5330661322645294,,,,,,,,,,,1,,,,,,,,,,,,,,591.3612136999946,591.3612136999946,591.3612136999946,591.3612136999946,591.3612136999946,591.5620945999981,591.7119466000004,595.0283442,595.0283442,595.0283442,['k'],[0.39759450000565266],,,,,,,,,,,,,,,,,,,,,,,,,,,,,,,,,,,,,,,,,,,,,,,,,,,,,,,,260019,2024-03-21_10h58.02.690,mfe_c_object,2022.2.4,59.93382107495383,
flanker_main_block_7.csv,img/rightArrow.png,img/rightArrow.png,img/rightArrow.png,5,1,right,"[0, 0]","[0.0385, 0]","[-0.0385, 0]",img/object_images/gift_box02.jpg,"[0.035, 0.035]",,,,,,,,,,,,,0,1,1,6,0,6,6,1,,,,,,,,,,,,,,,3.6783567134268536,,,,,,,,,,,1,,,,,,,,,,,,,,595.0283442,595.0283442,595.0283442,595.0283442,595.0283442,595.232503399995,595.3824915000005,598.8469490999996,598.8469490999996,598.8469490999996,['k'],[0.38563040000008186],,,,,,,,,,,,,,,,,,,,,,,,,,,,,,,,,,,,,,,,,,,,,,,,,,,,,,,,260019,2024-03-21_10h58.02.690,mfe_c_object,2022.2.4,59.93382107495383,
flanker_main_block_7.csv,img/rightArrow.png,img/leftArrow.png,img/leftArrow.png,7,0,right,"[0, 0]","[0.0385, 0]","[-0.0385, 0]",img/object_images/jacket03.jpg,"[0.035, 0.035]",,,,,,,,,,,,,0,1,1,6,0,7,7,4,,,,,,,,,,,,,,,3.504008016032064,,,,,,,,,,,1,,,,,,,,,,,,,,598.8469490999996,598.8469490999996,598.8530478999965,598.8469490999996,598.8469490999996,599.0529638000007,599.2031653000013,602.4883432999995,602.4883432999995,602.4883432999995,['k'],[0.5516120000029332],,,,,,,,,,,,,,,,,,,,,,,,,,,,,,,,,,,,,,,,,,,,,,,,,,,,,,,,260019,2024-03-21_10h58.02.690,mfe_c_object,2022.2.4,59.93382107495383,
flanker_main_block_7.csv,img/leftArrow.png,img/rightArrow.png,img/rightArrow.png,8,0,left,"[0, 0]","[0.0385, 0]","[-0.0385, 0]",img/object_images/funnel01.jpg,"[0.035, 0.035]",,,,,,,,,,,,,0,1,1,6,0,8,8,9,,,,,,,,,,,,,,,3.523046092184369,,,,,,,,,,,1,,,,,,,,,,,,,,602.4883432999995,602.4883432999995,602.4883432999995,602.4883432999995,602.4883432999995,602.6898576999956,602.8396635999961,606.1573635999957,606.1573635999957,606.1573635999957,['s'],[0.342001099998015],,,,,,,,,,,,,,,,,,,,,,,,,,,,,,,,,,,,,,,,,,,,,,,,,,,,,,,,260019,2024-03-21_10h58.02.690,mfe_c_object,2022.2.4,59.93382107495383,
flanker_main_block_7.csv,img/leftArrow.png,img/leftArrow.png,img/leftArrow.png,6,1,left,"[0, 0]","[0.0385, 0]","[-0.0385, 0]",img/object_images/fork03.jpg,"[0.035, 0.035]",,,,,,,,,,,,,0,1,1,6,0,9,9,13,,,,,,,,,,,,,,,3.7194388777555107,,,,,,,,,,,1,,,,,,,,,,,,,,606.1573635999957,606.1573635999957,606.1573635999957,606.1573635999957,606.1573635999957,606.3599380000014,606.5101317000008,610.0238151999947,610.0238151999947,610.0238151999947,['s'],[0.4566374999994878],,,,,,,,,,,,,,,,,,,,,,,,,,,,,,,,,,,,,,,,,,,,,,,,,,,,,,,,260019,2024-03-21_10h58.02.690,mfe_c_object,2022.2.4,59.93382107495383,
flanker_main_block_7.csv,img/rightArrow.png,img/leftArrow.png,img/leftArrow.png,7,0,right,"[0, 0]","[0.0385, 0]","[-0.0385, 0]",img/object_images/socks02.jpg,"[0.035, 0.035]",,,,,,,,,,,,,0,1,1,6,0,10,10,26,,,,,,,,,,,,,,,3.6803607214428857,,,,,,,,,,,1,,,,,,,,,,,,,,610.0238151999947,610.0238151999947,610.0238151999947,610.0238151999947,610.0238151999947,610.2308195000005,610.3807558999979,613.8670612999995,613.8670612999995,613.8670612999995,['k'],[0.3836418999999296],,,,,,,,,,,,,,,,,,,,,,,,,,,,,,,,,,,,,,,,,,,,,,,,,,,,,,,,260019,2024-03-21_10h58.02.690,mfe_c_object,2022.2.4,59.93382107495383,
flanker_main_block_7.csv,img/rightArrow.png,img/leftArrow.png,img/leftArrow.png,7,0,right,"[0, 0]","[0.0385, 0]","[-0.0385, 0]",img/object_images/couch03.jpg,"[0.035, 0.035]",,,,,,,,,,,,,0,1,1,6,0,11,11,10,,,,,,,,,,,,,,,3.664328657314629,,,,,,,,,,,1,,,,,,,,,,,,,,613.8670612999995,613.8670612999995,613.8670612999995,613.8670612999995,613.8670612999995,614.0678427999956,614.2177204999971,617.6665365000008,617.6665365000008,617.6665365000008,['k'],[0.50671589999547],,,,,,,,,,,,,,,,,,,,,,,,,,,,,,,,,,,,,,,,,,,,,,,,,,,,,,,,260019,2024-03-21_10h58.02.690,mfe_c_object,2022.2.4,59.93382107495383,
flanker_main_block_7.csv,img/leftArrow.png,img/rightArrow.png,img/rightArrow.png,8,0,left,"[0, 0]","[0.0385, 0]","[-0.0385, 0]",img/object_images/handkerchief01.jpg,"[0.035, 0.035]",,,,,,,,,,,,,0,1,1,6,0,12,12,31,,,,,,,,,,,,,,,3.756513026052104,,,,,,,,,,,1,,,,,,,,,,,,,,617.6665365000008,617.6665365000008,617.6727839999949,617.6665365000008,617.6665365000008,617.8884570999944,618.0215599000003,621.5548844000004,621.5548844000004,621.5548844000004,['s'],[0.5161968000029447],,,,,,,,,,,,,,,,,,,,,,,,,,,,,,,,,,,,,,,,,,,,,,,,,,,,,,,,260019,2024-03-21_10h58.02.690,mfe_c_object,2022.2.4,59.93382107495383,
flanker_main_block_7.csv,img/rightArrow.png,img/rightArrow.png,img/rightArrow.png,5,1,right,"[0, 0]","[0.0385, 0]","[-0.0385, 0]",img/object_images/wallet02.jpg,"[0.035, 0.035]",,,,,,,,,,,,,0,1,1,6,0,13,13,17,,,,,,,,,,,,,,,3.9138276553106213,,,,,,,,,,,1,,,,,,,,,,,,,,621.5548844000004,621.5548844000004,621.5548844000004,621.5548844000004,621.5548844000004,621.7588811999958,621.9088033999942,625.6098146000004,625.6098146000004,625.6098146000004,['k'],[0.41940510000131326],,,,,,,,,,,,,,,,,,,,,,,,,,,,,,,,,,,,,,,,,,,,,,,,,,,,,,,,260019,2024-03-21_10h58.02.690,mfe_c_object,2022.2.4,59.93382107495383,
flanker_main_block_7.csv,img/rightArrow.png,img/rightArrow.png,img/rightArrow.png,5,1,right,"[0, 0]","[0.0385, 0]","[-0.0385, 0]",img/object_images/clip02.jpg,"[0.035, 0.035]",,,,,,,,,,,,,0,1,1,6,0,14,14,27,,,,,,,,,,,,,,,3.9268537074148298,,,,,,,,,,,1,,,,,,,,,,,,,,625.6098146000004,625.6098146000004,625.6098146000004,625.6098146000004,625.6098146000004,625.8131088999944,625.9627667999957,629.6838310999956,629.6838310999956,629.6838310999956,['k'],[0.4680769999977201],,,,,,,,,,,,,,,,,,,,,,,,,,,,,,,,,,,,,,,,,,,,,,,,,,,,,,,,260019,2024-03-21_10h58.02.690,mfe_c_object,2022.2.4,59.93382107495383,
flanker_main_block_7.csv,img/leftArrow.png,img/leftArrow.png,img/leftArrow.png,6,1,left,"[0, 0]","[0.0385, 0]","[-0.0385, 0]",img/object_images/Screws01.jpg,"[0.035, 0.035]",,,,,,,,,,,,,0,1,1,6,0,15,15,6,,,,,,,,,,,,,,,3.840681362725451,,,,,,,,,,,1,,,,,,,,,,,,,,629.6838310999956,629.6838310999956,629.6838310999956,629.6838310999956,629.6838310999956,629.8837895999968,630.0337958999953,633.6722631000011,633.6722631000011,633.6722631000011,['s'],[0.41868539999995846],,,,,,,,,,,,,,,,,,,,,,,,,,,,,,,,,,,,,,,,,,,,,,,,,,,,,,,,260019,2024-03-21_10h58.02.690,mfe_c_object,2022.2.4,59.93382107495383,
flanker_main_block_7.csv,img/rightArrow.png,img/rightArrow.png,img/rightArrow.png,5,1,right,"[0, 0]","[0.0385, 0]","[-0.0385, 0]",img/object_images/coloring_pencil01.jpg,"[0.035, 0.035]",,,,,,,,,,,,,0,1,1,6,0,16,16,14,,,,,,,,,,,,,,,3.6713426853707416,,,,,,,,,,,1,,,,,,,,,,,,,,633.6722631000011,633.6722631000011,633.6722631000011,633.6722631000011,633.6722631000011,633.8876887000006,634.0377777999965,637.5075684999974,637.5075684999974,637.5075684999974,['k'],[0.3822126000013668],,,,,,,,,,,,,,,,,,,,,,,,,,,,,,,,,,,,,,,,,,,,,,,,,,,,,,,,260019,2024-03-21_10h58.02.690,mfe_c_object,2022.2.4,59.93382107495383,
flanker_main_block_7.csv,img/leftArrow.png,img/leftArrow.png,img/leftArrow.png,6,1,left,"[0, 0]","[0.0385, 0]","[-0.0385, 0]",img/object_images/lock04.jpg,"[0.035, 0.035]",,,,,,,,,,,,,0,1,1,6,0,17,17,7,,,,,,,,,,,,,,,3.5070140280561124,,,,,,,,,,,1,,,,,,,,,,,,,,637.5075684999974,637.5075684999974,637.5075684999974,637.5075684999974,637.5075684999974,637.7081465999945,637.8582175999982,641.1569104999944,641.1569104999944,641.1569104999944,['s'],[0.3944439000042621],,,,,,,,,,,,,,,,,,,,,,,,,,,,,,,,,,,,,,,,,,,,,,,,,,,,,,,,260019,2024-03-21_10h58.02.690,mfe_c_object,2022.2.4,59.93382107495383,
flanker_main_block_7.csv,img/leftArrow.png,img/rightArrow.png,img/rightArrow.png,8,0,left,"[0, 0]","[0.0385, 0]","[-0.0385, 0]",img/object_images/balloon01.jpg,"[0.035, 0.035]",,,,,,,,,,,,,0,1,1,6,0,18,18,21,,,,,,,,,,,,,,,3.633266533066132,,,,,,,,,,,1,,,,,,,,,,,,,,641.1569104999944,641.1569104999944,641.1630583000006,641.1569104999944,641.1569104999944,641.3784857999999,641.5117317999975,644.9268459999948,644.9268459999948,644.9268459999948,['s'],[0.3935553000046639],,,,,,,,,,,,,,,,,,,,,,,,,,,,,,,,,,,,,,,,,,,,,,,,,,,,,,,,260019,2024-03-21_10h58.02.690,mfe_c_object,2022.2.4,59.93382107495383,
flanker_main_block_7.csv,img/rightArrow.png,img/leftArrow.png,img/leftArrow.png,7,0,right,"[0, 0]","[0.0385, 0]","[-0.0385, 0]",img/object_images/bow_tie01.jpg,"[0.035, 0.035]",,,,,,,,,,,,,0,1,1,6,0,19,19,8,,,,,,,,,,,,,,,3.5110220440881763,,,,,,,,,,,1,,,,,,,,,,,,,,644.9268459999948,644.9268459999948,644.932970599999,644.9268459999948,644.9268459999948,645.1320682000005,645.2820701999954,648.5818416999973,648.5818416999973,648.5818416999973,['k'],[0.4637434000032954],,,,,,,,,,,,,,,,,,,,,,,,,,,,,,,,,,,,,,,,,,,,,,,,,,,,,,,,260019,2024-03-21_10h58.02.690,mfe_c_object,2022.2.4,59.93382107495383,
flanker_main_block_7.csv,img/leftArrow.png,img/leftArrow.png,img/leftArrow.png,6,1,left,"[0, 0]","[0.0385, 0]","[-0.0385, 0]",img/object_images/camera07.jpg,"[0.035, 0.035]",,,,,,,,,,,,,0,1,1,6,0,20,20,28,,,,,,,,,,,,,,,3.517034068136273,,,,,,,,,,,1,,,,,,,,,,,,,,648.5818416999973,648.5818416999973,648.5818416999973,648.5818416999973,648.5818416999973,648.7860012999954,648.9357830999943,652.2395971000005,652.2395971000005,652.2395971000005,['s'],[0.327905499994813],,,,,,,,,,,,,,,,,,,,,,,,,,,,,,,,,,,,,,,,,,,,,,,,,,,,,,,,260019,2024-03-21_10h58.02.690,mfe_c_object,2022.2.4,59.93382107495383,
flanker_main_block_7.csv,img/leftArrow.png,img/rightArrow.png,img/rightArrow.png,8,0,left,"[0, 0]","[0.0385, 0]","[-0.0385, 0]",img/object_images/dresser04.jpg,"[0.035, 0.035]",,,,,,,,,,,,,0,1,1,6,0,21,21,15,,,,,,,,,,,,,,,3.5961923847695387,,,,,,,,,,,1,,,,,,,,,,,,,,652.2395971000005,652.2395971000005,652.2395971000005,652.2395971000005,652.2395971000005,652.4395318999959,652.5895304000005,655.9755456999992,655.9755456999992,655.9755456999992,['s'],[0.38254659999802243],,,,,,,,,,,,,,,,,,,,,,,,,,,,,,,,,,,,,,,,,,,,,,,,,,,,,,,,260019,2024-03-21_10h58.02.690,mfe_c_object,2022.2.4,59.93382107495383,
flanker_main_block_7.csv,img/leftArrow.png,img/rightArrow.png,img/rightArrow.png,8,0,left,"[0, 0]","[0.0385, 0]","[-0.0385, 0]",img/object_images/hammer01.jpg,"[0.035, 0.035]",,,,,,,,,,,,,0,1,1,6,0,22,22,30,,,,,,,,,,,,,,,3.748496993987976,,,,,,,,,,,1,,,,,,,,,,,,,,655.9755456999992,655.9755456999992,655.9755456999992,655.9755456999992,655.9755456999992,656.1765151,656.3263774000006,659.8750390999994,659.8750390999994,659.8750390999994,['s'],[0.40620879999914905],,,,,,,,,,,,,,,,,,,,,,,,,,,,,,,,,,,,,,,,,,,,,,,,,,,,,,,,260019,2024-03-21_10h58.02.690,mfe_c_object,2022.2.4,59.93382107495383,
flanker_main_block_7.csv,img/rightArrow.png,img/rightArrow.png,img/rightArrow.png,5,1,right,"[0, 0]","[0.0385, 0]","[-0.0385, 0]",img/object_images/lawn_mower01.jpg,"[0.035, 0.035]",,,,,,,,,,,,,0,1,1,6,0,23,23,2,,,,,,,,,,,,,,,3.975951903807615,,,,,,,,,,,1,,,,,,,,,,,,,,659.8750390999994,659.8750390999994,659.8750390999994,659.8750390999994,659.8750390999994,660.080460899997,660.230468099995,663.9750940000013,663.9750940000013,663.9750940000013,['k'],[0.40427030000137165],,,,,,,,,,,,,,,,,,,,,,,,,,,,,,,,,,,,,,,,,,,,,,,,,,,,,,,,260019,2024-03-21_10h58.02.690,mfe_c_object,2022.2.4,59.93382107495383,
flanker_main_block_7.csv,img/rightArrow.png,img/leftArrow.png,img/leftArrow.png,7,0,right,"[0, 0]","[0.0385, 0]","[-0.0385, 0]",img/object_images/paper_cup01.jpg,"[0.035, 0.035]",,,,,,,,,,,,,0,1,1,6,0,24,24,18,,,,,,,,,,,,,,,3.751503006012024,,,,,,,,,,,1,,,,,,,,,,,,,,663.9750940000013,663.9750940000013,663.9812755999956,663.9750940000013,663.9750940000013,664.1844741999957,664.3344622000004,667.8691096999974,667.8691096999974,667.8691096999974,['k'],[0.43115010000474285],,,,,,,,,,,,,,,,,,,,,,,,,,,,,,,,,,,,,,,,,,,,,,,,,,,,,,,,260019,2024-03-21_10h58.02.690,mfe_c_object,2022.2.4,59.93382107495383,
flanker_main_block_7.csv,img/rightArrow.png,img/leftArrow.png,img/leftArrow.png,7,0,right,"[0, 0]","[0.0385, 0]","[-0.0385, 0]",img/object_images/bow_tie02.jpg,"[0.035, 0.035]",,,,,,,,,,,,,0,1,1,6,0,25,25,19,,,,,,,,,,,,,,,3.973947895791583,,,,,,,,,,,1,,,,,,,,,,,,,,667.8691096999974,667.8691096999974,667.8691096999974,667.8691096999974,667.8691096999974,668.0717158999978,668.2216741000011,671.9713593999986,671.9713593999986,671.9713593999986,['k'],[0.465112500001851],,,,,,,,,,,,,,,,,,,,,,,,,,,,,,,,,,,,,,,,,,,,,,,,,,,,,,,,260019,2024-03-21_10h58.02.690,mfe_c_object,2022.2.4,59.93382107495383,
flanker_main_block_7.csv,img/leftArrow.png,img/leftArrow.png,img/leftArrow.png,6,1,left,"[0, 0]","[0.0385, 0]","[-0.0385, 0]",img/object_images/gift_box01.jpg,"[0.035, 0.035]",,,,,,,,,,,,,0,1,1,6,0,26,26,20,,,,,,,,,,,,,,,3.6543086172344688,,,,,,,,,,,1,,,,,,,,,,,,,,671.9713593999986,671.9713593999986,671.9777945999958,671.9713593999986,671.9713593999986,672.1926770999999,672.3258863999945,675.7613397999958,675.7613397999958,675.7613397999958,['s'],[0.4036112999965553],,,,,,,,,,,,,,,,,,,,,,,,,,,,,,,,,,,,,,,,,,,,,,,,,,,,,,,,260019,2024-03-21_10h58.02.690,mfe_c_object,2022.2.4,59.93382107495383,
flanker_main_block_7.csv,img/leftArrow.png,img/leftArrow.png,img/leftArrow.png,6,1,left,"[0, 0]","[0.0385, 0]","[-0.0385, 0]",img/object_images/Witchhat01.jpg,"[0.035, 0.035]",,,,,,,,,,,,,0,1,1,6,0,27,27,12,,,,,,,,,,,,,,,3.818637274549098,,,,,,,,,,,1,,,,,,,,,,,,,,675.7613397999958,675.7613397999958,675.7613397999958,675.7613397999958,675.7613397999958,675.962889399998,676.1127621999985,679.7148697999946,679.7148697999946,679.7148697999946,['s'],[0.4447970000037458],,,,,,,,,,,,,,,,,,,,,,,,,,,,,,,,,,,,,,,,,,,,,,,,,,,,,,,,260019,2024-03-21_10h58.02.690,mfe_c_object,2022.2.4,59.93382107495383,
flanker_main_block_7.csv,img/rightArrow.png,img/leftArrow.png,img/leftArrow.png,7,0,right,"[0, 0]","[0.0385, 0]","[-0.0385, 0]",img/object_images/ironing_table01.jpg,"[0.035, 0.035]",,,,,,,,,,,,,0,1,1,6,0,28,28,5,,,,,,,,,,,,,,,3.8336673346693386,,,,,,,,,,,1,,,,,,,,,,,,,,679.7148697999946,679.7148697999946,679.7148697999946,679.7148697999946,679.7148697999946,679.9168796000013,680.0668705999997,683.6788184999969,683.6788184999969,683.6788184999969,['k'],[0.4751620000024559],,,,,,,,,,,,,,,,,,,,,,,,,,,,,,,,,,,,,,,,,,,,,,,,,,,,,,,,260019,2024-03-21_10h58.02.690,mfe_c_object,2022.2.4,59.93382107495383,
flanker_main_block_7.csv,img/rightArrow.png,img/rightArrow.png,img/rightArrow.png,5,1,right,"[0, 0]","[0.0385, 0]","[-0.0385, 0]",img/object_images/grater01.jpg,"[0.035, 0.035]",,,,,,,,,,,,,0,1,1,6,0,29,29,22,,,,,,,,,,,,,,,3.5110220440881763,,,,,,,,,,,1,,,,,,,,,,,,,,683.6788184999969,683.6788184999969,683.6849881999951,683.6788184999969,683.6788184999969,683.8875380999962,684.037470999996,687.3224841999981,687.3224841999981,687.3224841999981,['k'],[0.39085530000011204],,,,,,,,,,,,,,,,,,,,,,,,,,,,,,,,,,,,,,,,,,,,,,,,,,,,,,,,260019,2024-03-21_10h58.02.690,mfe_c_object,2022.2.4,59.93382107495383,
flanker_main_block_7.csv,img/rightArrow.png,img/leftArrow.png,img/leftArrow.png,7,0,right,"[0, 0]","[0.0385, 0]","[-0.0385, 0]",img/object_images/gift_box03.jpg,"[0.035, 0.035]",,,,,,,,,,,,,0,1,1,6,0,30,30,25,,,,,,,,,,,,,,,3.8637274549098195,,,,,,,,,,,0,,,,,,,,,,,,,,687.3224841999981,687.3224841999981,687.3224841999981,687.3224841999981,687.3224841999981,687.5244798999993,687.6744519999993,691.3198736999984,691.3198736999984,691.3198736999984,['s'],[0.37103050000587245],,,,,,,,,,,,,,,,,,,,,,,,,,,,,,,,,,,,,,,,,,,,,,,,,,,,,,,,260019,2024-03-21_10h58.02.690,mfe_c_object,2022.2.4,59.93382107495383,
flanker_main_block_7.csv,img/leftArrow.png,img/rightArrow.png,img/rightArrow.png,8,0,left,"[0, 0]","[0.0385, 0]","[-0.0385, 0]",img/object_images/bath_tub01.jpg,"[0.035, 0.035]",,,,,,,,,,,,,0,1,1,6,0,31,31,11,,,,,,,,,,,,,,,3.603206412825651,,,,,,,,,,,1,,,,,,,,,,,,,,691.3198736999984,691.3198736999984,691.325952399995,691.3198736999984,691.3198736999984,691.5283492999952,691.6782778999986,694.9307305999973,694.9307305999973,694.9307305999973,['s'],[0.43825700000161305],,,,,,,,,,,,,,,,,,,,,,,,,,,,,,,,,,,,,,,,,,,,,,,,,,,,,,,,260019,2024-03-21_10h58.02.690,mfe_c_object,2022.2.4,59.93382107495383,
flanker_main_block_7.csv,,,,,,,,,,,,,,,,,,,,,,,,0,1,1,6,,,,,,,,,,,,,,,,,,,,,,,,,,,,,,,,,,,,,,,,,,,,,,,,,,,,,,,,2,694.9307305999973,704.9238643999997,k,27.818117200004053,,,,,,,,,,,,,,,,,,,,,,,,,,,,,,,,,,,,,,,,,,,,,,,,,,,260019,2024-03-21_10h58.02.690,mfe_c_object,2022.2.4,59.93382107495383,
flanker_main_block_10.csv,img/rightArrow.png,img/rightArrow.png,img/rightArrow.png,5,1,right,"[0, 0]","[0.0385, 0]","[-0.0385, 0]",img/object_images/boat02.jpg,"[0.035, 0.035]",,,,,,,,,,,,,0,2,2,9,0,0,0,8,,,,,,,,,,,,,,742.7491462999969,3.755511022044088,,,,,,,,,,,1,,,,,,,,,,732.7686410999959,732.7686410999959,k,9.948968999997305,744.9380437,744.9380437,744.9380437,744.9380437,744.9380437,745.1486530999973,745.2984653999956,748.8800885999954,748.8800885999954,748.8800885999954,['k'],[0.45287150000513066],,,,,,,,,,,,,,,,,,,,,,,,,,,,,,,,,,,,,,,,,,,,,,,,,,,,,,,,260019,2024-03-21_10h58.02.690,mfe_c_object,2022.2.4,59.93382107495383,
flanker_main_block_10.csv,img/leftArrow.png,img/rightArrow.png,img/rightArrow.png,8,0,left,"[0, 0]","[0.0385, 0]","[-0.0385, 0]",img/object_images/knit01.jpg,"[0.035, 0.035]",,,,,,,,,,,,,0,2,2,9,0,1,1,5,,,,,,,,,,,,,,,3.831663326653307,,,,,,,,,,,1,,,,,,,,,,,,,,748.8800885999954,748.8800885999954,748.8800885999954,748.8800885999954,748.8800885999954,749.0857381999958,749.2357709999997,752.8527026999946,752.8527026999946,752.8527026999946,['s'],[0.5179785000000265],,,,,,,,,,,,,,,,,,,,,,,,,,,,,,,,,,,,,,,,,,,,,,,,,,,,,,,,260019,2024-03-21_10h58.02.690,mfe_c_object,2022.2.4,59.93382107495383,
flanker_main_block_10.csv,img/rightArrow.png,img/leftArrow.png,img/leftArrow.png,7,0,right,"[0, 0]","[0.0385, 0]","[-0.0385, 0]",img/object_images/bottle09.jpg,"[0.035, 0.035]",,,,,,,,,,,,,0,2,2,9,0,2,2,28,,,,,,,,,,,,,,,3.6082164328657313,,,,,,,,,,,1,,,,,,,,,,,,,,752.8527026999946,752.8527026999946,752.8527026999946,752.8527026999946,752.8527026999946,753.0563743999955,753.2065474999981,756.6113480999993,756.6113480999993,756.6113480999993,['k'],[0.4411400999961188],,,,,,,,,,,,,,,,,,,,,,,,,,,,,,,,,,,,,,,,,,,,,,,,,,,,,,,,260019,2024-03-21_10h58.02.690,mfe_c_object,2022.2.4,59.93382107495383,
flanker_main_block_10.csv,img/rightArrow.png,img/rightArrow.png,img/rightArrow.png,5,1,right,"[0, 0]","[0.0385, 0]","[-0.0385, 0]",img/object_images/tool19.jpg,"[0.035, 0.035]",,,,,,,,,,,,,0,2,2,9,0,3,3,4,,,,,,,,,,,,,,,3.9849699398797593,,,,,,,,,,,1,,,,,,,,,,,,,,756.6113480999993,756.6113480999993,756.6113480999993,756.6113480999993,756.6113480999993,756.8268623999975,756.9601045999952,760.734432899997,760.734432899997,760.734432899997,"['k', 'k']","[0.45797250000032363, 0.5225356000009924]",,,,,,,,,,,,,,,,,,,,,,,,,,,,,,,,,,,,,,,,,,,,,,,,,,,,,,,,260019,2024-03-21_10h58.02.690,mfe_c_object,2022.2.4,59.93382107495383,
flanker_main_block_10.csv,img/leftArrow.png,img/rightArrow.png,img/rightArrow.png,8,0,left,"[0, 0]","[0.0385, 0]","[-0.0385, 0]",img/object_images/chair03.jpg,"[0.035, 0.035]",,,,,,,,,,,,,0,2,2,9,0,4,4,10,,,,,,,,,,,,,,,3.6132264529058116,,,,,,,,,,,1,,,,,,,,,,,,,,760.734432899997,760.734432899997,760.734432899997,760.734432899997,760.734432899997,760.9476480000012,761.0975152999963,764.4787403000009,764.4787403000009,764.4787403000009,['s'],[0.39115680000395514],,,,,,,,,,,,,,,,,,,,,,,,,,,,,,,,,,,,,,,,,,,,,,,,,,,,,,,,260019,2024-03-21_10h58.02.690,mfe_c_object,2022.2.4,59.93382107495383,
flanker_main_block_10.csv,img/leftArrow.png,img/leftArrow.png,img/leftArrow.png,6,1,left,"[0, 0]","[0.0385, 0]","[-0.0385, 0]",img/object_images/toaster01.jpg,"[0.035, 0.035]",,,,,,,,,,,,,0,2,2,9,0,5,5,0,,,,,,,,,,,,,,,3.7094188376753507,,,,,,,,,,,1,,,,,,,,,,,,,,764.4787403000009,764.4787403000009,764.4845825999946,764.4787403000009,764.4787403000009,764.6847119999948,764.8347605999952,768.3186820999981,768.3186820999981,768.3186820999981,['s'],[0.3840935000043828],,,,,,,,,,,,,,,,,,,,,,,,,,,,,,,,,,,,,,,,,,,,,,,,,,,,,,,,260019,2024-03-21_10h58.02.690,mfe_c_object,2022.2.4,59.93382107495383,
flanker_main_block_10.csv,img/rightArrow.png,img/leftArrow.png,img/leftArrow.png,7,0,right,"[0, 0]","[0.0385, 0]","[-0.0385, 0]",img/object_images/dog_leash01.jpg,"[0.035, 0.035]",,,,,,,,,,,,,0,2,2,9,0,6,6,15,,,,,,,,,,,,,,,3.969939879759519,,,,,,,,,,,1,,,,,,,,,,,,,,768.3186820999981,768.3186820999981,768.3186820999981,768.3186820999981,768.3186820999981,768.5218118999983,768.6717624000012,772.4285283999998,772.4285283999998,772.4285283999998,['k'],[0.43154080000385875],,,,,,,,,,,,,,,,,,,,,,,,,,,,,,,,,,,,,,,,,,,,,,,,,,,,,,,,260019,2024-03-21_10h58.02.690,mfe_c_object,2022.2.4,59.93382107495383,
flanker_main_block_10.csv,img/rightArrow.png,img/rightArrow.png,img/rightArrow.png,5,1,right,"[0, 0]","[0.0385, 0]","[-0.0385, 0]",img/object_images/helmet04.jpg,"[0.035, 0.035]",,,,,,,,,,,,,0,2,2,9,0,7,7,19,,,,,,,,,,,,,,,3.9318637274549095,,,,,,,,,,,1,,,,,,,,,,,,,,772.4285283999998,772.4285283999998,772.4285283999998,772.4285283999998,772.4285283999998,772.6426627999972,772.7928160999945,776.4996806999989,776.4996806999989,776.4996806999989,['k'],[0.3696959999942919],,,,,,,,,,,,,,,,,,,,,,,,,,,,,,,,,,,,,,,,,,,,,,,,,,,,,,,,260019,2024-03-21_10h58.02.690,mfe_c_object,2022.2.4,59.93382107495383,
flanker_main_block_10.csv,img/rightArrow.png,img/rightArrow.png,img/rightArrow.png,5,1,right,"[0, 0]","[0.0385, 0]","[-0.0385, 0]",img/object_images/toilet_paper_dispenser01.jpg,"[0.035, 0.035]",,,,,,,,,,,,,0,2,2,9,0,8,8,3,,,,,,,,,,,,,,,3.5420841683366735,,,,,,,,,,,1,,,,,,,,,,,,,,776.4996806999989,776.4996806999989,776.4996806999989,776.4996806999989,776.4996806999989,776.7135239999989,776.8635852999942,780.1887042999952,780.1887042999952,780.1887042999952,['k'],[0.39522520000173245],,,,,,,,,,,,,,,,,,,,,,,,,,,,,,,,,,,,,,,,,,,,,,,,,,,,,,,,260019,2024-03-21_10h58.02.690,mfe_c_object,2022.2.4,59.93382107495383,
flanker_main_block_10.csv,img/leftArrow.png,img/rightArrow.png,img/rightArrow.png,8,0,left,"[0, 0]","[0.0385, 0]","[-0.0385, 0]",img/object_images/cellphone03.jpg,"[0.035, 0.035]",,,,,,,,,,,,,0,2,2,9,0,9,9,29,,,,,,,,,,,,,,,3.6963927855711423,,,,,,,,,,,1,,,,,,,,,,,,,,780.1887042999952,780.1887042999952,780.1887042999952,780.1887042999952,780.1887042999952,780.4004473999958,780.5503303000005,784.0386042999962,784.0386042999962,784.0386042999962,['s'],[0.385046000003058],,,,,,,,,,,,,,,,,,,,,,,,,,,,,,,,,,,,,,,,,,,,,,,,,,,,,,,,260019,2024-03-21_10h58.02.690,mfe_c_object,2022.2.4,59.93382107495383,
flanker_main_block_10.csv,img/leftArrow.png,img/rightArrow.png,img/rightArrow.png,8,0,left,"[0, 0]","[0.0385, 0]","[-0.0385, 0]",img/object_images/pen05.jpg,"[0.035, 0.035]",,,,,,,,,,,,,0,2,2,9,0,10,10,11,,,,,,,,,,,,,,,3.8266533066132267,,,,,,,,,,,1,,,,,,,,,,,,,,784.0386042999962,784.0386042999962,784.0386042999962,784.0386042999962,784.0386042999962,784.2543669000006,784.3875037999969,788.0019748999985,788.0019748999985,788.0019748999985,['s'],[0.3911502000046312],,,,,,,,,,,,,,,,,,,,,,,,,,,,,,,,,,,,,,,,,,,,,,,,,,,,,,,,260019,2024-03-21_10h58.02.690,mfe_c_object,2022.2.4,59.93382107495383,
flanker_main_block_10.csv,img/rightArrow.png,img/rightArrow.png,img/rightArrow.png,5,1,right,"[0, 0]","[0.0385, 0]","[-0.0385, 0]",img/object_images/audio_port01.jpg,"[0.035, 0.035]",,,,,,,,,,,,,0,2,2,9,0,11,11,20,,,,,,,,,,,,,,,3.6072144288577155,,,,,,,,,,,1,,,,,,,,,,,,,,788.0019748999985,788.0019748999985,788.0080420999948,788.0019748999985,788.0019748999985,788.2082045999996,788.3579886999942,791.7395843999984,791.7395843999984,791.7395843999984,['k'],[0.3474564999996801],,,,,,,,,,,,,,,,,,,,,,,,,,,,,,,,,,,,,,,,,,,,,,,,,,,,,,,,260019,2024-03-21_10h58.02.690,mfe_c_object,2022.2.4,59.93382107495383,
flanker_main_block_10.csv,img/rightArrow.png,img/rightArrow.png,img/rightArrow.png,5,1,right,"[0, 0]","[0.0385, 0]","[-0.0385, 0]",img/object_images/piggy_bank01.jpg,"[0.035, 0.035]",,,,,,,,,,,,,0,2,2,9,0,12,12,23,,,,,,,,,,,,,,,3.783567134268537,,,,,,,,,,,1,,,,,,,,,,,,,,791.7395843999984,791.7395843999984,791.7458757999993,791.7395843999984,791.7395843999984,791.9452613999965,792.0951455999966,795.663873599995,795.663873599995,795.663873599995,['k'],[0.41063750000466825],,,,,,,,,,,,,,,,,,,,,,,,,,,,,,,,,,,,,,,,,,,,,,,,,,,,,,,,260019,2024-03-21_10h58.02.690,mfe_c_object,2022.2.4,59.93382107495383,
flanker_main_block_10.csv,img/rightArrow.png,img/leftArrow.png,img/leftArrow.png,7,0,right,"[0, 0]","[0.0385, 0]","[-0.0385, 0]",img/object_images/fan02.jpg,"[0.035, 0.035]",,,,,,,,,,,,,0,2,2,9,0,13,13,13,,,,,,,,,,,,,,,3.9248496993987976,,,,,,,,,,,1,,,,,,,,,,,,,,795.663873599995,795.663873599995,795.663873599995,795.663873599995,795.663873599995,795.8658458999998,796.015739800001,799.7371070999943,799.7371070999943,799.7371070999943,['k'],[0.478547200000321],,,,,,,,,,,,,,,,,,,,,,,,,,,,,,,,,,,,,,,,,,,,,,,,,,,,,,,,260019,2024-03-21_10h58.02.690,mfe_c_object,2022.2.4,59.93382107495383,
flanker_main_block_10.csv,img/rightArrow.png,img/leftArrow.png,img/leftArrow.png,7,0,right,"[0, 0]","[0.0385, 0]","[-0.0385, 0]",img/object_images/perfume02.jpg,"[0.035, 0.035]",,,,,,,,,,,,,0,2,2,9,0,14,14,1,,,,,,,,,,,,,,,3.9849699398797593,,,,,,,,,,,1,,,,,,,,,,,,,,799.7371070999943,799.7371070999943,799.7371070999943,799.7371070999943,799.7371070999943,799.9366506000006,800.0864363000001,803.859002899997,803.859002899997,803.859002899997,['k'],[0.556899400005932],,,,,,,,,,,,,,,,,,,,,,,,,,,,,,,,,,,,,,,,,,,,,,,,,,,,,,,,260019,2024-03-21_10h58.02.690,mfe_c_object,2022.2.4,59.93382107495383,
flanker_main_block_10.csv,img/leftArrow.png,img/leftArrow.png,img/leftArrow.png,6,1,left,"[0, 0]","[0.0385, 0]","[-0.0385, 0]",img/object_images/bottle10.jpg,"[0.035, 0.035]",,,,,,,,,,,,,0,2,2,9,0,15,15,16,,,,,,,,,,,,,,,3.601202404809619,,,,,,,,,,,1,,,,,,,,,,,,,,803.859002899997,803.859002899997,803.859002899997,803.859002899997,803.859002899997,804.0738721999951,804.2238284999985,807.6138509999946,807.6138509999946,807.6138509999946,['s'],[0.37073570000211475],,,,,,,,,,,,,,,,,,,,,,,,,,,,,,,,,,,,,,,,,,,,,,,,,,,,,,,,260019,2024-03-21_10h58.02.690,mfe_c_object,2022.2.4,59.93382107495383,
flanker_main_block_10.csv,img/rightArrow.png,img/leftArrow.png,img/leftArrow.png,7,0,right,"[0, 0]","[0.0385, 0]","[-0.0385, 0]",img/object_images/WoodBox01.jpg,"[0.035, 0.035]",,,,,,,,,,,,,0,2,2,9,0,16,16,21,,,,,,,,,,,,,,,3.893787575150301,,,,,,,,,,,1,,,,,,,,,,,,,,807.6138509999946,807.6138509999946,807.6138509999946,807.6138509999946,807.6138509999946,807.8277283999996,807.9777353999962,811.6464004000009,811.6464004000009,811.6464004000009,['k'],[0.3925054000064847],,,,,,,,,,,,,,,,,,,,,,,,,,,,,,,,,,,,,,,,,,,,,,,,,,,,,,,,260019,2024-03-21_10h58.02.690,mfe_c_object,2022.2.4,59.93382107495383,
flanker_main_block_10.csv,img/rightArrow.png,img/leftArrow.png,img/leftArrow.png,7,0,right,"[0, 0]","[0.0385, 0]","[-0.0385, 0]",img/object_images/boat_toy10.jpg,"[0.035, 0.035]",,,,,,,,,,,,,0,2,2,9,0,17,17,25,,,,,,,,,,,,,,,3.8887775551102206,,,,,,,,,,,1,,,,,,,,,,,,,,811.6464004000009,811.6464004000009,811.6464004000009,811.6464004000009,811.6464004000009,811.848464499999,811.9984304999962,815.6681389000005,815.6681389000005,815.6681389000005,['k'],[0.38352709999890067],,,,,,,,,,,,,,,,,,,,,,,,,,,,,,,,,,,,,,,,,,,,,,,,,,,,,,,,260019,2024-03-21_10h58.02.690,mfe_c_object,2022.2.4,59.93382107495383,
flanker_main_block_10.csv,img/leftArrow.png,img/leftArrow.png,img/leftArrow.png,6,1,left,"[0, 0]","[0.0385, 0]","[-0.0385, 0]",img/object_images/water_scooter01.jpg,"[0.035, 0.035]",,,,,,,,,,,,,0,2,2,9,0,18,18,17,,,,,,,,,,,,,,,3.567134268537074,,,,,,,,,,,1,,,,,,,,,,,,,,815.6681389000005,815.6681389000005,815.6681389000005,815.6681389000005,815.6681389000005,815.8691007999951,816.0191188999961,819.4279603999967,819.4279603999967,819.4279603999967,['s'],[0.37749299999995856],,,,,,,,,,,,,,,,,,,,,,,,,,,,,,,,,,,,,,,,,,,,,,,,,,,,,,,,260019,2024-03-21_10h58.02.690,mfe_c_object,2022.2.4,59.93382107495383,
flanker_main_block_10.csv,img/rightArrow.png,img/rightArrow.png,img/rightArrow.png,5,1,right,"[0, 0]","[0.0385, 0]","[-0.0385, 0]",img/object_images/camera_lens01.jpg,"[0.035, 0.035]",,,,,,,,,,,,,0,2,2,9,0,19,19,31,,,,,,,,,,,,,,,3.9018036072144286,,,,,,,,,,,1,,,,,,,,,,,,,,819.4279603999967,819.4279603999967,819.4279603999967,819.4279603999967,819.4279603999967,819.6397318999952,819.7894822999951,823.4748037999962,823.4748037999962,823.4748037999962,['k'],[0.4019733000022825],,,,,,,,,,,,,,,,,,,,,,,,,,,,,,,,,,,,,,,,,,,,,,,,,,,,,,,,260019,2024-03-21_10h58.02.690,mfe_c_object,2022.2.4,59.93382107495383,
flanker_main_block_10.csv,img/leftArrow.png,img/leftArrow.png,img/leftArrow.png,6,1,left,"[0, 0]","[0.0385, 0]","[-0.0385, 0]",img/object_images/scoreboard01.jpg,"[0.035, 0.035]",,,,,,,,,,,,,0,2,2,9,0,20,20,9,,,,,,,,,,,,,,,3.982965931863727,,,,,,,,,,,1,,,,,,,,,,,,,,823.4748037999962,823.4748037999962,823.4748037999962,823.4748037999962,823.4748037999962,823.6769802999988,823.8268701999987,827.5983809999962,827.5983809999962,827.5983809999962,['s'],[0.4037607000063872],,,,,,,,,,,,,,,,,,,,,,,,,,,,,,,,,,,,,,,,,,,,,,,,,,,,,,,,260019,2024-03-21_10h58.02.690,mfe_c_object,2022.2.4,59.93382107495383,
flanker_main_block_10.csv,img/leftArrow.png,img/leftArrow.png,img/leftArrow.png,6,1,left,"[0, 0]","[0.0385, 0]","[-0.0385, 0]",img/object_images/bicycle01.jpg,"[0.035, 0.035]",,,,,,,,,,,,,0,2,2,9,0,21,21,24,,,,,,,,,,,,,,,3.8156312625250504,,,,,,,,,,,1,,,,,,,,,,,,,,827.5983809999962,827.5983809999962,827.5983809999962,827.5983809999962,827.5983809999962,827.7977628999943,827.9476637999978,831.5634244999965,831.5634244999965,831.5634244999965,['s'],[0.5195462999981828],,,,,,,,,,,,,,,,,,,,,,,,,,,,,,,,,,,,,,,,,,,,,,,,,,,,,,,,260019,2024-03-21_10h58.02.690,mfe_c_object,2022.2.4,59.93382107495383,
flanker_main_block_10.csv,img/rightArrow.png,img/rightArrow.png,img/rightArrow.png,5,1,right,"[0, 0]","[0.0385, 0]","[-0.0385, 0]",img/object_images/purse04.jpg,"[0.035, 0.035]",,,,,,,,,,,,,0,2,2,9,0,22,22,22,,,,,,,,,,,,,,,3.8476953907815634,,,,,,,,,,,1,,,,,,,,,,,,,,831.5634244999965,831.5634244999965,831.5634244999965,831.5634244999965,831.5634244999965,831.7688246999969,831.9183332999964,835.5455939999956,835.5455939999956,835.5455939999956,['k'],[0.3622264000005089],,,,,,,,,,,,,,,,,,,,,,,,,,,,,,,,,,,,,,,,,,,,,,,,,,,,,,,,260019,2024-03-21_10h58.02.690,mfe_c_object,2022.2.4,59.93382107495383,
flanker_main_block_10.csv,img/rightArrow.png,img/leftArrow.png,img/leftArrow.png,7,0,right,"[0, 0]","[0.0385, 0]","[-0.0385, 0]",img/object_images/coloring_pencil02.jpg,"[0.035, 0.035]",,,,,,,,,,,,,0,2,2,9,0,23,23,2,,,,,,,,,,,,,,,3.977955911823647,,,,,,,,,,,1,,,,,,,,,,,,,,835.5455939999956,835.5455939999956,835.5516491999952,835.5455939999956,835.5455939999956,835.7555689000001,835.9057799000002,839.6644672999973,839.6644672999973,839.6644672999973,['k'],[0.44505260000005364],,,,,,,,,,,,,,,,,,,,,,,,,,,,,,,,,,,,,,,,,,,,,,,,,,,,,,,,260019,2024-03-21_10h58.02.690,mfe_c_object,2022.2.4,59.93382107495383,
flanker_main_block_10.csv,img/leftArrow.png,img/leftArrow.png,img/leftArrow.png,6,1,left,"[0, 0]","[0.0385, 0]","[-0.0385, 0]",img/object_images/bean_bag02.jpg,"[0.035, 0.035]",,,,,,,,,,,,,0,2,2,9,0,24,24,7,,,,,,,,,,,,,,,3.6933867735470938,,,,,,,,,,,1,,,,,,,,,,,,,,839.6644672999973,839.6644672999973,839.6644672999973,839.6644672999973,839.6644672999973,839.8764415999976,840.0263793999984,843.4964021999986,843.4964021999986,843.4964021999986,['s'],[0.3572086999993189],,,,,,,,,,,,,,,,,,,,,,,,,,,,,,,,,,,,,,,,,,,,,,,,,,,,,,,,260019,2024-03-21_10h58.02.690,mfe_c_object,2022.2.4,59.93382107495383,
flanker_main_block_10.csv,img/rightArrow.png,img/leftArrow.png,img/leftArrow.png,7,0,right,"[0, 0]","[0.0385, 0]","[-0.0385, 0]",img/object_images/flask01.jpg,"[0.035, 0.035]",,,,,,,,,,,,,0,2,2,9,0,25,25,30,,,,,,,,,,,,,,,3.880761523046092,,,,,,,,,,,1,,,,,,,,,,,,,,843.4964021999986,843.4964021999986,843.4964021999986,843.4964021999986,843.4964021999986,843.6968304999973,843.8469601999968,847.5180948999987,847.5180948999987,847.5180948999987,['k'],[0.35048980000283336],,,,,,,,,,,,,,,,,,,,,,,,,,,,,,,,,,,,,,,,,,,,,,,,,,,,,,,,260019,2024-03-21_10h58.02.690,mfe_c_object,2022.2.4,59.93382107495383,
flanker_main_block_10.csv,img/leftArrow.png,img/rightArrow.png,img/rightArrow.png,8,0,left,"[0, 0]","[0.0385, 0]","[-0.0385, 0]",img/object_images/shoes07.jpg,"[0.035, 0.035]",,,,,,,,,,,,,0,2,2,9,0,26,26,12,,,,,,,,,,,,,,,3.672344689378758,,,,,,,,,,,1,,,,,,,,,,,,,,847.5180948999987,847.5180948999987,847.5180948999987,847.5180948999987,847.5180948999987,847.7175291999956,847.8673966999995,851.3468206999969,851.3468206999969,851.3468206999969,['s'],[0.3593491999999969],,,,,,,,,,,,,,,,,,,,,,,,,,,,,,,,,,,,,,,,,,,,,,,,,,,,,,,,260019,2024-03-21_10h58.02.690,mfe_c_object,2022.2.4,59.93382107495383,
flanker_main_block_10.csv,img/leftArrow.png,img/rightArrow.png,img/rightArrow.png,8,0,left,"[0, 0]","[0.0385, 0]","[-0.0385, 0]",img/object_images/tie02.jpg,"[0.035, 0.035]",,,,,,,,,,,,,0,2,2,9,0,27,27,14,,,,,,,,,,,,,,,3.9338677354709417,,,,,,,,,,,1,,,,,,,,,,,,,,851.3468206999969,851.3468206999969,851.3468206999969,851.3468206999969,851.3468206999969,851.5546909999975,851.7046980000014,855.4194365000003,855.4194365000003,855.4194365000003,['s'],[0.43530440000176895],,,,,,,,,,,,,,,,,,,,,,,,,,,,,,,,,,,,,,,,,,,,,,,,,,,,,,,,260019,2024-03-21_10h58.02.690,mfe_c_object,2022.2.4,59.93382107495383,
flanker_main_block_10.csv,img/leftArrow.png,img/rightArrow.png,img/rightArrow.png,8,0,left,"[0, 0]","[0.0385, 0]","[-0.0385, 0]",img/object_images/hot_air_balloon02.jpg,"[0.035, 0.035]",,,,,,,,,,,,,0,2,2,9,0,28,28,26,,,,,,,,,,,,,,,3.7074148296593186,,,,,,,,,,,1,,,,,,,,,,,,,,855.4194365000003,855.4194365000003,855.4253428000011,855.4194365000003,855.4194365000003,855.6254225000012,855.7753998999979,859.2582237999959,859.2582237999959,859.2582237999959,['s'],[0.4264681000058772],,,,,,,,,,,,,,,,,,,,,,,,,,,,,,,,,,,,,,,,,,,,,,,,,,,,,,,,260019,2024-03-21_10h58.02.690,mfe_c_object,2022.2.4,59.93382107495383,
flanker_main_block_10.csv,img/leftArrow.png,img/rightArrow.png,img/rightArrow.png,8,0,left,"[0, 0]","[0.0385, 0]","[-0.0385, 0]",img/object_images/hat06.jpg,"[0.035, 0.035]",,,,,,,,,,,,,0,2,2,9,0,29,29,27,,,,,,,,,,,,,,,3.541082164328657,,,,,,,,,,,1,,,,,,,,,,,,,,859.2582237999959,859.2582237999959,859.2582237999959,859.2582237999959,859.2582237999959,859.4626434999955,859.6126289999956,862.9271755999944,862.9271755999944,862.9271755999944,['s'],[0.38780989999941085],,,,,,,,,,,,,,,,,,,,,,,,,,,,,,,,,,,,,,,,,,,,,,,,,,,,,,,,260019,2024-03-21_10h58.02.690,mfe_c_object,2022.2.4,59.93382107495383,
flanker_main_block_10.csv,img/leftArrow.png,img/leftArrow.png,img/leftArrow.png,6,1,left,"[0, 0]","[0.0385, 0]","[-0.0385, 0]",img/object_images/bottle02.jpg,"[0.035, 0.035]",,,,,,,,,,,,,0,2,2,9,0,30,30,6,,,,,,,,,,,,,,,3.69438877755511,,,,,,,,,,,1,,,,,,,,,,,,,,862.9271755999944,862.9271755999944,862.9333398999952,862.9271755999944,862.9271755999944,863.1329708999983,863.2827968999991,866.7717504999964,866.7717504999964,866.7717504999964,['s'],[0.3743815999987419],,,,,,,,,,,,,,,,,,,,,,,,,,,,,,,,,,,,,,,,,,,,,,,,,,,,,,,,260019,2024-03-21_10h58.02.690,mfe_c_object,2022.2.4,59.93382107495383,
flanker_main_block_10.csv,img/leftArrow.png,img/leftArrow.png,img/leftArrow.png,6,1,left,"[0, 0]","[0.0385, 0]","[-0.0385, 0]",img/object_images/wagon_cart03.jpg,"[0.035, 0.035]",,,,,,,,,,,,,0,2,2,9,0,31,31,18,,,,,,,,,,,,,,,3.907815631262525,,,,,,,,,,,1,,,,,,,,,,,,,,866.7717504999964,866.7717504999964,866.7717504999964,866.7717504999964,866.7717504999964,866.9868293999971,867.1368944999995,870.689243199995,870.689243199995,870.689243199995,['s'],[0.45751970000128495],,,,,,,,,,,,,,,,,,,,,,,,,,,,,,,,,,,,,,,,,,,,,,,,,,,,,,,,260019,2024-03-21_10h58.02.690,mfe_c_object,2022.2.4,59.93382107495383,
flanker_main_block_10.csv,,,,,,,,,,,,,,,,,,,,,,,,0,2,2,9,,,,,,,,,,,,,,,,,,,,,,,,,,,,,,,,,,,,,,,,,,,,,,,,,,,,,,,,2,870.689243199995,880.682547999997,k,0.7468051999967429,,,,,,,,,,,,,,,,,,,,,,,,,,,,,,,,,,,,,,,,,,,,,,,,,,,260019,2024-03-21_10h58.02.690,mfe_c_object,2022.2.4,59.93382107495383,
flanker_main_block_5.csv,img/leftArrow.png,img/leftArrow.png,img/leftArrow.png,6,1,left,"[0, 0]","[0.0385, 0]","[-0.0385, 0]",img/object_images/water_gun01.jpg,"[0.035, 0.035]",,,,,,,,,,,,,0,3,3,4,0,0,0,2,,,,,,,,,,,,,,886.5261848000009,3.9398797595190382,,,,,,,,,,,1,,,,,,,,,,881.4501983000009,881.4501983000009,k,5.051696800001082,888.7190240999989,888.7190240999989,888.7190240999989,888.7190240999989,888.7190240999989,888.9252332999968,889.0753111999948,892.787488599999,892.787488599999,892.787488599999,['s'],[0.4706791999997222],,,,,,,,,,,,,,,,,,,,,,,,,,,,,,,,,,,,,,,,,,,,,,,,,,,,,,,,260019,2024-03-21_10h58.02.690,mfe_c_object,2022.2.4,59.93382107495383,
flanker_main_block_5.csv,img/leftArrow.png,img/rightArrow.png,img/rightArrow.png,8,0,left,"[0, 0]","[0.0385, 0]","[-0.0385, 0]",img/object_images/jewel02.jpg,"[0.035, 0.035]",,,,,,,,,,,,,0,3,3,4,0,1,1,16,,,,,,,,,,,,,,,3.5480961923847696,,,,,,,,,,,1,,,,,,,,,,,,,,892.787488599999,892.787488599999,892.7936680999992,892.787488599999,892.787488599999,892.9961130000011,893.1460699999952,896.4792006999996,896.4792006999996,896.4792006999996,['s'],[0.4420325999963097],,,,,,,,,,,,,,,,,,,,,,,,,,,,,,,,,,,,,,,,,,,,,,,,,,,,,,,,260019,2024-03-21_10h58.02.690,mfe_c_object,2022.2.4,59.93382107495383,
flanker_main_block_5.csv,img/leftArrow.png,img/leftArrow.png,img/leftArrow.png,6,1,left,"[0, 0]","[0.0385, 0]","[-0.0385, 0]",img/object_images/nut_cracker01.jpg,"[0.035, 0.035]",,,,,,,,,,,,,0,3,3,4,0,2,2,20,,,,,,,,,,,,,,,3.69438877755511,,,,,,,,,,,1,,,,,,,,,,,,,,896.4792006999996,896.4792006999996,896.4792006999996,896.4792006999996,896.4792006999996,896.6829894999973,896.832897399996,900.3171606999967,900.3171606999967,900.3171606999967,['s'],[0.36719560000346974],,,,,,,,,,,,,,,,,,,,,,,,,,,,,,,,,,,,,,,,,,,,,,,,,,,,,,,,260019,2024-03-21_10h58.02.690,mfe_c_object,2022.2.4,59.93382107495383,
flanker_main_block_5.csv,img/rightArrow.png,img/leftArrow.png,img/leftArrow.png,7,0,right,"[0, 0]","[0.0385, 0]","[-0.0385, 0]",img/object_images/bottle06.jpg,"[0.035, 0.035]",,,,,,,,,,,,,0,3,3,4,0,3,3,27,,,,,,,,,,,,,,,3.9368737474949898,,,,,,,,,,,1,,,,,,,,,,,,,,900.3171606999967,900.3171606999967,900.3171606999967,900.3171606999967,900.3171606999967,900.5200448999967,900.6702786999958,904.4012031999955,904.4012031999955,904.4012031999955,['k'],[0.3846147000003839],,,,,,,,,,,,,,,,,,,,,,,,,,,,,,,,,,,,,,,,,,,,,,,,,,,,,,,,260019,2024-03-21_10h58.02.690,mfe_c_object,2022.2.4,59.93382107495383,
flanker_main_block_5.csv,img/rightArrow.png,img/rightArrow.png,img/rightArrow.png,5,1,right,"[0, 0]","[0.0385, 0]","[-0.0385, 0]",img/object_images/lock03.jpg,"[0.035, 0.035]",,,,,,,,,,,,,0,3,3,4,0,4,4,31,,,,,,,,,,,,,,,3.8266533066132267,,,,,,,,,,,1,,,,,,,,,,,,,,904.4012031999955,904.4012031999955,904.4012031999955,904.4012031999955,904.4012031999955,904.6075947999998,904.7575932999971,908.3498466999954,908.3498466999954,908.3498466999954,['k'],[0.4283011000006809],,,,,,,,,,,,,,,,,,,,,,,,,,,,,,,,,,,,,,,,,,,,,,,,,,,,,,,,260019,2024-03-21_10h58.02.690,mfe_c_object,2022.2.4,59.93382107495383,
flanker_main_block_5.csv,img/rightArrow.png,img/rightArrow.png,img/rightArrow.png,5,1,right,"[0, 0]","[0.0385, 0]","[-0.0385, 0]",img/object_images/Eyeliner01.jpg,"[0.035, 0.035]",,,,,,,,,,,,,0,3,3,4,0,5,5,10,,,,,,,,,,,,,,,3.5190380761523046,,,,,,,,,,,1,,,,,,,,,,,,,,908.3498466999954,908.3498466999954,908.3556967999975,908.3498466999954,908.3498466999954,908.5615066999962,908.7113986999975,912.0107993999991,912.0107993999991,912.0107993999991,['k'],[0.36782330000278307],,,,,,,,,,,,,,,,,,,,,,,,,,,,,,,,,,,,,,,,,,,,,,,,,,,,,,,,260019,2024-03-21_10h58.02.690,mfe_c_object,2022.2.4,59.93382107495383,
flanker_main_block_5.csv,img/rightArrow.png,img/leftArrow.png,img/leftArrow.png,7,0,right,"[0, 0]","[0.0385, 0]","[-0.0385, 0]",img/object_images/note_book02.jpg,"[0.035, 0.035]",,,,,,,,,,,,,0,3,3,4,0,6,6,23,,,,,,,,,,,,,,,3.9198396793587174,,,,,,,,,,,0,,,,,,,,,,,,,,912.0107993999991,912.0107993999991,912.0107993999991,912.0107993999991,912.0107993999991,912.2155103999976,912.3650989999951,916.0646601999979,916.0646601999979,916.0646601999979,['s'],[0.3544861000045785],,,,,,,,,,,,,,,,,,,,,,,,,,,,,,,,,,,,,,,,,,,,,,,,,,,,,,,,260019,2024-03-21_10h58.02.690,mfe_c_object,2022.2.4,59.93382107495383,
flanker_main_block_5.csv,img/rightArrow.png,img/rightArrow.png,img/rightArrow.png,5,1,right,"[0, 0]","[0.0385, 0]","[-0.0385, 0]",img/object_images/frame01.jpg,"[0.035, 0.035]",,,,,,,,,,,,,0,3,3,4,0,7,7,14,,,,,,,,,,,,,,,3.9809619238476954,,,,,,,,,,,1,,,,,,,,,,,,,,916.0646601999979,916.0646601999979,916.0646601999979,916.0646601999979,916.0646601999979,916.2694225000014,916.4192404999994,920.1893548000007,920.1893548000007,920.1893548000007,['k'],[0.38118000000395114],,,,,,,,,,,,,,,,,,,,,,,,,,,,,,,,,,,,,,,,,,,,,,,,,,,,,,,,260019,2024-03-21_10h58.02.690,mfe_c_object,2022.2.4,59.93382107495383,
flanker_main_block_5.csv,img/rightArrow.png,img/rightArrow.png,img/rightArrow.png,5,1,right,"[0, 0]","[0.0385, 0]","[-0.0385, 0]",img/object_images/Safe01.jpg,"[0.035, 0.035]",,,,,,,,,,,,,0,3,3,4,0,8,8,29,,,,,,,,,,,,,,,3.68937875751503,,,,,,,,,,,1,,,,,,,,,,,,,,920.1893548000007,920.1893548000007,920.1893548000007,920.1893548000007,920.1893548000007,920.390115999995,920.5400261999966,924.0277237999981,924.0277237999981,924.0277237999981,['k'],[0.368416100005561],,,,,,,,,,,,,,,,,,,,,,,,,,,,,,,,,,,,,,,,,,,,,,,,,,,,,,,,260019,2024-03-21_10h58.02.690,mfe_c_object,2022.2.4,59.93382107495383,
flanker_main_block_5.csv,img/leftArrow.png,img/leftArrow.png,img/leftArrow.png,6,1,left,"[0, 0]","[0.0385, 0]","[-0.0385, 0]",img/object_images/joystick03.jpg,"[0.035, 0.035]",,,,,,,,,,,,,0,3,3,4,0,9,9,11,,,,,,,,,,,,,,,3.982965931863727,,,,,,,,,,,1,,,,,,,,,,,,,,924.0277237999981,924.0277237999981,924.0277237999981,924.0277237999981,924.0277237999981,924.2272452999969,924.3770449000003,928.1657195000007,928.1657195000007,928.1657195000007,['s'],[0.3781724000000395],,,,,,,,,,,,,,,,,,,,,,,,,,,,,,,,,,,,,,,,,,,,,,,,,,,,,,,,260019,2024-03-21_10h58.02.690,mfe_c_object,2022.2.4,59.93382107495383,
flanker_main_block_5.csv,img/leftArrow.png,img/leftArrow.png,img/leftArrow.png,6,1,left,"[0, 0]","[0.0385, 0]","[-0.0385, 0]",img/object_images/origami01.jpg,"[0.035, 0.035]",,,,,,,,,,,,,0,3,3,4,0,10,10,0,,,,,,,,,,,,,,,3.82064128256513,,,,,,,,,,,1,,,,,,,,,,,,,,928.1657195000007,928.1657195000007,928.1657195000007,928.1657195000007,928.1657195000007,928.3812083000012,928.5312772999969,932.1272177999999,932.1272177999999,932.1272177999999,['s'],[0.3923219999996945],,,,,,,,,,,,,,,,,,,,,,,,,,,,,,,,,,,,,,,,,,,,,,,,,,,,,,,,260019,2024-03-21_10h58.02.690,mfe_c_object,2022.2.4,59.93382107495383,
flanker_main_block_5.csv,img/leftArrow.png,img/rightArrow.png,img/rightArrow.png,8,0,left,"[0, 0]","[0.0385, 0]","[-0.0385, 0]",img/object_images/trumpet01.jpg,"[0.035, 0.035]",,,,,,,,,,,,,0,3,3,4,0,11,11,8,,,,,,,,,,,,,,,3.880761523046092,,,,,,,,,,,0,,,,,,,,,,,,,,932.1272177999999,932.1272177999999,932.1333167999983,932.1272177999999,932.1272177999999,932.3352612999952,932.485048399998,936.1511083000005,936.1511083000005,936.1511083000005,['k'],[0.4221666999947047],,,,,,,,,,,,,,,,,,,,,,,,,,,,,,,,,,,,,,,,,,,,,,,,,,,,,,,,260019,2024-03-21_10h58.02.690,mfe_c_object,2022.2.4,59.93382107495383,
flanker_main_block_5.csv,img/leftArrow.png,img/rightArrow.png,img/rightArrow.png,8,0,left,"[0, 0]","[0.0385, 0]","[-0.0385, 0]",img/object_images/belt03.jpg,"[0.035, 0.035]",,,,,,,,,,,,,0,3,3,4,0,12,12,24,,,,,,,,,,,,,,,3.711422845691383,,,,,,,,,,,1,,,,,,,,,,,,,,936.1511083000005,936.1511083000005,936.1572730999978,936.1511083000005,936.1511083000005,936.3727039000005,936.5059582999966,940.0085147999998,940.0085147999998,940.0085147999998,['s'],[0.4698664000025019],,,,,,,,,,,,,,,,,,,,,,,,,,,,,,,,,,,,,,,,,,,,,,,,,,,,,,,,260019,2024-03-21_10h58.02.690,mfe_c_object,2022.2.4,59.93382107495383,
flanker_main_block_5.csv,img/rightArrow.png,img/leftArrow.png,img/leftArrow.png,7,0,right,"[0, 0]","[0.0385, 0]","[-0.0385, 0]",img/object_images/scale02.jpg,"[0.035, 0.035]",,,,,,,,,,,,,0,3,3,4,0,13,13,25,,,,,,,,,,,,,,,3.907815631262525,,,,,,,,,,,1,,,,,,,,,,,,,,940.0085147999998,940.0085147999998,940.0085147999998,940.0085147999998,940.0085147999998,940.2097749999957,940.3596365999983,944.0627763999946,944.0627763999946,944.0627763999946,['k'],[0.46877020000101766],,,,,,,,,,,,,,,,,,,,,,,,,,,,,,,,,,,,,,,,,,,,,,,,,,,,,,,,260019,2024-03-21_10h58.02.690,mfe_c_object,2022.2.4,59.93382107495383,
flanker_main_block_5.csv,img/leftArrow.png,img/leftArrow.png,img/leftArrow.png,6,1,left,"[0, 0]","[0.0385, 0]","[-0.0385, 0]",img/object_images/badminton01.jpg,"[0.035, 0.035]",,,,,,,,,,,,,0,3,3,4,0,14,14,3,,,,,,,,,,,,,,,3.9919839679358717,,,,,,,,,,,1,,,,,,,,,,,,,,944.0627763999946,944.0627763999946,944.0627763999946,944.0627763999946,944.0627763999946,944.2639132999975,944.4137502999947,948.1986647000012,948.1986647000012,948.1986647000012,['s'],[0.4869202000045334],,,,,,,,,,,,,,,,,,,,,,,,,,,,,,,,,,,,,,,,,,,,,,,,,,,,,,,,260019,2024-03-21_10h58.02.690,mfe_c_object,2022.2.4,59.93382107495383,
flanker_main_block_5.csv,img/rightArrow.png,img/rightArrow.png,img/rightArrow.png,5,1,right,"[0, 0]","[0.0385, 0]","[-0.0385, 0]",img/object_images/bucket01.jpg,"[0.035, 0.035]",,,,,,,,,,,,,0,3,3,4,0,15,15,5,,,,,,,,,,,,,,,3.6953907815631264,,,,,,,,,,,1,,,,,,,,,,,,,,948.1986647000012,948.1986647000012,948.1986647000012,948.1986647000012,948.1986647000012,948.4013935999974,948.5511360999953,952.0526257999954,952.0526257999954,952.0526257999954,['k'],[0.4235664000007091],,,,,,,,,,,,,,,,,,,,,,,,,,,,,,,,,,,,,,,,,,,,,,,,,,,,,,,,260019,2024-03-21_10h58.02.690,mfe_c_object,2022.2.4,59.93382107495383,
flanker_main_block_5.csv,img/leftArrow.png,img/leftArrow.png,img/leftArrow.png,6,1,left,"[0, 0]","[0.0385, 0]","[-0.0385, 0]",img/object_images/egg_basket01.jpg,"[0.035, 0.035]",,,,,,,,,,,,,0,3,3,4,0,16,16,7,,,,,,,,,,,,,,,3.8947895791583163,,,,,,,,,,,1,,,,,,,,,,,,,,952.0526257999954,952.0526257999954,952.0526257999954,952.0526257999954,952.0526257999954,952.2551319999984,952.4053095999989,956.0856132999979,956.0856132999979,956.0856132999979,['s'],[0.560770500007493],,,,,,,,,,,,,,,,,,,,,,,,,,,,,,,,,,,,,,,,,,,,,,,,,,,,,,,,260019,2024-03-21_10h58.02.690,mfe_c_object,2022.2.4,59.93382107495383,
flanker_main_block_5.csv,img/leftArrow.png,img/rightArrow.png,img/rightArrow.png,8,0,left,"[0, 0]","[0.0385, 0]","[-0.0385, 0]",img/object_images/headset02.jpg,"[0.035, 0.035]",,,,,,,,,,,,,0,3,3,4,0,17,17,9,,,,,,,,,,,,,,,3.650300601202405,,,,,,,,,,,1,,,,,,,,,,,,,,956.0856132999979,956.0856132999979,956.0919410999995,956.0856132999979,956.0856132999979,956.2924106999999,956.4423370000004,959.8738088999962,959.8738088999962,959.8738088999962,['s'],[0.45597580000321614],,,,,,,,,,,,,,,,,,,,,,,,,,,,,,,,,,,,,,,,,,,,,,,,,,,,,,,,260019,2024-03-21_10h58.02.690,mfe_c_object,2022.2.4,59.93382107495383,
flanker_main_block_5.csv,img/leftArrow.png,img/rightArrow.png,img/rightArrow.png,8,0,left,"[0, 0]","[0.0385, 0]","[-0.0385, 0]",img/object_images/yoga_mat01.jpg,"[0.035, 0.035]",,,,,,,,,,,,,0,3,3,4,0,18,18,28,,,,,,,,,,,,,,,3.9819639278557117,,,,,,,,,,,1,,,,,,,,,,,,,,959.8738088999962,959.8738088999962,959.8799246999988,959.8738088999962,959.8738088999962,960.0795208999989,960.2295162999944,963.999667899996,963.999667899996,963.999667899996,['s'],[0.4518878000017139],,,,,,,,,,,,,,,,,,,,,,,,,,,,,,,,,,,,,,,,,,,,,,,,,,,,,,,,260019,2024-03-21_10h58.02.690,mfe_c_object,2022.2.4,59.93382107495383,
flanker_main_block_5.csv,img/leftArrow.png,img/leftArrow.png,img/leftArrow.png,6,1,left,"[0, 0]","[0.0385, 0]","[-0.0385, 0]",img/object_images/helmet03.jpg,"[0.035, 0.035]",,,,,,,,,,,,,0,3,3,4,0,19,19,15,,,,,,,,,,,,,,,3.588176352705411,,,,,,,,,,,1,,,,,,,,,,,,,,963.999667899996,963.999667899996,963.999667899996,963.999667899996,963.999667899996,964.2003917999973,964.3502860000008,967.7333775000006,967.7333775000006,967.7333775000006,['s'],[0.478149200003827],,,,,,,,,,,,,,,,,,,,,,,,,,,,,,,,,,,,,,,,,,,,,,,,,,,,,,,,260019,2024-03-21_10h58.02.690,mfe_c_object,2022.2.4,59.93382107495383,
flanker_main_block_5.csv,img/leftArrow.png,img/rightArrow.png,img/rightArrow.png,8,0,left,"[0, 0]","[0.0385, 0]","[-0.0385, 0]",img/object_images/fan01.jpg,"[0.035, 0.035]",,,,,,,,,,,,,0,3,3,4,0,20,20,17,,,,,,,,,,,,,,,3.655310621242485,,,,,,,,,,,1,,,,,,,,,,,,,,967.7333775000006,967.7333775000006,967.7333775000006,967.7333775000006,967.7333775000006,967.9375384000014,968.0874509999994,971.5390454999942,971.5390454999942,971.5390454999942,['s'],[0.4717296000017086],,,,,,,,,,,,,,,,,,,,,,,,,,,,,,,,,,,,,,,,,,,,,,,,,,,,,,,,260019,2024-03-21_10h58.02.690,mfe_c_object,2022.2.4,59.93382107495383,
flanker_main_block_5.csv,img/rightArrow.png,img/leftArrow.png,img/leftArrow.png,7,0,right,"[0, 0]","[0.0385, 0]","[-0.0385, 0]",img/object_images/bookmark01.jpg,"[0.035, 0.035]",,,,,,,,,,,,,0,3,3,4,0,21,21,1,,,,,,,,,,,,,,,3.6482965931863727,,,,,,,,,,,1,,,,,,,,,,,,,,971.5390454999942,971.5390454999942,971.5390454999942,971.5390454999942,971.5390454999942,971.741177099997,971.8911434999973,975.3217734999998,975.3217734999998,975.3217734999998,['k'],[0.4116322999980184],,,,,,,,,,,,,,,,,,,,,,,,,,,,,,,,,,,,,,,,,,,,,,,,,,,,,,,,260019,2024-03-21_10h58.02.690,mfe_c_object,2022.2.4,59.93382107495383,
flanker_main_block_5.csv,img/rightArrow.png,img/leftArrow.png,img/leftArrow.png,7,0,right,"[0, 0]","[0.0385, 0]","[-0.0385, 0]",img/object_images/dice01.jpg,"[0.035, 0.035]",,,,,,,,,,,,,0,3,3,4,0,22,22,30,,,,,,,,,,,,,,,3.8456913827655312,,,,,,,,,,,1,,,,,,,,,,,,,,975.3217734999998,975.3217734999998,975.3281218999982,975.3217734999998,975.3217734999998,975.5282564000008,975.6781502999947,979.3124865999998,979.3124865999998,979.3124865999998,['k'],[0.5152480999968247],,,,,,,,,,,,,,,,,,,,,,,,,,,,,,,,,,,,,,,,,,,,,,,,,,,,,,,,260019,2024-03-21_10h58.02.690,mfe_c_object,2022.2.4,59.93382107495383,
flanker_main_block_5.csv,img/rightArrow.png,img/rightArrow.png,img/rightArrow.png,5,1,right,"[0, 0]","[0.0385, 0]","[-0.0385, 0]",img/object_images/phone04.jpg,"[0.035, 0.035]",,,,,,,,,,,,,0,3,3,4,0,23,23,12,,,,,,,,,,,,,,,3.996993987975952,,,,,,,,,,,1,,,,,,,,,,,,,,979.3124865999998,979.3124865999998,979.3124865999998,979.3124865999998,979.3124865999998,979.5156378999964,979.6656959999964,983.4458525000009,983.4458525000009,983.4458525000009,['k'],[0.4456291999958921],,,,,,,,,,,,,,,,,,,,,,,,,,,,,,,,,,,,,,,,,,,,,,,,,,,,,,,,260019,2024-03-21_10h58.02.690,mfe_c_object,2022.2.4,59.93382107495383,
flanker_main_block_5.csv,img/rightArrow.png,img/leftArrow.png,img/leftArrow.png,7,0,right,"[0, 0]","[0.0385, 0]","[-0.0385, 0]",img/object_images/piano03.jpg,"[0.035, 0.035]",,,,,,,,,,,,,0,3,3,4,0,24,24,18,,,,,,,,,,,,,,,3.8296593186372747,,,,,,,,,,,1,,,,,,,,,,,,,,983.4458525000009,983.4458525000009,983.4522580999983,983.4458525000009,983.4458525000009,983.6532675999988,983.8030906999993,987.4282199000008,987.4282199000008,987.4282199000008,['k'],[0.44827210000221385],,,,,,,,,,,,,,,,,,,,,,,,,,,,,,,,,,,,,,,,,,,,,,,,,,,,,,,,260019,2024-03-21_10h58.02.690,mfe_c_object,2022.2.4,59.93382107495383,
flanker_main_block_5.csv,img/rightArrow.png,img/leftArrow.png,img/leftArrow.png,7,0,right,"[0, 0]","[0.0385, 0]","[-0.0385, 0]",img/object_images/ToolBag01.jpg,"[0.035, 0.035]",,,,,,,,,,,,,0,3,3,4,0,25,25,6,,,,,,,,,,,,,,,3.539078156312625,,,,,,,,,,,1,,,,,,,,,,,,,,987.4282199000008,987.4282199000008,987.4282199000008,987.4282199000008,987.4282199000008,987.6405029999951,987.7904780999961,991.1101463999948,991.1101463999948,991.1101463999948,['k'],[0.4892198000015924],,,,,,,,,,,,,,,,,,,,,,,,,,,,,,,,,,,,,,,,,,,,,,,,,,,,,,,,260019,2024-03-21_10h58.02.690,mfe_c_object,2022.2.4,59.93382107495383,
flanker_main_block_5.csv,img/leftArrow.png,img/leftArrow.png,img/leftArrow.png,6,1,left,"[0, 0]","[0.0385, 0]","[-0.0385, 0]",img/object_images/TreeSlice01.jpg,"[0.035, 0.035]",,,,,,,,,,,,,0,3,3,4,0,26,26,4,,,,,,,,,,,,,,,3.9408817635270537,,,,,,,,,,,1,,,,,,,,,,,,,,991.1101463999948,991.1101463999948,991.1101463999948,991.1101463999948,991.1101463999948,991.3107889999956,991.4606902000014,995.2143721999964,995.2143721999964,995.2143721999964,['s'],[0.5595008000018424],,,,,,,,,,,,,,,,,,,,,,,,,,,,,,,,,,,,,,,,,,,,,,,,,,,,,,,,260019,2024-03-21_10h58.02.690,mfe_c_object,2022.2.4,59.93382107495383,
flanker_main_block_5.csv,img/rightArrow.png,img/rightArrow.png,img/rightArrow.png,5,1,right,"[0, 0]","[0.0385, 0]","[-0.0385, 0]",img/object_images/tennis_racket01.jpg,"[0.035, 0.035]",,,,,,,,,,,,,0,3,3,4,0,27,27,22,,,,,,,,,,,,,,,3.976953907815631,,,,,,,,,,,1,,,,,,,,,,,,,,995.2143721999964,995.2143721999964,995.2143721999964,995.2143721999964,995.2143721999964,995.4149172999969,995.5647511999996,999.3304996000006,999.3304996000006,999.3304996000006,['k'],[0.4473532999982126],,,,,,,,,,,,,,,,,,,,,,,,,,,,,,,,,,,,,,,,,,,,,,,,,,,,,,,,260019,2024-03-21_10h58.02.690,mfe_c_object,2022.2.4,59.93382107495383,
flanker_main_block_5.csv,img/rightArrow.png,img/rightArrow.png,img/rightArrow.png,5,1,right,"[0, 0]","[0.0385, 0]","[-0.0385, 0]",img/object_images/pitcher07.jpg,"[0.035, 0.035]",,,,,,,,,,,,,0,3,3,4,0,28,28,19,,,,,,,,,,,,,,,3.9428857715430863,,,,,,,,,,,1,,,,,,,,,,,,,,999.3304996000006,999.3304996000006,999.336733899996,999.3304996000006,999.3304996000006,999.5356214999993,999.6855524999992,1003.4003423999966,1003.4003423999966,1003.4003423999966,['k'],[0.38711830000102054],,,,,,,,,,,,,,,,,,,,,,,,,,,,,,,,,,,,,,,,,,,,,,,,,,,,,,,,260019,2024-03-21_10h58.02.690,mfe_c_object,2022.2.4,59.93382107495383,
flanker_main_block_5.csv,img/rightArrow.png,img/leftArrow.png,img/leftArrow.png,7,0,right,"[0, 0]","[0.0385, 0]","[-0.0385, 0]",img/object_images/usb03.jpg,"[0.035, 0.035]",,,,,,,,,,,,,0,3,3,4,0,29,29,13,,,,,,,,,,,,,,,3.708416833667335,,,,,,,,,,,1,,,,,,,,,,,,,,1003.4003423999966,1003.4003423999966,1003.4062821999978,1003.4003423999966,1003.4003423999966,1003.6063470000008,1003.7560965000011,1007.2408422999943,1007.2408422999943,1007.2408422999943,['k'],[0.47082270000100834],,,,,,,,,,,,,,,,,,,,,,,,,,,,,,,,,,,,,,,,,,,,,,,,,,,,,,,,260019,2024-03-21_10h58.02.690,mfe_c_object,2022.2.4,59.93382107495383,
flanker_main_block_5.csv,img/leftArrow.png,img/rightArrow.png,img/rightArrow.png,8,0,left,"[0, 0]","[0.0385, 0]","[-0.0385, 0]",img/object_images/shovel01.jpg,"[0.035, 0.035]",,,,,,,,,,,,,0,3,3,4,0,30,30,21,,,,,,,,,,,,,,,3.5250501002004007,,,,,,,,,,,1,,,,,,,,,,,,,,1007.2408422999943,1007.2408422999943,1007.2408422999943,1007.2408422999943,1007.2408422999943,1007.4434706999964,1007.5933396999972,1010.9127146999963,1010.9127146999963,1010.9127146999963,['s'],[0.45255209999595536],,,,,,,,,,,,,,,,,,,,,,,,,,,,,,,,,,,,,,,,,,,,,,,,,,,,,,,,260019,2024-03-21_10h58.02.690,mfe_c_object,2022.2.4,59.93382107495383,
flanker_main_block_5.csv,img/leftArrow.png,img/rightArrow.png,img/rightArrow.png,8,0,left,"[0, 0]","[0.0385, 0]","[-0.0385, 0]",img/object_images/Shoes05.jpg,"[0.035, 0.035]",,,,,,,,,,,,,0,3,3,4,0,31,31,26,,,,,,,,,,,,,,,3.5721442885771544,,,,,,,,,,,1,,,,,,,,,,,,,,1010.9127146999963,1010.9127146999963,1010.9127146999963,1010.9127146999963,1010.9127146999963,1011.1138823000001,1011.2638039999947,1014.4993267999962,1014.4993267999962,1014.4993267999962,['s'],[0.4771169000014197],,,,,,,,,,,,,,,,,,,,,,,,,,,,,,,,,,,,,,,,,,,,,,,,,,,,,,,,260019,2024-03-21_10h58.02.690,mfe_c_object,2022.2.4,59.93382107495383,
flanker_main_block_5.csv,,,,,,,,,,,,,,,,,,,,,,,,0,3,3,4,,,,,,,,,,,,,,,,,,,,,,,,,,,,,,,,,,,,,,,,,,,,,,,,,,,,,,,,2,1014.4993267999962,1024.4926609999966,k,0.9368200000026263,,,,,,,,,,,,,,,,,,,,,,,,,,,,,,,,,,,,,,,,,,,,,,,,,,,260019,2024-03-21_10h58.02.690,mfe_c_object,2022.2.4,59.93382107495383,
flanker_main_block_1.csv,img/leftArrow.png,img/leftArrow.png,img/leftArrow.png,6,1,left,"[0, 0]","[0.0385, 0]","[-0.0385, 0]",img/object_images/mirror01.jpg,"[0.035, 0.035]",,,,,,,,,,,,,0,4,4,0,0,0,0,28,,,,,,,,,,,,,,1031.1730076999957,3.713426853707415,,,,,,,,,,,1,,,,,,,,,,1025.4638965999984,1025.4638965999984,k,5.685840799997095,1033.3514174999946,1033.3514174999946,1033.3514174999946,1033.3514174999946,1033.3514174999946,1033.5528878999976,1033.7023656999954,1037.2048919999943,1037.2048919999943,1037.2048919999943,['s'],[0.4453690000009374],,,,,,,,,,,,,,,,,,,,,,,,,,,,,,,,,,,,,,,,,,,,,,,,,,,,,,,,260019,2024-03-21_10h58.02.690,mfe_c_object,2022.2.4,59.93382107495383,
flanker_main_block_1.csv,img/rightArrow.png,img/leftArrow.png,img/leftArrow.png,7,0,right,"[0, 0]","[0.0385, 0]","[-0.0385, 0]",img/object_images/MetalWire01.jpg,"[0.035, 0.035]",,,,,,,,,,,,,0,4,4,0,0,1,1,13,,,,,,,,,,,,,,,3.5450901803607215,,,,,,,,,,,1,,,,,,,,,,,,,,1037.2048919999943,1037.2048919999943,1037.2048919999943,1037.2048919999943,1037.2048919999943,1037.4068316999983,1037.5567259999953,1040.8955301999958,1040.8955301999958,1040.8955301999958,['k'],[0.408355899999151],,,,,,,,,,,,,,,,,,,,,,,,,,,,,,,,,,,,,,,,,,,,,,,,,,,,,,,,260019,2024-03-21_10h58.02.690,mfe_c_object,2022.2.4,59.93382107495383,
flanker_main_block_1.csv,img/rightArrow.png,img/rightArrow.png,img/rightArrow.png,5,1,right,"[0, 0]","[0.0385, 0]","[-0.0385, 0]",img/object_images/crown02.jpg,"[0.035, 0.035]",,,,,,,,,,,,,0,4,4,0,0,2,2,21,,,,,,,,,,,,,,,3.55811623246493,,,,,,,,,,,1,,,,,,,,,,,,,,1040.8955301999958,1040.8955301999958,1040.8955301999958,1040.8955301999958,1040.8955301999958,1041.110466799997,1041.2602312999952,1044.5976394999961,1044.5976394999961,1044.5976394999961,['k'],[0.40616679999948246],,,,,,,,,,,,,,,,,,,,,,,,,,,,,,,,,,,,,,,,,,,,,,,,,,,,,,,,260019,2024-03-21_10h58.02.690,mfe_c_object,2022.2.4,59.93382107495383,
flanker_main_block_1.csv,img/rightArrow.png,img/rightArrow.png,img/rightArrow.png,5,1,right,"[0, 0]","[0.0385, 0]","[-0.0385, 0]",img/object_images/stapler.jpg,"[0.035, 0.035]",,,,,,,,,,,,,0,4,4,0,0,3,3,7,,,,,,,,,,,,,,,3.7985971943887775,,,,,,,,,,,1,,,,,,,,,,,,,,1044.5976394999961,1044.5976394999961,1044.5976394999961,1044.5976394999961,1044.5976394999961,1044.7973563999985,1044.9472935000013,1048.5322682999977,1048.5322682999977,1048.5322682999977,['k'],[0.43965330000355607],,,,,,,,,,,,,,,,,,,,,,,,,,,,,,,,,,,,,,,,,,,,,,,,,,,,,,,,260019,2024-03-21_10h58.02.690,mfe_c_object,2022.2.4,59.93382107495383,
flanker_main_block_1.csv,img/rightArrow.png,img/leftArrow.png,img/leftArrow.png,7,0,right,"[0, 0]","[0.0385, 0]","[-0.0385, 0]",img/object_images/gauze01.jpg,"[0.035, 0.035]",,,,,,,,,,,,,0,4,4,0,0,4,4,14,,,,,,,,,,,,,,,3.850701402805611,,,,,,,,,,,1,,,,,,,,,,,,,,1048.5322682999977,1048.5322682999977,1048.5322682999977,1048.5322682999977,1048.5322682999977,1048.7346837000005,1048.8843124999985,1052.5219604999947,1052.5219604999947,1052.5219604999947,['k'],[0.4343312000055448],,,,,,,,,,,,,,,,,,,,,,,,,,,,,,,,,,,,,,,,,,,,,,,,,,,,,,,,260019,2024-03-21_10h58.02.690,mfe_c_object,2022.2.4,59.93382107495383,
flanker_main_block_1.csv,img/rightArrow.png,img/leftArrow.png,img/leftArrow.png,7,0,right,"[0, 0]","[0.0385, 0]","[-0.0385, 0]",img/object_images/toy04.jpg,"[0.035, 0.035]",,,,,,,,,,,,,0,4,4,0,0,5,5,11,,,,,,,,,,,,,,,3.8336673346693386,,,,,,,,,,,1,,,,,,,,,,,,,,1052.5219604999947,1052.5219604999947,1052.5219604999947,1052.5219604999947,1052.5219604999947,1052.721888,1052.8718420000005,1056.4953502999997,1056.4953502999997,1056.4953502999997,['k'],[0.548863000003621],,,,,,,,,,,,,,,,,,,,,,,,,,,,,,,,,,,,,,,,,,,,,,,,,,,,,,,,260019,2024-03-21_10h58.02.690,mfe_c_object,2022.2.4,59.93382107495383,
flanker_main_block_1.csv,img/rightArrow.png,img/rightArrow.png,img/rightArrow.png,5,1,right,"[0, 0]","[0.0385, 0]","[-0.0385, 0]",img/object_images/ornament01.jpg,"[0.035, 0.035]",,,,,,,,,,,,,0,4,4,0,0,6,6,9,,,,,,,,,,,,,,,3.5080160320641283,,,,,,,,,,,1,,,,,,,,,,,,,,1056.4953502999997,1056.4953502999997,1056.4953502999997,1056.4953502999997,1056.4953502999997,1056.7092654999942,1056.8593005000002,1060.1453939999992,1060.1453939999992,1060.1453939999992,['k'],[0.3501858000017819],,,,,,,,,,,,,,,,,,,,,,,,,,,,,,,,,,,,,,,,,,,,,,,,,,,,,,,,260019,2024-03-21_10h58.02.690,mfe_c_object,2022.2.4,59.93382107495383,
flanker_main_block_1.csv,img/leftArrow.png,img/rightArrow.png,img/rightArrow.png,8,0,left,"[0, 0]","[0.0385, 0]","[-0.0385, 0]",img/object_images/fridge03.jpg,"[0.035, 0.035]",,,,,,,,,,,,,0,4,4,0,0,7,7,8,,,,,,,,,,,,,,,3.590180360721443,,,,,,,,,,,1,,,,,,,,,,,,,,1060.1453939999992,1060.1453939999992,1060.1453939999992,1060.1453939999992,1060.1453939999992,1060.3461763999949,1060.4961733999953,1063.8905698999952,1063.8905698999952,1063.8905698999952,['s'],[0.33259890000044834],,,,,,,,,,,,,,,,,,,,,,,,,,,,,,,,,,,,,,,,,,,,,,,,,,,,,,,,260019,2024-03-21_10h58.02.690,mfe_c_object,2022.2.4,59.93382107495383,
flanker_main_block_1.csv,img/leftArrow.png,img/leftArrow.png,img/leftArrow.png,6,1,left,"[0, 0]","[0.0385, 0]","[-0.0385, 0]",img/object_images/shovel03.jpg,"[0.035, 0.035]",,,,,,,,,,,,,0,4,4,0,0,8,8,19,,,,,,,,,,,,,,,3.8557114228456912,,,,,,,,,,,1,,,,,,,,,,,,,,1063.8905698999952,1063.8905698999952,1063.8905698999952,1063.8905698999952,1063.8905698999952,1064.0999505,1064.2499245,1067.9096348999956,1067.9096348999956,1067.9096348999956,['s'],[0.34751629999664146],,,,,,,,,,,,,,,,,,,,,,,,,,,,,,,,,,,,,,,,,,,,,,,,,,,,,,,,260019,2024-03-21_10h58.02.690,mfe_c_object,2022.2.4,59.93382107495383,
flanker_main_block_1.csv,img/rightArrow.png,img/leftArrow.png,img/leftArrow.png,7,0,right,"[0, 0]","[0.0385, 0]","[-0.0385, 0]",img/object_images/watch01.jpg,"[0.035, 0.035]",,,,,,,,,,,,,0,4,4,0,0,9,9,29,,,,,,,,,,,,,,,3.968937875751503,,,,,,,,,,,1,,,,,,,,,,,,,,1067.9096348999956,1067.9096348999956,1067.9096348999956,1067.9096348999956,1067.9096348999956,1068.1206186999989,1068.270684199997,1072.021832499995,1072.021832499995,1072.021832499995,['k'],[0.3915075000040815],,,,,,,,,,,,,,,,,,,,,,,,,,,,,,,,,,,,,,,,,,,,,,,,,,,,,,,,260019,2024-03-21_10h58.02.690,mfe_c_object,2022.2.4,59.93382107495383,
