whichBlock,middleStim,leftStim,rightStim,stimNum,congruent,target,locationC,locationR,locationL,straightObj,imageSize,whichSurpriseBlock,old_object_in_surp,new_object_in_surp,which_side_old_object_displayed,prac_block_loop.thisRepN,prac_block_loop.thisTrialN,prac_block_loop.thisN,prac_block_loop.thisIndex,prac_trial_loop.thisRepN,prac_trial_loop.thisTrialN,prac_trial_loop.thisN,prac_trial_loop.thisIndex,task_block_loop.thisRepN,task_block_loop.thisTrialN,task_block_loop.thisN,task_block_loop.thisIndex,task_trial_loop.thisRepN,task_trial_loop.thisTrialN,task_trial_loop.thisN,task_trial_loop.thisIndex,surprise_block_loop.thisRepN,surprise_block_loop.thisTrialN,surprise_block_loop.thisN,surprise_block_loop.thisIndex,trials.thisRepN,trials.thisTrialN,trials.thisN,trials.thisIndex,prac_blockText.started,prac_reminder_text.started,prac_reminder_keyResp.started,prac_reminder_keyResp.keys,prac_reminder_keyResp.rt,initFixation_img.started,ISI,bigObject.started,cover_background_2.started,prac_centerImg.started,prac_stim_keyResp.started,prac_centerImg.stopped,cover_background_2.stopped,bigObject.stopped,prac_stim_keyResp.stopped,prac_stim_keyResp.keys,accuracy,prac_stim_keyResp.rt,prac_blockFeed_text.started,prac_pressContinue.started,prac_blockFeed_keyResp.started,prac_blockFeed_keyResp.keys,prac_blockFeed_keyResp.rt,ringBell_text.started,bellKey.started,bellKey.keys,bellKey.rt,task_blockText.started,task_blockReminders_keyResp.started,task_blockReminders_keyResp.keys,task_blockReminders_keyResp.rt,bigObject_2.started,cover_background.started,task_centerImg.started,task_fixImg.started,task1_stim_keyResp.started,task_centerImg.stopped,cover_background.stopped,bigObject_2.stopped,task_fixImg.stopped,task1_stim_keyResp.stopped,task1_stim_keyResp.keys,task1_stim_keyResp.rt,blockFeedCat,task_blockFeed_text.started,task_blockFeed_keyResp.started,task_blockFeed_keyResp.keys,task_blockFeed_keyResp.rt,ringBell_text_2.started,bellKey_2.started,bellKey_2.keys,bellKey_2.rt,errorNumbers_text_2.started,errorNum_text_box.started,errorN_key_resp_2.started,errorNum_text_box.text,errorN_key_resp_2.keys,errorN_key_resp_2.rt,errorNumbers_text_3.started,errorPercent_text_box.started,errorN_key_resp_3.started,errorPercent_text_box.text,errorN_key_resp_3.keys,errorN_key_resp_3.rt,botherRate_text.started,bother_text_box.started,botherRate_key_resp.started,bother_text_box.text,botherRate_key_resp.keys,botherRate_key_resp.rt,ringBell_text_3.started,bellKey_3.started,bellKey_3.keys,bellKey_3.rt,instruct_surprise1.started,instruct_surp1_key_resp.keys,instruct_surp1_key_resp.rt,text_2.started,task_blockText_2.started,task_blockReminders_keyResp_2.started,task_blockReminders_keyResp_2.keys,task_blockReminders_keyResp_2.rt,thisISI3,polygon.started,polygon.stopped,text.started,old_object_image.started,new_object_image.started,instructsurpA1_right.started,instructsurpA2_left.started,surprise_key_resp.started,surprise_key_resp.keys,surprise_key_resp.rt,ringBell_text_4.started,bellKey_4.started,bellKey_4.keys,bellKey_4.rt,finishMessage_text.started,id,date,expName,psychopyVersion,frameRate,
flanker_practice_block.csv,img/leftArrow.png,img/rightArrow.png,img/rightArrow.png,8,0,left,"[0, 0]","[0.0385, 0]","[-0.0385, 0]",img/object_images/spoon01.jpg,"[0.035, 0.035]",,,,,0,0,0,0,0,0,0,18,,,,,,,,,,,,,,,,,192.96915319992695,192.96915319992695,192.96915319992695,k,20.182662099949084,213.19392069999594,3.559118236472946,215.40125719993375,215.40125719993375,215.40125719993375,215.40125719993375,215.60098590003327,215.75097860000096,219.11437919992022,219.11437919992022,None,0,,,,,,,,,,,,,,,,,,,,,,,,,,,,,,,,,,,,,,,,,,,,,,,,,,,,,,,,,,,,,,,,,,,,,,,,,,,,,,,,,,260023,2024-03-28_12h16.08.729,mfe_c_object,2022.2.4,59.92681734361771,
flanker_practice_block.csv,img/rightArrow.png,img/leftArrow.png,img/leftArrow.png,7,0,right,"[0, 0]","[0.0385, 0]","[-0.0385, 0]",img/object_images/crane02.jpg,"[0.035, 0.035]",,,,,0,0,0,0,0,1,1,17,,,,,,,,,,,,,,,,,,,,,,,3.840681362725451,219.11437919992022,219.11437919992022,219.11437919992022,219.11437919992022,219.32131859997753,219.47123279992957,223.11225070001092,223.11225070001092,['s'],0,[0.8545908000087366],,,,,,,,,,,,,,,,,,,,,,,,,,,,,,,,,,,,,,,,,,,,,,,,,,,,,,,,,,,,,,,,,,,,,,,,,,,,,,,,,260023,2024-03-28_12h16.08.729,mfe_c_object,2022.2.4,59.92681734361771,
flanker_practice_block.csv,img/leftArrow.png,img/rightArrow.png,img/rightArrow.png,8,0,left,"[0, 0]","[0.0385, 0]","[-0.0385, 0]",img/object_images/binoculars01.jpg,"[0.035, 0.035]",,,,,0,0,0,0,0,2,2,1,,,,,,,,,,,,,,,,,,,,,,,3.708416833667335,223.11225070001092,223.11225070001092,223.11225070001092,223.11225070001092,223.32548479991965,223.4753434000304,226.9770370000042,226.9770370000042,['s'],1,[0.7428297000005841],,,,,,,,,,,,,,,,,,,,,,,,,,,,,,,,,,,,,,,,,,,,,,,,,,,,,,,,,,,,,,,,,,,,,,,,,,,,,,,,,260023,2024-03-28_12h16.08.729,mfe_c_object,2022.2.4,59.92681734361771,
flanker_practice_block.csv,img/rightArrow.png,img/leftArrow.png,img/leftArrow.png,7,0,right,"[0, 0]","[0.0385, 0]","[-0.0385, 0]",img/object_images/rock04.jpg,"[0.035, 0.035]",,,,,0,0,0,0,0,3,3,16,,,,,,,,,,,,,,,,,,,,,,,3.6312625250501003,226.9770370000042,226.9770370000042,226.9770370000042,226.9770370000042,227.17943429993466,227.32939149998128,230.76025910000317,230.76025910000317,['k'],1,[0.4301546999486163],,,,,,,,,,,,,,,,,,,,,,,,,,,,,,,,,,,,,,,,,,,,,,,,,,,,,,,,,,,,,,,,,,,,,,,,,,,,,,,,,260023,2024-03-28_12h16.08.729,mfe_c_object,2022.2.4,59.92681734361771,
flanker_practice_block.csv,img/leftArrow.png,img/leftArrow.png,img/leftArrow.png,6,1,left,"[0, 0]","[0.0385, 0]","[-0.0385, 0]",img/object_images/hair_brush03.jpg,"[0.035, 0.035]",,,,,0,0,0,0,0,4,4,2,,,,,,,,,,,,,,,,,,,,,,,3.5501002004008013,230.76025910000317,230.76025910000317,230.76025910000317,230.76025910000317,230.96628489997238,231.11618909996469,234.46443359996192,234.46443359996192,['s'],1,[0.40803789999336004],,,,,,,,,,,,,,,,,,,,,,,,,,,,,,,,,,,,,,,,,,,,,,,,,,,,,,,,,,,,,,,,,,,,,,,,,,,,,,,,,260023,2024-03-28_12h16.08.729,mfe_c_object,2022.2.4,59.92681734361771,
flanker_practice_block.csv,img/leftArrow.png,img/leftArrow.png,img/leftArrow.png,6,1,left,"[0, 0]","[0.0385, 0]","[-0.0385, 0]",img/object_images/usb01.jpg,"[0.035, 0.035]",,,,,0,0,0,0,0,5,5,14,,,,,,,,,,,,,,,,,,,,,,,3.571142284569138,234.46443359996192,234.46443359996192,234.46443359996192,234.46443359996192,234.67000849999022,234.81994419998955,238.18548099999316,238.18548099999316,['s'],1,[0.423264600103721],,,,,,,,,,,,,,,,,,,,,,,,,,,,,,,,,,,,,,,,,,,,,,,,,,,,,,,,,,,,,,,,,,,,,,,,,,,,,,,,,260023,2024-03-28_12h16.08.729,mfe_c_object,2022.2.4,59.92681734361771,
flanker_practice_block.csv,img/leftArrow.png,img/rightArrow.png,img/rightArrow.png,8,0,left,"[0, 0]","[0.0385, 0]","[-0.0385, 0]",img/object_images/car_toy05.jpg,"[0.035, 0.035]",,,,,0,0,0,0,0,6,6,3,,,,,,,,,,,,,,,,,,,,,,,3.5110220440881763,238.18548099999316,238.18548099999316,238.18548099999316,238.18548099999316,238.39050089998636,238.540427000029,241.86323979997542,241.86323979997542,['s'],1,[0.5820131000364199],,,,,,,,,,,,,,,,,,,,,,,,,,,,,,,,,,,,,,,,,,,,,,,,,,,,,,,,,,,,,,,,,,,,,,,,,,,,,,,,,260023,2024-03-28_12h16.08.729,mfe_c_object,2022.2.4,59.92681734361771,
flanker_practice_block.csv,img/rightArrow.png,img/leftArrow.png,img/leftArrow.png,7,0,right,"[0, 0]","[0.0385, 0]","[-0.0385, 0]",img/object_images/accordion02.jpg,"[0.035, 0.035]",,,,,0,0,0,0,0,7,7,0,,,,,,,,,,,,,,,,,,,,,,,3.782565130260521,241.86323979997542,241.86323979997542,241.86323979997542,241.86323979997542,242.07789870002307,242.2272546000313,245.79530240001623,245.79530240001623,['k'],1,[0.6964891999959946],,,,,,,,,,,,,,,,,,,,,,,,,,,,,,,,,,,,,,,,,,,,,,,,,,,,,,,,,,,,,,,,,,,,,,,,,,,,,,,,,260023,2024-03-28_12h16.08.729,mfe_c_object,2022.2.4,59.92681734361771,
flanker_practice_block.csv,img/leftArrow.png,img/leftArrow.png,img/leftArrow.png,6,1,left,"[0, 0]","[0.0385, 0]","[-0.0385, 0]",img/object_images/vacuum_cleaner01.jpg,"[0.035, 0.035]",,,,,0,0,0,0,0,8,8,7,,,,,,,,,,,,,,,,,,,,,,,3.7014028056112225,245.79530240001623,245.79530240001623,245.79530240001623,245.79530240001623,245.9981206000084,246.1481172000058,249.64943560003303,249.64943560003303,['s'],1,[0.3800739999860525],,,,,,,,,,,,,,,,,,,,,,,,,,,,,,,,,,,,,,,,,,,,,,,,,,,,,,,,,,,,,,,,,,,,,,,,,,,,,,,,,260023,2024-03-28_12h16.08.729,mfe_c_object,2022.2.4,59.92681734361771,
flanker_practice_block.csv,img/leftArrow.png,img/rightArrow.png,img/rightArrow.png,8,0,left,"[0, 0]","[0.0385, 0]","[-0.0385, 0]",img/object_images/Typewritter01.jpg,"[0.035, 0.035]",,,,,0,0,0,0,0,9,9,8,,,,,,,,,,,,,,,,,,,,,,,3.708416833667335,249.64943560003303,249.64943560003303,249.64943560003303,249.64943560003303,249.85199859994464,250.00193080003373,253.5147083000047,253.5147083000047,['s'],1,[0.5985135999508202],,,,,,,,,,,,,,,,,,,,,,,,,,,,,,,,,,,,,,,,,,,,,,,,,,,,,,,,,,,,,,,,,,,,,,,,,,,,,,,,,260023,2024-03-28_12h16.08.729,mfe_c_object,2022.2.4,59.92681734361771,
flanker_practice_block.csv,img/rightArrow.png,img/leftArrow.png,img/leftArrow.png,7,0,right,"[0, 0]","[0.0385, 0]","[-0.0385, 0]",img/object_images/staple_remover01.jpg,"[0.035, 0.035]",,,,,0,0,0,0,0,10,10,15,,,,,,,,,,,,,,,,,,,,,,,3.765531062124248,253.5147083000047,253.5147083000047,253.5147083000047,253.5147083000047,253.7222629999742,253.87219569995068,257.4375377999386,257.4375377999386,['k'],1,[0.6132177000399679],,,,,,,,,,,,,,,,,,,,,,,,,,,,,,,,,,,,,,,,,,,,,,,,,,,,,,,,,,,,,,,,,,,,,,,,,,,,,,,,,260023,2024-03-28_12h16.08.729,mfe_c_object,2022.2.4,59.92681734361771,
flanker_practice_block.csv,img/leftArrow.png,img/rightArrow.png,img/rightArrow.png,8,0,left,"[0, 0]","[0.0385, 0]","[-0.0385, 0]",img/object_images/trumpet02.jpg,"[0.035, 0.035]",,,,,0,0,0,0,0,11,11,10,,,,,,,,,,,,,,,,,,,,,,,3.5781563126252505,257.4375377999386,257.4375377999386,257.4375377999386,257.4375377999386,257.6429325999925,257.79281309992075,261.1765757999383,261.1765757999383,['s'],1,[0.5537004999350756],,,,,,,,,,,,,,,,,,,,,,,,,,,,,,,,,,,,,,,,,,,,,,,,,,,,,,,,,,,,,,,,,,,,,,,,,,,,,,,,,260023,2024-03-28_12h16.08.729,mfe_c_object,2022.2.4,59.92681734361771,
flanker_practice_block.csv,img/rightArrow.png,img/rightArrow.png,img/rightArrow.png,5,1,right,"[0, 0]","[0.0385, 0]","[-0.0385, 0]",img/object_images/knife03.jpg,"[0.035, 0.035]",,,,,0,0,0,0,0,12,12,5,,,,,,,,,,,,,,,,,,,,,,,3.850701402805611,261.1765757999383,261.1765757999383,261.1765757999383,261.1765757999383,261.3799709000159,261.52986959996633,265.1950829999987,265.1950829999987,['k'],1,[0.447311699972488],,,,,,,,,,,,,,,,,,,,,,,,,,,,,,,,,,,,,,,,,,,,,,,,,,,,,,,,,,,,,,,,,,,,,,,,,,,,,,,,,260023,2024-03-28_12h16.08.729,mfe_c_object,2022.2.4,59.92681734361771,
flanker_practice_block.csv,img/rightArrow.png,img/rightArrow.png,img/rightArrow.png,5,1,right,"[0, 0]","[0.0385, 0]","[-0.0385, 0]",img/object_images/usb_drive01.jpg,"[0.035, 0.035]",,,,,0,0,0,0,0,13,13,19,,,,,,,,,,,,,,,,,,,,,,,3.7745490981963927,265.1950829999987,265.1950829999987,265.1950829999987,265.1950829999987,265.40064949996304,265.5505247999681,269.1141935000196,269.1141935000196,['k'],1,[0.5241773000452667],,,,,,,,,,,,,,,,,,,,,,,,,,,,,,,,,,,,,,,,,,,,,,,,,,,,,,,,,,,,,,,,,,,,,,,,,,,,,,,,,260023,2024-03-28_12h16.08.729,mfe_c_object,2022.2.4,59.92681734361771,
flanker_practice_block.csv,img/leftArrow.png,img/leftArrow.png,img/leftArrow.png,6,1,left,"[0, 0]","[0.0385, 0]","[-0.0385, 0]",img/object_images/joystick02.jpg,"[0.035, 0.035]",,,,,0,0,0,0,0,14,14,4,,,,,,,,,,,,,,,,,,,,,,,3.599198396793587,269.1141935000196,269.1141935000196,269.1141935000196,269.1141935000196,269.32122379995417,269.4712688999716,272.8692606999539,272.8692606999539,['s'],1,[0.5567609999561682],,,,,,,,,,,,,,,,,,,,,,,,,,,,,,,,,,,,,,,,,,,,,,,,,,,,,,,,,,,,,,,,,,,,,,,,,,,,,,,,,260023,2024-03-28_12h16.08.729,mfe_c_object,2022.2.4,59.92681734361771,
flanker_practice_block.csv,img/rightArrow.png,img/rightArrow.png,img/rightArrow.png,5,1,right,"[0, 0]","[0.0385, 0]","[-0.0385, 0]",img/object_images/handle_bar01.jpg,"[0.035, 0.035]",,,,,0,0,0,0,0,15,15,13,,,,,,,,,,,,,,,,,,,,,,,3.6152304609218437,272.8692606999539,272.8692606999539,272.8692606999539,272.8692606999539,273.0748242000118,273.2250258999411,276.6405931999907,276.6405931999907,['k'],1,[0.6500944000435993],,,,,,,,,,,,,,,,,,,,,,,,,,,,,,,,,,,,,,,,,,,,,,,,,,,,,,,,,,,,,,,,,,,,,,,,,,,,,,,,,260023,2024-03-28_12h16.08.729,mfe_c_object,2022.2.4,59.92681734361771,
flanker_practice_block.csv,img/leftArrow.png,img/leftArrow.png,img/leftArrow.png,6,1,left,"[0, 0]","[0.0385, 0]","[-0.0385, 0]",img/object_images/skate_board02.jpg,"[0.035, 0.035]",,,,,0,0,0,0,0,16,16,9,,,,,,,,,,,,,,,,,,,,,,,3.8587174348697393,276.6405931999907,276.6405931999907,276.6405931999907,276.6405931999907,276.84532239998225,276.99525399995036,280.65360329998657,280.65360329998657,['s'],1,[0.44719029997941107],,,,,,,,,,,,,,,,,,,,,,,,,,,,,,,,,,,,,,,,,,,,,,,,,,,,,,,,,,,,,,,,,,,,,,,,,,,,,,,,,260023,2024-03-28_12h16.08.729,mfe_c_object,2022.2.4,59.92681734361771,
flanker_practice_block.csv,img/rightArrow.png,img/rightArrow.png,img/rightArrow.png,5,1,right,"[0, 0]","[0.0385, 0]","[-0.0385, 0]",img/object_images/basketball_hoop01.jpg,"[0.035, 0.035]",,,,,0,0,0,0,0,17,17,6,,,,,,,,,,,,,,,,,,,,,,,4.0,280.65360329998657,280.65360329998657,280.65360329998657,280.65360329998657,280.8660785999382,281.01619250001386,284.82532569998875,284.82532569998875,['k'],1,[0.4420978999696672],,,,,,,,,,,,,,,,,,,,,,,,,,,,,,,,,,,,,,,,,,,,,,,,,,,,,,,,,,,,,,,,,,,,,,,,,,,,,,,,,260023,2024-03-28_12h16.08.729,mfe_c_object,2022.2.4,59.92681734361771,
flanker_practice_block.csv,img/rightArrow.png,img/leftArrow.png,img/leftArrow.png,7,0,right,"[0, 0]","[0.0385, 0]","[-0.0385, 0]",img/object_images/headset03.jpg,"[0.035, 0.035]",,,,,0,0,0,0,0,18,18,11,,,,,,,,,,,,,,,,,,,,,,,3.597194388777555,284.82532569998875,284.82532569998875,284.82532569998875,284.82532569998875,285.0370288999984,285.1872275000205,288.5632561999373,288.5632561999373,['k'],1,[0.5981342999730259],,,,,,,,,,,,,,,,,,,,,,,,,,,,,,,,,,,,,,,,,,,,,,,,,,,,,,,,,,,,,,,,,,,,,,,,,,,,,,,,,260023,2024-03-28_12h16.08.729,mfe_c_object,2022.2.4,59.92681734361771,
flanker_practice_block.csv,img/rightArrow.png,img/rightArrow.png,img/rightArrow.png,5,1,right,"[0, 0]","[0.0385, 0]","[-0.0385, 0]",img/object_images/hot_air_balloon01.jpg,"[0.035, 0.035]",,,,,0,0,0,0,0,19,19,12,,,,,,,,,,,,,,,,,,,,,,,3.517034068136273,288.5632561999373,288.5632561999373,288.5632561999373,288.5632561999373,288.77403089997824,288.9240465000039,292.0924038999947,292.0924038999947,['k'],1,[0.5813405000371858],,,,,,,,,,,,,,,,,,,,,,,,,,,,,,,,,,,,,,,,,,,,,,,,,,,,,,,,,,,,,,,,,,,,,,,,,,,,,,,,,260023,2024-03-28_12h16.08.729,mfe_c_object,2022.2.4,59.92681734361771,
flanker_practice_block.csv,,,,,,,,,,,,,,,,0,0,0,0,,,,,,,,,,,,,,,,,,,,,,,,,,,,,,,,,,,,,,,292.0924038999947,292.0924038999947,292.0924038999947,k,237.2659250999568,,,,,,,,,,,,,,,,,,,,,,,,,,,,,,,,,,,,,,,,,,,,,,,,,,,,,,,,,,,,,,,,,,,,,,,,,,,,260023,2024-03-28_12h16.08.729,mfe_c_object,2022.2.4,59.92681734361771,
,,,,,,,,,,,,,,,,,,,,,,,,,,,,,,,,,,,,,,,,,,,,,,,,,,,,,,,,,,,,,,,529.3797137999209,529.3797137999209,c,4.123977200011723,,,,,,,,,,,,,,,,,,,,,,,,,,,,,,,,,,,,,,,,,,,,,,,,,,,,,,,,,,,,,,,,,,,,,,,,260023,2024-03-28_12h16.08.729,mfe_c_object,2022.2.4,59.92681734361771,
flanker_main_block_10.csv,img/rightArrow.png,img/leftArrow.png,img/leftArrow.png,7,0,right,"[0, 0]","[0.0385, 0]","[-0.0385, 0]",img/object_images/flask01.jpg,"[0.035, 0.035]",,,,,,,,,,,,,0,0,0,9,0,0,0,30,,,,,,,,,,,,,,541.9827943999553,3.778557114228457,,,,,,,,,,1,,,,,,,,,,,533.5403788000112,533.5403788000112,k,8.403322599944659,544.1793895999435,544.1793895999435,544.1793895999435,544.1793895999435,544.1793895999435,544.3789240999613,544.5288635999896,548.0974848000333,548.0974848000333,548.0974848000333,['k'],[0.7717917000409216],,,,,,,,,,,,,,,,,,,,,,,,,,,,,,,,,,,,,,,,,,,,,,,,,,,,,,,,260023,2024-03-28_12h16.08.729,mfe_c_object,2022.2.4,59.92681734361771,
flanker_main_block_10.csv,img/leftArrow.png,img/rightArrow.png,img/rightArrow.png,8,0,left,"[0, 0]","[0.0385, 0]","[-0.0385, 0]",img/object_images/chair03.jpg,"[0.035, 0.035]",,,,,,,,,,,,,0,0,0,9,0,1,1,10,,,,,,,,,,,,,,,3.601202404809619,,,,,,,,,,1,,,,,,,,,,,,,,,548.0974848000333,548.0974848000333,548.0974848000333,548.0974848000333,548.0974848000333,548.2993652999867,548.4493413999444,551.8390992999775,551.8390992999775,551.8390992999775,['s'],[0.4856924000196159],,,,,,,,,,,,,,,,,,,,,,,,,,,,,,,,,,,,,,,,,,,,,,,,,,,,,,,,260023,2024-03-28_12h16.08.729,mfe_c_object,2022.2.4,59.92681734361771,
flanker_main_block_10.csv,img/rightArrow.png,img/rightArrow.png,img/rightArrow.png,5,1,right,"[0, 0]","[0.0385, 0]","[-0.0385, 0]",img/object_images/boat02.jpg,"[0.035, 0.035]",,,,,,,,,,,,,0,0,0,9,0,2,2,8,,,,,,,,,,,,,,,3.9218436873747495,,,,,,,,,,1,,,,,,,,,,,,,,,551.8390992999775,551.8390992999775,551.8390992999775,551.8390992999775,551.8390992999775,552.0531391999684,552.2036084999563,555.9212668000255,555.9212668000255,555.9212668000255,['k'],[0.4152311000507325],,,,,,,,,,,,,,,,,,,,,,,,,,,,,,,,,,,,,,,,,,,,,,,,,,,,,,,,260023,2024-03-28_12h16.08.729,mfe_c_object,2022.2.4,59.92681734361771,
flanker_main_block_10.csv,img/leftArrow.png,img/rightArrow.png,img/rightArrow.png,8,0,left,"[0, 0]","[0.0385, 0]","[-0.0385, 0]",img/object_images/hat06.jpg,"[0.035, 0.035]",,,,,,,,,,,,,0,0,0,9,0,3,3,27,,,,,,,,,,,,,,,3.8587174348697393,,,,,,,,,,1,,,,,,,,,,,,,,,555.9212668000255,555.9212668000255,555.9212668000255,555.9212668000255,555.9212668000255,556.1238610999426,556.2736979000038,559.9256969999988,559.9256969999988,559.9256969999988,['s'],[0.44596939999610186],,,,,,,,,,,,,,,,,,,,,,,,,,,,,,,,,,,,,,,,,,,,,,,,,,,,,,,,260023,2024-03-28_12h16.08.729,mfe_c_object,2022.2.4,59.92681734361771,
flanker_main_block_10.csv,img/leftArrow.png,img/leftArrow.png,img/leftArrow.png,6,1,left,"[0, 0]","[0.0385, 0]","[-0.0385, 0]",img/object_images/bicycle01.jpg,"[0.035, 0.035]",,,,,,,,,,,,,0,0,0,9,0,4,4,24,,,,,,,,,,,,,,,3.750501002004008,,,,,,,,,,1,,,,,,,,,,,,,,,559.9256969999988,559.9256969999988,559.9256969999988,559.9256969999988,559.9256969999988,560.1279254999245,560.2778996999841,563.8238180000335,563.8238180000335,563.8238180000335,['s'],[0.5530781999696046],,,,,,,,,,,,,,,,,,,,,,,,,,,,,,,,,,,,,,,,,,,,,,,,,,,,,,,,260023,2024-03-28_12h16.08.729,mfe_c_object,2022.2.4,59.92681734361771,
flanker_main_block_10.csv,img/rightArrow.png,img/leftArrow.png,img/leftArrow.png,7,0,right,"[0, 0]","[0.0385, 0]","[-0.0385, 0]",img/object_images/WoodBox01.jpg,"[0.035, 0.035]",,,,,,,,,,,,,0,0,0,9,0,5,5,21,,,,,,,,,,,,,,,3.6783567134268536,,,,,,,,,,1,,,,,,,,,,,,,,,563.8238180000335,563.8238180000335,563.8238180000335,563.8238180000335,563.8238180000335,564.0318203000352,564.1817441999447,567.6376758000115,567.6376758000115,567.6376758000115,['k'],[0.7586091000121087],,,,,,,,,,,,,,,,,,,,,,,,,,,,,,,,,,,,,,,,,,,,,,,,,,,,,,,,260023,2024-03-28_12h16.08.729,mfe_c_object,2022.2.4,59.92681734361771,
flanker_main_block_10.csv,img/rightArrow.png,img/leftArrow.png,img/leftArrow.png,7,0,right,"[0, 0]","[0.0385, 0]","[-0.0385, 0]",img/object_images/fan02.jpg,"[0.035, 0.035]",,,,,,,,,,,,,0,0,0,9,0,6,6,13,,,,,,,,,,,,,,,3.8557114228456912,,,,,,,,,,1,,,,,,,,,,,,,,,567.6376758000115,567.6376758000115,567.6376758000115,567.6376758000115,567.6376758000115,567.8522372000152,568.0020967000164,571.6425512999995,571.6425512999995,571.6425512999995,['k'],[0.6178667999338359],,,,,,,,,,,,,,,,,,,,,,,,,,,,,,,,,,,,,,,,,,,,,,,,,,,,,,,,260023,2024-03-28_12h16.08.729,mfe_c_object,2022.2.4,59.92681734361771,
flanker_main_block_10.csv,img/rightArrow.png,img/rightArrow.png,img/rightArrow.png,5,1,right,"[0, 0]","[0.0385, 0]","[-0.0385, 0]",img/object_images/toilet_paper_dispenser01.jpg,"[0.035, 0.035]",,,,,,,,,,,,,0,0,0,9,0,7,7,3,,,,,,,,,,,,,,,3.517034068136273,,,,,,,,,,1,,,,,,,,,,,,,,,571.6425512999995,571.6425512999995,571.6425512999995,571.6425512999995,571.6425512999995,571.8563525000354,572.0062708000187,575.306295700022,575.306295700022,575.306295700022,['k'],[0.5005964000010863],,,,,,,,,,,,,,,,,,,,,,,,,,,,,,,,,,,,,,,,,,,,,,,,,,,,,,,,260023,2024-03-28_12h16.08.729,mfe_c_object,2022.2.4,59.92681734361771,
flanker_main_block_10.csv,img/rightArrow.png,img/rightArrow.png,img/rightArrow.png,5,1,right,"[0, 0]","[0.0385, 0]","[-0.0385, 0]",img/object_images/audio_port01.jpg,"[0.035, 0.035]",,,,,,,,,,,,,0,0,0,9,0,8,8,20,,,,,,,,,,,,,,,3.9048096192384767,,,,,,,,,,1,,,,,,,,,,,,,,,575.306295700022,575.306295700022,575.306295700022,575.306295700022,575.306295700022,575.5098690999439,575.6597547000274,579.36481119995,579.36481119995,579.36481119995,['k'],[0.50950849999208],,,,,,,,,,,,,,,,,,,,,,,,,,,,,,,,,,,,,,,,,,,,,,,,,,,,,,,,260023,2024-03-28_12h16.08.729,mfe_c_object,2022.2.4,59.92681734361771,
flanker_main_block_10.csv,img/rightArrow.png,img/leftArrow.png,img/leftArrow.png,7,0,right,"[0, 0]","[0.0385, 0]","[-0.0385, 0]",img/object_images/perfume02.jpg,"[0.035, 0.035]",,,,,,,,,,,,,0,0,0,9,0,9,9,1,,,,,,,,,,,,,,,3.7635270541082164,,,,,,,,,,1,,,,,,,,,,,,,,,579.36481119995,579.36481119995,579.36481119995,579.36481119995,579.36481119995,579.5640169000253,579.7139170999872,583.267820399953,583.267820399953,583.267820399953,['k'],[0.6263286999892443],,,,,,,,,,,,,,,,,,,,,,,,,,,,,,,,,,,,,,,,,,,,,,,,,,,,,,,,260023,2024-03-28_12h16.08.729,mfe_c_object,2022.2.4,59.92681734361771,
flanker_main_block_10.csv,img/leftArrow.png,img/leftArrow.png,img/leftArrow.png,6,1,left,"[0, 0]","[0.0385, 0]","[-0.0385, 0]",img/object_images/wagon_cart03.jpg,"[0.035, 0.035]",,,,,,,,,,,,,0,0,0,9,0,10,10,18,,,,,,,,,,,,,,,3.7665330661322645,,,,,,,,,,1,,,,,,,,,,,,,,,583.267820399953,583.267820399953,583.267820399953,583.267820399953,583.267820399953,583.4693400999531,583.6179231000133,587.1687075999798,587.1687075999798,587.1687075999798,['s'],[0.5484989000251517],,,,,,,,,,,,,,,,,,,,,,,,,,,,,,,,,,,,,,,,,,,,,,,,,,,,,,,,260023,2024-03-28_12h16.08.729,mfe_c_object,2022.2.4,59.92681734361771,
flanker_main_block_10.csv,img/leftArrow.png,img/leftArrow.png,img/leftArrow.png,6,1,left,"[0, 0]","[0.0385, 0]","[-0.0385, 0]",img/object_images/bean_bag02.jpg,"[0.035, 0.035]",,,,,,,,,,,,,0,0,0,9,0,11,11,7,,,,,,,,,,,,,,,3.5110220440881763,,,,,,,,,,1,,,,,,,,,,,,,,,587.1687075999798,587.1687075999798,587.1687075999798,587.1687075999798,587.1687075999798,587.3717393999686,587.5216633999953,590.8232725999551,590.8232725999551,590.8232725999551,['s'],[0.5096970000304282],,,,,,,,,,,,,,,,,,,,,,,,,,,,,,,,,,,,,,,,,,,,,,,,,,,,,,,,260023,2024-03-28_12h16.08.729,mfe_c_object,2022.2.4,59.92681734361771,
flanker_main_block_10.csv,img/rightArrow.png,img/leftArrow.png,img/leftArrow.png,7,0,right,"[0, 0]","[0.0385, 0]","[-0.0385, 0]",img/object_images/bottle09.jpg,"[0.035, 0.035]",,,,,,,,,,,,,0,0,0,9,0,12,12,28,,,,,,,,,,,,,,,3.784569138276553,,,,,,,,,,1,,,,,,,,,,,,,,,590.8232725999551,590.8232725999551,590.8232725999551,590.8232725999551,590.8232725999551,591.0254748000298,591.1753588999854,594.7437206000322,594.7437206000322,594.7437206000322,['k'],[0.5915829000296071],,,,,,,,,,,,,,,,,,,,,,,,,,,,,,,,,,,,,,,,,,,,,,,,,,,,,,,,260023,2024-03-28_12h16.08.729,mfe_c_object,2022.2.4,59.92681734361771,
flanker_main_block_10.csv,img/leftArrow.png,img/rightArrow.png,img/rightArrow.png,8,0,left,"[0, 0]","[0.0385, 0]","[-0.0385, 0]",img/object_images/cellphone03.jpg,"[0.035, 0.035]",,,,,,,,,,,,,0,0,0,9,0,13,13,29,,,,,,,,,,,,,,,3.6372745490981964,,,,,,,,,,1,,,,,,,,,,,,,,,594.7437206000322,594.7437206000322,594.7437206000322,594.7437206000322,594.7437206000322,594.9459350999678,595.0959660999943,598.5191302000312,598.5191302000312,598.5191302000312,['s'],[0.654990499955602],,,,,,,,,,,,,,,,,,,,,,,,,,,,,,,,,,,,,,,,,,,,,,,,,,,,,,,,260023,2024-03-28_12h16.08.729,mfe_c_object,2022.2.4,59.92681734361771,
flanker_main_block_10.csv,img/leftArrow.png,img/leftArrow.png,img/leftArrow.png,6,1,left,"[0, 0]","[0.0385, 0]","[-0.0385, 0]",img/object_images/scoreboard01.jpg,"[0.035, 0.035]",,,,,,,,,,,,,0,0,0,9,0,14,14,9,,,,,,,,,,,,,,,3.717434869739479,,,,,,,,,,1,,,,,,,,,,,,,,,598.5191302000312,598.5191302000312,598.5191302000312,598.5191302000312,598.5191302000312,598.73301909992,598.8830767000327,602.3858751999214,602.3858751999214,602.3858751999214,['s'],[0.5676089000189677],,,,,,,,,,,,,,,,,,,,,,,,,,,,,,,,,,,,,,,,,,,,,,,,,,,,,,,,260023,2024-03-28_12h16.08.729,mfe_c_object,2022.2.4,59.92681734361771,
flanker_main_block_10.csv,img/leftArrow.png,img/leftArrow.png,img/leftArrow.png,6,1,left,"[0, 0]","[0.0385, 0]","[-0.0385, 0]",img/object_images/toaster01.jpg,"[0.035, 0.035]",,,,,,,,,,,,,0,0,0,9,0,15,15,0,,,,,,,,,,,,,,,3.758517034068136,,,,,,,,,,1,,,,,,,,,,,,,,,602.3858751999214,602.3858751999214,602.3858751999214,602.3858751999214,602.3858751999214,602.586933100014,602.7368346999865,606.4806757000042,606.4806757000042,606.4806757000042,['s'],[0.6453763999743387],,,,,,,,,,,,,,,,,,,,,,,,,,,,,,,,,,,,,,,,,,,,,,,,,,,,,,,,260023,2024-03-28_12h16.08.729,mfe_c_object,2022.2.4,59.92681734361771,
flanker_main_block_10.csv,img/leftArrow.png,img/rightArrow.png,img/rightArrow.png,8,0,left,"[0, 0]","[0.0385, 0]","[-0.0385, 0]",img/object_images/hot_air_balloon02.jpg,"[0.035, 0.035]",,,,,,,,,,,,,0,0,0,9,0,16,16,26,,,,,,,,,,,,,,,3.676352705410822,,,,,,,,,,1,,,,,,,,,,,,,,,606.4806757000042,606.4806757000042,606.4806757000042,606.4806757000042,606.4806757000042,606.6910389999393,606.8409185999772,610.2890257999534,610.2890257999534,610.2890257999534,['s'],[0.5669003999792039],,,,,,,,,,,,,,,,,,,,,,,,,,,,,,,,,,,,,,,,,,,,,,,,,,,,,,,,260023,2024-03-28_12h16.08.729,mfe_c_object,2022.2.4,59.92681734361771,
flanker_main_block_10.csv,img/leftArrow.png,img/leftArrow.png,img/leftArrow.png,6,1,left,"[0, 0]","[0.0385, 0]","[-0.0385, 0]",img/object_images/bottle02.jpg,"[0.035, 0.035]",,,,,,,,,,,,,0,0,0,9,0,17,17,6,,,,,,,,,,,,,,,3.6042084168336674,,,,,,,,,,1,,,,,,,,,,,,,,,610.2890257999534,610.2890257999534,610.2950553999981,610.2890257999534,610.2890257999534,610.4948577999603,610.6447317999555,614.0870120000327,614.0870120000327,614.0870120000327,['s'],[0.5415610999334604],,,,,,,,,,,,,,,,,,,,,,,,,,,,,,,,,,,,,,,,,,,,,,,,,,,,,,,,260023,2024-03-28_12h16.08.729,mfe_c_object,2022.2.4,59.92681734361771,
flanker_main_block_10.csv,img/rightArrow.png,img/rightArrow.png,img/rightArrow.png,5,1,right,"[0, 0]","[0.0385, 0]","[-0.0385, 0]",img/object_images/camera_lens01.jpg,"[0.035, 0.035]",,,,,,,,,,,,,0,0,0,9,0,18,18,31,,,,,,,,,,,,,,,3.5691382765531063,,,,,,,,,,1,,,,,,,,,,,,,,,614.0870120000327,614.0870120000327,614.0870120000327,614.0870120000327,614.0870120000327,614.2986482999986,614.448565699975,617.8057039999403,617.8057039999403,617.8057039999403,['k'],[0.5044580999528989],,,,,,,,,,,,,,,,,,,,,,,,,,,,,,,,,,,,,,,,,,,,,,,,,,,,,,,,260023,2024-03-28_12h16.08.729,mfe_c_object,2022.2.4,59.92681734361771,
flanker_main_block_10.csv,img/rightArrow.png,img/leftArrow.png,img/leftArrow.png,7,0,right,"[0, 0]","[0.0385, 0]","[-0.0385, 0]",img/object_images/boat_toy10.jpg,"[0.035, 0.035]",,,,,,,,,,,,,0,0,0,9,0,19,19,25,,,,,,,,,,,,,,,3.571142284569138,,,,,,,,,,1,,,,,,,,,,,,,,,617.8057039999403,617.8057039999403,617.8057039999403,617.8057039999403,617.8057039999403,618.0188588999445,618.1689166999422,621.5469006999629,621.5469006999629,621.5469006999629,['k'],[0.569536899914965],,,,,,,,,,,,,,,,,,,,,,,,,,,,,,,,,,,,,,,,,,,,,,,,,,,,,,,,260023,2024-03-28_12h16.08.729,mfe_c_object,2022.2.4,59.92681734361771,
flanker_main_block_10.csv,img/leftArrow.png,img/rightArrow.png,img/rightArrow.png,8,0,left,"[0, 0]","[0.0385, 0]","[-0.0385, 0]",img/object_images/pen05.jpg,"[0.035, 0.035]",,,,,,,,,,,,,0,0,0,9,0,20,20,11,,,,,,,,,,,,,,,3.5380761523046096,,,,,,,,,,1,,,,,,,,,,,,,,,621.5469006999629,621.5469006999629,621.5469006999629,621.5469006999629,621.5469006999629,621.756077399943,621.9059604000067,625.2185503999935,625.2185503999935,625.2185503999935,['s'],[0.8446967999916524],,,,,,,,,,,,,,,,,,,,,,,,,,,,,,,,,,,,,,,,,,,,,,,,,,,,,,,,260023,2024-03-28_12h16.08.729,mfe_c_object,2022.2.4,59.92681734361771,
flanker_main_block_10.csv,img/leftArrow.png,img/leftArrow.png,img/leftArrow.png,6,1,left,"[0, 0]","[0.0385, 0]","[-0.0385, 0]",img/object_images/water_scooter01.jpg,"[0.035, 0.035]",,,,,,,,,,,,,0,0,0,9,0,21,21,17,,,,,,,,,,,,,,,3.9038076152304613,,,,,,,,,,1,,,,,,,,,,,,,,,625.2185503999935,625.2185503999935,625.2248334999895,625.2185503999935,625.2185503999935,625.4263509999728,625.5768830999732,629.5103944999864,629.5103944999864,629.5103944999864,['s'],[0.5317807999672368],,,,,,,,,,,,,,,,,,,,,,,,,,,,,,,,,,,,,,,,,,,,,,,,,,,,,,,,260023,2024-03-28_12h16.08.729,mfe_c_object,2022.2.4,59.92681734361771,
flanker_main_block_10.csv,img/leftArrow.png,img/rightArrow.png,img/rightArrow.png,8,0,left,"[0, 0]","[0.0385, 0]","[-0.0385, 0]",img/object_images/tie02.jpg,"[0.035, 0.035]",,,,,,,,,,,,,0,0,0,9,0,22,22,14,,,,,,,,,,,,,,,3.8557114228456912,,,,,,,,,,1,,,,,,,,,,,,,,,629.5103944999864,629.5103944999864,629.5103944999864,629.5103944999864,629.5103944999864,629.7139124999521,629.8638182999566,633.5055109999375,633.5055109999375,633.5055109999375,['s'],[0.5838571001077071],,,,,,,,,,,,,,,,,,,,,,,,,,,,,,,,,,,,,,,,,,,,,,,,,,,,,,,,260023,2024-03-28_12h16.08.729,mfe_c_object,2022.2.4,59.92681734361771,
flanker_main_block_10.csv,img/rightArrow.png,img/rightArrow.png,img/rightArrow.png,5,1,right,"[0, 0]","[0.0385, 0]","[-0.0385, 0]",img/object_images/purse04.jpg,"[0.035, 0.035]",,,,,,,,,,,,,0,0,0,9,0,23,23,22,,,,,,,,,,,,,,,3.997995991983968,,,,,,,,,,1,,,,,,,,,,,,,,,633.5055109999375,633.5055109999375,633.5055109999375,633.5055109999375,633.5055109999375,633.7180207000347,633.8678835999453,637.6395260000136,637.6395260000136,637.6395260000136,['k'],[0.4929156000725925],,,,,,,,,,,,,,,,,,,,,,,,,,,,,,,,,,,,,,,,,,,,,,,,,,,,,,,,260023,2024-03-28_12h16.08.729,mfe_c_object,2022.2.4,59.92681734361771,
flanker_main_block_10.csv,img/rightArrow.png,img/rightArrow.png,img/rightArrow.png,5,1,right,"[0, 0]","[0.0385, 0]","[-0.0385, 0]",img/object_images/helmet04.jpg,"[0.035, 0.035]",,,,,,,,,,,,,0,0,0,9,0,24,24,19,,,,,,,,,,,,,,,3.8166332665330662,,,,,,,,,,1,,,,,,,,,,,,,,,637.6395260000136,637.6395260000136,637.6395260000136,637.6395260000136,637.6395260000136,637.8388602000196,637.9886680999771,641.5905635999516,641.5905635999516,641.5905635999516,['k'],[0.7508932999335229],,,,,,,,,,,,,,,,,,,,,,,,,,,,,,,,,,,,,,,,,,,,,,,,,,,,,,,,260023,2024-03-28_12h16.08.729,mfe_c_object,2022.2.4,59.92681734361771,
flanker_main_block_10.csv,img/rightArrow.png,img/leftArrow.png,img/leftArrow.png,7,0,right,"[0, 0]","[0.0385, 0]","[-0.0385, 0]",img/object_images/coloring_pencil02.jpg,"[0.035, 0.035]",,,,,,,,,,,,,0,0,0,9,0,25,25,2,,,,,,,,,,,,,,,3.530060120240481,,,,,,,,,,1,,,,,,,,,,,,,,,641.5905635999516,641.5905635999516,641.5905635999516,641.5905635999516,641.5905635999516,641.7925636,641.942467099987,645.2791245999979,645.2791245999979,645.2791245999979,['k'],[0.6161927999928594],,,,,,,,,,,,,,,,,,,,,,,,,,,,,,,,,,,,,,,,,,,,,,,,,,,,,,,,260023,2024-03-28_12h16.08.729,mfe_c_object,2022.2.4,59.92681734361771,
flanker_main_block_10.csv,img/leftArrow.png,img/leftArrow.png,img/leftArrow.png,6,1,left,"[0, 0]","[0.0385, 0]","[-0.0385, 0]",img/object_images/bottle10.jpg,"[0.035, 0.035]",,,,,,,,,,,,,0,0,0,9,0,26,26,16,,,,,,,,,,,,,,,3.8977955911823647,,,,,,,,,,1,,,,,,,,,,,,,,,645.2791245999979,645.2791245999979,645.2791245999979,645.2791245999979,645.2791245999979,645.4796890999423,645.6295267000096,649.3117567999288,649.3117567999288,649.3117567999288,['s'],[0.4650767999701202],,,,,,,,,,,,,,,,,,,,,,,,,,,,,,,,,,,,,,,,,,,,,,,,,,,,,,,,260023,2024-03-28_12h16.08.729,mfe_c_object,2022.2.4,59.92681734361771,
flanker_main_block_10.csv,img/rightArrow.png,img/rightArrow.png,img/rightArrow.png,5,1,right,"[0, 0]","[0.0385, 0]","[-0.0385, 0]",img/object_images/tool19.jpg,"[0.035, 0.035]",,,,,,,,,,,,,0,0,0,9,0,27,27,4,,,,,,,,,,,,,,,3.5460921843687374,,,,,,,,,,1,,,,,,,,,,,,,,,649.3117567999288,649.3117567999288,649.3181340999436,649.3117567999288,649.3117567999288,649.5337416999973,649.6668854999589,653.003651099978,653.003651099978,653.003651099978,['k'],[0.49451190000399947],,,,,,,,,,,,,,,,,,,,,,,,,,,,,,,,,,,,,,,,,,,,,,,,,,,,,,,,260023,2024-03-28_12h16.08.729,mfe_c_object,2022.2.4,59.92681734361771,
flanker_main_block_10.csv,img/leftArrow.png,img/rightArrow.png,img/rightArrow.png,8,0,left,"[0, 0]","[0.0385, 0]","[-0.0385, 0]",img/object_images/knit01.jpg,"[0.035, 0.035]",,,,,,,,,,,,,0,0,0,9,0,28,28,5,,,,,,,,,,,,,,,3.614228456913828,,,,,,,,,,1,,,,,,,,,,,,,,,653.003651099978,653.003651099978,653.003651099978,653.003651099978,653.003651099978,653.2041704999283,653.3540040999651,656.7570302999811,656.7570302999811,656.7570302999811,['s'],[0.7066475000465289],,,,,,,,,,,,,,,,,,,,,,,,,,,,,,,,,,,,,,,,,,,,,,,,,,,,,,,,260023,2024-03-28_12h16.08.729,mfe_c_object,2022.2.4,59.92681734361771,
flanker_main_block_10.csv,img/rightArrow.png,img/rightArrow.png,img/rightArrow.png,5,1,right,"[0, 0]","[0.0385, 0]","[-0.0385, 0]",img/object_images/piggy_bank01.jpg,"[0.035, 0.035]",,,,,,,,,,,,,0,0,0,9,0,29,29,23,,,,,,,,,,,,,,,3.7615230460921842,,,,,,,,,,1,,,,,,,,,,,,,,,656.7570302999811,656.7570302999811,656.7570302999811,656.7570302999811,656.7570302999811,656.9577428000048,657.1080493000336,660.6578649999574,660.6578649999574,660.6578649999574,['k'],[0.4904500999255106],,,,,,,,,,,,,,,,,,,,,,,,,,,,,,,,,,,,,,,,,,,,,,,,,,,,,,,,260023,2024-03-28_12h16.08.729,mfe_c_object,2022.2.4,59.92681734361771,
flanker_main_block_10.csv,img/leftArrow.png,img/rightArrow.png,img/rightArrow.png,8,0,left,"[0, 0]","[0.0385, 0]","[-0.0385, 0]",img/object_images/shoes07.jpg,"[0.035, 0.035]",,,,,,,,,,,,,0,0,0,9,0,30,30,12,,,,,,,,,,,,,,,3.8376753507014025,,,,,,,,,,1,,,,,,,,,,,,,,,660.6578649999574,660.6578649999574,660.6578649999574,660.6578649999574,660.6578649999574,660.8616258000256,661.0115932000335,664.6331106999423,664.6331106999423,664.6331106999423,['s'],[0.5331567999674007],,,,,,,,,,,,,,,,,,,,,,,,,,,,,,,,,,,,,,,,,,,,,,,,,,,,,,,,260023,2024-03-28_12h16.08.729,mfe_c_object,2022.2.4,59.92681734361771,
flanker_main_block_10.csv,img/rightArrow.png,img/leftArrow.png,img/leftArrow.png,7,0,right,"[0, 0]","[0.0385, 0]","[-0.0385, 0]",img/object_images/dog_leash01.jpg,"[0.035, 0.035]",,,,,,,,,,,,,0,0,0,9,0,31,31,15,,,,,,,,,,,,,,,3.979959919839679,,,,,,,,,,1,,,,,,,,,,,,,,,664.6331106999423,664.6331106999423,664.6331106999423,664.6331106999423,664.6331106999423,664.8322734999238,664.9821028999286,668.6504310999298,668.6504310999298,668.6504310999298,['k'],[0.581757300067693],,,,,,,,,,,,,,,,,,,,,,,,,,,,,,,,,,,,,,,,,,,,,,,,,,,,,,,,260023,2024-03-28_12h16.08.729,mfe_c_object,2022.2.4,59.92681734361771,
flanker_main_block_10.csv,,,,,,,,,,,,,,,,,,,,,,,,0,0,0,9,,,,,,,,,,,,,,,,,,,,,,,,,,,,,,,,,,,,,,,,,,,,,,,,,,,,,,,,2,668.6504310999298,678.6116386000067,k,1.8594831000082195,,,,,,,,,,,,,,,,,,,,,,,,,,,,,,,,,,,,,,,,,,,,,,,,,,,260023,2024-03-28_12h16.08.729,mfe_c_object,2022.2.4,59.92681734361771,
flanker_main_block_5.csv,img/leftArrow.png,img/rightArrow.png,img/rightArrow.png,8,0,left,"[0, 0]","[0.0385, 0]","[-0.0385, 0]",img/object_images/belt03.jpg,"[0.035, 0.035]",,,,,,,,,,,,,0,1,1,4,0,0,0,24,,,,,,,,,,,,,,685.757400500006,3.664328657314629,,,,,,,,,,1,,,,,,,,,,,680.4969885000028,680.4969885000028,k,5.230040999944322,687.9404166999739,687.9404166999739,687.9404166999739,687.9404166999739,687.9404166999739,688.1554023999488,688.3055748000043,691.9636521999491,691.9636521999491,691.9636521999491,['s'],[0.5378324999473989],,,,,,,,,,,,,,,,,,,,,,,,,,,,,,,,,,,,,,,,,,,,,,,,,,,,,,,,260023,2024-03-28_12h16.08.729,mfe_c_object,2022.2.4,59.92681734361771,
flanker_main_block_5.csv,img/leftArrow.png,img/rightArrow.png,img/rightArrow.png,8,0,left,"[0, 0]","[0.0385, 0]","[-0.0385, 0]",img/object_images/jewel02.jpg,"[0.035, 0.035]",,,,,,,,,,,,,0,1,1,4,0,1,1,16,,,,,,,,,,,,,,,3.5460921843687374,,,,,,,,,,1,,,,,,,,,,,,,,,691.9636521999491,691.9636521999491,691.9636521999491,691.9636521999491,691.9636521999491,692.1763085999992,692.3263607999543,695.9248081999831,695.9248081999831,695.9248081999831,['s'],[0.5790125000057742],,,,,,,,,,,,,,,,,,,,,,,,,,,,,,,,,,,,,,,,,,,,,,,,,,,,,,,,260023,2024-03-28_12h16.08.729,mfe_c_object,2022.2.4,59.92681734361771,
flanker_main_block_5.csv,img/rightArrow.png,img/rightArrow.png,img/rightArrow.png,5,1,right,"[0, 0]","[0.0385, 0]","[-0.0385, 0]",img/object_images/pitcher07.jpg,"[0.035, 0.035]",,,,,,,,,,,,,0,1,1,4,0,2,2,19,,,,,,,,,,,,,,,3.9018036072144286,,,,,,,,,,1,,,,,,,,,,,,,,,695.9248081999831,695.9248081999831,695.9248081999831,695.9248081999831,695.9248081999831,696.1301807999844,696.2801137999631,699.9658319000155,699.9658319000155,699.9658319000155,['k'],[0.36268809996545315],,,,,,,,,,,,,,,,,,,,,,,,,,,,,,,,,,,,,,,,,,,,,,,,,,,,,,,,260023,2024-03-28_12h16.08.729,mfe_c_object,2022.2.4,59.92681734361771,
flanker_main_block_5.csv,img/leftArrow.png,img/rightArrow.png,img/rightArrow.png,8,0,left,"[0, 0]","[0.0385, 0]","[-0.0385, 0]",img/object_images/fan01.jpg,"[0.035, 0.035]",,,,,,,,,,,,,0,1,1,4,0,3,3,17,,,,,,,,,,,,,,,3.664328657314629,,,,,,,,,,1,,,,,,,,,,,,,,,699.9658319000155,699.9658319000155,699.9658319000155,699.9658319000155,699.9658319000155,700.16771780001,700.3176127999322,703.9170241999673,703.9170241999673,703.9170241999673,['s'],[0.4725596000207588],,,,,,,,,,,,,,,,,,,,,,,,,,,,,,,,,,,,,,,,,,,,,,,,,,,,,,,,260023,2024-03-28_12h16.08.729,mfe_c_object,2022.2.4,59.92681734361771,
flanker_main_block_5.csv,img/leftArrow.png,img/leftArrow.png,img/leftArrow.png,6,1,left,"[0, 0]","[0.0385, 0]","[-0.0385, 0]",img/object_images/water_gun01.jpg,"[0.035, 0.035]",,,,,,,,,,,,,0,1,1,4,0,4,4,2,,,,,,,,,,,,,,,3.5811623246492985,,,,,,,,,,1,,,,,,,,,,,,,,,703.9170241999673,703.9170241999673,703.9170241999673,703.9170241999673,703.9170241999673,704.1213883999735,704.2716034000041,707.645864799968,707.645864799968,707.645864799968,['s'],[0.4095930000767112],,,,,,,,,,,,,,,,,,,,,,,,,,,,,,,,,,,,,,,,,,,,,,,,,,,,,,,,260023,2024-03-28_12h16.08.729,mfe_c_object,2022.2.4,59.92681734361771,
flanker_main_block_5.csv,img/rightArrow.png,img/rightArrow.png,img/rightArrow.png,5,1,right,"[0, 0]","[0.0385, 0]","[-0.0385, 0]",img/object_images/phone04.jpg,"[0.035, 0.035]",,,,,,,,,,,,,0,1,1,4,0,5,5,12,,,,,,,,,,,,,,,3.672344689378758,,,,,,,,,,1,,,,,,,,,,,,,,,707.645864799968,707.645864799968,707.645864799968,707.645864799968,707.645864799968,707.8587135999696,708.0083493000129,711.456324400031,711.456324400031,711.456324400031,['k'],[0.40077200008090585],,,,,,,,,,,,,,,,,,,,,,,,,,,,,,,,,,,,,,,,,,,,,,,,,,,,,,,,260023,2024-03-28_12h16.08.729,mfe_c_object,2022.2.4,59.92681734361771,
flanker_main_block_5.csv,img/leftArrow.png,img/rightArrow.png,img/rightArrow.png,8,0,left,"[0, 0]","[0.0385, 0]","[-0.0385, 0]",img/object_images/yoga_mat01.jpg,"[0.035, 0.035]",,,,,,,,,,,,,0,1,1,4,0,6,6,28,,,,,,,,,,,,,,,3.6843687374749496,,,,,,,,,,1,,,,,,,,,,,,,,,711.456324400031,711.456324400031,711.4624311999651,711.456324400031,711.456324400031,711.6624489999376,711.8122560000047,715.278448099969,715.278448099969,715.278448099969,['s'],[0.43168539996258914],,,,,,,,,,,,,,,,,,,,,,,,,,,,,,,,,,,,,,,,,,,,,,,,,,,,,,,,260023,2024-03-28_12h16.08.729,mfe_c_object,2022.2.4,59.92681734361771,
flanker_main_block_5.csv,img/leftArrow.png,img/leftArrow.png,img/leftArrow.png,6,1,left,"[0, 0]","[0.0385, 0]","[-0.0385, 0]",img/object_images/badminton01.jpg,"[0.035, 0.035]",,,,,,,,,,,,,0,1,1,4,0,7,7,3,,,,,,,,,,,,,,,3.5180360721442883,,,,,,,,,,1,,,,,,,,,,,,,,,715.278448099969,715.278448099969,715.278448099969,715.278448099969,715.278448099969,715.482765099965,715.6327754999511,719.184536100016,719.184536100016,719.184536100016,['s'],[0.4962758000474423],,,,,,,,,,,,,,,,,,,,,,,,,,,,,,,,,,,,,,,,,,,,,,,,,,,,,,,,260023,2024-03-28_12h16.08.729,mfe_c_object,2022.2.4,59.92681734361771,
flanker_main_block_5.csv,img/leftArrow.png,img/leftArrow.png,img/leftArrow.png,6,1,left,"[0, 0]","[0.0385, 0]","[-0.0385, 0]",img/object_images/helmet03.jpg,"[0.035, 0.035]",,,,,,,,,,,,,0,1,1,4,0,8,8,15,,,,,,,,,,,,,,,3.5440881763527052,,,,,,,,,,1,,,,,,,,,,,,,,,719.184536100016,719.184536100016,719.184536100016,719.184536100016,719.184536100016,719.3867578000063,719.5365253000055,722.8717006000225,722.8717006000225,722.8717006000225,['s'],[0.43798759998753667],,,,,,,,,,,,,,,,,,,,,,,,,,,,,,,,,,,,,,,,,,,,,,,,,,,,,,,,260023,2024-03-28_12h16.08.729,mfe_c_object,2022.2.4,59.92681734361771,
flanker_main_block_5.csv,img/leftArrow.png,img/rightArrow.png,img/rightArrow.png,8,0,left,"[0, 0]","[0.0385, 0]","[-0.0385, 0]",img/object_images/headset02.jpg,"[0.035, 0.035]",,,,,,,,,,,,,0,1,1,4,0,9,9,9,,,,,,,,,,,,,,,3.7765531062124245,,,,,,,,,,1,,,,,,,,,,,,,,,722.8717006000225,722.8717006000225,722.8717006000225,722.8717006000225,722.8717006000225,723.0737979999976,723.2236165999202,726.7969586999388,726.7969586999388,726.7969586999388,['s'],[0.5677537999581546],,,,,,,,,,,,,,,,,,,,,,,,,,,,,,,,,,,,,,,,,,,,,,,,,,,,,,,,260023,2024-03-28_12h16.08.729,mfe_c_object,2022.2.4,59.92681734361771,
flanker_main_block_5.csv,img/rightArrow.png,img/rightArrow.png,img/rightArrow.png,5,1,right,"[0, 0]","[0.0385, 0]","[-0.0385, 0]",img/object_images/Eyeliner01.jpg,"[0.035, 0.035]",,,,,,,,,,,,,0,1,1,4,0,10,10,10,,,,,,,,,,,,,,,3.8246492985971945,,,,,,,,,,1,,,,,,,,,,,,,,,726.7969586999388,726.7969586999388,726.7969586999388,726.7969586999388,726.7969586999388,727.010926399962,727.1611146000214,730.7810243000276,730.7810243000276,730.7810243000276,['k'],[0.40209399990271777],,,,,,,,,,,,,,,,,,,,,,,,,,,,,,,,,,,,,,,,,,,,,,,,,,,,,,,,260023,2024-03-28_12h16.08.729,mfe_c_object,2022.2.4,59.92681734361771,
flanker_main_block_5.csv,img/leftArrow.png,img/leftArrow.png,img/leftArrow.png,6,1,left,"[0, 0]","[0.0385, 0]","[-0.0385, 0]",img/object_images/origami01.jpg,"[0.035, 0.035]",,,,,,,,,,,,,0,1,1,4,0,11,11,0,,,,,,,,,,,,,,,3.9428857715430863,,,,,,,,,,1,,,,,,,,,,,,,,,730.7810243000276,730.7810243000276,730.7810243000276,730.7810243000276,730.7810243000276,730.981556499959,731.1316866999259,734.8590604999335,734.8590604999335,734.8590604999335,['s'],[0.36940009996760637],,,,,,,,,,,,,,,,,,,,,,,,,,,,,,,,,,,,,,,,,,,,,,,,,,,,,,,,260023,2024-03-28_12h16.08.729,mfe_c_object,2022.2.4,59.92681734361771,
flanker_main_block_5.csv,img/rightArrow.png,img/rightArrow.png,img/rightArrow.png,5,1,right,"[0, 0]","[0.0385, 0]","[-0.0385, 0]",img/object_images/tennis_racket01.jpg,"[0.035, 0.035]",,,,,,,,,,,,,0,1,1,4,0,12,12,22,,,,,,,,,,,,,,,3.713426853707415,,,,,,,,,,1,,,,,,,,,,,,,,,734.8590604999335,734.8590604999335,734.8649846999906,734.8590604999335,734.8590604999335,735.0690182999242,735.2187973000109,738.8458008000161,738.8458008000161,738.8458008000161,['k'],[0.4040239999303594],,,,,,,,,,,,,,,,,,,,,,,,,,,,,,,,,,,,,,,,,,,,,,,,,,,,,,,,260023,2024-03-28_12h16.08.729,mfe_c_object,2022.2.4,59.92681734361771,
flanker_main_block_5.csv,img/leftArrow.png,img/rightArrow.png,img/rightArrow.png,8,0,left,"[0, 0]","[0.0385, 0]","[-0.0385, 0]",img/object_images/trumpet01.jpg,"[0.035, 0.035]",,,,,,,,,,,,,0,1,1,4,0,13,13,8,,,,,,,,,,,,,,,3.5470941883767537,,,,,,,,,,1,,,,,,,,,,,,,,,738.8458008000161,738.8458008000161,738.8458008000161,738.8458008000161,738.8458008000161,739.0563125000335,739.2062663999386,742.5229125999613,742.5229125999613,742.5229125999613,['s'],[0.416717299958691],,,,,,,,,,,,,,,,,,,,,,,,,,,,,,,,,,,,,,,,,,,,,,,,,,,,,,,,260023,2024-03-28_12h16.08.729,mfe_c_object,2022.2.4,59.92681734361771,
flanker_main_block_5.csv,img/leftArrow.png,img/leftArrow.png,img/leftArrow.png,6,1,left,"[0, 0]","[0.0385, 0]","[-0.0385, 0]",img/object_images/joystick03.jpg,"[0.035, 0.035]",,,,,,,,,,,,,0,1,1,4,0,14,14,11,,,,,,,,,,,,,,,3.8567134268537075,,,,,,,,,,1,,,,,,,,,,,,,,,742.5229125999613,742.5229125999613,742.5229125999613,742.5229125999613,742.5229125999613,742.7266765999375,742.8766889999388,746.5108489999548,746.5108489999548,746.5108489999548,['s'],[0.5319441000465304],,,,,,,,,,,,,,,,,,,,,,,,,,,,,,,,,,,,,,,,,,,,,,,,,,,,,,,,260023,2024-03-28_12h16.08.729,mfe_c_object,2022.2.4,59.92681734361771,
flanker_main_block_5.csv,img/rightArrow.png,img/leftArrow.png,img/leftArrow.png,7,0,right,"[0, 0]","[0.0385, 0]","[-0.0385, 0]",img/object_images/usb03.jpg,"[0.035, 0.035]",,,,,,,,,,,,,0,1,1,4,0,15,15,13,,,,,,,,,,,,,,,3.559118236472946,,,,,,,,,,1,,,,,,,,,,,,,,,746.5108489999548,746.5108489999548,746.5108489999548,746.5108489999548,746.5108489999548,746.7140208999626,746.8637562999502,750.2161404999206,750.2161404999206,750.2161404999206,['k'],[0.5519175000954419],,,,,,,,,,,,,,,,,,,,,,,,,,,,,,,,,,,,,,,,,,,,,,,,,,,,,,,,260023,2024-03-28_12h16.08.729,mfe_c_object,2022.2.4,59.92681734361771,
flanker_main_block_5.csv,img/leftArrow.png,img/leftArrow.png,img/leftArrow.png,6,1,left,"[0, 0]","[0.0385, 0]","[-0.0385, 0]",img/object_images/egg_basket01.jpg,"[0.035, 0.035]",,,,,,,,,,,,,0,1,1,4,0,16,16,7,,,,,,,,,,,,,,,3.787575150300601,,,,,,,,,,1,,,,,,,,,,,,,,,750.2161404999206,750.2161404999206,750.2161404999206,750.2161404999206,750.2161404999206,750.4176694999915,750.5678425999358,754.1516725999536,754.1516725999536,754.1516725999536,['s'],[0.567108399933204],,,,,,,,,,,,,,,,,,,,,,,,,,,,,,,,,,,,,,,,,,,,,,,,,,,,,,,,260023,2024-03-28_12h16.08.729,mfe_c_object,2022.2.4,59.92681734361771,
flanker_main_block_5.csv,img/leftArrow.png,img/leftArrow.png,img/leftArrow.png,6,1,left,"[0, 0]","[0.0385, 0]","[-0.0385, 0]",img/object_images/nut_cracker01.jpg,"[0.035, 0.035]",,,,,,,,,,,,,0,1,1,4,0,17,17,20,,,,,,,,,,,,,,,3.6743486973947896,,,,,,,,,,1,,,,,,,,,,,,,,,754.1516725999536,754.1516725999536,754.1516725999536,754.1516725999536,754.1516725999536,754.3548188999994,754.5048060999252,758.0533294000197,758.0533294000197,758.0533294000197,['s'],[0.47888750000856817],,,,,,,,,,,,,,,,,,,,,,,,,,,,,,,,,,,,,,,,,,,,,,,,,,,,,,,,260023,2024-03-28_12h16.08.729,mfe_c_object,2022.2.4,59.92681734361771,
flanker_main_block_5.csv,img/leftArrow.png,img/rightArrow.png,img/rightArrow.png,8,0,left,"[0, 0]","[0.0385, 0]","[-0.0385, 0]",img/object_images/Shoes05.jpg,"[0.035, 0.035]",,,,,,,,,,,,,0,1,1,4,0,18,18,26,,,,,,,,,,,,,,,3.6523046092184366,,,,,,,,,,1,,,,,,,,,,,,,,,758.0533294000197,758.0533294000197,758.0533294000197,758.0533294000197,758.0533294000197,758.2588033999782,758.4088437999599,761.8425372999627,761.8425372999627,761.8425372999627,['s'],[0.6736036000074819],,,,,,,,,,,,,,,,,,,,,,,,,,,,,,,,,,,,,,,,,,,,,,,,,,,,,,,,260023,2024-03-28_12h16.08.729,mfe_c_object,2022.2.4,59.92681734361771,
flanker_main_block_5.csv,img/rightArrow.png,img/leftArrow.png,img/leftArrow.png,7,0,right,"[0, 0]","[0.0385, 0]","[-0.0385, 0]",img/object_images/piano03.jpg,"[0.035, 0.035]",,,,,,,,,,,,,0,1,1,4,0,19,19,18,,,,,,,,,,,,,,,3.867735470941884,,,,,,,,,,1,,,,,,,,,,,,,,,761.8425372999627,761.8425372999627,761.8425372999627,761.8425372999627,761.8425372999627,762.0459304000251,762.1959198999684,765.8428245999385,765.8428245999385,765.8428245999385,['k'],[0.4759532999014482],,,,,,,,,,,,,,,,,,,,,,,,,,,,,,,,,,,,,,,,,,,,,,,,,,,,,,,,260023,2024-03-28_12h16.08.729,mfe_c_object,2022.2.4,59.92681734361771,
flanker_main_block_5.csv,img/rightArrow.png,img/rightArrow.png,img/rightArrow.png,5,1,right,"[0, 0]","[0.0385, 0]","[-0.0385, 0]",img/object_images/lock03.jpg,"[0.035, 0.035]",,,,,,,,,,,,,0,1,1,4,0,20,20,31,,,,,,,,,,,,,,,3.633266533066132,,,,,,,,,,1,,,,,,,,,,,,,,,765.8428245999385,765.8428245999385,765.8494143999415,765.8428245999385,765.8428245999385,766.0499436999671,766.1997196000302,769.6150739999721,769.6150739999721,769.6150739999721,['k'],[0.483569800038822],,,,,,,,,,,,,,,,,,,,,,,,,,,,,,,,,,,,,,,,,,,,,,,,,,,,,,,,260023,2024-03-28_12h16.08.729,mfe_c_object,2022.2.4,59.92681734361771,
flanker_main_block_5.csv,img/rightArrow.png,img/leftArrow.png,img/leftArrow.png,7,0,right,"[0, 0]","[0.0385, 0]","[-0.0385, 0]",img/object_images/dice01.jpg,"[0.035, 0.035]",,,,,,,,,,,,,0,1,1,4,0,21,21,30,,,,,,,,,,,,,,,3.850701402805611,,,,,,,,,,1,,,,,,,,,,,,,,,769.6150739999721,769.6150739999721,769.6212709000101,769.6150739999721,769.6150739999721,769.8370683999965,769.9704908999847,773.6113880999619,773.6113880999619,773.6113880999619,['k'],[0.6561619000276551],,,,,,,,,,,,,,,,,,,,,,,,,,,,,,,,,,,,,,,,,,,,,,,,,,,,,,,,260023,2024-03-28_12h16.08.729,mfe_c_object,2022.2.4,59.92681734361771,
flanker_main_block_5.csv,img/rightArrow.png,img/leftArrow.png,img/leftArrow.png,7,0,right,"[0, 0]","[0.0385, 0]","[-0.0385, 0]",img/object_images/ToolBag01.jpg,"[0.035, 0.035]",,,,,,,,,,,,,0,1,1,4,0,22,22,6,,,,,,,,,,,,,,,3.968937875751503,,,,,,,,,,1,,,,,,,,,,,,,,,773.6113880999619,773.6113880999619,773.6113880999619,773.6113880999619,773.6113880999619,773.824455199996,773.974365400034,777.7430461000185,777.7430461000185,777.7430461000185,['k'],[0.5311111999908462],,,,,,,,,,,,,,,,,,,,,,,,,,,,,,,,,,,,,,,,,,,,,,,,,,,,,,,,260023,2024-03-28_12h16.08.729,mfe_c_object,2022.2.4,59.92681734361771,
flanker_main_block_5.csv,img/rightArrow.png,img/rightArrow.png,img/rightArrow.png,5,1,right,"[0, 0]","[0.0385, 0]","[-0.0385, 0]",img/object_images/frame01.jpg,"[0.035, 0.035]",,,,,,,,,,,,,0,1,1,4,0,23,23,14,,,,,,,,,,,,,,,3.734468937875752,,,,,,,,,,1,,,,,,,,,,,,,,,777.7430461000185,777.7430461000185,777.7430461000185,777.7430461000185,777.7430461000185,777.9451528999489,778.0951024999376,781.6165049999254,781.6165049999254,781.6165049999254,['k'],[0.4077640000032261],,,,,,,,,,,,,,,,,,,,,,,,,,,,,,,,,,,,,,,,,,,,,,,,,,,,,,,,260023,2024-03-28_12h16.08.729,mfe_c_object,2022.2.4,59.92681734361771,
flanker_main_block_5.csv,img/rightArrow.png,img/rightArrow.png,img/rightArrow.png,5,1,right,"[0, 0]","[0.0385, 0]","[-0.0385, 0]",img/object_images/Safe01.jpg,"[0.035, 0.035]",,,,,,,,,,,,,0,1,1,4,0,24,24,29,,,,,,,,,,,,,,,3.784569138276553,,,,,,,,,,1,,,,,,,,,,,,,,,781.6165049999254,781.6165049999254,781.6165049999254,781.6165049999254,781.6165049999254,781.8159170999425,781.9656809000298,785.5465570000233,785.5465570000233,785.5465570000233,['k'],[0.43056499992962927],,,,,,,,,,,,,,,,,,,,,,,,,,,,,,,,,,,,,,,,,,,,,,,,,,,,,,,,260023,2024-03-28_12h16.08.729,mfe_c_object,2022.2.4,59.92681734361771,
flanker_main_block_5.csv,img/leftArrow.png,img/leftArrow.png,img/leftArrow.png,6,1,left,"[0, 0]","[0.0385, 0]","[-0.0385, 0]",img/object_images/TreeSlice01.jpg,"[0.035, 0.035]",,,,,,,,,,,,,0,1,1,4,0,25,25,4,,,,,,,,,,,,,,,3.917835671342685,,,,,,,,,,1,,,,,,,,,,,,,,,785.5465570000233,785.5465570000233,785.5465570000233,785.5465570000233,785.5465570000233,785.752965599997,785.9029859999428,789.6114117000252,789.6114117000252,789.6114117000252,['s'],[0.4515526999020949],,,,,,,,,,,,,,,,,,,,,,,,,,,,,,,,,,,,,,,,,,,,,,,,,,,,,,,,260023,2024-03-28_12h16.08.729,mfe_c_object,2022.2.4,59.92681734361771,
flanker_main_block_5.csv,img/leftArrow.png,img/rightArrow.png,img/rightArrow.png,8,0,left,"[0, 0]","[0.0385, 0]","[-0.0385, 0]",img/object_images/shovel01.jpg,"[0.035, 0.035]",,,,,,,,,,,,,0,1,1,4,0,26,26,21,,,,,,,,,,,,,,,3.9539078156312626,,,,,,,,,,1,,,,,,,,,,,,,,,789.6114117000252,789.6114117000252,789.6114117000252,789.6114117000252,789.6114117000252,789.823505599983,789.9734781000298,793.7063184999861,793.7063184999861,793.7063184999861,['s'],[0.5545781999826431],,,,,,,,,,,,,,,,,,,,,,,,,,,,,,,,,,,,,,,,,,,,,,,,,,,,,,,,260023,2024-03-28_12h16.08.729,mfe_c_object,2022.2.4,59.92681734361771,
flanker_main_block_5.csv,img/rightArrow.png,img/rightArrow.png,img/rightArrow.png,5,1,right,"[0, 0]","[0.0385, 0]","[-0.0385, 0]",img/object_images/bucket01.jpg,"[0.035, 0.035]",,,,,,,,,,,,,0,1,1,4,0,27,27,5,,,,,,,,,,,,,,,3.9338677354709417,,,,,,,,,,1,,,,,,,,,,,,,,,793.7063184999861,793.7063184999861,793.7125299000181,793.7063184999861,793.7063184999861,793.9276938999537,794.0610863999464,797.7961556999944,797.7961556999944,797.7961556999944,['k'],[0.4041249000001699],,,,,,,,,,,,,,,,,,,,,,,,,,,,,,,,,,,,,,,,,,,,,,,,,,,,,,,,260023,2024-03-28_12h16.08.729,mfe_c_object,2022.2.4,59.92681734361771,
flanker_main_block_5.csv,img/rightArrow.png,img/leftArrow.png,img/leftArrow.png,7,0,right,"[0, 0]","[0.0385, 0]","[-0.0385, 0]",img/object_images/bottle06.jpg,"[0.035, 0.035]",,,,,,,,,,,,,0,1,1,4,0,28,28,27,,,,,,,,,,,,,,,3.9448897795591185,,,,,,,,,,1,,,,,,,,,,,,,,,797.7961556999944,797.7961556999944,797.7961556999944,797.7961556999944,797.7961556999944,797.9982916000299,798.148485200014,801.8818361000158,801.8818361000158,801.8818361000158,['k'],[0.5546711999922991],,,,,,,,,,,,,,,,,,,,,,,,,,,,,,,,,,,,,,,,,,,,,,,,,,,,,,,,260023,2024-03-28_12h16.08.729,mfe_c_object,2022.2.4,59.92681734361771,
flanker_main_block_5.csv,img/rightArrow.png,img/leftArrow.png,img/leftArrow.png,7,0,right,"[0, 0]","[0.0385, 0]","[-0.0385, 0]",img/object_images/bookmark01.jpg,"[0.035, 0.035]",,,,,,,,,,,,,0,1,1,4,0,29,29,1,,,,,,,,,,,,,,,3.7935871743486973,,,,,,,,,,1,,,,,,,,,,,,,,,801.8818361000158,801.8818361000158,801.8884008999448,801.8818361000158,801.8818361000158,802.1027195999632,802.2357673000079,805.8254707999295,805.8254707999295,805.8254707999295,['k'],[0.5162460999563336],,,,,,,,,,,,,,,,,,,,,,,,,,,,,,,,,,,,,,,,,,,,,,,,,,,,,,,,260023,2024-03-28_12h16.08.729,mfe_c_object,2022.2.4,59.92681734361771,
flanker_main_block_5.csv,img/rightArrow.png,img/leftArrow.png,img/leftArrow.png,7,0,right,"[0, 0]","[0.0385, 0]","[-0.0385, 0]",img/object_images/scale02.jpg,"[0.035, 0.035]",,,,,,,,,,,,,0,1,1,4,0,30,30,25,,,,,,,,,,,,,,,3.513026052104208,,,,,,,,,,1,,,,,,,,,,,,,,,805.8254707999295,805.8254707999295,805.8254707999295,805.8254707999295,805.8254707999295,806.03971859999,806.1899286999833,809.4923416000092,809.4923416000092,809.4923416000092,['k'],[0.4768425999209285],,,,,,,,,,,,,,,,,,,,,,,,,,,,,,,,,,,,,,,,,,,,,,,,,,,,,,,,260023,2024-03-28_12h16.08.729,mfe_c_object,2022.2.4,59.92681734361771,
flanker_main_block_5.csv,img/rightArrow.png,img/leftArrow.png,img/leftArrow.png,7,0,right,"[0, 0]","[0.0385, 0]","[-0.0385, 0]",img/object_images/note_book02.jpg,"[0.035, 0.035]",,,,,,,,,,,,,0,1,1,4,0,31,31,23,,,,,,,,,,,,,,,3.964929859719439,,,,,,,,,,1,,,,,,,,,,,,,,,809.4923416000092,809.4923416000092,809.4923416000092,809.4923416000092,809.4923416000092,809.6934636000078,809.8434201999335,813.4626810000045,813.4626810000045,813.4626810000045,['k'],[0.6095413999864832],,,,,,,,,,,,,,,,,,,,,,,,,,,,,,,,,,,,,,,,,,,,,,,,,,,,,,,,260023,2024-03-28_12h16.08.729,mfe_c_object,2022.2.4,59.92681734361771,
flanker_main_block_5.csv,,,,,,,,,,,,,,,,,,,,,,,,0,1,1,4,,,,,,,,,,,,,,,,,,,,,,,,,,,,,,,,,,,,,,,,,,,,,,,,,,,,,,,,2,813.4626810000045,823.4559143999359,k,0.7820906999986619,,,,,,,,,,,,,,,,,,,,,,,,,,,,,,,,,,,,,,,,,,,,,,,,,,,260023,2024-03-28_12h16.08.729,mfe_c_object,2022.2.4,59.92681734361771,
flanker_main_block_9.csv,img/leftArrow.png,img/rightArrow.png,img/rightArrow.png,8,0,left,"[0, 0]","[0.0385, 0]","[-0.0385, 0]",img/object_images/gloves02.jpg,"[0.035, 0.035]",,,,,,,,,,,,,0,2,2,8,0,0,0,12,,,,,,,,,,,,,,829.9178509999765,3.627254509018036,,,,,,,,,,1,,,,,,,,,,,824.2570297999773,824.2570297999773,k,5.6372510000364855,832.1060788999312,832.1060788999312,832.1060788999312,832.1060788999312,832.1060788999312,832.3160184000153,832.4659149999497,835.857463399996,835.857463399996,835.857463399996,['s'],[0.6213809999171644],,,,,,,,,,,,,,,,,,,,,,,,,,,,,,,,,,,,,,,,,,,,,,,,,,,,,,,,260023,2024-03-28_12h16.08.729,mfe_c_object,2022.2.4,59.92681734361771,
flanker_main_block_9.csv,img/rightArrow.png,img/rightArrow.png,img/rightArrow.png,5,1,right,"[0, 0]","[0.0385, 0]","[-0.0385, 0]",img/object_images/shower_head01.jpg,"[0.035, 0.035]",,,,,,,,,,,,,0,2,2,8,0,1,1,2,,,,,,,,,,,,,,,3.686372745490982,,,,,,,,,,1,,,,,,,,,,,,,,,835.857463399996,835.857463399996,835.8631852000253,835.857463399996,835.857463399996,836.0695872999495,836.2195854999591,839.6881554999854,839.6881554999854,839.6881554999854,['k'],[0.3412284000078216],,,,,,,,,,,,,,,,,,,,,,,,,,,,,,,,,,,,,,,,,,,,,,,,,,,,,,,,260023,2024-03-28_12h16.08.729,mfe_c_object,2022.2.4,59.92681734361771,
flanker_main_block_9.csv,img/leftArrow.png,img/leftArrow.png,img/leftArrow.png,6,1,left,"[0, 0]","[0.0385, 0]","[-0.0385, 0]",img/object_images/knit04.jpg,"[0.035, 0.035]",,,,,,,,,,,,,0,2,2,8,0,2,2,5,,,,,,,,,,,,,,,3.9248496993987976,,,,,,,,,,1,,,,,,,,,,,,,,,839.6881554999854,839.6881554999854,839.6881554999854,839.6881554999854,839.6881554999854,839.8902701999759,840.0401012999937,843.7543991999701,843.7543991999701,843.7543991999701,['s'],[0.39841280004475266],,,,,,,,,,,,,,,,,,,,,,,,,,,,,,,,,,,,,,,,,,,,,,,,,,,,,,,,260023,2024-03-28_12h16.08.729,mfe_c_object,2022.2.4,59.92681734361771,
flanker_main_block_9.csv,img/rightArrow.png,img/rightArrow.png,img/rightArrow.png,5,1,right,"[0, 0]","[0.0385, 0]","[-0.0385, 0]",img/object_images/remote_controller01.jpg,"[0.035, 0.035]",,,,,,,,,,,,,0,2,2,8,0,3,3,18,,,,,,,,,,,,,,,3.7895791583166334,,,,,,,,,,1,,,,,,,,,,,,,,,843.7543991999701,843.7543991999701,843.7605258999392,843.7543991999701,843.7543991999701,843.9609281999292,844.110891600023,847.68277449999,847.68277449999,847.68277449999,['k'],[0.4525176000315696],,,,,,,,,,,,,,,,,,,,,,,,,,,,,,,,,,,,,,,,,,,,,,,,,,,,,,,,260023,2024-03-28_12h16.08.729,mfe_c_object,2022.2.4,59.92681734361771,
flanker_main_block_9.csv,img/rightArrow.png,img/leftArrow.png,img/leftArrow.png,7,0,right,"[0, 0]","[0.0385, 0]","[-0.0385, 0]",img/object_images/matches02.jpg,"[0.035, 0.035]",,,,,,,,,,,,,0,2,2,8,0,4,4,13,,,,,,,,,,,,,,,3.8717434869739478,,,,,,,,,,1,,,,,,,,,,,,,,,847.68277449999,847.68277449999,847.68277449999,847.68277449999,847.68277449999,847.89819420001,848.0481200999347,851.7111199999927,851.7111199999927,851.7111199999927,['k'],[0.5321842000121251],,,,,,,,,,,,,,,,,,,,,,,,,,,,,,,,,,,,,,,,,,,,,,,,,,,,,,,,260023,2024-03-28_12h16.08.729,mfe_c_object,2022.2.4,59.92681734361771,
flanker_main_block_9.csv,img/rightArrow.png,img/leftArrow.png,img/leftArrow.png,7,0,right,"[0, 0]","[0.0385, 0]","[-0.0385, 0]",img/object_images/toy08.jpg,"[0.035, 0.035]",,,,,,,,,,,,,0,2,2,8,0,5,5,0,,,,,,,,,,,,,,,3.9268537074148298,,,,,,,,,,1,,,,,,,,,,,,,,,851.7111199999927,851.7111199999927,851.7111199999927,851.7111199999927,851.7111199999927,851.9188572999556,852.0686571999686,855.7694201000268,855.7694201000268,855.7694201000268,['k'],[0.5270422999747097],,,,,,,,,,,,,,,,,,,,,,,,,,,,,,,,,,,,,,,,,,,,,,,,,,,,,,,,260023,2024-03-28_12h16.08.729,mfe_c_object,2022.2.4,59.92681734361771,
flanker_main_block_9.csv,img/rightArrow.png,img/leftArrow.png,img/leftArrow.png,7,0,right,"[0, 0]","[0.0385, 0]","[-0.0385, 0]",img/object_images/boat04.jpg,"[0.035, 0.035]",,,,,,,,,,,,,0,2,2,8,0,6,6,27,,,,,,,,,,,,,,,3.8737474949899795,,,,,,,,,,1,,,,,,,,,,,,,,,855.7694201000268,855.7694201000268,855.7694201000268,855.7694201000268,855.7694201000268,855.9728319999995,856.1228969999356,859.7789444000227,859.7789444000227,859.7789444000227,['k'],[0.5252020999323577],,,,,,,,,,,,,,,,,,,,,,,,,,,,,,,,,,,,,,,,,,,,,,,,,,,,,,,,260023,2024-03-28_12h16.08.729,mfe_c_object,2022.2.4,59.92681734361771,
flanker_main_block_9.csv,img/leftArrow.png,img/leftArrow.png,img/leftArrow.png,6,1,left,"[0, 0]","[0.0385, 0]","[-0.0385, 0]",img/object_images/basket04.jpg,"[0.035, 0.035]",,,,,,,,,,,,,0,2,2,8,0,7,7,4,,,,,,,,,,,,,,,3.848697394789579,,,,,,,,,,1,,,,,,,,,,,,,,,859.7789444000227,859.7789444000227,859.7789444000227,859.7789444000227,859.7789444000227,859.9936960999621,860.1435295999981,863.7646350000286,863.7646350000286,863.7646350000286,['s'],[0.5555508999386802],,,,,,,,,,,,,,,,,,,,,,,,,,,,,,,,,,,,,,,,,,,,,,,,,,,,,,,,260023,2024-03-28_12h16.08.729,mfe_c_object,2022.2.4,59.92681734361771,
flanker_main_block_9.csv,img/rightArrow.png,img/leftArrow.png,img/leftArrow.png,7,0,right,"[0, 0]","[0.0385, 0]","[-0.0385, 0]",img/object_images/flashlight03.jpg,"[0.035, 0.035]",,,,,,,,,,,,,0,2,2,8,0,8,8,7,,,,,,,,,,,,,,,3.711422845691383,,,,,,,,,,1,,,,,,,,,,,,,,,863.7646350000286,863.7646350000286,863.7646350000286,863.7646350000286,863.7646350000286,863.9641240999335,864.1139894999797,867.619949099957,867.619949099957,867.619949099957,['k'],[0.5135789000196382],,,,,,,,,,,,,,,,,,,,,,,,,,,,,,,,,,,,,,,,,,,,,,,,,,,,,,,,260023,2024-03-28_12h16.08.729,mfe_c_object,2022.2.4,59.92681734361771,
flanker_main_block_9.csv,img/rightArrow.png,img/rightArrow.png,img/rightArrow.png,5,1,right,"[0, 0]","[0.0385, 0]","[-0.0385, 0]",img/object_images/sponge03.jpg,"[0.035, 0.035]",,,,,,,,,,,,,0,2,2,8,0,9,9,16,,,,,,,,,,,,,,,3.8216432865731464,,,,,,,,,,1,,,,,,,,,,,,,,,867.619949099957,867.619949099957,867.619949099957,867.619949099957,867.619949099957,867.8348737999331,867.9846428999444,871.6128613000037,871.6128613000037,871.6128613000037,['k'],[0.45078310009557754],,,,,,,,,,,,,,,,,,,,,,,,,,,,,,,,,,,,,,,,,,,,,,,,,,,,,,,,260023,2024-03-28_12h16.08.729,mfe_c_object,2022.2.4,59.92681734361771,
flanker_main_block_9.csv,img/rightArrow.png,img/leftArrow.png,img/leftArrow.png,7,0,right,"[0, 0]","[0.0385, 0]","[-0.0385, 0]",img/object_images/tool18.jpg,"[0.035, 0.035]",,,,,,,,,,,,,0,2,2,8,0,10,10,26,,,,,,,,,,,,,,,3.898797595190381,,,,,,,,,,1,,,,,,,,,,,,,,,871.6128613000037,871.6128613000037,871.6128613000037,871.6128613000037,871.6128613000037,871.822053699987,871.9719236999517,875.6504987999797,875.6504987999797,875.6504987999797,['k'],[0.5306005999445915],,,,,,,,,,,,,,,,,,,,,,,,,,,,,,,,,,,,,,,,,,,,,,,,,,,,,,,,260023,2024-03-28_12h16.08.729,mfe_c_object,2022.2.4,59.92681734361771,
flanker_main_block_9.csv,img/rightArrow.png,img/leftArrow.png,img/leftArrow.png,7,0,right,"[0, 0]","[0.0385, 0]","[-0.0385, 0]",img/object_images/hoverboard01.jpg,"[0.035, 0.035]",,,,,,,,,,,,,0,2,2,8,0,11,11,24,,,,,,,,,,,,,,,3.74749498997996,,,,,,,,,,1,,,,,,,,,,,,,,,875.6504987999797,875.6504987999797,875.6566618999932,875.6504987999797,875.6504987999797,875.8593842999544,876.0093366999645,879.5393384000054,879.5393384000054,879.5393384000054,['k'],[0.47684590006247163],,,,,,,,,,,,,,,,,,,,,,,,,,,,,,,,,,,,,,,,,,,,,,,,,,,,,,,,260023,2024-03-28_12h16.08.729,mfe_c_object,2022.2.4,59.92681734361771,
flanker_main_block_9.csv,img/leftArrow.png,img/rightArrow.png,img/rightArrow.png,8,0,left,"[0, 0]","[0.0385, 0]","[-0.0385, 0]",img/object_images/knife02.jpg,"[0.035, 0.035]",,,,,,,,,,,,,0,2,2,8,0,12,12,17,,,,,,,,,,,,,,,3.7104208416833666,,,,,,,,,,1,,,,,,,,,,,,,,,879.5393384000054,879.5393384000054,879.5453938000137,879.5393384000054,879.5393384000054,879.7465752999997,879.8963706999784,883.3791098999791,883.3791098999791,883.3791098999791,['s'],[0.5144943000050262],,,,,,,,,,,,,,,,,,,,,,,,,,,,,,,,,,,,,,,,,,,,,,,,,,,,,,,,260023,2024-03-28_12h16.08.729,mfe_c_object,2022.2.4,59.92681734361771,
flanker_main_block_9.csv,img/rightArrow.png,img/rightArrow.png,img/rightArrow.png,5,1,right,"[0, 0]","[0.0385, 0]","[-0.0385, 0]",img/object_images/bottle07.jpg,"[0.035, 0.035]",,,,,,,,,,,,,0,2,2,8,0,13,13,31,,,,,,,,,,,,,,,3.874749498997996,,,,,,,,,,1,,,,,,,,,,,,,,,883.3791098999791,883.3791098999791,883.3791098999791,883.3791098999791,883.3791098999791,883.5838885999983,883.7337106999476,887.3875041999854,887.3875041999854,887.3875041999854,['k'],[0.45145619998220354],,,,,,,,,,,,,,,,,,,,,,,,,,,,,,,,,,,,,,,,,,,,,,,,,,,,,,,,260023,2024-03-28_12h16.08.729,mfe_c_object,2022.2.4,59.92681734361771,
flanker_main_block_9.csv,img/rightArrow.png,img/rightArrow.png,img/rightArrow.png,5,1,right,"[0, 0]","[0.0385, 0]","[-0.0385, 0]",img/object_images/knit03.jpg,"[0.035, 0.035]",,,,,,,,,,,,,0,2,2,8,0,14,14,14,,,,,,,,,,,,,,,3.658316633266533,,,,,,,,,,1,,,,,,,,,,,,,,,887.3875041999854,887.3875041999854,887.3875041999854,887.3875041999854,887.3875041999854,887.5877676999662,887.737632400007,891.1919573999476,891.1919573999476,891.1919573999476,['k'],[0.4429725999943912],,,,,,,,,,,,,,,,,,,,,,,,,,,,,,,,,,,,,,,,,,,,,,,,,,,,,,,,260023,2024-03-28_12h16.08.729,mfe_c_object,2022.2.4,59.92681734361771,
flanker_main_block_9.csv,img/rightArrow.png,img/rightArrow.png,img/rightArrow.png,5,1,right,"[0, 0]","[0.0385, 0]","[-0.0385, 0]",img/object_images/video_game01.jpg,"[0.035, 0.035]",,,,,,,,,,,,,0,2,2,8,0,15,15,21,,,,,,,,,,,,,,,3.632264529058116,,,,,,,,,,1,,,,,,,,,,,,,,,891.1919573999476,891.1919573999476,891.1919573999476,891.1919573999476,891.1919573999476,891.3914516000077,891.541328500025,894.9822114999406,894.9822114999406,894.9822114999406,['k'],[0.53456840000581],,,,,,,,,,,,,,,,,,,,,,,,,,,,,,,,,,,,,,,,,,,,,,,,,,,,,,,,260023,2024-03-28_12h16.08.729,mfe_c_object,2022.2.4,59.92681734361771,
flanker_main_block_9.csv,img/leftArrow.png,img/leftArrow.png,img/leftArrow.png,6,1,left,"[0, 0]","[0.0385, 0]","[-0.0385, 0]",img/object_images/kite01.jpg,"[0.035, 0.035]",,,,,,,,,,,,,0,2,2,8,0,16,16,15,,,,,,,,,,,,,,,3.817635270541082,,,,,,,,,,1,,,,,,,,,,,,,,,894.9822114999406,894.9822114999406,894.9822114999406,894.9822114999406,894.9822114999406,895.1952889999375,895.3451970999595,898.9436777000083,898.9436777000083,898.9436777000083,['s'],[0.5675082999514416],,,,,,,,,,,,,,,,,,,,,,,,,,,,,,,,,,,,,,,,,,,,,,,,,,,,,,,,260023,2024-03-28_12h16.08.729,mfe_c_object,2022.2.4,59.92681734361771,
flanker_main_block_9.csv,img/leftArrow.png,img/rightArrow.png,img/rightArrow.png,8,0,left,"[0, 0]","[0.0385, 0]","[-0.0385, 0]",img/object_images/backpack01.jpg,"[0.035, 0.035]",,,,,,,,,,,,,0,2,2,8,0,17,17,23,,,,,,,,,,,,,,,3.911823647294589,,,,,,,,,,0,,,,,,,,,,,,,,,898.9436777000083,898.9436777000083,898.9499693999533,898.9436777000083,898.9436777000083,899.1493171999464,899.2993216000032,902.9992503999965,902.9992503999965,902.9992503999965,['k'],[0.37510499998461455],,,,,,,,,,,,,,,,,,,,,,,,,,,,,,,,,,,,,,,,,,,,,,,,,,,,,,,,260023,2024-03-28_12h16.08.729,mfe_c_object,2022.2.4,59.92681734361771,
flanker_main_block_9.csv,img/leftArrow.png,img/leftArrow.png,img/leftArrow.png,6,1,left,"[0, 0]","[0.0385, 0]","[-0.0385, 0]",img/object_images/phone02.jpg,"[0.035, 0.035]",,,,,,,,,,,,,0,2,2,8,0,18,18,1,,,,,,,,,,,,,,,3.562124248496994,,,,,,,,,,1,,,,,,,,,,,,,,,902.9992503999965,902.9992503999965,902.9992503999965,902.9992503999965,902.9992503999965,903.203156100004,903.3531256000279,906.700475199963,906.700475199963,906.700475199963,['s'],[0.4712226999690756],,,,,,,,,,,,,,,,,,,,,,,,,,,,,,,,,,,,,,,,,,,,,,,,,,,,,,,,260023,2024-03-28_12h16.08.729,mfe_c_object,2022.2.4,59.92681734361771,
flanker_main_block_9.csv,img/leftArrow.png,img/rightArrow.png,img/rightArrow.png,8,0,left,"[0, 0]","[0.0385, 0]","[-0.0385, 0]",img/object_images/hand_grip_exerciser01.jpg,"[0.035, 0.035]",,,,,,,,,,,,,0,2,2,8,0,19,19,30,,,,,,,,,,,,,,,3.7324649298597197,,,,,,,,,,1,,,,,,,,,,,,,,,906.700475199963,906.700475199963,906.7066134000197,906.700475199963,906.700475199963,906.9071357999928,907.0568275999976,910.5730179999955,910.5730179999955,910.5730179999955,['s'],[0.5374469999223948],,,,,,,,,,,,,,,,,,,,,,,,,,,,,,,,,,,,,,,,,,,,,,,,,,,,,,,,260023,2024-03-28_12h16.08.729,mfe_c_object,2022.2.4,59.92681734361771,
flanker_main_block_9.csv,img/rightArrow.png,img/leftArrow.png,img/leftArrow.png,7,0,right,"[0, 0]","[0.0385, 0]","[-0.0385, 0]",img/object_images/curtain02.jpg,"[0.035, 0.035]",,,,,,,,,,,,,0,2,2,8,0,20,20,3,,,,,,,,,,,,,,,3.968937875751503,,,,,,,,,,1,,,,,,,,,,,,,,,910.5730179999955,910.5730179999955,910.5730179999955,910.5730179999955,910.5730179999955,910.7774764000205,910.9275291999802,914.6834724999499,914.6834724999499,914.6834724999499,['k'],[0.44958320003934205],,,,,,,,,,,,,,,,,,,,,,,,,,,,,,,,,,,,,,,,,,,,,,,,,,,,,,,,260023,2024-03-28_12h16.08.729,mfe_c_object,2022.2.4,59.92681734361771,
flanker_main_block_9.csv,img/leftArrow.png,img/leftArrow.png,img/leftArrow.png,6,1,left,"[0, 0]","[0.0385, 0]","[-0.0385, 0]",img/object_images/Statue01.jpg,"[0.035, 0.035]",,,,,,,,,,,,,0,2,2,8,0,21,21,19,,,,,,,,,,,,,,,3.6452905811623246,,,,,,,,,,1,,,,,,,,,,,,,,,914.6834724999499,914.6834724999499,914.6834724999499,914.6834724999499,914.6834724999499,914.8982090000063,915.0481698999647,918.4839755999856,918.4839755999856,918.4839755999856,['s'],[0.45055420009884983],,,,,,,,,,,,,,,,,,,,,,,,,,,,,,,,,,,,,,,,,,,,,,,,,,,,,,,,260023,2024-03-28_12h16.08.729,mfe_c_object,2022.2.4,59.92681734361771,
flanker_main_block_9.csv,img/leftArrow.png,img/rightArrow.png,img/rightArrow.png,8,0,left,"[0, 0]","[0.0385, 0]","[-0.0385, 0]",img/object_images/mail_box01.jpg,"[0.035, 0.035]",,,,,,,,,,,,,0,2,2,8,0,22,22,20,,,,,,,,,,,,,,,3.9448897795591185,,,,,,,,,,1,,,,,,,,,,,,,,,918.4839755999856,918.4839755999856,918.4839755999856,918.4839755999856,918.4839755999856,918.6854191999882,918.8354835000355,922.570237500011,922.570237500011,922.570237500011,['s'],[0.49013020005077124],,,,,,,,,,,,,,,,,,,,,,,,,,,,,,,,,,,,,,,,,,,,,,,,,,,,,,,,260023,2024-03-28_12h16.08.729,mfe_c_object,2022.2.4,59.92681734361771,
flanker_main_block_9.csv,img/leftArrow.png,img/rightArrow.png,img/rightArrow.png,8,0,left,"[0, 0]","[0.0385, 0]","[-0.0385, 0]",img/object_images/stereo02.jpg,"[0.035, 0.035]",,,,,,,,,,,,,0,2,2,8,0,23,23,6,,,,,,,,,,,,,,,3.929859719438878,,,,,,,,,,1,,,,,,,,,,,,,,,922.570237500011,922.570237500011,922.570237500011,922.570237500011,922.570237500011,922.7729798000073,922.9227199000306,926.6433189000236,926.6433189000236,926.6433189000236,['s'],[0.43691199994646013],,,,,,,,,,,,,,,,,,,,,,,,,,,,,,,,,,,,,,,,,,,,,,,,,,,,,,,,260023,2024-03-28_12h16.08.729,mfe_c_object,2022.2.4,59.92681734361771,
flanker_main_block_9.csv,img/leftArrow.png,img/leftArrow.png,img/leftArrow.png,6,1,left,"[0, 0]","[0.0385, 0]","[-0.0385, 0]",img/object_images/remover01.jpg,"[0.035, 0.035]",,,,,,,,,,,,,0,2,2,8,0,24,24,22,,,,,,,,,,,,,,,3.591182364729459,,,,,,,,,,1,,,,,,,,,,,,,,,926.6433189000236,926.6433189000236,926.6433189000236,926.6433189000236,926.6433189000236,926.8435910999542,926.9935512000229,930.3807627999922,930.3807627999922,930.3807627999922,['s'],[0.4827296999283135],,,,,,,,,,,,,,,,,,,,,,,,,,,,,,,,,,,,,,,,,,,,,,,,,,,,,,,,260023,2024-03-28_12h16.08.729,mfe_c_object,2022.2.4,59.92681734361771,
flanker_main_block_9.csv,img/leftArrow.png,img/leftArrow.png,img/leftArrow.png,6,1,left,"[0, 0]","[0.0385, 0]","[-0.0385, 0]",img/object_images/blender02.jpg,"[0.035, 0.035]",,,,,,,,,,,,,0,2,2,8,0,25,25,29,,,,,,,,,,,,,,,3.8967935871743484,,,,,,,,,,1,,,,,,,,,,,,,,,930.3807627999922,930.3807627999922,930.3807627999922,930.3807627999922,930.3807627999922,930.580543100019,930.7303756999318,934.4225040000165,934.4225040000165,934.4225040000165,['s'],[0.6415689999703318],,,,,,,,,,,,,,,,,,,,,,,,,,,,,,,,,,,,,,,,,,,,,,,,,,,,,,,,260023,2024-03-28_12h16.08.729,mfe_c_object,2022.2.4,59.92681734361771,
flanker_main_block_9.csv,img/leftArrow.png,img/rightArrow.png,img/rightArrow.png,8,0,left,"[0, 0]","[0.0385, 0]","[-0.0385, 0]",img/object_images/dresser03.jpg,"[0.035, 0.035]",,,,,,,,,,,,,0,2,2,8,0,26,26,8,,,,,,,,,,,,,,,3.876753507014028,,,,,,,,,,1,,,,,,,,,,,,,,,934.4225040000165,934.4225040000165,934.4225040000165,934.4225040000165,934.4225040000165,934.6346892999718,934.7846570999827,938.4405843999702,938.4405843999702,938.4405843999702,['s'],[0.5923655999358743],,,,,,,,,,,,,,,,,,,,,,,,,,,,,,,,,,,,,,,,,,,,,,,,,,,,,,,,260023,2024-03-28_12h16.08.729,mfe_c_object,2022.2.4,59.92681734361771,
flanker_main_block_9.csv,img/rightArrow.png,img/rightArrow.png,img/rightArrow.png,5,1,right,"[0, 0]","[0.0385, 0]","[-0.0385, 0]",img/object_images/keyboard02.jpg,"[0.035, 0.035]",,,,,,,,,,,,,0,2,2,8,0,27,27,10,,,,,,,,,,,,,,,3.554108216432866,,,,,,,,,,1,,,,,,,,,,,,,,,938.4405843999702,938.4405843999702,938.4405843999702,938.4405843999702,938.4405843999702,938.6552881000098,938.805509799975,942.1388836000115,942.1388836000115,942.1388836000115,['k'],[0.6856974000111222],,,,,,,,,,,,,,,,,,,,,,,,,,,,,,,,,,,,,,,,,,,,,,,,,,,,,,,,260023,2024-03-28_12h16.08.729,mfe_c_object,2022.2.4,59.92681734361771,
flanker_main_block_9.csv,img/leftArrow.png,img/rightArrow.png,img/rightArrow.png,8,0,left,"[0, 0]","[0.0385, 0]","[-0.0385, 0]",img/object_images/camera03.jpg,"[0.035, 0.035]",,,,,,,,,,,,,0,2,2,8,0,28,28,11,,,,,,,,,,,,,,,3.584168336673347,,,,,,,,,,1,,,,,,,,,,,,,,,942.1388836000115,942.1388836000115,942.1388836000115,942.1388836000115,942.1388836000115,942.3422347999876,942.492160600028,945.8572600999614,945.8572600999614,945.8572600999614,['s'],[0.5793088000500575],,,,,,,,,,,,,,,,,,,,,,,,,,,,,,,,,,,,,,,,,,,,,,,,,,,,,,,,260023,2024-03-28_12h16.08.729,mfe_c_object,2022.2.4,59.92681734361771,
flanker_main_block_9.csv,img/rightArrow.png,img/leftArrow.png,img/leftArrow.png,7,0,right,"[0, 0]","[0.0385, 0]","[-0.0385, 0]",img/object_images/jacket04.jpg,"[0.035, 0.035]",,,,,,,,,,,,,0,2,2,8,0,29,29,28,,,,,,,,,,,,,,,3.779559118236473,,,,,,,,,,1,,,,,,,,,,,,,,,945.8572600999614,945.8572600999614,945.8634654999478,945.8572600999614,945.8572600999614,946.0628147999523,946.2126658000052,949.7812975000124,949.7812975000124,949.7812975000124,['k'],[0.5258245000150055],,,,,,,,,,,,,,,,,,,,,,,,,,,,,,,,,,,,,,,,,,,,,,,,,,,,,,,,260023,2024-03-28_12h16.08.729,mfe_c_object,2022.2.4,59.92681734361771,
flanker_main_block_9.csv,img/rightArrow.png,img/rightArrow.png,img/rightArrow.png,5,1,right,"[0, 0]","[0.0385, 0]","[-0.0385, 0]",img/object_images/car01.jpg,"[0.035, 0.035]",,,,,,,,,,,,,0,2,2,8,0,30,30,9,,,,,,,,,,,,,,,3.8547094188376754,,,,,,,,,,1,,,,,,,,,,,,,,,949.7812975000124,949.7812975000124,949.7812975000124,949.7812975000124,949.7812975000124,949.9834116999991,950.1331219000276,953.7655037000077,953.7655037000077,953.7655037000077,['k'],[0.45741319993976504],,,,,,,,,,,,,,,,,,,,,,,,,,,,,,,,,,,,,,,,,,,,,,,,,,,,,,,,260023,2024-03-28_12h16.08.729,mfe_c_object,2022.2.4,59.92681734361771,
flanker_main_block_9.csv,img/leftArrow.png,img/leftArrow.png,img/leftArrow.png,6,1,left,"[0, 0]","[0.0385, 0]","[-0.0385, 0]",img/object_images/paper_cup02.jpg,"[0.035, 0.035]",,,,,,,,,,,,,0,2,2,8,0,31,31,25,,,,,,,,,,,,,,,3.513026052104208,,,,,,,,,,1,,,,,,,,,,,,,,,953.7655037000077,953.7655037000077,953.7716836000327,953.7655037000077,953.7655037000077,953.9873933999334,954.1205130999442,957.289339800016,957.289339800016,957.289339800016,['s'],[0.4570564000168815],,,,,,,,,,,,,,,,,,,,,,,,,,,,,,,,,,,,,,,,,,,,,,,,,,,,,,,,260023,2024-03-28_12h16.08.729,mfe_c_object,2022.2.4,59.92681734361771,
flanker_main_block_9.csv,,,,,,,,,,,,,,,,,,,,,,,,0,2,2,8,,,,,,,,,,,,,,,,,,,,,,,,,,,,,,,,,,,,,,,,,,,,,,,,,,,,,,,,2,957.289339800016,967.2826906000264,k,0.49151780002284795,,,,,,,,,,,,,,,,,,,,,,,,,,,,,,,,,,,,,,,,,,,,,,,,,,,260023,2024-03-28_12h16.08.729,mfe_c_object,2022.2.4,59.92681734361771,
flanker_main_block_1.csv,img/rightArrow.png,img/leftArrow.png,img/leftArrow.png,7,0,right,"[0, 0]","[0.0385, 0]","[-0.0385, 0]",img/object_images/Vacuum01.jpg,"[0.035, 0.035]",,,,,,,,,,,,,0,3,3,0,0,0,0,3,,,,,,,,,,,,,,974.5615933999652,3.808617234468938,,,,,,,,,,1,,,,,,,,,,,967.8001406999538,967.8001406999538,k,6.7256713000824675,976.74949810002,976.74949810002,976.74949810002,976.74949810002,976.74949810002,976.960177400033,977.1101666999748,980.6953881999943,980.6953881999943,980.6953881999943,['k'],[0.6011199000058696],,,,,,,,,,,,,,,,,,,,,,,,,,,,,,,,,,,,,,,,,,,,,,,,,,,,,,,,260023,2024-03-28_12h16.08.729,mfe_c_object,2022.2.4,59.92681734361771,
flanker_main_block_1.csv,img/rightArrow.png,img/leftArrow.png,img/leftArrow.png,7,0,right,"[0, 0]","[0.0385, 0]","[-0.0385, 0]",img/object_images/gauze01.jpg,"[0.035, 0.035]",,,,,,,,,,,,,0,3,3,0,0,1,1,14,,,,,,,,,,,,,,,3.594188376753507,,,,,,,,,,1,,,,,,,,,,,,,,,980.6953881999943,980.6953881999943,980.6953881999943,980.6953881999943,980.6953881999943,980.8976173999254,981.0473429999547,984.4327077999478,984.4327077999478,984.4327077999478,['k'],[0.6234260000055656],,,,,,,,,,,,,,,,,,,,,,,,,,,,,,,,,,,,,,,,,,,,,,,,,,,,,,,,260023,2024-03-28_12h16.08.729,mfe_c_object,2022.2.4,59.92681734361771,
flanker_main_block_1.csv,img/rightArrow.png,img/rightArrow.png,img/rightArrow.png,5,1,right,"[0, 0]","[0.0385, 0]","[-0.0385, 0]",img/object_images/towel02.jpg,"[0.035, 0.035]",,,,,,,,,,,,,0,3,3,0,0,2,2,31,,,,,,,,,,,,,,,3.7024048096192383,,,,,,,,,,1,,,,,,,,,,,,,,,984.4327077999478,984.4327077999478,984.4327077999478,984.4327077999478,984.4327077999478,984.6346324000042,984.7845567000331,988.2680853999918,988.2680853999918,988.2680853999918,['k'],[0.39707280008587986],,,,,,,,,,,,,,,,,,,,,,,,,,,,,,,,,,,,,,,,,,,,,,,,,,,,,,,,260023,2024-03-28_12h16.08.729,mfe_c_object,2022.2.4,59.92681734361771,
flanker_main_block_1.csv,img/leftArrow.png,img/leftArrow.png,img/leftArrow.png,6,1,left,"[0, 0]","[0.0385, 0]","[-0.0385, 0]",img/object_images/mirror01.jpg,"[0.035, 0.035]",,,,,,,,,,,,,0,3,3,0,0,3,3,28,,,,,,,,,,,,,,,3.658316633266533,,,,,,,,,,1,,,,,,,,,,,,,,,988.2680853999918,988.2680853999918,988.2680853999918,988.2680853999918,988.2680853999918,988.4717298999894,988.6216993000126,992.0864778999239,992.0864778999239,992.0864778999239,['s'],[0.36229680001270026],,,,,,,,,,,,,,,,,,,,,,,,,,,,,,,,,,,,,,,,,,,,,,,,,,,,,,,,260023,2024-03-28_12h16.08.729,mfe_c_object,2022.2.4,59.92681734361771,
flanker_main_block_1.csv,img/leftArrow.png,img/rightArrow.png,img/rightArrow.png,8,0,left,"[0, 0]","[0.0385, 0]","[-0.0385, 0]",img/object_images/pot01 (1).jpg,"[0.035, 0.035]",,,,,,,,,,,,,0,3,3,0,0,4,4,22,,,,,,,,,,,,,,,3.81062124248497,,,,,,,,,,1,,,,,,,,,,,,,,,992.0864778999239,992.0864778999239,992.0864778999239,992.0864778999239,992.0864778999239,992.292538599926,992.4420728000114,996.0402115000179,996.0402115000179,996.0402115000179,['s'],[0.4635948999784887],,,,,,,,,,,,,,,,,,,,,,,,,,,,,,,,,,,,,,,,,,,,,,,,,,,,,,,,260023,2024-03-28_12h16.08.729,mfe_c_object,2022.2.4,59.92681734361771,
flanker_main_block_1.csv,img/leftArrow.png,img/leftArrow.png,img/leftArrow.png,6,1,left,"[0, 0]","[0.0385, 0]","[-0.0385, 0]",img/object_images/shovel03.jpg,"[0.035, 0.035]",,,,,,,,,,,,,0,3,3,0,0,5,5,19,,,,,,,,,,,,,,,3.6302605210420844,,,,,,,,,,1,,,,,,,,,,,,,,,996.0402115000179,996.0402115000179,996.0461352999555,996.0402115000179,996.0402115000179,996.2461667000316,996.3962704000296,999.814951099921,999.814951099921,999.814951099921,['s'],[0.42143820005003363],,,,,,,,,,,,,,,,,,,,,,,,,,,,,,,,,,,,,,,,,,,,,,,,,,,,,,,,260023,2024-03-28_12h16.08.729,mfe_c_object,2022.2.4,59.92681734361771,
flanker_main_block_1.csv,img/leftArrow.png,img/leftArrow.png,img/leftArrow.png,6,1,left,"[0, 0]","[0.0385, 0]","[-0.0385, 0]",img/object_images/toy03.jpg,"[0.035, 0.035]",,,,,,,,,,,,,0,3,3,0,0,6,6,24,,,,,,,,,,,,,,,3.5480961923847696,,,,,,,,,,1,,,,,,,,,,,,,,,999.814951099921,999.814951099921,999.814951099921,999.814951099921,999.814951099921,1000.0164711999241,1000.1665602999274,1003.5078446000116,1003.5078446000116,1003.5078446000116,['s'],[0.4317191999871284],,,,,,,,,,,,,,,,,,,,,,,,,,,,,,,,,,,,,,,,,,,,,,,,,,,,,,,,260023,2024-03-28_12h16.08.729,mfe_c_object,2022.2.4,59.92681734361771,
flanker_main_block_1.csv,img/leftArrow.png,img/rightArrow.png,img/rightArrow.png,8,0,left,"[0, 0]","[0.0385, 0]","[-0.0385, 0]",img/object_images/sink01.jpg,"[0.035, 0.035]",,,,,,,,,,,,,0,3,3,0,0,7,7,17,,,,,,,,,,,,,,,3.614228456913828,,,,,,,,,,1,,,,,,,,,,,,,,,1003.5078446000116,1003.5078446000116,1003.5078446000116,1003.5078446000116,1003.5078446000116,1003.720242899959,1003.8702220999403,1007.2575481999665,1007.2575481999665,1007.2575481999665,['s'],[0.49783989996649325],,,,,,,,,,,,,,,,,,,,,,,,,,,,,,,,,,,,,,,,,,,,,,,,,,,,,,,,260023,2024-03-28_12h16.08.729,mfe_c_object,2022.2.4,59.92681734361771,
flanker_main_block_1.csv,img/rightArrow.png,img/leftArrow.png,img/leftArrow.png,7,0,right,"[0, 0]","[0.0385, 0]","[-0.0385, 0]",img/object_images/outlet01.jpg,"[0.035, 0.035]",,,,,,,,,,,,,0,3,3,0,0,8,8,25,,,,,,,,,,,,,,,3.6192384769539077,,,,,,,,,,1,,,,,,,,,,,,,,,1007.2575481999665,1007.2575481999665,1007.2575481999665,1007.2575481999665,1007.2575481999665,1007.4572081000078,1007.607113200007,1011.0099150999449,1011.0099150999449,1011.0099150999449,['k'],[0.4690594000276178],,,,,,,,,,,,,,,,,,,,,,,,,,,,,,,,,,,,,,,,,,,,,,,,,,,,,,,,260023,2024-03-28_12h16.08.729,mfe_c_object,2022.2.4,59.92681734361771,
flanker_main_block_1.csv,img/rightArrow.png,img/leftArrow.png,img/leftArrow.png,7,0,right,"[0, 0]","[0.0385, 0]","[-0.0385, 0]",img/object_images/toy04.jpg,"[0.035, 0.035]",,,,,,,,,,,,,0,3,3,0,0,9,9,11,,,,,,,,,,,,,,,3.534068136272545,,,,,,,,,,1,,,,,,,,,,,,,,,1011.0099150999449,1011.0099150999449,1011.0099150999449,1011.0099150999449,1011.0099150999449,1011.2109274999239,1011.3608470000327,1014.6960014000069,1014.6960014000069,1014.6960014000069,['k'],[0.45273179991636425],,,,,,,,,,,,,,,,,,,,,,,,,,,,,,,,,,,,,,,,,,,,,,,,,,,,,,,,260023,2024-03-28_12h16.08.729,mfe_c_object,2022.2.4,59.92681734361771,
flanker_main_block_1.csv,img/leftArrow.png,img/leftArrow.png,img/leftArrow.png,6,1,left,"[0, 0]","[0.0385, 0]","[-0.0385, 0]",img/object_images/bird_house02.jpg,"[0.035, 0.035]",,,,,,,,,,,,,0,3,3,0,0,10,10,16,,,,,,,,,,,,,,,3.9539078156312626,,,,,,,,,,1,,,,,,,,,,,,,,,1014.6960014000069,1014.6960014000069,1014.6960014000069,1014.6960014000069,1014.6960014000069,1014.8980801999569,1015.0479288999923,1018.7798072999576,1018.7798072999576,1018.7798072999576,['s'],[0.6064886000240222],,,,,,,,,,,,,,,,,,,,,,,,,,,,,,,,,,,,,,,,,,,,,,,,,,,,,,,,260023,2024-03-28_12h16.08.729,mfe_c_object,2022.2.4,59.92681734361771,
flanker_main_block_1.csv,img/leftArrow.png,img/rightArrow.png,img/rightArrow.png,8,0,left,"[0, 0]","[0.0385, 0]","[-0.0385, 0]",img/object_images/Ring02.jpg,"[0.035, 0.035]",,,,,,,,,,,,,0,3,3,0,0,11,11,0,,,,,,,,,,,,,,,3.814629258517034,,,,,,,,,,1,,,,,,,,,,,,,,,1018.7798072999576,1018.7798072999576,1018.7861104999902,1018.7798072999576,1018.7798072999576,1018.9854066999396,1019.1352432999993,1022.8934495999711,1022.8934495999711,1022.8934495999711,['s'],[0.47413530002813786],,,,,,,,,,,,,,,,,,,,,,,,,,,,,,,,,,,,,,,,,,,,,,,,,,,,,,,,260023,2024-03-28_12h16.08.729,mfe_c_object,2022.2.4,59.92681734361771,
flanker_main_block_1.csv,img/rightArrow.png,img/rightArrow.png,img/rightArrow.png,5,1,right,"[0, 0]","[0.0385, 0]","[-0.0385, 0]",img/object_images/tool02.jpg,"[0.035, 0.035]",,,,,,,,,,,,,0,3,3,0,0,12,12,12,,,,,,,,,,,,,,,3.765531062124248,,,,,,,,,,1,,,,,,,,,,,,,,,1022.8934495999711,1022.8934495999711,1022.8934495999711,1022.8934495999711,1022.8934495999711,1023.1062282000203,1023.2562211999903,1026.9158922999632,1026.9158922999632,1026.9158922999632,['k'],[0.35299669997766614],,,,,,,,,,,,,,,,,,,,,,,,,,,,,,,,,,,,,,,,,,,,,,,,,,,,,,,,260023,2024-03-28_12h16.08.729,mfe_c_object,2022.2.4,59.92681734361771,
flanker_main_block_1.csv,img/rightArrow.png,img/leftArrow.png,img/leftArrow.png,7,0,right,"[0, 0]","[0.0385, 0]","[-0.0385, 0]",img/object_images/guitar02.jpg,"[0.035, 0.035]",,,,,,,,,,,,,0,3,3,0,0,13,13,1,,,,,,,,,,,,,,,3.850701402805611,,,,,,,,,,1,,,,,,,,,,,,,,,1026.9158922999632,1026.9158922999632,1026.9158922999632,1026.9158922999632,1026.9158922999632,1027.126836600015,1027.2767445000354,1030.910565200029,1030.910565200029,1030.910565200029,['k'],[0.4985865999478847],,,,,,,,,,,,,,,,,,,,,,,,,,,,,,,,,,,,,,,,,,,,,,,,,,,,,,,,260023,2024-03-28_12h16.08.729,mfe_c_object,2022.2.4,59.92681734361771,
flanker_main_block_1.csv,img/rightArrow.png,img/rightArrow.png,img/rightArrow.png,5,1,right,"[0, 0]","[0.0385, 0]","[-0.0385, 0]",img/object_images/stapler.jpg,"[0.035, 0.035]",,,,,,,,,,,,,0,3,3,0,0,14,14,7,,,,,,,,,,,,,,,3.82064128256513,,,,,,,,,,1,,,,,,,,,,,,,,,1030.910565200029,1030.910565200029,1030.910565200029,1030.910565200029,1030.910565200029,1031.1141126999864,1031.2641099999892,1034.8689497000305,1034.8689497000305,1034.8689497000305,['k'],[0.3993139999220148],,,,,,,,,,,,,,,,,,,,,,,,,,,,,,,,,,,,,,,,,,,,,,,,,,,,,,,,260023,2024-03-28_12h16.08.729,mfe_c_object,2022.2.4,59.92681734361771,
flanker_main_block_1.csv,img/leftArrow.png,img/leftArrow.png,img/leftArrow.png,6,1,left,"[0, 0]","[0.0385, 0]","[-0.0385, 0]",img/object_images/video_game07.jpg,"[0.035, 0.035]",,,,,,,,,,,,,0,3,3,0,0,15,15,10,,,,,,,,,,,,,,,3.6492985971943885,,,,,,,,,,1,,,,,,,,,,,,,,,1034.8689497000305,1034.8689497000305,1034.8689497000305,1034.8689497000305,1034.8689497000305,1035.0681316999253,1035.218140300014,1038.6696028999286,1038.6696028999286,1038.6696028999286,['s'],[0.4412018000148237],,,,,,,,,,,,,,,,,,,,,,,,,,,,,,,,,,,,,,,,,,,,,,,,,,,,,,,,260023,2024-03-28_12h16.08.729,mfe_c_object,2022.2.4,59.92681734361771,
flanker_main_block_1.csv,img/rightArrow.png,img/rightArrow.png,img/rightArrow.png,5,1,right,"[0, 0]","[0.0385, 0]","[-0.0385, 0]",img/object_images/judge_gavel01.jpg,"[0.035, 0.035]",,,,,,,,,,,,,0,3,3,0,0,16,16,23,,,,,,,,,,,,,,,3.712424849699399,,,,,,,,,,1,,,,,,,,,,,,,,,1038.6696028999286,1038.6696028999286,1038.6696028999286,1038.6696028999286,1038.6696028999286,1038.8720994000323,1039.0217491999501,1042.5217013999354,1042.5217013999354,1042.5217013999354,['k'],[0.3840197999961674],,,,,,,,,,,,,,,,,,,,,,,,,,,,,,,,,,,,,,,,,,,,,,,,,,,,,,,,260023,2024-03-28_12h16.08.729,mfe_c_object,2022.2.4,59.92681734361771,
flanker_main_block_1.csv,img/rightArrow.png,img/rightArrow.png,img/rightArrow.png,5,1,right,"[0, 0]","[0.0385, 0]","[-0.0385, 0]",img/object_images/crown02.jpg,"[0.035, 0.035]",,,,,,,,,,,,,0,3,3,0,0,17,17,21,,,,,,,,,,,,,,,3.9879759519038074,,,,,,,,,,1,,,,,,,,,,,,,,,1042.5217013999354,1042.5217013999354,1042.5217013999354,1042.5217013999354,1042.5217013999354,1042.7257870000321,1042.8757616999792,1046.6428052999545,1046.6428052999545,1046.6428052999545,['k'],[0.41202899999916553],,,,,,,,,,,,,,,,,,,,,,,,,,,,,,,,,,,,,,,,,,,,,,,,,,,,,,,,260023,2024-03-28_12h16.08.729,mfe_c_object,2022.2.4,59.92681734361771,
flanker_main_block_1.csv,img/leftArrow.png,img/leftArrow.png,img/leftArrow.png,6,1,left,"[0, 0]","[0.0385, 0]","[-0.0385, 0]",img/object_images/acoustic_capo01.jpg,"[0.035, 0.035]",,,,,,,,,,,,,0,3,3,0,0,18,18,27,,,,,,,,,,,,,,,3.591182364729459,,,,,,,,,,1,,,,,,,,,,,,,,,1046.6428052999545,1046.6428052999545,1046.6428052999545,1046.6428052999545,1046.6428052999545,1046.8465385999298,1046.9963640000205,1050.377845800016,1050.377845800016,1050.377845800016,['s'],[0.3631646999856457],,,,,,,,,,,,,,,,,,,,,,,,,,,,,,,,,,,,,,,,,,,,,,,,,,,,,,,,260023,2024-03-28_12h16.08.729,mfe_c_object,2022.2.4,59.92681734361771,
flanker_main_block_1.csv,img/leftArrow.png,img/leftArrow.png,img/leftArrow.png,6,1,left,"[0, 0]","[0.0385, 0]","[-0.0385, 0]",img/object_images/frisbee01.jpg,"[0.035, 0.035]",,,,,,,,,,,,,0,3,3,0,0,19,19,6,,,,,,,,,,,,,,,3.713426853707415,,,,,,,,,,1,,,,,,,,,,,,,,,1050.377845800016,1050.377845800016,1050.3841323999222,1050.377845800016,1050.377845800016,1050.5836977999425,1050.7335389999207,1054.2410271000117,1054.2410271000117,1054.2410271000117,['s'],[0.5004722999874502],,,,,,,,,,,,,,,,,,,,,,,,,,,,,,,,,,,,,,,,,,,,,,,,,,,,,,,,260023,2024-03-28_12h16.08.729,mfe_c_object,2022.2.4,59.92681734361771,
flanker_main_block_1.csv,img/rightArrow.png,img/rightArrow.png,img/rightArrow.png,5,1,right,"[0, 0]","[0.0385, 0]","[-0.0385, 0]",img/object_images/tool09.jpg,"[0.035, 0.035]",,,,,,,,,,,,,0,3,3,0,0,20,20,18,,,,,,,,,,,,,,,3.743486973947896,,,,,,,,,,0,,,,,,,,,,,,,,,1054.2410271000117,1054.2410271000117,1054.2410271000117,1054.2410271000117,1054.2410271000117,1054.4540619000327,1054.6040021999506,1058.1765561000211,1058.1765561000211,1058.1765561000211,['s'],[0.8288910000119358],,,,,,,,,,,,,,,,,,,,,,,,,,,,,,,,,,,,,,,,,,,,,,,,,,,,,,,,260023,2024-03-28_12h16.08.729,mfe_c_object,2022.2.4,59.92681734361771,
flanker_main_block_1.csv,img/rightArrow.png,img/rightArrow.png,img/rightArrow.png,5,1,right,"[0, 0]","[0.0385, 0]","[-0.0385, 0]",img/object_images/ornament01.jpg,"[0.035, 0.035]",,,,,,,,,,,,,0,3,3,0,0,21,21,9,,,,,,,,,,,,,,,3.5180360721442883,,,,,,,,,,1,,,,,,,,,,,,,,,1058.1765561000211,1058.1765561000211,1058.1765561000211,1058.1765561000211,1058.1765561000211,1058.3914380000206,1058.5412622999866,1061.8244295000331,1061.8244295000331,1061.8244295000331,['k'],[0.39714799995999783],,,,,,,,,,,,,,,,,,,,,,,,,,,,,,,,,,,,,,,,,,,,,,,,,,,,,,,,260023,2024-03-28_12h16.08.729,mfe_c_object,2022.2.4,59.92681734361771,
flanker_main_block_1.csv,img/rightArrow.png,img/leftArrow.png,img/leftArrow.png,7,0,right,"[0, 0]","[0.0385, 0]","[-0.0385, 0]",img/object_images/MetalWire01.jpg,"[0.035, 0.035]",,,,,,,,,,,,,0,3,3,0,0,22,22,13,,,,,,,,,,,,,,,3.534068136272545,,,,,,,,,,1,,,,,,,,,,,,,,,1061.8244295000331,1061.8244295000331,1061.8244295000331,1061.8244295000331,1061.8244295000331,1062.0284278999316,1062.178564199945,1065.5007756999694,1065.5007756999694,1065.5007756999694,['k'],[0.49433929997030646],,,,,,,,,,,,,,,,,,,,,,,,,,,,,,,,,,,,,,,,,,,,,,,,,,,,,,,,260023,2024-03-28_12h16.08.729,mfe_c_object,2022.2.4,59.92681734361771,
flanker_main_block_1.csv,img/leftArrow.png,img/leftArrow.png,img/leftArrow.png,6,1,left,"[0, 0]","[0.0385, 0]","[-0.0385, 0]",img/object_images/bow01.jpg,"[0.035, 0.035]",,,,,,,,,,,,,0,3,3,0,0,23,23,2,,,,,,,,,,,,,,,3.970941883767535,,,,,,,,,,1,,,,,,,,,,,,,,,1065.5007756999694,1065.5007756999694,1065.5007756999694,1065.5007756999694,1065.5007756999694,1065.715334199951,1065.8654343999224,1069.6164070999948,1069.6164070999948,1069.6164070999948,['s'],[0.4256260000402108],,,,,,,,,,,,,,,,,,,,,,,,,,,,,,,,,,,,,,,,,,,,,,,,,,,,,,,,260023,2024-03-28_12h16.08.729,mfe_c_object,2022.2.4,59.92681734361771,
flanker_main_block_1.csv,img/leftArrow.png,img/rightArrow.png,img/rightArrow.png,8,0,left,"[0, 0]","[0.0385, 0]","[-0.0385, 0]",img/object_images/dart01.jpg,"[0.035, 0.035]",,,,,,,,,,,,,0,3,3,0,0,24,24,4,,,,,,,,,,,,,,,3.5511022044088176,,,,,,,,,,1,,,,,,,,,,,,,,,1069.6164070999948,1069.6164070999948,1069.6164070999948,1069.6164070999948,1069.6164070999948,1069.8193256999366,1069.9693100999575,1073.3047028,1073.3047028,1073.3047028,['s'],[0.5653194999322295],,,,,,,,,,,,,,,,,,,,,,,,,,,,,,,,,,,,,,,,,,,,,,,,,,,,,,,,260023,2024-03-28_12h16.08.729,mfe_c_object,2022.2.4,59.92681734361771,
flanker_main_block_1.csv,img/leftArrow.png,img/rightArrow.png,img/rightArrow.png,8,0,left,"[0, 0]","[0.0385, 0]","[-0.0385, 0]",img/object_images/fridge03.jpg,"[0.035, 0.035]",,,,,,,,,,,,,0,3,3,0,0,25,25,8,,,,,,,,,,,,,,,3.7615230460921842,,,,,,,,,,0,,,,,,,,,,,,,,,1073.3047028,1073.3047028,1073.3047028,1073.3047028,1073.3047028,1073.506414399948,1073.6564765999792,1077.262759199948,1077.262759199948,1077.262759199948,['k'],[0.4526500999927521],,,,,,,,,,,,,,,,,,,,,,,,,,,,,,,,,,,,,,,,,,,,,,,,,,,,,,,,260023,2024-03-28_12h16.08.729,mfe_c_object,2022.2.4,59.92681734361771,
flanker_main_block_1.csv,img/leftArrow.png,img/rightArrow.png,img/rightArrow.png,8,0,left,"[0, 0]","[0.0385, 0]","[-0.0385, 0]",img/object_images/Stool01.jpg,"[0.035, 0.035]",,,,,,,,,,,,,0,3,3,0,0,26,26,5,,,,,,,,,,,,,,,3.5180360721442883,,,,,,,,,,1,,,,,,,,,,,,,,,1077.262759199948,1077.262759199948,1077.262759199948,1077.262759199948,1077.262759199948,1077.477262099972,1077.6270613999804,1080.93298589997,1080.93298589997,1080.93298589997,['s'],[0.5593924999702722],,,,,,,,,,,,,,,,,,,,,,,,,,,,,,,,,,,,,,,,,,,,,,,,,,,,,,,,260023,2024-03-28_12h16.08.729,mfe_c_object,2022.2.4,59.92681734361771,
flanker_main_block_1.csv,img/rightArrow.png,img/rightArrow.png,img/rightArrow.png,5,1,right,"[0, 0]","[0.0385, 0]","[-0.0385, 0]",img/object_images/Tin01.jpg,"[0.035, 0.035]",,,,,,,,,,,,,0,3,3,0,0,27,27,30,,,,,,,,,,,,,,,3.6112224448897794,,,,,,,,,,1,,,,,,,,,,,,,,,1080.93298589997,1080.93298589997,1080.93298589997,1080.93298589997,1080.93298589997,1081.1477168999845,1081.2975601999788,1084.6792548999656,1084.6792548999656,1084.6792548999656,['k'],[0.4327013000147417],,,,,,,,,,,,,,,,,,,,,,,,,,,,,,,,,,,,,,,,,,,,,,,,,,,,,,,,260023,2024-03-28_12h16.08.729,mfe_c_object,2022.2.4,59.92681734361771,
flanker_main_block_1.csv,img/leftArrow.png,img/rightArrow.png,img/rightArrow.png,8,0,left,"[0, 0]","[0.0385, 0]","[-0.0385, 0]",img/object_images/bottle05.jpg,"[0.035, 0.035]",,,,,,,,,,,,,0,3,3,0,0,28,28,26,,,,,,,,,,,,,,,3.5330661322645294,,,,,,,,,,0,,,,,,,,,,,,,,,1084.6792548999656,1084.6792548999656,1084.685423100018,1084.6792548999656,1084.6792548999656,1084.8844465999864,1085.0345762999495,1088.3531905999407,1088.3531905999407,1088.3531905999407,"['k', 's']","[0.46220479998737574, 0.4952628000173718]",,,,,,,,,,,,,,,,,,,,,,,,,,,,,,,,,,,,,,,,,,,,,,,,,,,,,,,,260023,2024-03-28_12h16.08.729,mfe_c_object,2022.2.4,59.92681734361771,
flanker_main_block_1.csv,img/leftArrow.png,img/rightArrow.png,img/rightArrow.png,8,0,left,"[0, 0]","[0.0385, 0]","[-0.0385, 0]",img/object_images/helmet01.jpg,"[0.035, 0.035]",,,,,,,,,,,,,0,3,3,0,0,29,29,15,,,,,,,,,,,,,,,3.526052104208417,,,,,,,,,,1,,,,,,,,,,,,,,,1088.3531905999407,1088.3531905999407,1088.3531905999407,1088.3531905999407,1088.3531905999407,1088.5548141000327,1088.7047076999443,1092.02512929996,1092.02512929996,1092.02512929996,['s'],[0.5498756999149919],,,,,,,,,,,,,,,,,,,,,,,,,,,,,,,,,,,,,,,,,,,,,,,,,,,,,,,,260023,2024-03-28_12h16.08.729,mfe_c_object,2022.2.4,59.92681734361771,
flanker_main_block_1.csv,img/rightArrow.png,img/leftArrow.png,img/leftArrow.png,7,0,right,"[0, 0]","[0.0385, 0]","[-0.0385, 0]",img/object_images/jewel04.jpg,"[0.035, 0.035]",,,,,,,,,,,,,0,3,3,0,0,30,30,20,,,,,,,,,,,,,,,3.9168336673346693,,,,,,,,,,1,,,,,,,,,,,,,,,1092.02512929996,1092.02512929996,1092.02512929996,1092.02512929996,1092.02512929996,1092.225292499992,1092.3749206999782,1096.0797760999994,1096.0797760999994,1096.0797760999994,['k'],[0.47730430006049573],,,,,,,,,,,,,,,,,,,,,,,,,,,,,,,,,,,,,,,,,,,,,,,,,,,,,,,,260023,2024-03-28_12h16.08.729,mfe_c_object,2022.2.4,59.92681734361771,
flanker_main_block_1.csv,img/rightArrow.png,img/leftArrow.png,img/leftArrow.png,7,0,right,"[0, 0]","[0.0385, 0]","[-0.0385, 0]",img/object_images/watch01.jpg,"[0.035, 0.035]",,,,,,,,,,,,,0,3,3,0,0,31,31,29,,,,,,,,,,,,,,,3.5330661322645294,,,,,,,,,,1,,,,,,,,,,,,,,,1096.0797760999994,1096.0797760999994,1096.0797760999994,1096.0797760999994,1096.0797760999994,1096.2793979999842,1096.4290153000038,1099.6147426000098,1099.6147426000098,1099.6147426000098,['k'],[0.5341633999487385],,,,,,,,,,,,,,,,,,,,,,,,,,,,,,,,,,,,,,,,,,,,,,,,,,,,,,,,260023,2024-03-28_12h16.08.729,mfe_c_object,2022.2.4,59.92681734361771,
flanker_main_block_1.csv,,,,,,,,,,,,,,,,,,,,,,,,0,3,3,0,,,,,,,,,,,,,,,,,,,,,,,,,,,,,,,,,,,,,,,,,,,,,,,,,,,,,,,,2,1099.6147426000098,1109.608018500032,k,0.5423518000170588,,,,,,,,,,,,,,,,,,,,,,,,,,,,,,,,,,,,,,,,,,,,,,,,,,,260023,2024-03-28_12h16.08.729,mfe_c_object,2022.2.4,59.92681734361771,
flanker_main_block_11.csv,img/rightArrow.png,img/leftArrow.png,img/leftArrow.png,7,0,right,"[0, 0]","[0.0385, 0]","[-0.0385, 0]",img/object_images/brief_case01.jpg,"[0.035, 0.035]",,,,,,,,,,,,,0,4,4,10,0,0,0,3,,,,,,,,,,,,,,1117.9563298999565,3.8026052104208414,,,,,,,,,,1,,,,,,,,,,,1110.179470699979,1110.179470699979,k,7.738541000057012,1120.1225468999473,1120.1225468999473,1120.1225468999473,1120.1225468999473,1120.1225468999473,1120.3366078999825,1120.4866906999378,1124.082385399961,1124.082385399961,1124.082385399961,['k'],[0.49916140001732856],,,,,,,,,,,,,,,,,,,,,,,,,,,,,,,,,,,,,,,,,,,,,,,,,,,,,,,,260023,2024-03-28_12h16.08.729,mfe_c_object,2022.2.4,59.92681734361771,
flanker_main_block_11.csv,img/leftArrow.png,img/leftArrow.png,img/leftArrow.png,6,1,left,"[0, 0]","[0.0385, 0]","[-0.0385, 0]",img/object_images/helmet05.jpg,"[0.035, 0.035]",,,,,,,,,,,,,0,4,4,10,0,1,1,18,,,,,,,,,,,,,,,3.6452905811623246,,,,,,,,,,1,,,,,,,,,,,,,,,1124.082385399961,1124.082385399961,1124.082385399961,1124.082385399961,1124.082385399961,1124.2904663999798,1124.4404859000351,1127.8616877000313,1127.8616877000313,1127.8616877000313,['s'],[0.4355182000435889],,,,,,,,,,,,,,,,,,,,,,,,,,,,,,,,,,,,,,,,,,,,,,,,,,,,,,,,260023,2024-03-28_12h16.08.729,mfe_c_object,2022.2.4,59.92681734361771,
flanker_main_block_11.csv,img/leftArrow.png,img/leftArrow.png,img/leftArrow.png,6,1,left,"[0, 0]","[0.0385, 0]","[-0.0385, 0]",img/object_images/guitar01.jpg,"[0.035, 0.035]",,,,,,,,,,,,,0,4,4,10,0,2,2,20,,,,,,,,,,,,,,,3.6192384769539077,,,,,,,,,,1,,,,,,,,,,,,,,,1127.8616877000313,1127.8616877000313,1127.8616877000313,1127.8616877000313,1127.8616877000313,1128.0608008999843,1128.2106539999368,1131.6154057999374,1131.6154057999374,1131.6154057999374,['s'],[0.4081999999471009],,,,,,,,,,,,,,,,,,,,,,,,,,,,,,,,,,,,,,,,,,,,,,,,,,,,,,,,260023,2024-03-28_12h16.08.729,mfe_c_object,2022.2.4,59.92681734361771,
flanker_main_block_11.csv,img/leftArrow.png,img/rightArrow.png,img/rightArrow.png,8,0,left,"[0, 0]","[0.0385, 0]","[-0.0385, 0]",img/object_images/drone02.jpg,"[0.035, 0.035]",,,,,,,,,,,,,0,4,4,10,0,3,3,7,,,,,,,,,,,,,,,3.618236472945892,,,,,,,,,,0,,,,,,,,,,,,,,,1131.6154057999374,1131.6154057999374,1131.6154057999374,1131.6154057999374,1131.6154057999374,1131.8144403999904,1131.9809507000027,1135.361615599948,1135.361615599948,1135.361615599948,['k'],[0.37510199996177107],,,,,,,,,,,,,,,,,,,,,,,,,,,,,,,,,,,,,,,,,,,,,,,,,,,,,,,,260023,2024-03-28_12h16.08.729,mfe_c_object,2022.2.4,59.92681734361771,
flanker_main_block_11.csv,img/leftArrow.png,img/rightArrow.png,img/rightArrow.png,8,0,left,"[0, 0]","[0.0385, 0]","[-0.0385, 0]",img/object_images/decorative02.jpg,"[0.035, 0.035]",,,,,,,,,,,,,0,4,4,10,0,4,4,29,,,,,,,,,,,,,,,3.938877755511022,,,,,,,,,,1,,,,,,,,,,,,,,,1135.361615599948,1135.361615599948,1135.3678698999574,1135.361615599948,1135.361615599948,1135.5684527999256,1135.7182397999568,1139.4342426999938,1139.4342426999938,1139.4342426999938,['s'],[0.5961048000026494],,,,,,,,,,,,,,,,,,,,,,,,,,,,,,,,,,,,,,,,,,,,,,,,,,,,,,,,260023,2024-03-28_12h16.08.729,mfe_c_object,2022.2.4,59.92681734361771,
flanker_main_block_11.csv,img/rightArrow.png,img/rightArrow.png,img/rightArrow.png,5,1,right,"[0, 0]","[0.0385, 0]","[-0.0385, 0]",img/object_images/Recycling01.jpg,"[0.035, 0.035]",,,,,,,,,,,,,0,4,4,10,0,5,5,14,,,,,,,,,,,,,,,3.7364729458917836,,,,,,,,,,1,,,,,,,,,,,,,,,1139.4342426999938,1139.4342426999938,1139.4407750000246,1139.4342426999938,1139.4342426999938,1139.655801899964,1139.7889226999832,1143.3047171999933,1143.3047171999933,1143.3047171999933,['k'],[0.3316604000283405],,,,,,,,,,,,,,,,,,,,,,,,,,,,,,,,,,,,,,,,,,,,,,,,,,,,,,,,260023,2024-03-28_12h16.08.729,mfe_c_object,2022.2.4,59.92681734361771,
flanker_main_block_11.csv,img/leftArrow.png,img/leftArrow.png,img/leftArrow.png,6,1,left,"[0, 0]","[0.0385, 0]","[-0.0385, 0]",img/object_images/pitcher03.jpg,"[0.035, 0.035]",,,,,,,,,,,,,0,4,4,10,0,6,6,2,,,,,,,,,,,,,,,3.624248496993988,,,,,,,,,,1,,,,,,,,,,,,,,,1143.3047171999933,1143.3047171999933,1143.31090209994,1143.3047171999933,1143.3047171999933,1143.5262901999522,1143.6596049999353,1147.0643819000106,1147.0643819000106,1147.0643819000106,['s'],[0.34890129999257624],,,,,,,,,,,,,,,,,,,,,,,,,,,,,,,,,,,,,,,,,,,,,,,,,,,,,,,,260023,2024-03-28_12h16.08.729,mfe_c_object,2022.2.4,59.92681734361771,
flanker_main_block_11.csv,img/rightArrow.png,img/leftArrow.png,img/leftArrow.png,7,0,right,"[0, 0]","[0.0385, 0]","[-0.0385, 0]",img/object_images/hat02.jpg,"[0.035, 0.035]",,,,,,,,,,,,,0,4,4,10,0,7,7,19,,,,,,,,,,,,,,,3.7404809619238475,,,,,,,,,,1,,,,,,,,,,,,,,,1147.0643819000106,1147.0643819000106,1147.0643819000106,1147.0643819000106,1147.0643819000106,1147.2633446999826,1147.4133131999988,1150.9500052999938,1150.9500052999938,1150.9500052999938,['k'],[0.38990169996395707],,,,,,,,,,,,,,,,,,,,,,,,,,,,,,,,,,,,,,,,,,,,,,,,,,,,,,,,260023,2024-03-28_12h16.08.729,mfe_c_object,2022.2.4,59.92681734361771,
flanker_main_block_11.csv,img/rightArrow.png,img/leftArrow.png,img/leftArrow.png,7,0,right,"[0, 0]","[0.0385, 0]","[-0.0385, 0]",img/object_images/container01.jpg,"[0.035, 0.035]",,,,,,,,,,,,,0,4,4,10,0,8,8,30,,,,,,,,,,,,,,,3.539078156312625,,,,,,,,,,0,,,,,,,,,,,,,,,1150.9500052999938,1150.9500052999938,1150.9500052999938,1150.9500052999938,1150.9500052999938,1151.1506736000301,1151.3007122999988,1154.6682802999858,1154.6682802999858,1154.6682802999858,['s'],[0.37561720004305243],,,,,,,,,,,,,,,,,,,,,,,,,,,,,,,,,,,,,,,,,,,,,,,,,,,,,,,,260023,2024-03-28_12h16.08.729,mfe_c_object,2022.2.4,59.92681734361771,
flanker_main_block_11.csv,img/rightArrow.png,img/leftArrow.png,img/leftArrow.png,7,0,right,"[0, 0]","[0.0385, 0]","[-0.0385, 0]",img/object_images/pot01.jpg,"[0.035, 0.035]",,,,,,,,,,,,,0,4,4,10,0,9,9,6,,,,,,,,,,,,,,,3.840681362725451,,,,,,,,,,1,,,,,,,,,,,,,,,1154.6682802999858,1154.6682802999858,1154.6682802999858,1154.6682802999858,1154.6682802999858,1154.87093059998,1155.0209629000165,1158.6491539999843,1158.6491539999843,1158.6491539999843,['k'],[0.544973099953495],,,,,,,,,,,,,,,,,,,,,,,,,,,,,,,,,,,,,,,,,,,,,,,,,,,,,,,,260023,2024-03-28_12h16.08.729,mfe_c_object,2022.2.4,59.92681734361771,
