whichBlock,middleStim,leftStim,rightStim,stimNum,congruent,target,locationC,locationR,locationL,straightObj,imageSize,whichSurpriseBlock,old_object_in_surp,new_object_in_surp,which_side_old_object_displayed,prac_block_loop.thisRepN,prac_block_loop.thisTrialN,prac_block_loop.thisN,prac_block_loop.thisIndex,prac_trial_loop.thisRepN,prac_trial_loop.thisTrialN,prac_trial_loop.thisN,prac_trial_loop.thisIndex,task_block_loop.thisRepN,task_block_loop.thisTrialN,task_block_loop.thisN,task_block_loop.thisIndex,task_trial_loop.thisRepN,task_trial_loop.thisTrialN,task_trial_loop.thisN,task_trial_loop.thisIndex,surprise_block_loop.thisRepN,surprise_block_loop.thisTrialN,surprise_block_loop.thisN,surprise_block_loop.thisIndex,trials.thisRepN,trials.thisTrialN,trials.thisN,trials.thisIndex,prac_blockText.started,prac_reminder_text.started,prac_reminder_keyResp.started,prac_reminder_keyResp.keys,prac_reminder_keyResp.rt,initFixation_img.started,ISI,bigObject.started,cover_background_2.started,prac_centerImg.started,prac_stim_keyResp.started,prac_centerImg.stopped,cover_background_2.stopped,bigObject.stopped,prac_stim_keyResp.stopped,prac_stim_keyResp.keys,prac_stim_keyResp.rt,accuracy,prac_blockFeed_text.started,prac_pressContinue.started,prac_blockFeed_keyResp.started,prac_blockFeed_keyResp.keys,prac_blockFeed_keyResp.rt,ringBell_text.started,bellKey.started,bellKey.keys,bellKey.rt,task_blockText.started,task_blockReminders_keyResp.started,task_blockReminders_keyResp.keys,task_blockReminders_keyResp.rt,bigObject_2.started,cover_background.started,task_centerImg.started,task_fixImg.started,task1_stim_keyResp.started,task_centerImg.stopped,cover_background.stopped,bigObject_2.stopped,task_fixImg.stopped,task1_stim_keyResp.stopped,task1_stim_keyResp.keys,task1_stim_keyResp.rt,blockFeedCat,task_blockFeed_text.started,task_blockFeed_keyResp.started,task_blockFeed_keyResp.keys,task_blockFeed_keyResp.rt,ringBell_text_2.started,bellKey_2.started,bellKey_2.keys,bellKey_2.rt,errorNumbers_text_2.started,errorNum_text_box.started,errorN_key_resp_2.started,errorNum_text_box.text,errorN_key_resp_2.keys,errorN_key_resp_2.rt,errorNumbers_text_3.started,errorPercent_text_box.started,errorN_key_resp_3.started,errorPercent_text_box.text,errorN_key_resp_3.keys,errorN_key_resp_3.rt,botherRate_text.started,bother_text_box.started,botherRate_key_resp.started,bother_text_box.text,botherRate_key_resp.keys,botherRate_key_resp.rt,ringBell_text_3.started,bellKey_3.started,bellKey_3.keys,bellKey_3.rt,instruct_surprise1.started,instruct_surp1_key_resp.keys,instruct_surp1_key_resp.rt,text_2.started,task_blockText_2.started,task_blockReminders_keyResp_2.started,task_blockReminders_keyResp_2.keys,task_blockReminders_keyResp_2.rt,thisISI3,polygon.started,polygon.stopped,text.started,old_object_image.started,new_object_image.started,instructsurpA1_right.started,instructsurpA2_left.started,surprise_key_resp.started,surprise_key_resp.keys,surprise_key_resp.rt,ringBell_text_4.started,bellKey_4.started,bellKey_4.keys,bellKey_4.rt,finishMessage_text.started,id,date,expName,psychopyVersion,frameRate,
flanker_practice_block.csv,img/rightArrow.png,img/rightArrow.png,img/rightArrow.png,5,1,right,"[0, 0]","[0.0385, 0]","[-0.0385, 0]",img/object_images/basketball_hoop01.jpg,"[0.035, 0.035]",,,,,0,0,0,0,0,0,0,6,,,,,,,,,,,,,,,,,221.0769340999832,221.0769340999832,221.0769340999832,k,21.02079209999647,242.13547849998577,3.651302605210421,244.3186488999927,244.3186488999927,244.3186488999927,244.3186488999927,244.52580449997913,244.67564269999275,248.1220442999911,248.1220442999911,['k'],[1.2108907999936491],1,,,,,,,,,,,,,,,,,,,,,,,,,,,,,,,,,,,,,,,,,,,,,,,,,,,,,,,,,,,,,,,,,,,,,,,,,,,,,,,,,260012,2024-03-14_17h33.58.145,mfe_c_object,2022.2.4,59.94114977763007,
flanker_practice_block.csv,img/rightArrow.png,img/leftArrow.png,img/leftArrow.png,7,0,right,"[0, 0]","[0.0385, 0]","[-0.0385, 0]",img/object_images/headset03.jpg,"[0.035, 0.035]",,,,,0,0,0,0,0,1,1,11,,,,,,,,,,,,,,,,,,,,,,,3.6082164328657313,248.1220442999911,248.1220442999911,248.1220442999911,248.1220442999911,248.32958639998105,248.4795207999996,251.88572199997725,251.88572199997725,['s'],[1.119817900005728],0,,,,,,,,,,,,,,,,,,,,,,,,,,,,,,,,,,,,,,,,,,,,,,,,,,,,,,,,,,,,,,,,,,,,,,,,,,,,,,,,,260012,2024-03-14_17h33.58.145,mfe_c_object,2022.2.4,59.94114977763007,
flanker_practice_block.csv,img/leftArrow.png,img/leftArrow.png,img/leftArrow.png,6,1,left,"[0, 0]","[0.0385, 0]","[-0.0385, 0]",img/object_images/joystick02.jpg,"[0.035, 0.035]",,,,,0,0,0,0,0,2,2,4,,,,,,,,,,,,,,,,,,,,,,,3.588176352705411,251.88572199997725,251.88572199997725,251.88572199997725,251.88572199997725,252.09987239999464,252.24998079999932,255.62953189999098,255.62953189999098,['s'],[0.7403533000033349],1,,,,,,,,,,,,,,,,,,,,,,,,,,,,,,,,,,,,,,,,,,,,,,,,,,,,,,,,,,,,,,,,,,,,,,,,,,,,,,,,,260012,2024-03-14_17h33.58.145,mfe_c_object,2022.2.4,59.94114977763007,
flanker_practice_block.csv,img/rightArrow.png,img/rightArrow.png,img/rightArrow.png,5,1,right,"[0, 0]","[0.0385, 0]","[-0.0385, 0]",img/object_images/handle_bar01.jpg,"[0.035, 0.035]",,,,,0,0,0,0,0,3,3,13,,,,,,,,,,,,,,,,,,,,,,,3.579158316633267,255.62953189999098,255.62953189999098,255.62953189999098,255.62953189999098,255.83707729997695,255.98701119999168,259.36622149997856,259.36622149997856,"['k', 'k']","[0.64436740000383, 3.204434199986281]",1,,,,,,,,,,,,,,,,,,,,,,,,,,,,,,,,,,,,,,,,,,,,,,,,,,,,,,,,,,,,,,,,,,,,,,,,,,,,,,,,,260012,2024-03-14_17h33.58.145,mfe_c_object,2022.2.4,59.94114977763007,
flanker_practice_block.csv,img/leftArrow.png,img/leftArrow.png,img/leftArrow.png,6,1,left,"[0, 0]","[0.0385, 0]","[-0.0385, 0]",img/object_images/skate_board02.jpg,"[0.035, 0.035]",,,,,0,0,0,0,0,4,4,9,,,,,,,,,,,,,,,,,,,,,,,3.7464929859719436,259.36622149997856,259.36622149997856,259.36622149997856,259.36622149997856,259.57421989997965,259.72391589998733,263.27617109997664,263.27617109997664,['s'],[1.740847400011262],1,,,,,,,,,,,,,,,,,,,,,,,,,,,,,,,,,,,,,,,,,,,,,,,,,,,,,,,,,,,,,,,,,,,,,,,,,,,,,,,,,260012,2024-03-14_17h33.58.145,mfe_c_object,2022.2.4,59.94114977763007,
flanker_practice_block.csv,img/rightArrow.png,img/leftArrow.png,img/leftArrow.png,7,0,right,"[0, 0]","[0.0385, 0]","[-0.0385, 0]",img/object_images/rock04.jpg,"[0.035, 0.035]",,,,,0,0,0,0,0,5,5,16,,,,,,,,,,,,,,,,,,,,,,,3.668336673346693,263.27617109997664,263.27617109997664,263.27617109997664,263.27617109997664,263.47844310000073,263.6281344999734,267.2091268999793,267.2091268999793,['k'],[0.8861691000056453],1,,,,,,,,,,,,,,,,,,,,,,,,,,,,,,,,,,,,,,,,,,,,,,,,,,,,,,,,,,,,,,,,,,,,,,,,,,,,,,,,,260012,2024-03-14_17h33.58.145,mfe_c_object,2022.2.4,59.94114977763007,
flanker_practice_block.csv,img/rightArrow.png,img/rightArrow.png,img/rightArrow.png,5,1,right,"[0, 0]","[0.0385, 0]","[-0.0385, 0]",img/object_images/hot_air_balloon01.jpg,"[0.035, 0.035]",,,,,0,0,0,0,0,6,6,12,,,,,,,,,,,,,,,,,,,,,,,3.6222444889779557,267.2091268999793,267.2091268999793,267.2091268999793,267.2091268999793,267.4152344999893,267.5654773999995,271.0579872999806,271.0579872999806,['k'],[0.9599007000215352],1,,,,,,,,,,,,,,,,,,,,,,,,,,,,,,,,,,,,,,,,,,,,,,,,,,,,,,,,,,,,,,,,,,,,,,,,,,,,,,,,,260012,2024-03-14_17h33.58.145,mfe_c_object,2022.2.4,59.94114977763007,
flanker_practice_block.csv,img/rightArrow.png,img/leftArrow.png,img/leftArrow.png,7,0,right,"[0, 0]","[0.0385, 0]","[-0.0385, 0]",img/object_images/crane02.jpg,"[0.035, 0.035]",,,,,0,0,0,0,0,7,7,17,,,,,,,,,,,,,,,,,,,,,,,3.5250501002004007,271.0579872999806,271.0579872999806,271.0579872999806,271.0579872999806,271.26899989999947,271.41899559999,274.7265539999935,274.7265539999935,['k'],[0.8390401000215206],1,,,,,,,,,,,,,,,,,,,,,,,,,,,,,,,,,,,,,,,,,,,,,,,,,,,,,,,,,,,,,,,,,,,,,,,,,,,,,,,,,260012,2024-03-14_17h33.58.145,mfe_c_object,2022.2.4,59.94114977763007,
flanker_practice_block.csv,img/leftArrow.png,img/rightArrow.png,img/rightArrow.png,8,0,left,"[0, 0]","[0.0385, 0]","[-0.0385, 0]",img/object_images/binoculars01.jpg,"[0.035, 0.035]",,,,,0,0,0,0,0,8,8,1,,,,,,,,,,,,,,,,,,,,,,,3.656312625250501,274.7265539999935,274.7265539999935,274.7265539999935,274.7265539999935,274.93942679997417,275.0894338999933,278.5431722999783,278.5431722999783,['s'],[0.6754395000170916],1,,,,,,,,,,,,,,,,,,,,,,,,,,,,,,,,,,,,,,,,,,,,,,,,,,,,,,,,,,,,,,,,,,,,,,,,,,,,,,,,,260012,2024-03-14_17h33.58.145,mfe_c_object,2022.2.4,59.94114977763007,
flanker_practice_block.csv,img/rightArrow.png,img/leftArrow.png,img/leftArrow.png,7,0,right,"[0, 0]","[0.0385, 0]","[-0.0385, 0]",img/object_images/accordion02.jpg,"[0.035, 0.035]",,,,,0,0,0,0,0,9,9,0,,,,,,,,,,,,,,,,,,,,,,,3.687374749498998,278.5431722999783,278.5431722999783,278.5431722999783,278.5431722999783,278.74338939998415,278.893319099996,282.3804135999817,282.3804135999817,['k'],[0.9383321999921463],1,,,,,,,,,,,,,,,,,,,,,,,,,,,,,,,,,,,,,,,,,,,,,,,,,,,,,,,,,,,,,,,,,,,,,,,,,,,,,,,,,260012,2024-03-14_17h33.58.145,mfe_c_object,2022.2.4,59.94114977763007,
flanker_practice_block.csv,img/leftArrow.png,img/leftArrow.png,img/leftArrow.png,6,1,left,"[0, 0]","[0.0385, 0]","[-0.0385, 0]",img/object_images/vacuum_cleaner01.jpg,"[0.035, 0.035]",,,,,0,0,0,0,0,10,10,7,,,,,,,,,,,,,,,,,,,,,,,3.6983967935871744,282.3804135999817,282.3804135999817,282.3804135999817,282.3804135999817,282.580360699998,282.73045649999403,286.22764639998786,286.22764639998786,['s'],[0.6943873000273015],1,,,,,,,,,,,,,,,,,,,,,,,,,,,,,,,,,,,,,,,,,,,,,,,,,,,,,,,,,,,,,,,,,,,,,,,,,,,,,,,,,260012,2024-03-14_17h33.58.145,mfe_c_object,2022.2.4,59.94114977763007,
flanker_practice_block.csv,img/leftArrow.png,img/rightArrow.png,img/rightArrow.png,8,0,left,"[0, 0]","[0.0385, 0]","[-0.0385, 0]",img/object_images/trumpet02.jpg,"[0.035, 0.035]",,,,,0,0,0,0,0,11,11,10,,,,,,,,,,,,,,,,,,,,,,,3.8647294589178354,286.22764639998786,286.22764639998786,286.22764639998786,286.22764639998786,286.43436899999506,286.5842402999988,290.2522260999831,290.2522260999831,['s'],[0.6944480999954976],1,,,,,,,,,,,,,,,,,,,,,,,,,,,,,,,,,,,,,,,,,,,,,,,,,,,,,,,,,,,,,,,,,,,,,,,,,,,,,,,,,260012,2024-03-14_17h33.58.145,mfe_c_object,2022.2.4,59.94114977763007,
flanker_practice_block.csv,img/rightArrow.png,img/leftArrow.png,img/leftArrow.png,7,0,right,"[0, 0]","[0.0385, 0]","[-0.0385, 0]",img/object_images/staple_remover01.jpg,"[0.035, 0.035]",,,,,0,0,0,0,0,12,12,15,,,,,,,,,,,,,,,,,,,,,,,3.6603206412825653,290.2522260999831,290.2522260999831,290.2522260999831,290.2522260999831,290.4548051999882,290.6048136999889,294.09097109999857,294.09097109999857,['k'],[0.9014349000062793],1,,,,,,,,,,,,,,,,,,,,,,,,,,,,,,,,,,,,,,,,,,,,,,,,,,,,,,,,,,,,,,,,,,,,,,,,,,,,,,,,,260012,2024-03-14_17h33.58.145,mfe_c_object,2022.2.4,59.94114977763007,
flanker_practice_block.csv,img/leftArrow.png,img/rightArrow.png,img/rightArrow.png,8,0,left,"[0, 0]","[0.0385, 0]","[-0.0385, 0]",img/object_images/Typewritter01.jpg,"[0.035, 0.035]",,,,,0,0,0,0,0,13,13,8,,,,,,,,,,,,,,,,,,,,,,,3.827655310621242,294.09097109999857,294.09097109999857,294.09097109999857,294.09097109999857,294.2922709999839,294.44215769998846,298.0907345000014,298.0907345000014,['s'],[0.9581471999990754],1,,,,,,,,,,,,,,,,,,,,,,,,,,,,,,,,,,,,,,,,,,,,,,,,,,,,,,,,,,,,,,,,,,,,,,,,,,,,,,,,,260012,2024-03-14_17h33.58.145,mfe_c_object,2022.2.4,59.94114977763007,
flanker_practice_block.csv,img/rightArrow.png,img/rightArrow.png,img/rightArrow.png,5,1,right,"[0, 0]","[0.0385, 0]","[-0.0385, 0]",img/object_images/usb_drive01.jpg,"[0.035, 0.035]",,,,,0,0,0,0,0,14,14,19,,,,,,,,,,,,,,,,,,,,,,,3.791583166332665,298.0907345000014,298.0907345000014,298.0907345000014,298.0907345000014,298.29608319999534,298.44613919997937,302.01869909997913,302.01869909997913,['k'],[0.8153264000138734],1,,,,,,,,,,,,,,,,,,,,,,,,,,,,,,,,,,,,,,,,,,,,,,,,,,,,,,,,,,,,,,,,,,,,,,,,,,,,,,,,,260012,2024-03-14_17h33.58.145,mfe_c_object,2022.2.4,59.94114977763007,
flanker_practice_block.csv,img/leftArrow.png,img/leftArrow.png,img/leftArrow.png,6,1,left,"[0, 0]","[0.0385, 0]","[-0.0385, 0]",img/object_images/hair_brush03.jpg,"[0.035, 0.035]",,,,,0,0,0,0,0,15,15,2,,,,,,,,,,,,,,,,,,,,,,,3.9989979959919837,302.01869909997913,302.01869909997913,302.01869909997913,302.01869909997913,302.23328899999615,302.38412439997774,306.15952019998804,306.15952019998804,['s'],[0.9672335000068415],1,,,,,,,,,,,,,,,,,,,,,,,,,,,,,,,,,,,,,,,,,,,,,,,,,,,,,,,,,,,,,,,,,,,,,,,,,,,,,,,,,260012,2024-03-14_17h33.58.145,mfe_c_object,2022.2.4,59.94114977763007,
flanker_practice_block.csv,img/leftArrow.png,img/rightArrow.png,img/rightArrow.png,8,0,left,"[0, 0]","[0.0385, 0]","[-0.0385, 0]",img/object_images/spoon01.jpg,"[0.035, 0.035]",,,,,0,0,0,0,0,16,16,18,,,,,,,,,,,,,,,,,,,,,,,3.7394789579158316,306.15952019998804,306.15952019998804,306.15952019998804,306.15952019998804,306.37079869999434,306.5208949999942,310.0533832999936,310.0533832999936,['s'],[1.0183986999909393],1,,,,,,,,,,,,,,,,,,,,,,,,,,,,,,,,,,,,,,,,,,,,,,,,,,,,,,,,,,,,,,,,,,,,,,,,,,,,,,,,,260012,2024-03-14_17h33.58.145,mfe_c_object,2022.2.4,59.94114977763007,
flanker_practice_block.csv,img/rightArrow.png,img/rightArrow.png,img/rightArrow.png,5,1,right,"[0, 0]","[0.0385, 0]","[-0.0385, 0]",img/object_images/knife03.jpg,"[0.035, 0.035]",,,,,0,0,0,0,0,17,17,5,,,,,,,,,,,,,,,,,,,,,,,3.977955911823647,310.0533832999936,310.0533832999936,310.0533832999936,310.0533832999936,310.25804319998133,310.4081270999741,314.21631269998034,314.21631269998034,['k'],[0.6520495000004303],1,,,,,,,,,,,,,,,,,,,,,,,,,,,,,,,,,,,,,,,,,,,,,,,,,,,,,,,,,,,,,,,,,,,,,,,,,,,,,,,,,260012,2024-03-14_17h33.58.145,mfe_c_object,2022.2.4,59.94114977763007,
flanker_practice_block.csv,img/leftArrow.png,img/leftArrow.png,img/leftArrow.png,6,1,left,"[0, 0]","[0.0385, 0]","[-0.0385, 0]",img/object_images/usb01.jpg,"[0.035, 0.035]",,,,,0,0,0,0,0,18,18,14,,,,,,,,,,,,,,,,,,,,,,,3.656312625250501,314.21631269998034,314.21631269998034,314.21631269998034,314.21631269998034,314.428960499994,314.5789135999803,318.02558999997564,318.02558999997564,['s'],[0.9537224000087008],1,,,,,,,,,,,,,,,,,,,,,,,,,,,,,,,,,,,,,,,,,,,,,,,,,,,,,,,,,,,,,,,,,,,,,,,,,,,,,,,,,260012,2024-03-14_17h33.58.145,mfe_c_object,2022.2.4,59.94114977763007,
flanker_practice_block.csv,img/leftArrow.png,img/rightArrow.png,img/rightArrow.png,8,0,left,"[0, 0]","[0.0385, 0]","[-0.0385, 0]",img/object_images/car_toy05.jpg,"[0.035, 0.035]",,,,,0,0,0,0,0,19,19,3,,,,,,,,,,,,,,,,,,,,,,,3.571142284569138,318.02558999997564,318.02558999997564,318.02558999997564,318.02558999997564,318.2326746999752,318.3826862999995,321.60220709998976,321.60220709998976,['s'],[0.8088018000125885],1,,,,,,,,,,,,,,,,,,,,,,,,,,,,,,,,,,,,,,,,,,,,,,,,,,,,,,,,,,,,,,,,,,,,,,,,,,,,,,,,,260012,2024-03-14_17h33.58.145,mfe_c_object,2022.2.4,59.94114977763007,
flanker_practice_block.csv,,,,,,,,,,,,,,,,0,0,0,0,,,,,,,,,,,,,,,,,,,,,,,,,,,,,,,,,,,,,,,321.60220709998976,321.60220709998976,321.60220709998976,k,3.6636151999991853,,,,,,,,,,,,,,,,,,,,,,,,,,,,,,,,,,,,,,,,,,,,,,,,,,,,,,,,,,,,,,,,,,,,,,,,,,,,260012,2024-03-14_17h33.58.145,mfe_c_object,2022.2.4,59.94114977763007,
,,,,,,,,,,,,,,,,,,,,,,,,,,,,,,,,,,,,,,,,,,,,,,,,,,,,,,,,,,,,,,,325.2884363999765,325.2884363999765,c,152.67413100000704,,,,,,,,,,,,,,,,,,,,,,,,,,,,,,,,,,,,,,,,,,,,,,,,,,,,,,,,,,,,,,,,,,,,,,,,260012,2024-03-14_17h33.58.145,mfe_c_object,2022.2.4,59.94114977763007,
flanker_main_block_2.csv,img/rightArrow.png,img/rightArrow.png,img/rightArrow.png,5,1,right,"[0, 0]","[0.0385, 0]","[-0.0385, 0]",img/object_images/jewel03.jpg,"[0.035, 0.035]",,,,,,,,,,,,,0,0,0,1,0,0,0,31,,,,,,,,,,,,,,484.5354979999829,3.9619238476953904,,,,,,,,,,,1,,,,,,,,,,478.0145100999798,478.0145100999798,k,6.498856699996395,486.73753259997466,486.73753259997466,486.73753259997466,486.73753259997466,486.73753259997466,486.9510740999831,487.1010670999822,490.8511331999907,490.8511331999907,490.8511331999907,['k'],[0.704026099992916],,,,,,,,,,,,,,,,,,,,,,,,,,,,,,,,,,,,,,,,,,,,,,,,,,,,,,,,260012,2024-03-14_17h33.58.145,mfe_c_object,2022.2.4,59.94114977763007,
flanker_main_block_2.csv,img/rightArrow.png,img/rightArrow.png,img/rightArrow.png,5,1,right,"[0, 0]","[0.0385, 0]","[-0.0385, 0]",img/object_images/robe01.jpg,"[0.035, 0.035]",,,,,,,,,,,,,0,0,0,1,0,1,1,28,,,,,,,,,,,,,,,3.534068136272545,,,,,,,,,,,1,,,,,,,,,,,,,,490.8511331999907,490.8511331999907,490.8511331999907,490.8511331999907,490.8511331999907,491.05534819999593,491.20524739997927,494.5267351999937,494.5267351999937,494.5267351999937,['k'],[0.7500956000294536],,,,,,,,,,,,,,,,,,,,,,,,,,,,,,,,,,,,,,,,,,,,,,,,,,,,,,,,260012,2024-03-14_17h33.58.145,mfe_c_object,2022.2.4,59.94114977763007,
flanker_main_block_2.csv,img/rightArrow.png,img/leftArrow.png,img/leftArrow.png,7,0,right,"[0, 0]","[0.0385, 0]","[-0.0385, 0]",img/object_images/hair_brush02.jpg,"[0.035, 0.035]",,,,,,,,,,,,,0,0,0,1,0,2,2,0,,,,,,,,,,,,,,,3.655310621242485,,,,,,,,,,,1,,,,,,,,,,,,,,494.5267351999937,494.5267351999937,494.5267351999937,494.5267351999937,494.5267351999937,494.74213379999856,494.87550209998153,498.3429178999795,498.3429178999795,498.3429178999795,['k'],[0.6181312999979127],,,,,,,,,,,,,,,,,,,,,,,,,,,,,,,,,,,,,,,,,,,,,,,,,,,,,,,,260012,2024-03-14_17h33.58.145,mfe_c_object,2022.2.4,59.94114977763007,
flanker_main_block_2.csv,img/leftArrow.png,img/leftArrow.png,img/leftArrow.png,6,1,left,"[0, 0]","[0.0385, 0]","[-0.0385, 0]",img/object_images/bucket02.jpg,"[0.035, 0.035]",,,,,,,,,,,,,0,0,0,1,0,3,3,17,,,,,,,,,,,,,,,3.5741482965931866,,,,,,,,,,,1,,,,,,,,,,,,,,498.3429178999795,498.3429178999795,498.3429178999795,498.3429178999795,498.3429178999795,498.54591269997763,498.6957465999876,502.0587633999821,502.0587633999821,502.0587633999821,['s'],[0.5708405000041239],,,,,,,,,,,,,,,,,,,,,,,,,,,,,,,,,,,,,,,,,,,,,,,,,,,,,,,,260012,2024-03-14_17h33.58.145,mfe_c_object,2022.2.4,59.94114977763007,
flanker_main_block_2.csv,img/leftArrow.png,img/rightArrow.png,img/rightArrow.png,8,0,left,"[0, 0]","[0.0385, 0]","[-0.0385, 0]",img/object_images/pitcher05.jpg,"[0.035, 0.035]",,,,,,,,,,,,,0,0,0,1,0,4,4,18,,,,,,,,,,,,,,,3.597194388777555,,,,,,,,,,,1,,,,,,,,,,,,,,502.0587633999821,502.0587633999821,502.0649196000013,502.0587633999821,502.0587633999821,502.26630069999374,502.4161720999982,505.8025987999863,505.8025987999863,505.8025987999863,['s'],[0.5026513999910094],,,,,,,,,,,,,,,,,,,,,,,,,,,,,,,,,,,,,,,,,,,,,,,,,,,,,,,,260012,2024-03-14_17h33.58.145,mfe_c_object,2022.2.4,59.94114977763007,
flanker_main_block_2.csv,img/rightArrow.png,img/leftArrow.png,img/leftArrow.png,7,0,right,"[0, 0]","[0.0385, 0]","[-0.0385, 0]",img/object_images/toy05.jpg,"[0.035, 0.035]",,,,,,,,,,,,,0,0,0,1,0,5,5,22,,,,,,,,,,,,,,,3.6673346693386777,,,,,,,,,,,1,,,,,,,,,,,,,,505.8025987999863,505.8025987999863,505.8025987999863,505.8025987999863,505.8025987999863,506.00339899997925,506.1533429999836,509.6066409999912,509.6066409999912,509.6066409999912,['k'],[1.2312741999921855],,,,,,,,,,,,,,,,,,,,,,,,,,,,,,,,,,,,,,,,,,,,,,,,,,,,,,,,260012,2024-03-14_17h33.58.145,mfe_c_object,2022.2.4,59.94114977763007,
flanker_main_block_2.csv,img/leftArrow.png,img/leftArrow.png,img/leftArrow.png,6,1,left,"[0, 0]","[0.0385, 0]","[-0.0385, 0]",img/object_images/backpack03.jpg,"[0.035, 0.035]",,,,,,,,,,,,,0,0,0,1,0,6,6,26,,,,,,,,,,,,,,,3.905811623246493,,,,,,,,,,,1,,,,,,,,,,,,,,509.6066409999912,509.6066409999912,509.6066409999912,509.6066409999912,509.6066409999912,509.80723369997577,509.95724459999474,513.6608562999754,513.6608562999754,513.6608562999754,['s'],[0.8991518999973778],,,,,,,,,,,,,,,,,,,,,,,,,,,,,,,,,,,,,,,,,,,,,,,,,,,,,,,,260012,2024-03-14_17h33.58.145,mfe_c_object,2022.2.4,59.94114977763007,
flanker_main_block_2.csv,img/rightArrow.png,img/leftArrow.png,img/leftArrow.png,7,0,right,"[0, 0]","[0.0385, 0]","[-0.0385, 0]",img/object_images/vase01.jpg,"[0.035, 0.035]",,,,,,,,,,,,,0,0,0,1,0,7,7,10,,,,,,,,,,,,,,,3.6833667334669338,,,,,,,,,,,1,,,,,,,,,,,,,,513.6608562999754,513.6608562999754,513.6608562999754,513.6608562999754,513.6608562999754,513.8612585999945,514.0111535999749,517.492952599976,517.492952599976,517.492952599976,['k'],[0.7733193000021856],,,,,,,,,,,,,,,,,,,,,,,,,,,,,,,,,,,,,,,,,,,,,,,,,,,,,,,,260012,2024-03-14_17h33.58.145,mfe_c_object,2022.2.4,59.94114977763007,
flanker_main_block_2.csv,img/rightArrow.png,img/rightArrow.png,img/rightArrow.png,5,1,right,"[0, 0]","[0.0385, 0]","[-0.0385, 0]",img/object_images/trash_can05.jpg,"[0.035, 0.035]",,,,,,,,,,,,,0,0,0,1,0,8,8,19,,,,,,,,,,,,,,,3.650300601202405,,,,,,,,,,,1,,,,,,,,,,,,,,517.492952599976,517.492952599976,517.492952599976,517.492952599976,517.492952599976,517.6984604999889,517.8484029999818,521.302398699976,521.302398699976,521.302398699976,['k'],[0.7164177999948151],,,,,,,,,,,,,,,,,,,,,,,,,,,,,,,,,,,,,,,,,,,,,,,,,,,,,,,,260012,2024-03-14_17h33.58.145,mfe_c_object,2022.2.4,59.94114977763007,
flanker_main_block_2.csv,img/leftArrow.png,img/rightArrow.png,img/rightArrow.png,8,0,left,"[0, 0]","[0.0385, 0]","[-0.0385, 0]",img/object_images/laptop01.jpg,"[0.035, 0.035]",,,,,,,,,,,,,0,0,0,1,0,9,9,11,,,,,,,,,,,,,,,3.623246492985972,,,,,,,,,,,1,,,,,,,,,,,,,,521.302398699976,521.302398699976,521.302398699976,521.302398699976,521.302398699976,521.5022208000009,521.652131299983,525.0692411999917,525.0692411999917,525.0692411999917,['s'],[0.5234400000190362],,,,,,,,,,,,,,,,,,,,,,,,,,,,,,,,,,,,,,,,,,,,,,,,,,,,,,,,260012,2024-03-14_17h33.58.145,mfe_c_object,2022.2.4,59.94114977763007,
flanker_main_block_2.csv,img/rightArrow.png,img/rightArrow.png,img/rightArrow.png,5,1,right,"[0, 0]","[0.0385, 0]","[-0.0385, 0]",img/object_images/trash_can03.jpg,"[0.035, 0.035]",,,,,,,,,,,,,0,0,0,1,0,10,10,1,,,,,,,,,,,,,,,3.6743486973947896,,,,,,,,,,,1,,,,,,,,,,,,,,525.0692411999917,525.0692411999917,525.0692411999917,525.0692411999917,525.0692411999917,525.2727469999809,525.4226250999782,528.8873436999856,528.8873436999856,528.8873436999856,['k'],[0.5805521000002045],,,,,,,,,,,,,,,,,,,,,,,,,,,,,,,,,,,,,,,,,,,,,,,,,,,,,,,,260012,2024-03-14_17h33.58.145,mfe_c_object,2022.2.4,59.94114977763007,
flanker_main_block_2.csv,img/leftArrow.png,img/rightArrow.png,img/rightArrow.png,8,0,left,"[0, 0]","[0.0385, 0]","[-0.0385, 0]",img/object_images/chess_piece01.jpg,"[0.035, 0.035]",,,,,,,,,,,,,0,0,0,1,0,11,11,8,,,,,,,,,,,,,,,3.686372745490982,,,,,,,,,,,1,,,,,,,,,,,,,,528.8873436999856,528.8873436999856,528.8932861999783,528.8873436999856,528.8873436999856,529.0930797999899,529.2431635999819,532.7115307999775,532.7115307999775,532.7115307999775,['s'],[0.5376087999902666],,,,,,,,,,,,,,,,,,,,,,,,,,,,,,,,,,,,,,,,,,,,,,,,,,,,,,,,260012,2024-03-14_17h33.58.145,mfe_c_object,2022.2.4,59.94114977763007,
flanker_main_block_2.csv,img/rightArrow.png,img/rightArrow.png,img/rightArrow.png,5,1,right,"[0, 0]","[0.0385, 0]","[-0.0385, 0]",img/object_images/calculator01.jpg,"[0.035, 0.035]",,,,,,,,,,,,,0,0,0,1,0,12,12,14,,,,,,,,,,,,,,,3.6693386773547094,,,,,,,,,,,1,,,,,,,,,,,,,,532.7115307999775,532.7115307999775,532.7115307999775,532.7115307999775,532.7115307999775,532.9135482999845,533.0635536999907,536.5185391999839,536.5185391999839,536.5185391999839,['k'],[0.5228425999812316],,,,,,,,,,,,,,,,,,,,,,,,,,,,,,,,,,,,,,,,,,,,,,,,,,,,,,,,260012,2024-03-14_17h33.58.145,mfe_c_object,2022.2.4,59.94114977763007,
flanker_main_block_2.csv,img/leftArrow.png,img/leftArrow.png,img/leftArrow.png,6,1,left,"[0, 0]","[0.0385, 0]","[-0.0385, 0]",img/object_images/surf_board01.jpg,"[0.035, 0.035]",,,,,,,,,,,,,0,0,0,1,0,13,13,23,,,,,,,,,,,,,,,3.9549098196392785,,,,,,,,,,,1,,,,,,,,,,,,,,536.5185391999839,536.5185391999839,536.5185391999839,536.5185391999839,536.5185391999839,536.7341408999928,536.8673298999784,540.6369413999782,540.6369413999782,540.6369413999782,['s'],[0.4592092000239063],,,,,,,,,,,,,,,,,,,,,,,,,,,,,,,,,,,,,,,,,,,,,,,,,,,,,,,,260012,2024-03-14_17h33.58.145,mfe_c_object,2022.2.4,59.94114977763007,
flanker_main_block_2.csv,img/rightArrow.png,img/leftArrow.png,img/leftArrow.png,7,0,right,"[0, 0]","[0.0385, 0]","[-0.0385, 0]",img/object_images/umbrella01.jpg,"[0.035, 0.035]",,,,,,,,,,,,,0,0,0,1,0,14,14,29,,,,,,,,,,,,,,,3.7184368737474953,,,,,,,,,,,1,,,,,,,,,,,,,,540.6369413999782,540.6369413999782,540.6369413999782,540.6369413999782,540.6369413999782,540.8382569999958,540.9880299999786,544.5110287999851,544.5110287999851,544.5110287999851,['k'],[0.5804604000004474],,,,,,,,,,,,,,,,,,,,,,,,,,,,,,,,,,,,,,,,,,,,,,,,,,,,,,,,260012,2024-03-14_17h33.58.145,mfe_c_object,2022.2.4,59.94114977763007,
flanker_main_block_2.csv,img/leftArrow.png,img/rightArrow.png,img/rightArrow.png,8,0,left,"[0, 0]","[0.0385, 0]","[-0.0385, 0]",img/object_images/hair_dryer01.jpg,"[0.035, 0.035]",,,,,,,,,,,,,0,0,0,1,0,15,15,25,,,,,,,,,,,,,,,3.7024048096192383,,,,,,,,,,,1,,,,,,,,,,,,,,544.5110287999851,544.5110287999851,544.5110287999851,544.5110287999851,544.5110287999851,544.7254302999936,544.875312499993,548.3572904999892,548.3572904999892,548.3572904999892,['s'],[0.6102978000126313],,,,,,,,,,,,,,,,,,,,,,,,,,,,,,,,,,,,,,,,,,,,,,,,,,,,,,,,260012,2024-03-14_17h33.58.145,mfe_c_object,2022.2.4,59.94114977763007,
flanker_main_block_2.csv,img/leftArrow.png,img/rightArrow.png,img/rightArrow.png,8,0,left,"[0, 0]","[0.0385, 0]","[-0.0385, 0]",img/object_images/stove01.jpg,"[0.035, 0.035]",,,,,,,,,,,,,0,0,0,1,0,16,16,27,,,,,,,,,,,,,,,3.9038076152304613,,,,,,,,,,,1,,,,,,,,,,,,,,548.3572904999892,548.3572904999892,548.3634510999836,548.3572904999892,548.3572904999892,548.5630426999996,548.7125528999895,552.3947823999915,552.3947823999915,552.3947823999915,['s'],[0.684322000015527],,,,,,,,,,,,,,,,,,,,,,,,,,,,,,,,,,,,,,,,,,,,,,,,,,,,,,,,260012,2024-03-14_17h33.58.145,mfe_c_object,2022.2.4,59.94114977763007,
flanker_main_block_2.csv,img/leftArrow.png,img/leftArrow.png,img/leftArrow.png,6,1,left,"[0, 0]","[0.0385, 0]","[-0.0385, 0]",img/object_images/microphone03.jpg,"[0.035, 0.035]",,,,,,,,,,,,,0,0,0,1,0,17,17,21,,,,,,,,,,,,,,,3.9368737474949898,,,,,,,,,,,1,,,,,,,,,,,,,,552.3947823999915,552.3947823999915,552.4011506999959,552.3947823999915,552.3947823999915,552.6167383999855,552.7498587999726,556.4723369999847,556.4723369999847,556.4723369999847,['s'],[0.4391665000002831],,,,,,,,,,,,,,,,,,,,,,,,,,,,,,,,,,,,,,,,,,,,,,,,,,,,,,,,260012,2024-03-14_17h33.58.145,mfe_c_object,2022.2.4,59.94114977763007,
flanker_main_block_2.csv,img/rightArrow.png,img/leftArrow.png,img/leftArrow.png,7,0,right,"[0, 0]","[0.0385, 0]","[-0.0385, 0]",img/object_images/helmet02.jpg,"[0.035, 0.035]",,,,,,,,,,,,,0,0,0,1,0,18,18,20,,,,,,,,,,,,,,,3.8697394789579156,,,,,,,,,,,0,,,,,,,,,,,,,,556.4723369999847,556.4723369999847,556.4723369999847,556.4723369999847,556.4723369999847,556.6873077999917,556.8372656999854,560.4962918999954,560.4962918999954,560.4962918999954,"['s', 'k']","[0.6247487000073306, 0.8736701000016183]",,,,,,,,,,,,,,,,,,,,,,,,,,,,,,,,,,,,,,,,,,,,,,,,,,,,,,,,260012,2024-03-14_17h33.58.145,mfe_c_object,2022.2.4,59.94114977763007,
flanker_main_block_2.csv,img/leftArrow.png,img/rightArrow.png,img/rightArrow.png,8,0,left,"[0, 0]","[0.0385, 0]","[-0.0385, 0]",img/object_images/towels01.jpg,"[0.035, 0.035]",,,,,,,,,,,,,0,0,0,1,0,19,19,6,,,,,,,,,,,,,,,3.506012024048096,,,,,,,,,,,1,,,,,,,,,,,,,,560.4962918999954,560.4962918999954,560.4962918999954,560.4962918999954,560.4962918999954,560.7082105999871,560.8582602999813,564.2237976999895,564.2237976999895,564.2237976999895,['s'],[0.8807241000176873],,,,,,,,,,,,,,,,,,,,,,,,,,,,,,,,,,,,,,,,,,,,,,,,,,,,,,,,260012,2024-03-14_17h33.58.145,mfe_c_object,2022.2.4,59.94114977763007,
flanker_main_block_2.csv,img/rightArrow.png,img/leftArrow.png,img/leftArrow.png,7,0,right,"[0, 0]","[0.0385, 0]","[-0.0385, 0]",img/object_images/gift_box05.jpg,"[0.035, 0.035]",,,,,,,,,,,,,0,0,0,1,0,20,20,15,,,,,,,,,,,,,,,3.651302605210421,,,,,,,,,,,1,,,,,,,,,,,,,,564.2237976999895,564.2237976999895,564.2237976999895,564.2237976999895,564.2237976999895,564.4284774999833,564.5782493999868,568.0148513999884,568.0148513999884,568.0148513999884,['k'],[0.5463159999926575],,,,,,,,,,,,,,,,,,,,,,,,,,,,,,,,,,,,,,,,,,,,,,,,,,,,,,,,260012,2024-03-14_17h33.58.145,mfe_c_object,2022.2.4,59.94114977763007,
flanker_main_block_2.csv,img/leftArrow.png,img/leftArrow.png,img/leftArrow.png,6,1,left,"[0, 0]","[0.0385, 0]","[-0.0385, 0]",img/object_images/combs01.jpg,"[0.035, 0.035]",,,,,,,,,,,,,0,0,0,1,0,21,21,7,,,,,,,,,,,,,,,3.691382765531062,,,,,,,,,,,1,,,,,,,,,,,,,,568.0148513999884,568.0148513999884,568.0148513999884,568.0148513999884,568.0148513999884,568.215921199997,568.365524599998,571.8530676999944,571.8530676999944,571.8530676999944,['s'],[0.8740033000067342],,,,,,,,,,,,,,,,,,,,,,,,,,,,,,,,,,,,,,,,,,,,,,,,,,,,,,,,260012,2024-03-14_17h33.58.145,mfe_c_object,2022.2.4,59.94114977763007,
flanker_main_block_2.csv,img/rightArrow.png,img/leftArrow.png,img/leftArrow.png,7,0,right,"[0, 0]","[0.0385, 0]","[-0.0385, 0]",img/object_images/lock01.jpg,"[0.035, 0.035]",,,,,,,,,,,,,0,0,0,1,0,22,22,3,,,,,,,,,,,,,,,3.5190380761523046,,,,,,,,,,,1,,,,,,,,,,,,,,571.8530676999944,571.8530676999944,571.8530676999944,571.8530676999944,571.8530676999944,572.0527983999928,572.2026704999735,575.5002209999948,575.5002209999948,575.5002209999948,['k'],[0.6207429000060074],,,,,,,,,,,,,,,,,,,,,,,,,,,,,,,,,,,,,,,,,,,,,,,,,,,,,,,,260012,2024-03-14_17h33.58.145,mfe_c_object,2022.2.4,59.94114977763007,
flanker_main_block_2.csv,img/rightArrow.png,img/rightArrow.png,img/rightArrow.png,5,1,right,"[0, 0]","[0.0385, 0]","[-0.0385, 0]",img/object_images/shoes08.jpg,"[0.035, 0.035]",,,,,,,,,,,,,0,0,0,1,0,23,23,24,,,,,,,,,,,,,,,3.5861723446893787,,,,,,,,,,,1,,,,,,,,,,,,,,575.5002209999948,575.5002209999948,575.5064199999906,575.5002209999948,575.5002209999948,575.7063506999984,575.8563429999922,579.2262240999844,579.2262240999844,579.2262240999844,['k'],[0.5487082000181545],,,,,,,,,,,,,,,,,,,,,,,,,,,,,,,,,,,,,,,,,,,,,,,,,,,,,,,,260012,2024-03-14_17h33.58.145,mfe_c_object,2022.2.4,59.94114977763007,
flanker_main_block_2.csv,img/rightArrow.png,img/rightArrow.png,img/rightArrow.png,5,1,right,"[0, 0]","[0.0385, 0]","[-0.0385, 0]",img/object_images/laptop03.jpg,"[0.035, 0.035]",,,,,,,,,,,,,0,0,0,1,0,24,24,5,,,,,,,,,,,,,,,3.8216432865731464,,,,,,,,,,,1,,,,,,,,,,,,,,579.2262240999844,579.2262240999844,579.2262240999844,579.2262240999844,579.2262240999844,579.4265824999893,579.5764942999813,583.1966991999943,583.1966991999943,583.1966991999943,['k'],[0.7434548000164796],,,,,,,,,,,,,,,,,,,,,,,,,,,,,,,,,,,,,,,,,,,,,,,,,,,,,,,,260012,2024-03-14_17h33.58.145,mfe_c_object,2022.2.4,59.94114977763007,
flanker_main_block_2.csv,img/leftArrow.png,img/rightArrow.png,img/rightArrow.png,8,0,left,"[0, 0]","[0.0385, 0]","[-0.0385, 0]",img/object_images/Lint_Roller02.jpg,"[0.035, 0.035]",,,,,,,,,,,,,0,0,0,1,0,25,25,2,,,,,,,,,,,,,,,3.7595190380761525,,,,,,,,,,,1,,,,,,,,,,,,,,583.1966991999943,583.1966991999943,583.1966991999943,583.1966991999943,583.1966991999943,583.3974982999789,583.5473285999906,587.1204839999846,587.1204839999846,587.1204839999846,['s'],[0.7806240000063553],,,,,,,,,,,,,,,,,,,,,,,,,,,,,,,,,,,,,,,,,,,,,,,,,,,,,,,,260012,2024-03-14_17h33.58.145,mfe_c_object,2022.2.4,59.94114977763007,
flanker_main_block_2.csv,img/rightArrow.png,img/rightArrow.png,img/rightArrow.png,5,1,right,"[0, 0]","[0.0385, 0]","[-0.0385, 0]",img/object_images/chair02.jpg,"[0.035, 0.035]",,,,,,,,,,,,,0,0,0,1,0,26,26,13,,,,,,,,,,,,,,,3.866733466933868,,,,,,,,,,,1,,,,,,,,,,,,,,587.1204839999846,587.1204839999846,587.1204839999846,587.1204839999846,587.1204839999846,587.3345105999906,587.4847548999824,591.1098621999845,591.1098621999845,591.1098621999845,['k'],[0.4967455000150949],,,,,,,,,,,,,,,,,,,,,,,,,,,,,,,,,,,,,,,,,,,,,,,,,,,,,,,,260012,2024-03-14_17h33.58.145,mfe_c_object,2022.2.4,59.94114977763007,
flanker_main_block_2.csv,img/leftArrow.png,img/leftArrow.png,img/leftArrow.png,6,1,left,"[0, 0]","[0.0385, 0]","[-0.0385, 0]",img/object_images/spatula02.jpg,"[0.035, 0.035]",,,,,,,,,,,,,0,0,0,1,0,27,27,12,,,,,,,,,,,,,,,3.579158316633267,,,,,,,,,,,1,,,,,,,,,,,,,,591.1098621999845,591.1098621999845,591.1159983999969,591.1098621999845,591.1098621999845,591.3219368999999,591.4719588999869,594.8243183000013,594.8243183000013,594.8243183000013,['s'],[0.8038820000074338],,,,,,,,,,,,,,,,,,,,,,,,,,,,,,,,,,,,,,,,,,,,,,,,,,,,,,,,260012,2024-03-14_17h33.58.145,mfe_c_object,2022.2.4,59.94114977763007,
flanker_main_block_2.csv,img/leftArrow.png,img/leftArrow.png,img/leftArrow.png,6,1,left,"[0, 0]","[0.0385, 0]","[-0.0385, 0]",img/object_images/accardion01.jpg,"[0.035, 0.035]",,,,,,,,,,,,,0,0,0,1,0,28,28,4,,,,,,,,,,,,,,,3.5220440881763526,,,,,,,,,,,1,,,,,,,,,,,,,,594.8243183000013,594.8243183000013,594.8243183000013,594.8243183000013,594.8243183000013,595.0259571999777,595.1758312999737,598.4789471999975,598.4789471999975,598.4789471999975,['s'],[0.6016206000058446],,,,,,,,,,,,,,,,,,,,,,,,,,,,,,,,,,,,,,,,,,,,,,,,,,,,,,,,260012,2024-03-14_17h33.58.145,mfe_c_object,2022.2.4,59.94114977763007,
flanker_main_block_2.csv,img/rightArrow.png,img/leftArrow.png,img/leftArrow.png,7,0,right,"[0, 0]","[0.0385, 0]","[-0.0385, 0]",img/object_images/Vest02.jpg,"[0.035, 0.035]",,,,,,,,,,,,,0,0,0,1,0,29,29,30,,,,,,,,,,,,,,,3.5761523046092183,,,,,,,,,,,1,,,,,,,,,,,,,,598.4789471999975,598.4789471999975,598.4789471999975,598.4789471999975,598.4789471999975,598.6796207999869,598.8292424999818,602.1995868999802,602.1995868999802,602.1995868999802,['k'],[0.7219620999821927],,,,,,,,,,,,,,,,,,,,,,,,,,,,,,,,,,,,,,,,,,,,,,,,,,,,,,,,260012,2024-03-14_17h33.58.145,mfe_c_object,2022.2.4,59.94114977763007,
flanker_main_block_2.csv,img/leftArrow.png,img/leftArrow.png,img/leftArrow.png,6,1,left,"[0, 0]","[0.0385, 0]","[-0.0385, 0]",img/object_images/ball02.jpg,"[0.035, 0.035]",,,,,,,,,,,,,0,0,0,1,0,30,30,16,,,,,,,,,,,,,,,3.827655310621242,,,,,,,,,,,1,,,,,,,,,,,,,,602.1995868999802,602.1995868999802,602.1995868999802,602.1995868999802,602.1995868999802,602.3996534999751,602.5500257999811,606.1728492999973,606.1728492999973,606.1728492999973,['s'],[0.7137756000156514],,,,,,,,,,,,,,,,,,,,,,,,,,,,,,,,,,,,,,,,,,,,,,,,,,,,,,,,260012,2024-03-14_17h33.58.145,mfe_c_object,2022.2.4,59.94114977763007,
flanker_main_block_2.csv,img/leftArrow.png,img/rightArrow.png,img/rightArrow.png,8,0,left,"[0, 0]","[0.0385, 0]","[-0.0385, 0]",img/object_images/fan04.jpg,"[0.035, 0.035]",,,,,,,,,,,,,0,0,0,1,0,31,31,9,,,,,,,,,,,,,,,3.524048096192385,,,,,,,,,,,1,,,,,,,,,,,,,,606.1728492999973,606.1728492999973,606.1728492999973,606.1728492999973,606.1728492999973,606.3879570999998,606.5370056999964,609.7315743999789,609.7315743999789,609.7315743999789,['s'],[0.6202336999995168],,,,,,,,,,,,,,,,,,,,,,,,,,,,,,,,,,,,,,,,,,,,,,,,,,,,,,,,260012,2024-03-14_17h33.58.145,mfe_c_object,2022.2.4,59.94114977763007,
flanker_main_block_2.csv,,,,,,,,,,,,,,,,,,,,,,,,0,0,0,1,,,,,,,,,,,,,,,,,,,,,,,,,,,,,,,,,,,,,,,,,,,,,,,,,,,,,,,,2,609.7315743999789,619.6992081999779,k,1.4300215999828652,,,,,,,,,,,,,,,,,,,,,,,,,,,,,,,,,,,,,,,,,,,,,,,,,,,260012,2024-03-14_17h33.58.145,mfe_c_object,2022.2.4,59.94114977763007,
flanker_main_block_11.csv,img/leftArrow.png,img/rightArrow.png,img/rightArrow.png,8,0,left,"[0, 0]","[0.0385, 0]","[-0.0385, 0]",img/object_images/airfryer01.jpg,"[0.035, 0.035]",,,,,,,,,,,,,0,1,1,10,0,0,0,9,,,,,,,,,,,,,,627.7933564999839,3.8687374749498997,,,,,,,,,,,1,,,,,,,,,,621.1508201999823,621.1508201999823,k,6.61889370001154,630.02537019999,630.02537019999,630.02537019999,630.02537019999,630.02537019999,630.2277288999758,630.3773706999782,634.0222844999807,634.0222844999807,634.0222844999807,['s'],[0.46354019999853335],,,,,,,,,,,,,,,,,,,,,,,,,,,,,,,,,,,,,,,,,,,,,,,,,,,,,,,,260012,2024-03-14_17h33.58.145,mfe_c_object,2022.2.4,59.94114977763007,
flanker_main_block_11.csv,img/rightArrow.png,img/leftArrow.png,img/leftArrow.png,7,0,right,"[0, 0]","[0.0385, 0]","[-0.0385, 0]",img/object_images/video_game06.jpg,"[0.035, 0.035]",,,,,,,,,,,,,0,1,1,10,0,1,1,1,,,,,,,,,,,,,,,3.765531062124248,,,,,,,,,,,1,,,,,,,,,,,,,,634.0222844999807,634.0222844999807,634.0286315999983,634.0222844999807,634.0222844999807,634.2313286999997,634.3811830999912,637.9301422999997,637.9301422999997,637.9301422999997,['k'],[0.4352552999916952],,,,,,,,,,,,,,,,,,,,,,,,,,,,,,,,,,,,,,,,,,,,,,,,,,,,,,,,260012,2024-03-14_17h33.58.145,mfe_c_object,2022.2.4,59.94114977763007,
flanker_main_block_11.csv,img/rightArrow.png,img/leftArrow.png,img/leftArrow.png,7,0,right,"[0, 0]","[0.0385, 0]","[-0.0385, 0]",img/object_images/pot01.jpg,"[0.035, 0.035]",,,,,,,,,,,,,0,1,1,10,0,2,2,6,,,,,,,,,,,,,,,3.5811623246492985,,,,,,,,,,,1,,,,,,,,,,,,,,637.9301422999997,637.9301422999997,637.9364403999934,637.9301422999997,637.9301422999997,638.1519471999782,638.2851898999943,641.6503894999914,641.6503894999914,641.6503894999914,['k'],[0.4715886999911163],,,,,,,,,,,,,,,,,,,,,,,,,,,,,,,,,,,,,,,,,,,,,,,,,,,,,,,,260012,2024-03-14_17h33.58.145,mfe_c_object,2022.2.4,59.94114977763007,
flanker_main_block_11.csv,img/rightArrow.png,img/leftArrow.png,img/leftArrow.png,7,0,right,"[0, 0]","[0.0385, 0]","[-0.0385, 0]",img/object_images/ironing_table02.jpg,"[0.035, 0.035]",,,,,,,,,,,,,0,1,1,10,0,3,3,5,,,,,,,,,,,,,,,3.8156312625250504,,,,,,,,,,,0,,,,,,,,,,,,,,641.6503894999914,641.6503894999914,641.6564814999874,641.6503894999914,641.6503894999914,641.8556587999919,642.0056402999908,645.6101771999965,645.6101771999965,645.6101771999965,"['s', 'k']","[0.30345129998750053, 0.3991593999962788]",,,,,,,,,,,,,,,,,,,,,,,,,,,,,,,,,,,,,,,,,,,,,,,,,,,,,,,,260012,2024-03-14_17h33.58.145,mfe_c_object,2022.2.4,59.94114977763007,
flanker_main_block_11.csv,img/rightArrow.png,img/rightArrow.png,img/rightArrow.png,5,1,right,"[0, 0]","[0.0385, 0]","[-0.0385, 0]",img/object_images/couch04.jpg,"[0.035, 0.035]",,,,,,,,,,,,,0,1,1,10,0,4,4,11,,,,,,,,,,,,,,,3.534068136272545,,,,,,,,,,,1,,,,,,,,,,,,,,645.6101771999965,645.6101771999965,645.6101771999965,645.6101771999965,645.6101771999965,645.8096369999985,645.9597928999865,649.279334699997,649.279334699997,649.279334699997,['k'],[0.5107002999866381],,,,,,,,,,,,,,,,,,,,,,,,,,,,,,,,,,,,,,,,,,,,,,,,,,,,,,,,260012,2024-03-14_17h33.58.145,mfe_c_object,2022.2.4,59.94114977763007,
flanker_main_block_11.csv,img/rightArrow.png,img/leftArrow.png,img/leftArrow.png,7,0,right,"[0, 0]","[0.0385, 0]","[-0.0385, 0]",img/object_images/brief_case01.jpg,"[0.035, 0.035]",,,,,,,,,,,,,0,1,1,10,0,5,5,3,,,,,,,,,,,,,,,3.711422845691383,,,,,,,,,,,1,,,,,,,,,,,,,,649.279334699997,649.279334699997,649.279334699997,649.279334699997,649.279334699997,649.4800437999947,649.6300168999878,653.1257401999901,653.1257401999901,653.1257401999901,['k'],[0.5293615000264253],,,,,,,,,,,,,,,,,,,,,,,,,,,,,,,,,,,,,,,,,,,,,,,,,,,,,,,,260012,2024-03-14_17h33.58.145,mfe_c_object,2022.2.4,59.94114977763007,
flanker_main_block_11.csv,img/leftArrow.png,img/rightArrow.png,img/rightArrow.png,8,0,left,"[0, 0]","[0.0385, 0]","[-0.0385, 0]",img/object_images/chair01.jpg,"[0.035, 0.035]",,,,,,,,,,,,,0,1,1,10,0,6,6,17,,,,,,,,,,,,,,,3.9248496993987976,,,,,,,,,,,1,,,,,,,,,,,,,,653.1257401999901,653.1257401999901,653.1319301999756,653.1257401999901,653.1257401999901,653.3338674999832,653.4837543999893,657.182404799998,657.182404799998,657.182404799998,['s'],[0.4270371000166051],,,,,,,,,,,,,,,,,,,,,,,,,,,,,,,,,,,,,,,,,,,,,,,,,,,,,,,,260012,2024-03-14_17h33.58.145,mfe_c_object,2022.2.4,59.94114977763007,
flanker_main_block_11.csv,img/rightArrow.png,img/leftArrow.png,img/leftArrow.png,7,0,right,"[0, 0]","[0.0385, 0]","[-0.0385, 0]",img/object_images/soap01.jpg,"[0.035, 0.035]",,,,,,,,,,,,,0,1,1,10,0,7,7,0,,,,,,,,,,,,,,,3.5851703406813624,,,,,,,,,,,1,,,,,,,,,,,,,,657.182404799998,657.182404799998,657.1888180999958,657.182404799998,657.182404799998,657.4045769999793,657.5379633999837,660.90661429998,660.90661429998,660.90661429998,['k'],[0.458691900013946],,,,,,,,,,,,,,,,,,,,,,,,,,,,,,,,,,,,,,,,,,,,,,,,,,,,,,,,260012,2024-03-14_17h33.58.145,mfe_c_object,2022.2.4,59.94114977763007,
flanker_main_block_11.csv,img/rightArrow.png,img/rightArrow.png,img/rightArrow.png,5,1,right,"[0, 0]","[0.0385, 0]","[-0.0385, 0]",img/object_images/brief_case02.jpg,"[0.035, 0.035]",,,,,,,,,,,,,0,1,1,10,0,8,8,26,,,,,,,,,,,,,,,3.8286573146292584,,,,,,,,,,,1,,,,,,,,,,,,,,660.90661429998,660.90661429998,660.90661429998,660.90661429998,660.90661429998,661.1083042999962,661.2583975000016,664.8783141999738,664.8783141999738,664.8783141999738,['k'],[0.43047210000804625],,,,,,,,,,,,,,,,,,,,,,,,,,,,,,,,,,,,,,,,,,,,,,,,,,,,,,,,260012,2024-03-14_17h33.58.145,mfe_c_object,2022.2.4,59.94114977763007,
flanker_main_block_11.csv,img/rightArrow.png,img/leftArrow.png,img/leftArrow.png,7,0,right,"[0, 0]","[0.0385, 0]","[-0.0385, 0]",img/object_images/hat02.jpg,"[0.035, 0.035]",,,,,,,,,,,,,0,1,1,10,0,9,9,19,,,,,,,,,,,,,,,3.872745490981964,,,,,,,,,,,1,,,,,,,,,,,,,,664.8783141999738,664.8783141999738,664.8783141999738,664.8783141999738,664.8783141999738,665.0788478999748,665.228801499994,668.8987835999869,668.8987835999869,668.8987835999869,['k'],[0.4584481999918353],,,,,,,,,,,,,,,,,,,,,,,,,,,,,,,,,,,,,,,,,,,,,,,,,,,,,,,,260012,2024-03-14_17h33.58.145,mfe_c_object,2022.2.4,59.94114977763007,
flanker_main_block_11.csv,img/leftArrow.png,img/rightArrow.png,img/rightArrow.png,8,0,left,"[0, 0]","[0.0385, 0]","[-0.0385, 0]",img/object_images/basketball_hoop02.jpg,"[0.035, 0.035]",,,,,,,,,,,,,0,1,1,10,0,10,10,22,,,,,,,,,,,,,,,3.5,,,,,,,,,,,1,,,,,,,,,,,,,,668.8987835999869,668.8987835999869,668.8987835999869,668.8987835999869,668.8987835999869,669.0996424999903,669.2495647999749,672.5550463999971,672.5550463999971,672.5550463999971,['s'],[0.606117900024401],,,,,,,,,,,,,,,,,,,,,,,,,,,,,,,,,,,,,,,,,,,,,,,,,,,,,,,,260012,2024-03-14_17h33.58.145,mfe_c_object,2022.2.4,59.94114977763007,
flanker_main_block_11.csv,img/leftArrow.png,img/leftArrow.png,img/leftArrow.png,6,1,left,"[0, 0]","[0.0385, 0]","[-0.0385, 0]",img/object_images/guitar01.jpg,"[0.035, 0.035]",,,,,,,,,,,,,0,1,1,10,0,11,11,20,,,,,,,,,,,,,,,3.835671342685371,,,,,,,,,,,1,,,,,,,,,,,,,,672.5550463999971,672.5550463999971,672.5550463999971,672.5550463999971,672.5550463999971,672.7698485000001,672.9198583999823,676.5188418999896,676.5188418999896,676.5188418999896,['s'],[0.43050859999493696],,,,,,,,,,,,,,,,,,,,,,,,,,,,,,,,,,,,,,,,,,,,,,,,,,,,,,,,260012,2024-03-14_17h33.58.145,mfe_c_object,2022.2.4,59.94114977763007,
flanker_main_block_11.csv,img/rightArrow.png,img/leftArrow.png,img/leftArrow.png,7,0,right,"[0, 0]","[0.0385, 0]","[-0.0385, 0]",img/object_images/tie01.jpg,"[0.035, 0.035]",,,,,,,,,,,,,0,1,1,10,0,12,12,27,,,,,,,,,,,,,,,3.8837675350701404,,,,,,,,,,,1,,,,,,,,,,,,,,676.5188418999896,676.5188418999896,676.5248960999888,676.5188418999896,676.5188418999896,676.7404125999892,676.8738086999801,680.5397829999856,680.5397829999856,680.5397829999856,['k'],[0.4426464000134729],,,,,,,,,,,,,,,,,,,,,,,,,,,,,,,,,,,,,,,,,,,,,,,,,,,,,,,,260012,2024-03-14_17h33.58.145,mfe_c_object,2022.2.4,59.94114977763007,
flanker_main_block_11.csv,img/leftArrow.png,img/leftArrow.png,img/leftArrow.png,6,1,left,"[0, 0]","[0.0385, 0]","[-0.0385, 0]",img/object_images/Woopie01.jpg,"[0.035, 0.035]",,,,,,,,,,,,,0,1,1,10,0,13,13,8,,,,,,,,,,,,,,,3.7374749498997994,,,,,,,,,,,1,,,,,,,,,,,,,,680.5397829999856,680.5397829999856,680.5397829999856,680.5397829999856,680.5397829999856,680.7445851999801,680.8942625999916,684.4139581999916,684.4139581999916,684.4139581999916,['s'],[0.3653807000082452],,,,,,,,,,,,,,,,,,,,,,,,,,,,,,,,,,,,,,,,,,,,,,,,,,,,,,,,260012,2024-03-14_17h33.58.145,mfe_c_object,2022.2.4,59.94114977763007,
flanker_main_block_11.csv,img/leftArrow.png,img/rightArrow.png,img/rightArrow.png,8,0,left,"[0, 0]","[0.0385, 0]","[-0.0385, 0]",img/object_images/drone02.jpg,"[0.035, 0.035]",,,,,,,,,,,,,0,1,1,10,0,14,14,7,,,,,,,,,,,,,,,3.958917835671343,,,,,,,,,,,1,,,,,,,,,,,,,,684.4139581999916,684.4139581999916,684.4139581999916,684.4139581999916,684.4139581999916,684.6149416999833,684.7648141999962,688.5182910999865,688.5182910999865,688.5182910999865,['s'],[0.48368189999018796],,,,,,,,,,,,,,,,,,,,,,,,,,,,,,,,,,,,,,,,,,,,,,,,,,,,,,,,260012,2024-03-14_17h33.58.145,mfe_c_object,2022.2.4,59.94114977763007,
flanker_main_block_11.csv,img/rightArrow.png,img/leftArrow.png,img/leftArrow.png,7,0,right,"[0, 0]","[0.0385, 0]","[-0.0385, 0]",img/object_images/container01.jpg,"[0.035, 0.035]",,,,,,,,,,,,,0,1,1,10,0,15,15,30,,,,,,,,,,,,,,,3.658316633266533,,,,,,,,,,,0,,,,,,,,,,,,,,688.5182910999865,688.5182910999865,688.5182910999865,688.5182910999865,688.5182910999865,688.7191442999756,688.8691853999917,692.3217018999858,692.3217018999858,692.3217018999858,['s'],[0.43464289998519234],,,,,,,,,,,,,,,,,,,,,,,,,,,,,,,,,,,,,,,,,,,,,,,,,,,,,,,,260012,2024-03-14_17h33.58.145,mfe_c_object,2022.2.4,59.94114977763007,
flanker_main_block_11.csv,img/leftArrow.png,img/leftArrow.png,img/leftArrow.png,6,1,left,"[0, 0]","[0.0385, 0]","[-0.0385, 0]",img/object_images/lantern01.jpg,"[0.035, 0.035]",,,,,,,,,,,,,0,1,1,10,0,16,16,10,,,,,,,,,,,,,,,3.937875751503006,,,,,,,,,,,1,,,,,,,,,,,,,,692.3217018999858,692.3217018999858,692.3217018999858,692.3217018999858,692.3217018999858,692.523028399999,692.6728248999862,696.4095791,696.4095791,696.4095791,['s'],[0.6239593999926001],,,,,,,,,,,,,,,,,,,,,,,,,,,,,,,,,,,,,,,,,,,,,,,,,,,,,,,,260012,2024-03-14_17h33.58.145,mfe_c_object,2022.2.4,59.94114977763007,
flanker_main_block_11.csv,img/leftArrow.png,img/rightArrow.png,img/rightArrow.png,8,0,left,"[0, 0]","[0.0385, 0]","[-0.0385, 0]",img/object_images/cochlear_implant01.jpg,"[0.035, 0.035]",,,,,,,,,,,,,0,1,1,10,0,17,17,15,,,,,,,,,,,,,,,3.50501002004008,,,,,,,,,,,1,,,,,,,,,,,,,,696.4095791,696.4095791,696.4095791,696.4095791,696.4095791,696.6103034999978,696.7601526999788,700.0554085999902,700.0554085999902,700.0554085999902,['s'],[0.4478878999943845],,,,,,,,,,,,,,,,,,,,,,,,,,,,,,,,,,,,,,,,,,,,,,,,,,,,,,,,260012,2024-03-14_17h33.58.145,mfe_c_object,2022.2.4,59.94114977763007,
flanker_main_block_11.csv,img/rightArrow.png,img/rightArrow.png,img/rightArrow.png,5,1,right,"[0, 0]","[0.0385, 0]","[-0.0385, 0]",img/object_images/Recycling01.jpg,"[0.035, 0.035]",,,,,,,,,,,,,0,1,1,10,0,18,18,14,,,,,,,,,,,,,,,3.902805611222445,,,,,,,,,,,1,,,,,,,,,,,,,,700.0554085999902,700.0554085999902,700.0618455999938,700.0554085999902,700.0554085999902,700.2641361999849,700.4139684999827,704.0951013999875,704.0951013999875,704.0951013999875,['k'],[0.4011492999852635],,,,,,,,,,,,,,,,,,,,,,,,,,,,,,,,,,,,,,,,,,,,,,,,,,,,,,,,260012,2024-03-14_17h33.58.145,mfe_c_object,2022.2.4,59.94114977763007,
flanker_main_block_11.csv,img/rightArrow.png,img/rightArrow.png,img/rightArrow.png,5,1,right,"[0, 0]","[0.0385, 0]","[-0.0385, 0]",img/object_images/toilet_paper01.jpg,"[0.035, 0.035]",,,,,,,,,,,,,0,1,1,10,0,19,19,25,,,,,,,,,,,,,,,3.655310621242485,,,,,,,,,,,1,,,,,,,,,,,,,,704.0951013999875,704.0951013999875,704.1011211999867,704.0951013999875,704.0951013999875,704.3013785999792,704.4511406999954,707.8848198999767,707.8848198999767,707.8848198999767,['k'],[0.5464572999917436],,,,,,,,,,,,,,,,,,,,,,,,,,,,,,,,,,,,,,,,,,,,,,,,,,,,,,,,260012,2024-03-14_17h33.58.145,mfe_c_object,2022.2.4,59.94114977763007,
flanker_main_block_11.csv,img/leftArrow.png,img/leftArrow.png,img/leftArrow.png,6,1,left,"[0, 0]","[0.0385, 0]","[-0.0385, 0]",img/object_images/Wisk01.jpg,"[0.035, 0.035]",,,,,,,,,,,,,0,1,1,10,0,20,20,28,,,,,,,,,,,,,,,3.995991983967936,,,,,,,,,,,1,,,,,,,,,,,,,,707.8848198999767,707.8848198999767,707.8848198999767,707.8848198999767,707.8848198999767,708.088399100001,708.2384456,712.0233723999991,712.0233723999991,712.0233723999991,['s'],[0.47636139998212457],,,,,,,,,,,,,,,,,,,,,,,,,,,,,,,,,,,,,,,,,,,,,,,,,,,,,,,,260012,2024-03-14_17h33.58.145,mfe_c_object,2022.2.4,59.94114977763007,
flanker_main_block_11.csv,img/leftArrow.png,img/rightArrow.png,img/rightArrow.png,8,0,left,"[0, 0]","[0.0385, 0]","[-0.0385, 0]",img/object_images/car02.jpg,"[0.035, 0.035]",,,,,,,,,,,,,0,1,1,10,0,21,21,24,,,,,,,,,,,,,,,3.9128256513026054,,,,,,,,,,,1,,,,,,,,,,,,,,712.0233723999991,712.0233723999991,712.0233723999991,712.0233723999991,712.0233723999991,712.2259324999759,712.3758959999832,716.0805284999951,716.0805284999951,716.0805284999951,['s'],[0.49016499999561347],,,,,,,,,,,,,,,,,,,,,,,,,,,,,,,,,,,,,,,,,,,,,,,,,,,,,,,,260012,2024-03-14_17h33.58.145,mfe_c_object,2022.2.4,59.94114977763007,
flanker_main_block_11.csv,img/leftArrow.png,img/leftArrow.png,img/leftArrow.png,6,1,left,"[0, 0]","[0.0385, 0]","[-0.0385, 0]",img/object_images/pitcher03.jpg,"[0.035, 0.035]",,,,,,,,,,,,,0,1,1,10,0,22,22,2,,,,,,,,,,,,,,,3.580160320641282,,,,,,,,,,,1,,,,,,,,,,,,,,716.0805284999951,716.0805284999951,716.0805284999951,716.0805284999951,716.0805284999951,716.2801042999781,716.4300185999891,719.8120410999982,719.8120410999982,719.8120410999982,['s'],[0.3607759000151418],,,,,,,,,,,,,,,,,,,,,,,,,,,,,,,,,,,,,,,,,,,,,,,,,,,,,,,,260012,2024-03-14_17h33.58.145,mfe_c_object,2022.2.4,59.94114977763007,
flanker_main_block_11.csv,img/rightArrow.png,img/rightArrow.png,img/rightArrow.png,5,1,right,"[0, 0]","[0.0385, 0]","[-0.0385, 0]",img/object_images/gloves05.jpg,"[0.035, 0.035]",,,,,,,,,,,,,0,1,1,10,0,23,23,4,,,,,,,,,,,,,,,3.9899799599198396,,,,,,,,,,,1,,,,,,,,,,,,,,719.8120410999982,719.8120410999982,719.8120410999982,719.8120410999982,719.8120410999982,720.017243499984,720.1671056999767,723.934058999992,723.934058999992,723.934058999992,['k'],[0.38061520000337623],,,,,,,,,,,,,,,,,,,,,,,,,,,,,,,,,,,,,,,,,,,,,,,,,,,,,,,,260012,2024-03-14_17h33.58.145,mfe_c_object,2022.2.4,59.94114977763007,
flanker_main_block_11.csv,img/rightArrow.png,img/rightArrow.png,img/rightArrow.png,5,1,right,"[0, 0]","[0.0385, 0]","[-0.0385, 0]",img/object_images/toy_train02.jpg,"[0.035, 0.035]",,,,,,,,,,,,,0,1,1,10,0,24,24,23,,,,,,,,,,,,,,,3.715430861723447,,,,,,,,,,,1,,,,,,,,,,,,,,723.934058999992,723.934058999992,723.934058999992,723.934058999992,723.934058999992,724.1377184999874,724.2877559999761,727.7846455999825,727.7846455999825,727.7846455999825,['k'],[0.45987150000291876],,,,,,,,,,,,,,,,,,,,,,,,,,,,,,,,,,,,,,,,,,,,,,,,,,,,,,,,260012,2024-03-14_17h33.58.145,mfe_c_object,2022.2.4,59.94114977763007,
flanker_main_block_11.csv,img/leftArrow.png,img/leftArrow.png,img/leftArrow.png,6,1,left,"[0, 0]","[0.0385, 0]","[-0.0385, 0]",img/object_images/helmet05.jpg,"[0.035, 0.035]",,,,,,,,,,,,,0,1,1,10,0,25,25,18,,,,,,,,,,,,,,,3.818637274549098,,,,,,,,,,,1,,,,,,,,,,,,,,727.7846455999825,727.7846455999825,727.7910199999751,727.7846455999825,727.7846455999825,727.991746499989,728.1415752999892,731.7523213999812,731.7523213999812,731.7523213999812,['s'],[0.49639009998645633],,,,,,,,,,,,,,,,,,,,,,,,,,,,,,,,,,,,,,,,,,,,,,,,,,,,,,,,260012,2024-03-14_17h33.58.145,mfe_c_object,2022.2.4,59.94114977763007,
flanker_main_block_11.csv,img/rightArrow.png,img/rightArrow.png,img/rightArrow.png,5,1,right,"[0, 0]","[0.0385, 0]","[-0.0385, 0]",img/object_images/broom01.jpg,"[0.035, 0.035]",,,,,,,,,,,,,0,1,1,10,0,26,26,13,,,,,,,,,,,,,,,3.6442885771543088,,,,,,,,,,,1,,,,,,,,,,,,,,731.7523213999812,731.7523213999812,731.7523213999812,731.7523213999812,731.7523213999812,731.9623417999828,732.1122020999901,735.5321736999904,735.5321736999904,735.5321736999904,['k'],[0.5687316999828909],,,,,,,,,,,,,,,,,,,,,,,,,,,,,,,,,,,,,,,,,,,,,,,,,,,,,,,,260012,2024-03-14_17h33.58.145,mfe_c_object,2022.2.4,59.94114977763007,
flanker_main_block_11.csv,img/leftArrow.png,img/rightArrow.png,img/rightArrow.png,8,0,left,"[0, 0]","[0.0385, 0]","[-0.0385, 0]",img/object_images/razor03.jpg,"[0.035, 0.035]",,,,,,,,,,,,,0,1,1,10,0,27,27,12,,,,,,,,,,,,,,,3.9809619238476954,,,,,,,,,,,1,,,,,,,,,,,,,,735.5321736999904,735.5321736999904,735.5321736999904,735.5321736999904,735.5321736999904,735.7326847999939,735.8827708999743,739.6544647999981,739.6544647999981,739.6544647999981,['s'],[0.5170935000060126],,,,,,,,,,,,,,,,,,,,,,,,,,,,,,,,,,,,,,,,,,,,,,,,,,,,,,,,260012,2024-03-14_17h33.58.145,mfe_c_object,2022.2.4,59.94114977763007,
flanker_main_block_11.csv,img/leftArrow.png,img/rightArrow.png,img/rightArrow.png,8,0,left,"[0, 0]","[0.0385, 0]","[-0.0385, 0]",img/object_images/decorative02.jpg,"[0.035, 0.035]",,,,,,,,,,,,,0,1,1,10,0,28,28,29,,,,,,,,,,,,,,,3.5120240480961926,,,,,,,,,,,1,,,,,,,,,,,,,,739.6544647999981,739.6544647999981,739.6544647999981,739.6544647999981,739.6544647999981,739.8702606000006,740.003556599986,743.3005444999726,743.3005444999726,743.3005444999726,['s'],[0.5870407000184059],,,,,,,,,,,,,,,,,,,,,,,,,,,,,,,,,,,,,,,,,,,,,,,,,,,,,,,,260012,2024-03-14_17h33.58.145,mfe_c_object,2022.2.4,59.94114977763007,
flanker_main_block_11.csv,img/leftArrow.png,img/leftArrow.png,img/leftArrow.png,6,1,left,"[0, 0]","[0.0385, 0]","[-0.0385, 0]",img/object_images/bottle12.jpg,"[0.035, 0.035]",,,,,,,,,,,,,0,1,1,10,0,29,29,21,,,,,,,,,,,,,,,3.523046092184369,,,,,,,,,,,1,,,,,,,,,,,,,,743.3005444999726,743.3005444999726,743.3068025999819,743.3005444999726,743.3005444999726,743.5071143999812,743.6570334999997,746.9883733999741,746.9883733999741,746.9883733999741,['s'],[0.4533289000100922],,,,,,,,,,,,,,,,,,,,,,,,,,,,,,,,,,,,,,,,,,,,,,,,,,,,,,,,260012,2024-03-14_17h33.58.145,mfe_c_object,2022.2.4,59.94114977763007,
flanker_main_block_11.csv,img/rightArrow.png,img/rightArrow.png,img/rightArrow.png,5,1,right,"[0, 0]","[0.0385, 0]","[-0.0385, 0]",img/object_images/lamp01.jpg,"[0.035, 0.035]",,,,,,,,,,,,,0,1,1,10,0,30,30,31,,,,,,,,,,,,,,,3.8927855711422845,,,,,,,,,,,1,,,,,,,,,,,,,,746.9883733999741,746.9883733999741,746.9883733999741,746.9883733999741,746.9883733999741,747.1942493999959,747.3441101999779,751.017231899983,751.017231899983,751.017231899983,['k'],[0.43737580001470633],,,,,,,,,,,,,,,,,,,,,,,,,,,,,,,,,,,,,,,,,,,,,,,,,,,,,,,,260012,2024-03-14_17h33.58.145,mfe_c_object,2022.2.4,59.94114977763007,
flanker_main_block_11.csv,img/leftArrow.png,img/leftArrow.png,img/leftArrow.png,6,1,left,"[0, 0]","[0.0385, 0]","[-0.0385, 0]",img/object_images/ball01.jpg,"[0.035, 0.035]",,,,,,,,,,,,,0,1,1,10,0,31,31,16,,,,,,,,,,,,,,,3.9448897795591185,,,,,,,,,,,1,,,,,,,,,,,,,,751.017231899983,751.017231899983,751.017231899983,751.017231899983,751.017231899983,751.2316465999756,751.3813641999732,754.9674913999916,754.9674913999916,754.9674913999916,['s'],[0.47200490001705475],,,,,,,,,,,,,,,,,,,,,,,,,,,,,,,,,,,,,,,,,,,,,,,,,,,,,,,,260012,2024-03-14_17h33.58.145,mfe_c_object,2022.2.4,59.94114977763007,
flanker_main_block_11.csv,,,,,,,,,,,,,,,,,,,,,,,,0,1,1,10,,,,,,,,,,,,,,,,,,,,,,,,,,,,,,,,,,,,,,,,,,,,,,,,,,,,,,,,2,754.9674913999916,764.9606396999734,k,0.520866400009254,,,,,,,,,,,,,,,,,,,,,,,,,,,,,,,,,,,,,,,,,,,,,,,,,,,260012,2024-03-14_17h33.58.145,mfe_c_object,2022.2.4,59.94114977763007,
flanker_main_block_6.csv,img/rightArrow.png,img/rightArrow.png,img/rightArrow.png,5,1,right,"[0, 0]","[0.0385, 0]","[-0.0385, 0]",img/object_images/Staples01.jpg,"[0.035, 0.035]",,,,,,,,,,,,,0,2,2,5,0,0,0,29,,,,,,,,,,,,,,769.452764799993,3.590180360721443,,,,,,,,,,,1,,,,,,,,,,765.5115172999795,765.5115172999795,k,3.9139884000178427,771.6465487999958,771.6465487999958,771.6465487999958,771.6465487999958,771.6465487999958,771.8520022999728,772.0022819000005,775.366889500001,775.366889500001,775.366889500001,['k'],[0.6511211000033654],,,,,,,,,,,,,,,,,,,,,,,,,,,,,,,,,,,,,,,,,,,,,,,,,,,,,,,,260012,2024-03-14_17h33.58.145,mfe_c_object,2022.2.4,59.94114977763007,
flanker_main_block_6.csv,img/leftArrow.png,img/rightArrow.png,img/rightArrow.png,8,0,left,"[0, 0]","[0.0385, 0]","[-0.0385, 0]",img/object_images/pitcher01.jpg,"[0.035, 0.035]",,,,,,,,,,,,,0,2,2,5,0,1,1,4,,,,,,,,,,,,,,,3.5290581162324646,,,,,,,,,,,1,,,,,,,,,,,,,,775.366889500001,775.366889500001,775.3734077999834,775.366889500001,775.366889500001,775.5724869999976,775.7225368999934,779.0436409999966,779.0436409999966,779.0436409999966,['s'],[0.4983070000016596],,,,,,,,,,,,,,,,,,,,,,,,,,,,,,,,,,,,,,,,,,,,,,,,,,,,,,,,260012,2024-03-14_17h33.58.145,mfe_c_object,2022.2.4,59.94114977763007,
flanker_main_block_6.csv,img/rightArrow.png,img/rightArrow.png,img/rightArrow.png,5,1,right,"[0, 0]","[0.0385, 0]","[-0.0385, 0]",img/object_images/book03.jpg,"[0.035, 0.035]",,,,,,,,,,,,,0,2,2,5,0,2,2,30,,,,,,,,,,,,,,,3.566132264529058,,,,,,,,,,,1,,,,,,,,,,,,,,779.0436409999966,779.0436409999966,779.0436409999966,779.0436409999966,779.0436409999966,779.2428743999917,779.3930932999938,782.765382499987,782.765382499987,782.765382499987,['k'],[0.3973368000006303],,,,,,,,,,,,,,,,,,,,,,,,,,,,,,,,,,,,,,,,,,,,,,,,,,,,,,,,260012,2024-03-14_17h33.58.145,mfe_c_object,2022.2.4,59.94114977763007,
flanker_main_block_6.csv,img/leftArrow.png,img/leftArrow.png,img/leftArrow.png,6,1,left,"[0, 0]","[0.0385, 0]","[-0.0385, 0]",img/object_images/knife04.jpg,"[0.035, 0.035]",,,,,,,,,,,,,0,2,2,5,0,3,3,27,,,,,,,,,,,,,,,3.8396793587174347,,,,,,,,,,,1,,,,,,,,,,,,,,782.765382499987,782.765382499987,782.765382499987,782.765382499987,782.765382499987,782.9800185999775,783.1293244999833,786.7508908999735,786.7508908999735,786.7508908999735,['s'],[0.3076638000202365],,,,,,,,,,,,,,,,,,,,,,,,,,,,,,,,,,,,,,,,,,,,,,,,,,,,,,,,260012,2024-03-14_17h33.58.145,mfe_c_object,2022.2.4,59.94114977763007,
flanker_main_block_6.csv,img/leftArrow.png,img/rightArrow.png,img/rightArrow.png,8,0,left,"[0, 0]","[0.0385, 0]","[-0.0385, 0]",img/object_images/paint_brush04.jpg,"[0.035, 0.035]",,,,,,,,,,,,,0,2,2,5,0,4,4,24,,,,,,,,,,,,,,,3.653306613226453,,,,,,,,,,,1,,,,,,,,,,,,,,786.7508908999735,786.7508908999735,786.7508908999735,786.7508908999735,786.7508908999735,786.9505987000011,787.1004490999912,790.531593199994,790.531593199994,790.531593199994,['s'],[0.47465180000290275],,,,,,,,,,,,,,,,,,,,,,,,,,,,,,,,,,,,,,,,,,,,,,,,,,,,,,,,260012,2024-03-14_17h33.58.145,mfe_c_object,2022.2.4,59.94114977763007,
flanker_main_block_6.csv,img/rightArrow.png,img/rightArrow.png,img/rightArrow.png,5,1,right,"[0, 0]","[0.0385, 0]","[-0.0385, 0]",img/object_images/floppy_disk03.jpg,"[0.035, 0.035]",,,,,,,,,,,,,0,2,2,5,0,5,5,15,,,,,,,,,,,,,,,3.6703406813627253,,,,,,,,,,,1,,,,,,,,,,,,,,790.531593199994,790.531593199994,790.5377829999779,790.531593199994,790.531593199994,790.7377223999938,790.8873984999955,794.3382175999868,794.3382175999868,794.3382175999868,['k'],[0.3412994000245817],,,,,,,,,,,,,,,,,,,,,,,,,,,,,,,,,,,,,,,,,,,,,,,,,,,,,,,,260012,2024-03-14_17h33.58.145,mfe_c_object,2022.2.4,59.94114977763007,
flanker_main_block_6.csv,img/rightArrow.png,img/leftArrow.png,img/leftArrow.png,7,0,right,"[0, 0]","[0.0385, 0]","[-0.0385, 0]",img/object_images/retainer01.jpg,"[0.035, 0.035]",,,,,,,,,,,,,0,2,2,5,0,6,6,22,,,,,,,,,,,,,,,3.8066132264529062,,,,,,,,,,,1,,,,,,,,,,,,,,794.3382175999868,794.3382175999868,794.3382175999868,794.3382175999868,794.3382175999868,794.5415036999912,794.6915488999803,798.2752323999885,798.2752323999885,798.2752323999885,['k'],[0.5509167000127491],,,,,,,,,,,,,,,,,,,,,,,,,,,,,,,,,,,,,,,,,,,,,,,,,,,,,,,,260012,2024-03-14_17h33.58.145,mfe_c_object,2022.2.4,59.94114977763007,
flanker_main_block_6.csv,img/rightArrow.png,img/rightArrow.png,img/rightArrow.png,5,1,right,"[0, 0]","[0.0385, 0]","[-0.0385, 0]",img/object_images/ear_bud01.jpg,"[0.035, 0.035]",,,,,,,,,,,,,0,2,2,5,0,7,7,19,,,,,,,,,,,,,,,3.997995991983968,,,,,,,,,,,1,,,,,,,,,,,,,,798.2752323999885,798.2752323999885,798.2752323999885,798.2752323999885,798.2752323999885,798.4786950999987,798.6287995999737,802.4173737999809,802.4173737999809,802.4173737999809,['k'],[0.49487589998170733],,,,,,,,,,,,,,,,,,,,,,,,,,,,,,,,,,,,,,,,,,,,,,,,,,,,,,,,260012,2024-03-14_17h33.58.145,mfe_c_object,2022.2.4,59.94114977763007,
flanker_main_block_6.csv,img/leftArrow.png,img/rightArrow.png,img/rightArrow.png,8,0,left,"[0, 0]","[0.0385, 0]","[-0.0385, 0]",img/object_images/note_book01.jpg,"[0.035, 0.035]",,,,,,,,,,,,,0,2,2,5,0,8,8,1,,,,,,,,,,,,,,,3.971943887775551,,,,,,,,,,,1,,,,,,,,,,,,,,802.4173737999809,802.4173737999809,802.4173737999809,802.4173737999809,802.4173737999809,802.6328268999932,802.7827042999852,806.5375602999993,806.5375602999993,806.5375602999993,['s'],[0.48753749998286366],,,,,,,,,,,,,,,,,,,,,,,,,,,,,,,,,,,,,,,,,,,,,,,,,,,,,,,,260012,2024-03-14_17h33.58.145,mfe_c_object,2022.2.4,59.94114977763007,
flanker_main_block_6.csv,img/leftArrow.png,img/leftArrow.png,img/leftArrow.png,6,1,left,"[0, 0]","[0.0385, 0]","[-0.0385, 0]",img/object_images/chess_piece02.jpg,"[0.035, 0.035]",,,,,,,,,,,,,0,2,2,5,0,9,9,9,,,,,,,,,,,,,,,3.5571142284569137,,,,,,,,,,,1,,,,,,,,,,,,,,806.5375602999993,806.5375602999993,806.5375602999993,806.5375602999993,806.5375602999993,806.736888399988,806.8870764999883,810.2602372999827,810.2602372999827,810.2602372999827,['s'],[0.3682009000040125],,,,,,,,,,,,,,,,,,,,,,,,,,,,,,,,,,,,,,,,,,,,,,,,,,,,,,,,260012,2024-03-14_17h33.58.145,mfe_c_object,2022.2.4,59.94114977763007,
flanker_main_block_6.csv,img/rightArrow.png,img/leftArrow.png,img/leftArrow.png,7,0,right,"[0, 0]","[0.0385, 0]","[-0.0385, 0]",img/object_images/bottle01.jpg,"[0.035, 0.035]",,,,,,,,,,,,,0,2,2,5,0,10,10,28,,,,,,,,,,,,,,,3.934869739478958,,,,,,,,,,,1,,,,,,,,,,,,,,810.2602372999827,810.2602372999827,810.2602372999827,810.2602372999827,810.2602372999827,810.4739190999826,810.6240542999876,814.3256337999774,814.3256337999774,814.3256337999774,['k'],[0.4125415000016801],,,,,,,,,,,,,,,,,,,,,,,,,,,,,,,,,,,,,,,,,,,,,,,,,,,,,,,,260012,2024-03-14_17h33.58.145,mfe_c_object,2022.2.4,59.94114977763007,
flanker_main_block_6.csv,img/leftArrow.png,img/leftArrow.png,img/leftArrow.png,6,1,left,"[0, 0]","[0.0385, 0]","[-0.0385, 0]",img/object_images/pillows01.jpg,"[0.035, 0.035]",,,,,,,,,,,,,0,2,2,5,0,11,11,3,,,,,,,,,,,,,,,3.504008016032064,,,,,,,,,,,1,,,,,,,,,,,,,,814.3256337999774,814.3256337999774,814.3256337999774,814.3256337999774,814.3256337999774,814.5281099999847,814.6778154999774,817.9618026999815,817.9618026999815,817.9618026999815,['s'],[0.3726496000017505],,,,,,,,,,,,,,,,,,,,,,,,,,,,,,,,,,,,,,,,,,,,,,,,,,,,,,,,260012,2024-03-14_17h33.58.145,mfe_c_object,2022.2.4,59.94114977763007,
flanker_main_block_6.csv,img/rightArrow.png,img/rightArrow.png,img/rightArrow.png,5,1,right,"[0, 0]","[0.0385, 0]","[-0.0385, 0]",img/object_images/wire02.jpg,"[0.035, 0.035]",,,,,,,,,,,,,0,2,2,5,0,12,12,21,,,,,,,,,,,,,,,3.6342685370741483,,,,,,,,,,,1,,,,,,,,,,,,,,817.9618026999815,817.9618026999815,817.9618026999815,817.9618026999815,817.9618026999815,818.1650922999834,818.3149091999803,821.7310197999759,821.7310197999759,821.7310197999759,['k'],[0.3996815999853425],,,,,,,,,,,,,,,,,,,,,,,,,,,,,,,,,,,,,,,,,,,,,,,,,,,,,,,,260012,2024-03-14_17h33.58.145,mfe_c_object,2022.2.4,59.94114977763007,
flanker_main_block_6.csv,img/rightArrow.png,img/leftArrow.png,img/leftArrow.png,7,0,right,"[0, 0]","[0.0385, 0]","[-0.0385, 0]",img/object_images/floppy_disk02.jpg,"[0.035, 0.035]",,,,,,,,,,,,,0,2,2,5,0,13,13,12,,,,,,,,,,,,,,,3.5981963927855714,,,,,,,,,,,0,,,,,,,,,,,,,,821.7310197999759,821.7310197999759,821.7310197999759,821.7310197999759,821.7310197999759,821.9354273999925,822.0853037999768,825.4697412999813,825.4697412999813,825.4697412999813,"['s', 'k']","[0.41437139999470674, 0.520445899979677]",,,,,,,,,,,,,,,,,,,,,,,,,,,,,,,,,,,,,,,,,,,,,,,,,,,,,,,,260012,2024-03-14_17h33.58.145,mfe_c_object,2022.2.4,59.94114977763007,
flanker_main_block_6.csv,img/rightArrow.png,img/rightArrow.png,img/rightArrow.png,5,1,right,"[0, 0]","[0.0385, 0]","[-0.0385, 0]",img/object_images/motorcycle01.jpg,"[0.035, 0.035]",,,,,,,,,,,,,0,2,2,5,0,14,14,17,,,,,,,,,,,,,,,3.8997995991983965,,,,,,,,,,,1,,,,,,,,,,,,,,825.4697412999813,825.4697412999813,825.4697412999813,825.4697412999813,825.4697412999813,825.6725959999894,825.8224653999787,829.6103090999823,829.6103090999823,829.6103090999823,['k'],[0.4349459999939427],,,,,,,,,,,,,,,,,,,,,,,,,,,,,,,,,,,,,,,,,,,,,,,,,,,,,,,,260012,2024-03-14_17h33.58.145,mfe_c_object,2022.2.4,59.94114977763007,
flanker_main_block_6.csv,img/rightArrow.png,img/leftArrow.png,img/leftArrow.png,7,0,right,"[0, 0]","[0.0385, 0]","[-0.0385, 0]",img/object_images/microscope01.jpg,"[0.035, 0.035]",,,,,,,,,,,,,0,2,2,5,0,15,15,16,,,,,,,,,,,,,,,3.997995991983968,,,,,,,,,,,0,,,,,,,,,,,,,,829.6103090999823,829.6103090999823,829.6103090999823,829.6103090999823,829.6103090999823,829.8099313999992,829.9597736999858,833.7678649999725,833.7678649999725,833.7678649999725,"['s', 'k']","[0.43109220001497306, 0.5509638000221457]",,,,,,,,,,,,,,,,,,,,,,,,,,,,,,,,,,,,,,,,,,,,,,,,,,,,,,,,260012,2024-03-14_17h33.58.145,mfe_c_object,2022.2.4,59.94114977763007,
flanker_main_block_6.csv,img/rightArrow.png,img/rightArrow.png,img/rightArrow.png,5,1,right,"[0, 0]","[0.0385, 0]","[-0.0385, 0]",img/object_images/compass01.jpg,"[0.035, 0.035]",,,,,,,,,,,,,0,2,2,5,0,16,16,8,,,,,,,,,,,,,,,3.7685370741482966,,,,,,,,,,,1,,,,,,,,,,,,,,833.7678649999725,833.7678649999725,833.7678649999725,833.7678649999725,833.7678649999725,833.9809607999923,834.1311138999881,837.6770167999784,837.6770167999784,837.6770167999784,['k'],[0.41809510000166483],,,,,,,,,,,,,,,,,,,,,,,,,,,,,,,,,,,,,,,,,,,,,,,,,,,,,,,,260012,2024-03-14_17h33.58.145,mfe_c_object,2022.2.4,59.94114977763007,
flanker_main_block_6.csv,img/leftArrow.png,img/rightArrow.png,img/rightArrow.png,8,0,left,"[0, 0]","[0.0385, 0]","[-0.0385, 0]",img/object_images/clip03.jpg,"[0.035, 0.035]",,,,,,,,,,,,,0,2,2,5,0,17,17,31,,,,,,,,,,,,,,,3.95691382765531,,,,,,,,,,,1,,,,,,,,,,,,,,837.6770167999784,837.6770167999784,837.6836171999748,837.6770167999784,837.6770167999784,837.8849708999915,838.0345563999726,841.7716183000011,841.7716183000011,841.7716183000011,['s'],[0.5162911000079475],,,,,,,,,,,,,,,,,,,,,,,,,,,,,,,,,,,,,,,,,,,,,,,,,,,,,,,,260012,2024-03-14_17h33.58.145,mfe_c_object,2022.2.4,59.94114977763007,
flanker_main_block_6.csv,img/leftArrow.png,img/leftArrow.png,img/leftArrow.png,6,1,left,"[0, 0]","[0.0385, 0]","[-0.0385, 0]",img/object_images/knit05.jpg,"[0.035, 0.035]",,,,,,,,,,,,,0,2,2,5,0,18,18,6,,,,,,,,,,,,,,,3.937875751503006,,,,,,,,,,,1,,,,,,,,,,,,,,841.7716183000011,841.7716183000011,841.7716183000011,841.7716183000011,841.7716183000011,841.9723579999991,842.1222463999875,845.8424562999862,845.8424562999862,845.8424562999862,['s'],[0.46920459999819286],,,,,,,,,,,,,,,,,,,,,,,,,,,,,,,,,,,,,,,,,,,,,,,,,,,,,,,,260012,2024-03-14_17h33.58.145,mfe_c_object,2022.2.4,59.94114977763007,
flanker_main_block_6.csv,img/rightArrow.png,img/leftArrow.png,img/leftArrow.png,7,0,right,"[0, 0]","[0.0385, 0]","[-0.0385, 0]",img/object_images/bell02.jpg,"[0.035, 0.035]",,,,,,,,,,,,,0,2,2,5,0,19,19,14,,,,,,,,,,,,,,,3.685370741482966,,,,,,,,,,,1,,,,,,,,,,,,,,845.8424562999862,845.8424562999862,845.8424562999862,845.8424562999862,845.8424562999862,846.0427624000004,846.1927536999865,849.6607613999804,849.6607613999804,849.6607613999804,['k'],[0.5028350000211503],,,,,,,,,,,,,,,,,,,,,,,,,,,,,,,,,,,,,,,,,,,,,,,,,,,,,,,,260012,2024-03-14_17h33.58.145,mfe_c_object,2022.2.4,59.94114977763007,
flanker_main_block_6.csv,img/leftArrow.png,img/rightArrow.png,img/rightArrow.png,8,0,left,"[0, 0]","[0.0385, 0]","[-0.0385, 0]",img/object_images/pen03.jpg,"[0.035, 0.035]",,,,,,,,,,,,,0,2,2,5,0,20,20,26,,,,,,,,,,,,,,,3.6402805611222444,,,,,,,,,,,0,,,,,,,,,,,,,,849.6607613999804,849.6607613999804,849.6607613999804,849.6607613999804,849.6607613999804,849.86320599998,850.0131854999927,853.4519285999995,853.4519285999995,853.4519285999995,['k'],[0.556299800024135],,,,,,,,,,,,,,,,,,,,,,,,,,,,,,,,,,,,,,,,,,,,,,,,,,,,,,,,260012,2024-03-14_17h33.58.145,mfe_c_object,2022.2.4,59.94114977763007,
flanker_main_block_6.csv,img/rightArrow.png,img/leftArrow.png,img/leftArrow.png,7,0,right,"[0, 0]","[0.0385, 0]","[-0.0385, 0]",img/object_images/crutches02.jpg,"[0.035, 0.035]",,,,,,,,,,,,,0,2,2,5,0,21,21,0,,,,,,,,,,,,,,,3.760521042084168,,,,,,,,,,,1,,,,,,,,,,,,,,853.4519285999995,853.4519285999995,853.4519285999995,853.4519285999995,853.4519285999995,853.6670411999803,853.8171212999732,857.370652099984,857.370652099984,857.370652099984,['k'],[0.4696809000161011],,,,,,,,,,,,,,,,,,,,,,,,,,,,,,,,,,,,,,,,,,,,,,,,,,,,,,,,260012,2024-03-14_17h33.58.145,mfe_c_object,2022.2.4,59.94114977763007,
flanker_main_block_6.csv,img/leftArrow.png,img/leftArrow.png,img/leftArrow.png,6,1,left,"[0, 0]","[0.0385, 0]","[-0.0385, 0]",img/object_images/cellphone01.jpg,"[0.035, 0.035]",,,,,,,,,,,,,0,2,2,5,0,22,22,20,,,,,,,,,,,,,,,3.5330661322645294,,,,,,,,,,,1,,,,,,,,,,,,,,857.370652099984,857.370652099984,857.370652099984,857.370652099984,857.370652099984,857.5709034999891,857.7209983999783,861.0406371999998,861.0406371999998,861.0406371999998,['s'],[0.45421100000385195],,,,,,,,,,,,,,,,,,,,,,,,,,,,,,,,,,,,,,,,,,,,,,,,,,,,,,,,260012,2024-03-14_17h33.58.145,mfe_c_object,2022.2.4,59.94114977763007,
flanker_main_block_6.csv,img/rightArrow.png,img/leftArrow.png,img/leftArrow.png,7,0,right,"[0, 0]","[0.0385, 0]","[-0.0385, 0]",img/object_images/chair05.jpg,"[0.035, 0.035]",,,,,,,,,,,,,0,2,2,5,0,23,23,2,,,,,,,,,,,,,,,3.932865731462926,,,,,,,,,,,1,,,,,,,,,,,,,,861.0406371999998,861.0406371999998,861.0406371999998,861.0406371999998,861.0406371999998,861.2414538999728,861.3912887999904,865.1109194999735,865.1109194999735,865.1109194999735,['k'],[0.41701750000356697],,,,,,,,,,,,,,,,,,,,,,,,,,,,,,,,,,,,,,,,,,,,,,,,,,,,,,,,260012,2024-03-14_17h33.58.145,mfe_c_object,2022.2.4,59.94114977763007,
flanker_main_block_6.csv,img/leftArrow.png,img/leftArrow.png,img/leftArrow.png,6,1,left,"[0, 0]","[0.0385, 0]","[-0.0385, 0]",img/object_images/Oven01.jpg,"[0.035, 0.035]",,,,,,,,,,,,,0,2,2,5,0,24,24,5,,,,,,,,,,,,,,,3.7665330661322645,,,,,,,,,,,1,,,,,,,,,,,,,,865.1109194999735,865.1109194999735,865.1109194999735,865.1109194999735,865.1109194999735,865.3121872999764,865.4621440999908,869.0153501999739,869.0153501999739,869.0153501999739,['s'],[0.44213169999420643],,,,,,,,,,,,,,,,,,,,,,,,,,,,,,,,,,,,,,,,,,,,,,,,,,,,,,,,260012,2024-03-14_17h33.58.145,mfe_c_object,2022.2.4,59.94114977763007,
flanker_main_block_6.csv,img/rightArrow.png,img/leftArrow.png,img/leftArrow.png,7,0,right,"[0, 0]","[0.0385, 0]","[-0.0385, 0]",img/object_images/clock02.jpg,"[0.035, 0.035]",,,,,,,,,,,,,0,2,2,5,0,25,25,7,,,,,,,,,,,,,,,3.827655310621242,,,,,,,,,,,1,,,,,,,,,,,,,,869.0153501999739,869.0153501999739,869.0153501999739,869.0153501999739,869.0153501999739,869.2160153999866,869.3658198999765,872.9839481999807,872.9839481999807,872.9839481999807,['k'],[0.48977230000309646],,,,,,,,,,,,,,,,,,,,,,,,,,,,,,,,,,,,,,,,,,,,,,,,,,,,,,,,260012,2024-03-14_17h33.58.145,mfe_c_object,2022.2.4,59.94114977763007,
flanker_main_block_6.csv,img/leftArrow.png,img/leftArrow.png,img/leftArrow.png,6,1,left,"[0, 0]","[0.0385, 0]","[-0.0385, 0]",img/object_images/hammer03.jpg,"[0.035, 0.035]",,,,,,,,,,,,,0,2,2,5,0,26,26,11,,,,,,,,,,,,,,,3.6753507014028055,,,,,,,,,,,1,,,,,,,,,,,,,,872.9839481999807,872.9839481999807,872.9839481999807,872.9839481999807,872.9839481999807,873.186624599999,873.3364771999768,876.8236212999909,876.8236212999909,876.8236212999909,['s'],[0.4729036000207998],,,,,,,,,,,,,,,,,,,,,,,,,,,,,,,,,,,,,,,,,,,,,,,,,,,,,,,,260012,2024-03-14_17h33.58.145,mfe_c_object,2022.2.4,59.94114977763007,
flanker_main_block_6.csv,img/leftArrow.png,img/rightArrow.png,img/rightArrow.png,8,0,left,"[0, 0]","[0.0385, 0]","[-0.0385, 0]",img/object_images/Thermometer01.jpg,"[0.035, 0.035]",,,,,,,,,,,,,0,2,2,5,0,27,27,13,,,,,,,,,,,,,,,3.539078156312625,,,,,,,,,,,1,,,,,,,,,,,,,,876.8236212999909,876.8236212999909,876.8236212999909,876.8236212999909,876.8236212999909,877.0237380999897,877.1735837999731,880.5081831999996,880.5081831999996,880.5081831999996,['s'],[0.5530430000217166],,,,,,,,,,,,,,,,,,,,,,,,,,,,,,,,,,,,,,,,,,,,,,,,,,,,,,,,260012,2024-03-14_17h33.58.145,mfe_c_object,2022.2.4,59.94114977763007,
flanker_main_block_6.csv,img/leftArrow.png,img/rightArrow.png,img/rightArrow.png,8,0,left,"[0, 0]","[0.0385, 0]","[-0.0385, 0]",img/object_images/tv02.jpg,"[0.035, 0.035]",,,,,,,,,,,,,0,2,2,5,0,28,28,18,,,,,,,,,,,,,,,3.970941883767535,,,,,,,,,,,0,,,,,,,,,,,,,,880.5081831999996,880.5081831999996,880.5081831999996,880.5081831999996,880.5081831999996,880.7109564999992,880.8609823999868,884.611531099974,884.611531099974,884.611531099974,['k'],[0.3333496999985073],,,,,,,,,,,,,,,,,,,,,,,,,,,,,,,,,,,,,,,,,,,,,,,,,,,,,,,,260012,2024-03-14_17h33.58.145,mfe_c_object,2022.2.4,59.94114977763007,
flanker_main_block_6.csv,img/leftArrow.png,img/leftArrow.png,img/leftArrow.png,6,1,left,"[0, 0]","[0.0385, 0]","[-0.0385, 0]",img/object_images/tennis_racket02.jpg,"[0.035, 0.035]",,,,,,,,,,,,,0,2,2,5,0,29,29,10,,,,,,,,,,,,,,,3.808617234468938,,,,,,,,,,,1,,,,,,,,,,,,,,884.611531099974,884.611531099974,884.611531099974,884.611531099974,884.611531099974,884.814988899976,884.9649025999825,888.5631186999963,888.5631186999963,888.5631186999963,['s'],[1.1649075000023004],,,,,,,,,,,,,,,,,,,,,,,,,,,,,,,,,,,,,,,,,,,,,,,,,,,,,,,,260012,2024-03-14_17h33.58.145,mfe_c_object,2022.2.4,59.94114977763007,
flanker_main_block_6.csv,img/leftArrow.png,img/rightArrow.png,img/rightArrow.png,8,0,left,"[0, 0]","[0.0385, 0]","[-0.0385, 0]",img/object_images/usb02.jpg,"[0.035, 0.035]",,,,,,,,,,,,,0,2,2,5,0,30,30,25,,,,,,,,,,,,,,,3.986973947895792,,,,,,,,,,,1,,,,,,,,,,,,,,888.5631186999963,888.5631186999963,888.5691159999988,888.5631186999963,888.5631186999963,888.768926299992,888.9187539999839,892.688354199985,892.688354199985,892.688354199985,['s'],[0.5418378000031225],,,,,,,,,,,,,,,,,,,,,,,,,,,,,,,,,,,,,,,,,,,,,,,,,,,,,,,,260012,2024-03-14_17h33.58.145,mfe_c_object,2022.2.4,59.94114977763007,
flanker_main_block_6.csv,img/rightArrow.png,img/rightArrow.png,img/rightArrow.png,5,1,right,"[0, 0]","[0.0385, 0]","[-0.0385, 0]",img/object_images/lid01.jpg,"[0.035, 0.035]",,,,,,,,,,,,,0,2,2,5,0,31,31,23,,,,,,,,,,,,,,,3.853707414829659,,,,,,,,,,,1,,,,,,,,,,,,,,892.688354199985,892.688354199985,892.688354199985,892.688354199985,892.688354199985,892.8895842999918,893.0397021999815,896.5494443999778,896.5494443999778,896.5494443999778,['k'],[0.4967936000030022],,,,,,,,,,,,,,,,,,,,,,,,,,,,,,,,,,,,,,,,,,,,,,,,,,,,,,,,260012,2024-03-14_17h33.58.145,mfe_c_object,2022.2.4,59.94114977763007,
flanker_main_block_6.csv,,,,,,,,,,,,,,,,,,,,,,,,0,2,2,5,,,,,,,,,,,,,,,,,,,,,,,,,,,,,,,,,,,,,,,,,,,,,,,,,,,,,,,,1,896.5494443999778,906.5352428999904,k,0.5378293999820016,,,,,,,,,,,,,,,,,,,,,,,,,,,,,,,,,,,,,,,,,,,,,,,,,,,260012,2024-03-14_17h33.58.145,mfe_c_object,2022.2.4,59.94114977763007,
flanker_main_block_9.csv,img/leftArrow.png,img/rightArrow.png,img/rightArrow.png,8,0,left,"[0, 0]","[0.0385, 0]","[-0.0385, 0]",img/object_images/stereo02.jpg,"[0.035, 0.035]",,,,,,,,,,,,,0,3,3,8,0,0,0,6,,,,,,,,,,,,,,911.6771828999917,3.7274549098196395,,,,,,,,,,,1,,,,,,,,,,907.1027600999805,907.1027600999805,k,4.538597900012974,913.8508978999744,913.8508978999744,913.8508978999744,913.8508978999744,913.8508978999744,914.060685799981,914.210814399994,917.7118686999893,917.7118686999893,917.7118686999893,['s'],[0.6215286999940872],,,,,,,,,,,,,,,,,,,,,,,,,,,,,,,,,,,,,,,,,,,,,,,,,,,,,,,,260012,2024-03-14_17h33.58.145,mfe_c_object,2022.2.4,59.94114977763007,
flanker_main_block_9.csv,img/leftArrow.png,img/rightArrow.png,img/rightArrow.png,8,0,left,"[0, 0]","[0.0385, 0]","[-0.0385, 0]",img/object_images/knife02.jpg,"[0.035, 0.035]",,,,,,,,,,,,,0,3,3,8,0,1,1,17,,,,,,,,,,,,,,,3.6222444889779557,,,,,,,,,,,1,,,,,,,,,,,,,,917.7118686999893,917.7118686999893,917.7118686999893,917.7118686999893,917.7118686999893,917.9143830999965,918.0645058999944,921.467037800001,921.467037800001,921.467037800001,['s'],[0.5607428000075743],,,,,,,,,,,,,,,,,,,,,,,,,,,,,,,,,,,,,,,,,,,,,,,,,,,,,,,,260012,2024-03-14_17h33.58.145,mfe_c_object,2022.2.4,59.94114977763007,
flanker_main_block_9.csv,img/leftArrow.png,img/leftArrow.png,img/leftArrow.png,6,1,left,"[0, 0]","[0.0385, 0]","[-0.0385, 0]",img/object_images/knit04.jpg,"[0.035, 0.035]",,,,,,,,,,,,,0,3,3,8,0,2,2,5,,,,,,,,,,,,,,,3.882765531062124,,,,,,,,,,,1,,,,,,,,,,,,,,921.467037800001,921.467037800001,921.467037800001,921.467037800001,921.467037800001,921.6683298999851,921.8185866999847,925.5015837999817,925.5015837999817,925.5015837999817,['s'],[0.4463261000055354],,,,,,,,,,,,,,,,,,,,,,,,,,,,,,,,,,,,,,,,,,,,,,,,,,,,,,,,260012,2024-03-14_17h33.58.145,mfe_c_object,2022.2.4,59.94114977763007,
flanker_main_block_9.csv,img/leftArrow.png,img/rightArrow.png,img/rightArrow.png,8,0,left,"[0, 0]","[0.0385, 0]","[-0.0385, 0]",img/object_images/hand_grip_exerciser01.jpg,"[0.035, 0.035]",,,,,,,,,,,,,0,3,3,8,0,3,3,30,,,,,,,,,,,,,,,3.986973947895792,,,,,,,,,,,1,,,,,,,,,,,,,,925.5015837999817,925.5015837999817,925.5015837999817,925.5015837999817,925.5015837999817,925.7057002999936,925.8555989000015,929.6251972999889,929.6251972999889,929.6251972999889,['s'],[0.36401330001535825],,,,,,,,,,,,,,,,,,,,,,,,,,,,,,,,,,,,,,,,,,,,,,,,,,,,,,,,260012,2024-03-14_17h33.58.145,mfe_c_object,2022.2.4,59.94114977763007,
flanker_main_block_9.csv,img/leftArrow.png,img/rightArrow.png,img/rightArrow.png,8,0,left,"[0, 0]","[0.0385, 0]","[-0.0385, 0]",img/object_images/dresser03.jpg,"[0.035, 0.035]",,,,,,,,,,,,,0,3,3,8,0,4,4,8,,,,,,,,,,,,,,,3.7715430861723447,,,,,,,,,,,1,,,,,,,,,,,,,,929.6251972999889,929.6251972999889,929.6251972999889,929.6251972999889,929.6251972999889,929.8266125999799,929.9765879999904,933.5245755999931,933.5245755999931,933.5245755999931,['s'],[0.6800059000088368],,,,,,,,,,,,,,,,,,,,,,,,,,,,,,,,,,,,,,,,,,,,,,,,,,,,,,,,260012,2024-03-14_17h33.58.145,mfe_c_object,2022.2.4,59.94114977763007,
flanker_main_block_9.csv,img/rightArrow.png,img/rightArrow.png,img/rightArrow.png,5,1,right,"[0, 0]","[0.0385, 0]","[-0.0385, 0]",img/object_images/bottle07.jpg,"[0.035, 0.035]",,,,,,,,,,,,,0,3,3,8,0,5,5,31,,,,,,,,,,,,,,,3.8296593186372747,,,,,,,,,,,1,,,,,,,,,,,,,,933.5245755999931,933.5245755999931,933.5308660999872,933.5245755999931,933.5245755999931,933.7304182999942,933.8802496999851,937.5032477999921,937.5032477999921,937.5032477999921,['k'],[0.42085670001688413],,,,,,,,,,,,,,,,,,,,,,,,,,,,,,,,,,,,,,,,,,,,,,,,,,,,,,,,260012,2024-03-14_17h33.58.145,mfe_c_object,2022.2.4,59.94114977763007,
flanker_main_block_9.csv,img/rightArrow.png,img/leftArrow.png,img/leftArrow.png,7,0,right,"[0, 0]","[0.0385, 0]","[-0.0385, 0]",img/object_images/flashlight03.jpg,"[0.035, 0.035]",,,,,,,,,,,,,0,3,3,8,0,6,6,7,,,,,,,,,,,,,,,3.8076152304609217,,,,,,,,,,,1,,,,,,,,,,,,,,937.5032477999921,937.5032477999921,937.5032477999921,937.5032477999921,937.5032477999921,937.7175601999916,937.8674847999937,941.4532561999804,941.4532561999804,941.4532561999804,['k'],[0.4492466000083368],,,,,,,,,,,,,,,,,,,,,,,,,,,,,,,,,,,,,,,,,,,,,,,,,,,,,,,,260012,2024-03-14_17h33.58.145,mfe_c_object,2022.2.4,59.94114977763007,
flanker_main_block_9.csv,img/leftArrow.png,img/leftArrow.png,img/leftArrow.png,6,1,left,"[0, 0]","[0.0385, 0]","[-0.0385, 0]",img/object_images/blender02.jpg,"[0.035, 0.035]",,,,,,,,,,,,,0,3,3,8,0,7,7,29,,,,,,,,,,,,,,,3.642284569138276,,,,,,,,,,,1,,,,,,,,,,,,,,941.4532561999804,941.4532561999804,941.4532561999804,941.4532561999804,941.4532561999804,941.6551571999735,941.8047542999848,945.2417270999867,945.2417270999867,945.2417270999867,['s'],[0.5241963999869768],,,,,,,,,,,,,,,,,,,,,,,,,,,,,,,,,,,,,,,,,,,,,,,,,,,,,,,,260012,2024-03-14_17h33.58.145,mfe_c_object,2022.2.4,59.94114977763007,
flanker_main_block_9.csv,img/leftArrow.png,img/rightArrow.png,img/rightArrow.png,8,0,left,"[0, 0]","[0.0385, 0]","[-0.0385, 0]",img/object_images/mail_box01.jpg,"[0.035, 0.035]",,,,,,,,,,,,,0,3,3,8,0,8,8,20,,,,,,,,,,,,,,,3.965931863727455,,,,,,,,,,,1,,,,,,,,,,,,,,945.2417270999867,945.2417270999867,945.2417270999867,945.2417270999867,945.2417270999867,945.4419937999919,945.5921477999946,949.3397628999955,949.3397628999955,949.3397628999955,['s'],[0.5908681000000797],,,,,,,,,,,,,,,,,,,,,,,,,,,,,,,,,,,,,,,,,,,,,,,,,,,,,,,,260012,2024-03-14_17h33.58.145,mfe_c_object,2022.2.4,59.94114977763007,
flanker_main_block_9.csv,img/rightArrow.png,img/rightArrow.png,img/rightArrow.png,5,1,right,"[0, 0]","[0.0385, 0]","[-0.0385, 0]",img/object_images/shower_head01.jpg,"[0.035, 0.035]",,,,,,,,,,,,,0,3,3,8,0,9,9,2,,,,,,,,,,,,,,,3.504008016032064,,,,,,,,,,,1,,,,,,,,,,,,,,949.3397628999955,949.3397628999955,949.346006799984,949.3397628999955,949.3397628999955,949.5461345999793,949.6960649999965,952.9765121999953,952.9765121999953,952.9765121999953,['k'],[0.7013810999924317],,,,,,,,,,,,,,,,,,,,,,,,,,,,,,,,,,,,,,,,,,,,,,,,,,,,,,,,260012,2024-03-14_17h33.58.145,mfe_c_object,2022.2.4,59.94114977763007,
flanker_main_block_9.csv,img/rightArrow.png,img/rightArrow.png,img/rightArrow.png,5,1,right,"[0, 0]","[0.0385, 0]","[-0.0385, 0]",img/object_images/video_game01.jpg,"[0.035, 0.035]",,,,,,,,,,,,,0,3,3,8,0,10,10,21,,,,,,,,,,,,,,,3.570140280561122,,,,,,,,,,,1,,,,,,,,,,,,,,952.9765121999953,952.9765121999953,952.9827351999993,952.9765121999953,952.9765121999953,953.1830033999868,953.333006699977,956.6841758999799,956.6841758999799,956.6841758999799,['k'],[0.648259900015546],,,,,,,,,,,,,,,,,,,,,,,,,,,,,,,,,,,,,,,,,,,,,,,,,,,,,,,,260012,2024-03-14_17h33.58.145,mfe_c_object,2022.2.4,59.94114977763007,
flanker_main_block_9.csv,img/rightArrow.png,img/rightArrow.png,img/rightArrow.png,5,1,right,"[0, 0]","[0.0385, 0]","[-0.0385, 0]",img/object_images/remote_controller01.jpg,"[0.035, 0.035]",,,,,,,,,,,,,0,3,3,8,0,11,11,18,,,,,,,,,,,,,,,3.760521042084168,,,,,,,,,,,1,,,,,,,,,,,,,,956.6841758999799,956.6841758999799,956.6841758999799,956.6841758999799,956.6841758999799,956.8869310999871,957.0367201999761,960.5891220999765,960.5891220999765,960.5891220999765,['k'],[0.4364513000182342],,,,,,,,,,,,,,,,,,,,,,,,,,,,,,,,,,,,,,,,,,,,,,,,,,,,,,,,260012,2024-03-14_17h33.58.145,mfe_c_object,2022.2.4,59.94114977763007,
flanker_main_block_9.csv,img/leftArrow.png,img/leftArrow.png,img/leftArrow.png,6,1,left,"[0, 0]","[0.0385, 0]","[-0.0385, 0]",img/object_images/Statue01.jpg,"[0.035, 0.035]",,,,,,,,,,,,,0,3,3,8,0,12,12,19,,,,,,,,,,,,,,,3.9278557114228456,,,,,,,,,,,1,,,,,,,,,,,,,,960.5891220999765,960.5891220999765,960.5891220999765,960.5891220999765,960.5891220999765,960.7906041999813,960.9404366999806,964.6785162999877,964.6785162999877,964.6785162999877,['s'],[0.4366636000049766],,,,,,,,,,,,,,,,,,,,,,,,,,,,,,,,,,,,,,,,,,,,,,,,,,,,,,,,260012,2024-03-14_17h33.58.145,mfe_c_object,2022.2.4,59.94114977763007,
flanker_main_block_9.csv,img/rightArrow.png,img/leftArrow.png,img/leftArrow.png,7,0,right,"[0, 0]","[0.0385, 0]","[-0.0385, 0]",img/object_images/boat04.jpg,"[0.035, 0.035]",,,,,,,,,,,,,0,3,3,8,0,13,13,27,,,,,,,,,,,,,,,3.9899799599198396,,,,,,,,,,,1,,,,,,,,,,,,,,964.6785162999877,964.6785162999877,964.6785162999877,964.6785162999877,964.6785162999877,964.8785377999884,965.028133099986,968.833982399985,968.833982399985,968.833982399985,['k'],[0.7140347000095062],,,,,,,,,,,,,,,,,,,,,,,,,,,,,,,,,,,,,,,,,,,,,,,,,,,,,,,,260012,2024-03-14_17h33.58.145,mfe_c_object,2022.2.4,59.94114977763007,
flanker_main_block_9.csv,img/leftArrow.png,img/leftArrow.png,img/leftArrow.png,6,1,left,"[0, 0]","[0.0385, 0]","[-0.0385, 0]",img/object_images/phone02.jpg,"[0.035, 0.035]",,,,,,,,,,,,,0,3,3,8,0,14,14,1,,,,,,,,,,,,,,,3.5440881763527052,,,,,,,,,,,1,,,,,,,,,,,,,,968.833982399985,968.833982399985,968.833982399985,968.833982399985,968.833982399985,969.0489304999937,969.1990914999915,972.5138068999804,972.5138068999804,972.5138068999804,['s'],[0.5832748000102583],,,,,,,,,,,,,,,,,,,,,,,,,,,,,,,,,,,,,,,,,,,,,,,,,,,,,,,,260012,2024-03-14_17h33.58.145,mfe_c_object,2022.2.4,59.94114977763007,
flanker_main_block_9.csv,img/rightArrow.png,img/leftArrow.png,img/leftArrow.png,7,0,right,"[0, 0]","[0.0385, 0]","[-0.0385, 0]",img/object_images/toy08.jpg,"[0.035, 0.035]",,,,,,,,,,,,,0,3,3,8,0,15,15,0,,,,,,,,,,,,,,,3.513026052104208,,,,,,,,,,,1,,,,,,,,,,,,,,972.5138068999804,972.5138068999804,972.5200621999975,972.5138068999804,972.5138068999804,972.7191622999962,972.8692124999943,976.167077399994,976.167077399994,976.167077399994,['k'],[0.47974219999741763],,,,,,,,,,,,,,,,,,,,,,,,,,,,,,,,,,,,,,,,,,,,,,,,,,,,,,,,260012,2024-03-14_17h33.58.145,mfe_c_object,2022.2.4,59.94114977763007,
flanker_main_block_9.csv,img/rightArrow.png,img/rightArrow.png,img/rightArrow.png,5,1,right,"[0, 0]","[0.0385, 0]","[-0.0385, 0]",img/object_images/car01.jpg,"[0.035, 0.035]",,,,,,,,,,,,,0,3,3,8,0,16,16,9,,,,,,,,,,,,,,,3.650300601202405,,,,,,,,,,,1,,,,,,,,,,,,,,976.167077399994,976.167077399994,976.1731371999776,976.167077399994,976.167077399994,976.3728750000009,976.5230560999771,979.9584086999821,979.9584086999821,979.9584086999821,['k'],[0.38575800001854077],,,,,,,,,,,,,,,,,,,,,,,,,,,,,,,,,,,,,,,,,,,,,,,,,,,,,,,,260012,2024-03-14_17h33.58.145,mfe_c_object,2022.2.4,59.94114977763007,
flanker_main_block_9.csv,img/rightArrow.png,img/rightArrow.png,img/rightArrow.png,5,1,right,"[0, 0]","[0.0385, 0]","[-0.0385, 0]",img/object_images/keyboard02.jpg,"[0.035, 0.035]",,,,,,,,,,,,,0,3,3,8,0,17,17,10,,,,,,,,,,,,,,,3.536072144288577,,,,,,,,,,,1,,,,,,,,,,,,,,979.9584086999821,979.9584086999821,979.9584086999821,979.9584086999821,979.9584086999821,980.160135299986,980.309886699979,983.6282689999789,983.6282689999789,983.6282689999789,['k'],[0.3700200000021141],,,,,,,,,,,,,,,,,,,,,,,,,,,,,,,,,,,,,,,,,,,,,,,,,,,,,,,,260012,2024-03-14_17h33.58.145,mfe_c_object,2022.2.4,59.94114977763007,
flanker_main_block_9.csv,img/leftArrow.png,img/leftArrow.png,img/leftArrow.png,6,1,left,"[0, 0]","[0.0385, 0]","[-0.0385, 0]",img/object_images/paper_cup02.jpg,"[0.035, 0.035]",,,,,,,,,,,,,0,3,3,8,0,18,18,25,,,,,,,,,,,,,,,3.688376753507014,,,,,,,,,,,1,,,,,,,,,,,,,,983.6282689999789,983.6282689999789,983.6282689999789,983.6282689999789,983.6282689999789,983.8304172999924,983.9803182999894,987.461713799974,987.461713799974,987.461713799974,['s'],[0.42863059998489916],,,,,,,,,,,,,,,,,,,,,,,,,,,,,,,,,,,,,,,,,,,,,,,,,,,,,,,,260012,2024-03-14_17h33.58.145,mfe_c_object,2022.2.4,59.94114977763007,
flanker_main_block_9.csv,img/leftArrow.png,img/leftArrow.png,img/leftArrow.png,6,1,left,"[0, 0]","[0.0385, 0]","[-0.0385, 0]",img/object_images/remover01.jpg,"[0.035, 0.035]",,,,,,,,,,,,,0,3,3,8,0,19,19,22,,,,,,,,,,,,,,,3.937875751503006,,,,,,,,,,,1,,,,,,,,,,,,,,987.461713799974,987.461713799974,987.461713799974,987.461713799974,987.461713799974,987.6675045999873,987.8174666999839,991.5653160999937,991.5653160999937,991.5653160999937,['s'],[0.3952491999953054],,,,,,,,,,,,,,,,,,,,,,,,,,,,,,,,,,,,,,,,,,,,,,,,,,,,,,,,260012,2024-03-14_17h33.58.145,mfe_c_object,2022.2.4,59.94114977763007,
flanker_main_block_9.csv,img/leftArrow.png,img/leftArrow.png,img/leftArrow.png,6,1,left,"[0, 0]","[0.0385, 0]","[-0.0385, 0]",img/object_images/basket04.jpg,"[0.035, 0.035]",,,,,,,,,,,,,0,3,3,8,0,20,20,4,,,,,,,,,,,,,,,3.9308617234468937,,,,,,,,,,,0,,,,,,,,,,,,,,991.5653160999937,991.5653160999937,991.5653160999937,991.5653160999937,991.5653160999937,991.7716591999924,991.9217167999886,995.6392385999789,995.6392385999789,995.6392385999789,"['k', 's']","[0.46799919998738915, 0.47680400000535883]",,,,,,,,,,,,,,,,,,,,,,,,,,,,,,,,,,,,,,,,,,,,,,,,,,,,,,,,260012,2024-03-14_17h33.58.145,mfe_c_object,2022.2.4,59.94114977763007,
flanker_main_block_9.csv,img/rightArrow.png,img/leftArrow.png,img/leftArrow.png,7,0,right,"[0, 0]","[0.0385, 0]","[-0.0385, 0]",img/object_images/curtain02.jpg,"[0.035, 0.035]",,,,,,,,,,,,,0,3,3,8,0,21,21,3,,,,,,,,,,,,,,,3.7354709418837673,,,,,,,,,,,0,,,,,,,,,,,,,,995.6392385999789,995.6392385999789,995.6392385999789,995.6392385999789,995.6392385999789,995.8423098999774,995.9921404999914,999.5158406999835,999.5158406999835,999.5158406999835,['s'],[0.4349037000210956],,,,,,,,,,,,,,,,,,,,,,,,,,,,,,,,,,,,,,,,,,,,,,,,,,,,,,,,260012,2024-03-14_17h33.58.145,mfe_c_object,2022.2.4,59.94114977763007,
flanker_main_block_9.csv,img/rightArrow.png,img/leftArrow.png,img/leftArrow.png,7,0,right,"[0, 0]","[0.0385, 0]","[-0.0385, 0]",img/object_images/jacket04.jpg,"[0.035, 0.035]",,,,,,,,,,,,,0,3,3,8,0,22,22,28,,,,,,,,,,,,,,,3.6122244488977957,,,,,,,,,,,1,,,,,,,,,,,,,,999.5158406999835,999.5158406999835,999.5158406999835,999.5158406999835,999.5158406999835,999.7295205999981,999.8795335999748,1003.2575328999956,1003.2575328999956,1003.2575328999956,['k'],[0.44525189997511916],,,,,,,,,,,,,,,,,,,,,,,,,,,,,,,,,,,,,,,,,,,,,,,,,,,,,,,,260012,2024-03-14_17h33.58.145,mfe_c_object,2022.2.4,59.94114977763007,
flanker_main_block_9.csv,img/leftArrow.png,img/rightArrow.png,img/rightArrow.png,8,0,left,"[0, 0]","[0.0385, 0]","[-0.0385, 0]",img/object_images/backpack01.jpg,"[0.035, 0.035]",,,,,,,,,,,,,0,3,3,8,0,23,23,23,,,,,,,,,,,,,,,3.6392785571142285,,,,,,,,,,,1,,,,,,,,,,,,,,1003.2575328999956,1003.2575328999956,1003.2637160999875,1003.2575328999956,1003.2575328999956,1003.4667239999981,1003.6166803999804,1007.0426959999895,1007.0426959999895,1007.0426959999895,['s'],[0.8712776000029407],,,,,,,,,,,,,,,,,,,,,,,,,,,,,,,,,,,,,,,,,,,,,,,,,,,,,,,,260012,2024-03-14_17h33.58.145,mfe_c_object,2022.2.4,59.94114977763007,
flanker_main_block_9.csv,img/rightArrow.png,img/leftArrow.png,img/leftArrow.png,7,0,right,"[0, 0]","[0.0385, 0]","[-0.0385, 0]",img/object_images/hoverboard01.jpg,"[0.035, 0.035]",,,,,,,,,,,,,0,3,3,8,0,24,24,24,,,,,,,,,,,,,,,3.6733466933867733,,,,,,,,,,,1,,,,,,,,,,,,,,1007.0426959999895,1007.0426959999895,1007.0426959999895,1007.0426959999895,1007.0426959999895,1007.2537073999993,1007.4036112999893,1010.8576185999846,1010.8576185999846,1010.8576185999846,['k'],[0.4147962999995798],,,,,,,,,,,,,,,,,,,,,,,,,,,,,,,,,,,,,,,,,,,,,,,,,,,,,,,,260012,2024-03-14_17h33.58.145,mfe_c_object,2022.2.4,59.94114977763007,
flanker_main_block_9.csv,img/rightArrow.png,img/leftArrow.png,img/leftArrow.png,7,0,right,"[0, 0]","[0.0385, 0]","[-0.0385, 0]",img/object_images/tool18.jpg,"[0.035, 0.035]",,,,,,,,,,,,,0,3,3,8,0,25,25,26,,,,,,,,,,,,,,,3.846693386773547,,,,,,,,,,,1,,,,,,,,,,,,,,1010.8576185999846,1010.8576185999846,1010.8576185999846,1010.8576185999846,1010.8576185999846,1011.0574423999933,1011.2074340999825,1014.8650650999916,1014.8650650999916,1014.8650650999916,['k'],[0.48734870000043884],,,,,,,,,,,,,,,,,,,,,,,,,,,,,,,,,,,,,,,,,,,,,,,,,,,,,,,,260012,2024-03-14_17h33.58.145,mfe_c_object,2022.2.4,59.94114977763007,
flanker_main_block_9.csv,img/leftArrow.png,img/leftArrow.png,img/leftArrow.png,6,1,left,"[0, 0]","[0.0385, 0]","[-0.0385, 0]",img/object_images/kite01.jpg,"[0.035, 0.035]",,,,,,,,,,,,,0,3,3,8,0,26,26,15,,,,,,,,,,,,,,,3.6342685370741483,,,,,,,,,,,1,,,,,,,,,,,,,,1014.8650650999916,1014.8650650999916,1014.8650650999916,1014.8650650999916,1014.8650650999916,1015.0782063999795,1015.2281922999828,1018.6470745999832,1018.6470745999832,1018.6470745999832,['s'],[0.5996762000140734],,,,,,,,,,,,,,,,,,,,,,,,,,,,,,,,,,,,,,,,,,,,,,,,,,,,,,,,260012,2024-03-14_17h33.58.145,mfe_c_object,2022.2.4,59.94114977763007,
flanker_main_block_9.csv,img/rightArrow.png,img/rightArrow.png,img/rightArrow.png,5,1,right,"[0, 0]","[0.0385, 0]","[-0.0385, 0]",img/object_images/sponge03.jpg,"[0.035, 0.035]",,,,,,,,,,,,,0,3,3,8,0,27,27,16,,,,,,,,,,,,,,,3.995991983967936,,,,,,,,,,,1,,,,,,,,,,,,,,1018.6470745999832,1018.6470745999832,1018.6470745999832,1018.6470745999832,1018.6470745999832,1018.8486180999898,1018.9986301999888,1022.7876299999771,1022.7876299999771,1022.7876299999771,['k'],[0.586151300027268],,,,,,,,,,,,,,,,,,,,,,,,,,,,,,,,,,,,,,,,,,,,,,,,,,,,,,,,260012,2024-03-14_17h33.58.145,mfe_c_object,2022.2.4,59.94114977763007,
flanker_main_block_9.csv,img/leftArrow.png,img/rightArrow.png,img/rightArrow.png,8,0,left,"[0, 0]","[0.0385, 0]","[-0.0385, 0]",img/object_images/camera03.jpg,"[0.035, 0.035]",,,,,,,,,,,,,0,3,3,8,0,28,28,11,,,,,,,,,,,,,,,3.593186372745491,,,,,,,,,,,1,,,,,,,,,,,,,,1022.7876299999771,1022.7876299999771,1022.7876299999771,1022.7876299999771,1022.7876299999771,1023.0027760999801,1023.1528364999976,1026.5273905999784,1026.5273905999784,1026.5273905999784,['s'],[0.5088404999987688],,,,,,,,,,,,,,,,,,,,,,,,,,,,,,,,,,,,,,,,,,,,,,,,,,,,,,,,260012,2024-03-14_17h33.58.145,mfe_c_object,2022.2.4,59.94114977763007,
flanker_main_block_9.csv,img/leftArrow.png,img/rightArrow.png,img/rightArrow.png,8,0,left,"[0, 0]","[0.0385, 0]","[-0.0385, 0]",img/object_images/gloves02.jpg,"[0.035, 0.035]",,,,,,,,,,,,,0,3,3,8,0,29,29,12,,,,,,,,,,,,,,,3.672344689378758,,,,,,,,,,,1,,,,,,,,,,,,,,1026.5273905999784,1026.5273905999784,1026.5273905999784,1026.5273905999784,1026.5273905999784,1026.739815399982,1026.8896598999854,1030.353944499977,1030.353944499977,1030.353944499977,['s'],[0.5456107000063639],,,,,,,,,,,,,,,,,,,,,,,,,,,,,,,,,,,,,,,,,,,,,,,,,,,,,,,,260012,2024-03-14_17h33.58.145,mfe_c_object,2022.2.4,59.94114977763007,
flanker_main_block_9.csv,img/rightArrow.png,img/leftArrow.png,img/leftArrow.png,7,0,right,"[0, 0]","[0.0385, 0]","[-0.0385, 0]",img/object_images/matches02.jpg,"[0.035, 0.035]",,,,,,,,,,,,,0,3,3,8,0,30,30,13,,,,,,,,,,,,,,,3.566132264529058,,,,,,,,,,,1,,,,,,,,,,,,,,1030.353944499977,1030.353944499977,1030.353944499977,1030.353944499977,1030.353944499977,1030.5604883999913,1030.710261100001,1034.072276299994,1034.072276299994,1034.072276299994,['k'],[0.47137389998533763],,,,,,,,,,,,,,,,,,,,,,,,,,,,,,,,,,,,,,,,,,,,,,,,,,,,,,,,260012,2024-03-14_17h33.58.145,mfe_c_object,2022.2.4,59.94114977763007,
flanker_main_block_9.csv,img/rightArrow.png,img/rightArrow.png,img/rightArrow.png,5,1,right,"[0, 0]","[0.0385, 0]","[-0.0385, 0]",img/object_images/knit03.jpg,"[0.035, 0.035]",,,,,,,,,,,,,0,3,3,8,0,31,31,14,,,,,,,,,,,,,,,3.9849699398797593,,,,,,,,,,,1,,,,,,,,,,,,,,1034.072276299994,1034.072276299994,1034.072276299994,1034.072276299994,1034.072276299994,1034.2807298999978,1034.4305755999812,1038.0666188999894,1038.0666188999894,1038.0666188999894,['k'],[0.3934904999914579],,,,,,,,,,,,,,,,,,,,,,,,,,,,,,,,,,,,,,,,,,,,,,,,,,,,,,,,260012,2024-03-14_17h33.58.145,mfe_c_object,2022.2.4,59.94114977763007,
flanker_main_block_9.csv,,,,,,,,,,,,,,,,,,,,,,,,0,3,3,8,,,,,,,,,,,,,,,,,,,,,,,,,,,,,,,,,,,,,,,,,,,,,,,,,,,,,,,,2,1038.0666188999894,1048.0599547999736,k,0.5096723999886308,,,,,,,,,,,,,,,,,,,,,,,,,,,,,,,,,,,,,,,,,,,,,,,,,,,260012,2024-03-14_17h33.58.145,mfe_c_object,2022.2.4,59.94114977763007,
flanker_main_block_12.csv,img/leftArrow.png,img/rightArrow.png,img/rightArrow.png,8,0,left,"[0, 0]","[0.0385, 0]","[-0.0385, 0]",img/object_images/soap03.jpg,"[0.035, 0.035]",,,,,,,,,,,,,0,4,4,11,0,0,0,12,,,,,,,,,,,,,,1053.053012599994,3.5731462925851702,,,,,,,,,,,1,,,,,,,,,,1048.593944799999,1048.593944799999,k,4.430438600014895,1055.2277665000001,1055.2277665000001,1055.2277665000001,1055.2277665000001,1055.2277665000001,1055.4352080999815,1055.5850770999969,1058.9365686999809,1058.9365686999809,1058.9365686999809,['s'],[0.6047100000141654],,,,,,,,,,,,,,,,,,,,,,,,,,,,,,,,,,,,,,,,,,,,,,,,,,,,,,,,260012,2024-03-14_17h33.58.145,mfe_c_object,2022.2.4,59.94114977763007,
flanker_main_block_12.csv,img/leftArrow.png,img/rightArrow.png,img/rightArrow.png,8,0,left,"[0, 0]","[0.0385, 0]","[-0.0385, 0]",img/object_images/Trowel01.jpg,"[0.035, 0.035]",,,,,,,,,,,,,0,4,4,11,0,1,1,27,,,,,,,,,,,,,,,3.775551102204409,,,,,,,,,,,1,,,,,,,,,,,,,,1058.9365686999809,1058.9365686999809,1058.9365686999809,1058.9365686999809,1058.9365686999809,1059.1388460999879,1059.2887751999951,1062.8644836999883,1062.8644836999883,1062.8644836999883,['s'],[0.5201408000139054],,,,,,,,,,,,,,,,,,,,,,,,,,,,,,,,,,,,,,,,,,,,,,,,,,,,,,,,260012,2024-03-14_17h33.58.145,mfe_c_object,2022.2.4,59.94114977763007,
flanker_main_block_12.csv,img/leftArrow.png,img/leftArrow.png,img/leftArrow.png,6,1,left,"[0, 0]","[0.0385, 0]","[-0.0385, 0]",img/object_images/floss02.jpg,"[0.035, 0.035]",,,,,,,,,,,,,0,4,4,11,0,2,2,20,,,,,,,,,,,,,,,3.7745490981963927,,,,,,,,,,,1,,,,,,,,,,,,,,1062.8644836999883,1062.8644836999883,1062.8644836999883,1062.8644836999883,1062.8644836999883,1063.076197699993,1063.2260329999845,1066.7756966000015,1066.7756966000015,1066.7756966000015,['s'],[0.3840275999973528],,,,,,,,,,,,,,,,,,,,,,,,,,,,,,,,,,,,,,,,,,,,,,,,,,,,,,,,260012,2024-03-14_17h33.58.145,mfe_c_object,2022.2.4,59.94114977763007,
flanker_main_block_12.csv,img/rightArrow.png,img/rightArrow.png,img/rightArrow.png,5,1,right,"[0, 0]","[0.0385, 0]","[-0.0385, 0]",img/object_images/computer_mouse01.jpg,"[0.035, 0.035]",,,,,,,,,,,,,0,4,4,11,0,3,3,21,,,,,,,,,,,,,,,3.6092184368737477,,,,,,,,,,,1,,,,,,,,,,,,,,1066.7756966000015,1066.7756966000015,1066.7756966000015,1066.7756966000015,1066.7756966000015,1066.9798846999765,1067.129770999978,1070.5318738999777,1070.5318738999777,1070.5318738999777,['k'],[0.33751079998910427],,,,,,,,,,,,,,,,,,,,,,,,,,,,,,,,,,,,,,,,,,,,,,,,,,,,,,,,260012,2024-03-14_17h33.58.145,mfe_c_object,2022.2.4,59.94114977763007,
flanker_main_block_12.csv,img/leftArrow.png,img/leftArrow.png,img/leftArrow.png,6,1,left,"[0, 0]","[0.0385, 0]","[-0.0385, 0]",img/object_images/hair_brush01.jpg,"[0.035, 0.035]",,,,,,,,,,,,,0,4,4,11,0,4,4,17,,,,,,,,,,,,,,,3.5460921843687374,,,,,,,,,,,1,,,,,,,,,,,,,,1070.5318738999777,1070.5318738999777,1070.5318738999777,1070.5318738999777,1070.5318738999777,1070.7338691999903,1070.883745899977,1074.2225584999833,1074.2225584999833,1074.2225584999833,['s'],[0.3645539999997709],,,,,,,,,,,,,,,,,,,,,,,,,,,,,,,,,,,,,,,,,,,,,,,,,,,,,,,,260012,2024-03-14_17h33.58.145,mfe_c_object,2022.2.4,59.94114977763007,
flanker_main_block_12.csv,img/leftArrow.png,img/leftArrow.png,img/leftArrow.png,6,1,left,"[0, 0]","[0.0385, 0]","[-0.0385, 0]",img/object_images/video_game03.jpg,"[0.035, 0.035]",,,,,,,,,,,,,0,4,4,11,0,5,5,0,,,,,,,,,,,,,,,3.517034068136273,,,,,,,,,,,1,,,,,,,,,,,,,,1074.2225584999833,1074.2225584999833,1074.2225584999833,1074.2225584999833,1074.2225584999833,1074.4374038999958,1074.5874568999861,1077.9087833999947,1077.9087833999947,1077.9087833999947,['s'],[0.3786132999812253],,,,,,,,,,,,,,,,,,,,,,,,,,,,,,,,,,,,,,,,,,,,,,,,,,,,,,,,260012,2024-03-14_17h33.58.145,mfe_c_object,2022.2.4,59.94114977763007,
flanker_main_block_12.csv,img/rightArrow.png,img/rightArrow.png,img/rightArrow.png,5,1,right,"[0, 0]","[0.0385, 0]","[-0.0385, 0]",img/object_images/drone01.jpg,"[0.035, 0.035]",,,,,,,,,,,,,0,4,4,11,0,6,6,6,,,,,,,,,,,,,,,3.8016032064128256,,,,,,,,,,,1,,,,,,,,,,,,,,1077.9087833999947,1077.9087833999947,1077.9087833999947,1077.9087833999947,1077.9087833999947,1078.1244630999863,1078.2576738999924,1081.8465723999834,1081.8465723999834,1081.8465723999834,['k'],[0.4841669999877922],,,,,,,,,,,,,,,,,,,,,,,,,,,,,,,,,,,,,,,,,,,,,,,,,,,,,,,,260012,2024-03-14_17h33.58.145,mfe_c_object,2022.2.4,59.94114977763007,
flanker_main_block_12.csv,img/rightArrow.png,img/leftArrow.png,img/leftArrow.png,7,0,right,"[0, 0]","[0.0385, 0]","[-0.0385, 0]",img/object_images/computer_mouse02.jpg,"[0.035, 0.035]",,,,,,,,,,,,,0,4,4,11,0,7,7,26,,,,,,,,,,,,,,,3.809619238476954,,,,,,,,,,,1,,,,,,,,,,,,,,1081.8465723999834,1081.8465723999834,1081.8465723999834,1081.8465723999834,1081.8465723999834,1082.061753899994,1082.211615099979,1086.0292037999898,1086.0292037999898,1086.0292037999898,['k'],[0.5866357999911997],,,,,,,,,,,,,,,,,,,,,,,,,,,,,,,,,,,,,,,,,,,,,,,,,,,,,,,,260012,2024-03-14_17h33.58.145,mfe_c_object,2022.2.4,59.94114977763007,
flanker_main_block_12.csv,img/leftArrow.png,img/rightArrow.png,img/rightArrow.png,8,0,left,"[0, 0]","[0.0385, 0]","[-0.0385, 0]",img/object_images/couch01.jpg,"[0.035, 0.035]",,,,,,,,,,,,,0,4,4,11,0,8,8,4,,,,,,,,,,,,,,,3.711422845691383,,,,,,,,,,,1,,,,,,,,,,,,,,1086.0292037999898,1086.0292037999898,1086.0292037999898,1086.0292037999898,1086.0292037999898,1086.2326870999823,1086.3834053999744,1089.8877868999843,1089.8877868999843,1089.8877868999843,['s'],[0.5405480999907013],,,,,,,,,,,,,,,,,,,,,,,,,,,,,,,,,,,,,,,,,,,,,,,,,,,,,,,,260012,2024-03-14_17h33.58.145,mfe_c_object,2022.2.4,59.94114977763007,
flanker_main_block_12.csv,img/rightArrow.png,img/rightArrow.png,img/rightArrow.png,5,1,right,"[0, 0]","[0.0385, 0]","[-0.0385, 0]",img/object_images/scarf01.jpg,"[0.035, 0.035]",,,,,,,,,,,,,0,4,4,11,0,9,9,2,,,,,,,,,,,,,,,3.717434869739479,,,,,,,,,,,1,,,,,,,,,,,,,,1089.8877868999843,1089.8877868999843,1089.8877868999843,1089.8877868999843,1089.8877868999843,1090.103200499987,1090.2530942999874,1093.7361614999827,1093.7361614999827,1093.7361614999827,['k'],[0.3526891000219621],,,,,,,,,,,,,,,,,,,,,,,,,,,,,,,,,,,,,,,,,,,,,,,,,,,,,,,,260012,2024-03-14_17h33.58.145,mfe_c_object,2022.2.4,59.94114977763007,
