"participant_id","object","surpAcc","memory_surp_responses","memory_surp_rt","keep_surp_memory_trial_based_on_rt","surp_block_num","exclude_block","number_of_surp_resp_items_used","num_blocks_excluded"
"260059","img/object_images/Vest02.jpg","0","k","1.31883130036294",1,1,0,2,0
"260059","img/object_images/knife01.jpg","0","s","1.20088500063866",1,1,0,2,0
"260059","img/object_images/WoodBox01.jpg","0","k","1.1286766002886",1,1,0,2,0
"260059","img/object_images/matches02.jpg","0","k","1.01102950051427",1,1,0,2,0
"260059","img/object_images/microphone03.jpg","0","s","1.01012920029461",1,1,0,2,0
"260059","img/object_images/bottle05.jpg","0","k","1.02074620034546",1,1,0,2,0
"260059","img/object_images/broom01.jpg","1","k","0.812448000535369",1,1,0,2,0
"260059","img/object_images/shower_head01.jpg","1","s","1.21629350027069",1,1,0,2,0
"260059","img/object_images/boat04.jpg","0","s","0.933012200519443",1,1,0,2,0
"260059","img/object_images/ornament01.jpg","0","k","0.876854500267655",1,1,0,2,0
"260059","img/object_images/bird_house02.jpg","0","k","0.919971500523388",1,1,0,2,0
"260059","img/object_images/toaster01.jpg","0","k","1.0457766004838",1,1,0,2,0
"260059","img/object_images/scarf01.jpg","0","k","1.1144241001457",1,1,0,2,0
"260059","img/object_images/razor01.jpg","1","k","0.723431300371885",1,1,0,2,0
"260059","img/object_images/guitar02.jpg","1","k","0.910174900665879",1,1,0,2,0
"260059","img/object_images/tv01.jpg","0","s","1.17319890018553",1,1,0,2,0
"260059","img/object_images/clip02.jpg","0","s","1.21343280049041",1,1,0,2,0
"260059","img/object_images/knife02.jpg","0","k","0.818892600014806",1,1,0,2,0
"260059","img/object_images/perfume02.jpg","1","k","1.01548090064898",1,1,0,2,0
"260059","img/object_images/mask01.jpg","1","s","0.666578700300306",1,1,0,2,0
"260059","img/object_images/vase01.jpg","0","s","1.01467730011791",1,1,0,2,0
"260059","img/object_images/Traffic Sign 01.jpg","0","k","1.15429670037702",1,1,0,2,0
"260059","img/object_images/video_game02.jpg","1","k","0.805275800637901",1,1,0,2,0
"260059","img/object_images/sink01.jpg","0","s","0.924217200372368",1,1,0,2,0
"260059","img/object_images/ruler02.jpg","0","s","1.02646030019969",1,1,0,2,0
"260059","img/object_images/brief_case02.jpg","1","s","0.62014890043065",1,1,0,2,0
"260059","img/object_images/jewel04.jpg","1","s","0.99362890003249",1,1,0,2,0
"260059","img/object_images/hair_brush02.jpg","0","s","1.02179490029812",1,1,0,2,0
"260059","img/object_images/dress03.jpg","1","k","0.787148300092667",1,1,0,2,0
"260059","img/object_images/fan01.jpg","1","k","0.84653010033071",1,1,0,2,0
"260059","img/object_images/knife04.jpg","0","k","0.795100100338459",1,1,0,2,0
"260059","img/object_images/accardion01.jpg","0","s","0.739904400426894",1,1,0,2,0
"260059","img/object_images/knit05.jpg","0","k","0.925656900275499",1,1,0,2,0
"260059","img/object_images/Thermometer01.jpg","1","s","0.768032500054687",1,1,0,2,0
"260059","img/object_images/purse04.jpg","0","k","0.919470200315118",1,1,0,2,0
"260059","img/object_images/crown02.jpg","1","k","1.08773790020496",1,1,0,2,0
"260059","img/object_images/pen03.jpg","1","s","0.918390900362283",1,1,0,2,0
"260059","img/object_images/Lint_Roller02.jpg","1","k","0.872598000336438",1,1,0,2,0
"260059","img/object_images/bow_tie03.jpg","1","s","1.03150160051882",1,1,0,2,0
"260059","img/object_images/key02.jpg","0","s","0.991506100166589",1,1,0,2,0
"260059","img/object_images/pitcher02.jpg","1","k","0.946618400514126",1,1,0,2,0
"260059","img/object_images/book03.jpg","0","s","0.838917800225317",1,1,0,2,0
"260059","img/object_images/pot01.jpg","1","s","1.12225429993123",1,1,0,2,0
"260059","img/object_images/bow_tie01.jpg","0","s","0.808194300159812",1,1,0,2,0
"260059","img/object_images/cellphone03.jpg","1","s","0.948714000172913",1,1,0,2,0
"260059","img/object_images/flashlight03.jpg","0","s","1.32397849997506",1,1,0,2,0
"260059","img/object_images/MetalWire01.jpg","0","s","0.971430700272322",1,1,0,2,0
"260059","img/object_images/ToolBag01.jpg","1","s","0.80594260012731",1,1,0,2,0
"260059","img/object_images/hole_puncher01.jpg","0","s","0.800382300280035",1,2,0,2,0
"260059","img/object_images/trash_can05.jpg","1","s","0.870009900536388",1,2,0,2,0
"260059","img/object_images/glasses03.jpg","1","s","0.853572300169617",1,2,0,2,0
"260059","img/object_images/board01.jpg","1","s","1.06177630042657",1,2,0,2,0
"260059","img/object_images/lemon_squeezer01.jpg","1","s","0.809924600180238",1,2,0,2,0
"260059","img/object_images/mail_box02.jpg","0","s","1.11834650067613",1,2,0,2,0
"260059","img/object_images/tripod01.jpg","0","k","1.07072099996731",1,2,0,2,0
"260059","img/object_images/pen01.jpg","1","s","0.935727600473911",1,2,0,2,0
"260059","img/object_images/microscope01.jpg","1","s","1.19050990045071",1,2,0,2,0
"260059","img/object_images/tie02.jpg","1","s","0.954119300004095",1,2,0,2,0
"260059","img/object_images/pen05.jpg","1","s","0.833567600697279",1,2,0,2,0
"260059","img/object_images/acoustic_capo01.jpg","1","s","0.886333500035107",1,2,0,2,0
"260059","img/object_images/ice_tray03.jpg","1","s","0.890367800369859",1,2,0,2,0
"260059","img/object_images/surf_board01.jpg","1","s","0.832357700448483",1,2,0,2,0
"260059","img/object_images/gauze01.jpg","0","s","0.927415500395",1,2,0,2,0
"260059","img/object_images/toothbrush01.jpg","1","s","1.09505600016564",1,2,0,2,0
"260059","img/object_images/backpack01.jpg","0","s","0.812763300258666",1,2,0,2,0
"260059","img/object_images/slinky_toy01.jpg","1","s","0.926610800437629",1,2,0,2,0
"260059","img/object_images/ear_bud01.jpg","0","s","0.97873550048098",1,2,0,2,0
"260059","img/object_images/hat13.jpg","0","s","0.631700000725687",1,2,0,2,0
"260059","img/object_images/crutches02.jpg","0","k","1.46789250010625",1,2,0,2,0
"260059","img/object_images/robe01.jpg","0","k","1.21444370038807",1,2,0,2,0
"260059","img/object_images/pan01.jpg","1","k","1.1282251002267",1,2,0,2,0
"260059","img/object_images/bath_tub01.jpg","1","k","1.07093590032309",1,2,0,2,0
"260059","img/object_images/TreeSlice01.jpg","1","s","1.65424880059436",1,2,0,2,0
"260059","img/object_images/hammer03.jpg","1","s","0.704703000374138",1,2,0,2,0
"260059","img/object_images/boat_toy10.jpg","0","s","0.74549510050565",1,2,0,2,0
"260059","img/object_images/wallet02.jpg","1","s","0.683904300443828",1,2,0,2,0
"260059","img/object_images/curtain02.jpg","1","k","1.18707650061697",1,2,0,2,0
"260059","img/object_images/knit01.jpg","0","s","0.740197000559419",1,2,0,2,0
"260059","img/object_images/Witchhat01.jpg","0","s","0.588433500379324",1,2,0,2,0
"260059","img/object_images/pitcher01.jpg","1","s","0.750832200050354",1,2,0,2,0
"260059","img/object_images/soap01.jpg","0","s","0.95297020021826",1,2,0,2,0
"260059","img/object_images/note_book02.jpg","0","s","1.01460530050099",1,2,0,2,0
"260059","img/object_images/lemon_squeezer02.jpg","0","s","0.811134400311857",1,2,0,2,0
"260059","img/object_images/helmet01.jpg","0","k","0.553971000015736",1,2,0,2,0
"260059","img/object_images/clip04.jpg","1","s","0.740612700115889",1,2,0,2,0
"260059","img/object_images/projector01.jpg","1","k","1.10533070005476",1,2,0,2,0
"260059","img/object_images/gift_box02.jpg","0","s","0.865171700250357",1,2,0,2,0
"260059","img/object_images/airfryer01.jpg","0","s","0.799284900538623",1,2,0,2,0
"260059","img/object_images/retainer01.jpg","1","s","0.951331499963999",1,2,0,2,0
"260059","img/object_images/ball02.jpg","1","s","1.04804490040988",1,2,0,2,0
"260059","img/object_images/tool11.jpg","1","s","0.803281200584024",1,2,0,2,0
"260059","img/object_images/dice01.jpg","1","s","1.34425000054762",1,2,0,2,0
"260059","img/object_images/WitchHat02.jpg","1","s","1.16442940058187",1,2,0,2,0
"260059","img/object_images/vase02.jpg","1","s","0.752007700502872",1,2,0,2,0
"260059","img/object_images/ironing_table01.jpg","0","s","0.980372400488704",1,2,0,2,0
"260059","img/object_images/tool07.jpg","1","s","0.634637000504881",1,2,0,2,0
"260059","img/object_images/audio_port01.jpg","0","s","0.726018100511283",1,3,0,2,0
"260059","img/object_images/fan04.jpg","1","s","0.763697000220418",1,3,0,2,0
"260059","img/object_images/computer_mouse01.jpg","1","s","0.396975700277835",1,3,0,2,0
"260059","img/object_images/blender01.jpg","0","k","1.08955910056829",1,3,0,2,0
"260059","img/object_images/exfoliater_brush01.jpg","1","s","0.643799900542945",1,3,0,2,0
"260059","img/object_images/Violin01.jpg","1","s","0.908559100236744",1,3,0,2,0
"260059","img/object_images/bottle02.jpg","1","s","0.523762300144881",1,3,0,2,0
"260059","img/object_images/sink_filter01 (1).jpg","1","k","0.580465900246054",1,3,0,2,0
"260059","img/object_images/bottle12.jpg","0","k","0.943436400499195",1,3,0,2,0
"260059","img/object_images/origami01.jpg","0","s","0.797235700301826",1,3,0,2,0
"260059","img/object_images/TrashCan02.jpg","1","s","1.01474960008636",1,3,0,2,0
"260059","img/object_images/basket02.jpg","0","s","0.889269600156695",1,3,0,2,0
"260059","img/object_images/clock02.jpg","1","s","0.853721900377423",1,3,0,2,0
"260059","img/object_images/kite01.jpg","1","s","0.765344700310379",1,3,0,2,0
"260059","img/object_images/hoverboard01.jpg","0","s","0.552978400606662",1,3,0,2,0
"260059","img/object_images/toy_train02.jpg","1","s","1.15374080045149",1,3,0,2,0
"260059","img/object_images/book01.jpg","1","s","0.78866060031578",1,3,0,2,0
"260059","img/object_images/yarn02.jpg","1","s","0.829547200351954",1,3,0,2,0
"260059","img/object_images/candle02.jpg","1","s","0.755981800146401",1,3,0,2,0
"260059","img/object_images/lock03.jpg","0","s","0.568386500235647",1,3,0,2,0
"260059","img/object_images/water_gun01.jpg","1","s","1.12443530000746",1,3,0,2,0
"260059","img/object_images/video_game06.jpg","0","s","0.904150800313801",1,3,0,2,0
"260059","img/object_images/floppy_disk02.jpg","1","s","0.712433800566941",1,3,0,2,0
"260059","img/object_images/dog_leash01.jpg","0","k","1.02546050027013",1,3,0,2,0
"260059","img/object_images/MeasuringCup01.jpg","1","s","0.781654800288379",1,3,0,2,0
"260059","img/object_images/bag04.jpg","1","s","0.78058970021084",1,3,0,2,0
"260059","img/object_images/backpack03.jpg","1","s","1.07312920037657",1,3,0,2,0
"260059","img/object_images/tool02.jpg","1","s","0.716631600167602",1,3,0,2,0
"260059","img/object_images/jewelry01.jpg","0","s","0.64171880017966",1,3,0,2,0
"260059","img/object_images/sleeping_bag01.jpg","0","s","0.614869500044733",1,3,0,2,0
"260059","img/object_images/toy08.jpg","0","s","1.01847620029002",1,3,0,2,0
"260059","img/object_images/combs01.jpg","1","k","1.39472099998966",1,3,0,2,0
"260059","img/object_images/toy03.jpg","1","s","0.890014500357211",1,3,0,2,0
"260059","img/object_images/Tin01.jpg","1","s","1.27316240034997",1,3,0,2,0
"260059","img/object_images/Candle_Holder01.jpg","1","s","0.789910400286317",1,3,0,2,0
"260059","img/object_images/tool08.jpg","0","s","1.04413300054148",1,3,0,2,0
"260059","img/object_images/Ring02.jpg","1","s","0.991090400144458",1,3,0,2,0
"260059","img/object_images/toy01.jpg","0","s","1.22109490027651",1,3,0,2,0
"260059","img/object_images/stereo02.jpg","0","s","0.925392400473356",1,3,0,2,0
"260059","img/object_images/bucket02.jpg","1","s","0.963075500447303",1,3,0,2,0
"260059","img/object_images/book02.jpg","1","s","0.93178310059011",1,3,0,2,0
"260059","img/object_images/note_book01.jpg","0","s","1.40007540024817",1,3,0,2,0
"260059","img/object_images/camera05.jpg","1","s","0.764034600462765",1,3,0,2,0
"260059","img/object_images/shovel01.jpg","0","s","0.992716400418431",1,3,0,2,0
"260059","img/object_images/trumpet01.jpg","0","s","0.977598600555211",1,3,0,2,0
"260059","img/object_images/gloves05.jpg","0","s","0.980485600419342",1,3,0,2,0
"260059","img/object_images/spatula02.jpg","0","s","1.15802870038897",1,3,0,2,0
"260059","img/object_images/bookmark01.jpg","0","s","1.0803593005985",1,3,0,2,0
"260059","img/object_images/tool18.jpg","1","s","0.791942600160837",1,4,0,2,0
"260059","img/object_images/handcuffs01.jpg","0","s","0.776528900489211",1,4,0,2,0
"260059","img/object_images/Wisk01.jpg","1","s","0.718078700359911",1,4,0,2,0
"260059","img/object_images/bottle09.jpg","1","s","0.719443700276315",1,4,0,2,0
"260059","img/object_images/chair05.jpg","0","s","0.821296700276434",1,4,0,2,0
"260059","img/object_images/yo_yo01.jpg","0","k","1.05183400027454",1,4,0,2,0
"260059","img/object_images/colander01.jpg","1","k","0.716638500336558",1,4,0,2,0
"260059","img/object_images/Staples01.jpg","1","s","1.24564820015803",1,4,0,2,0
"260059","img/object_images/guitar01.jpg","1","k","0.873530200216919",1,4,0,2,0
"260059","img/object_images/judge_gavel01.jpg","1","s","1.14880890026689",1,4,0,2,0
"260059","img/object_images/Statue01.jpg","0","s","0.704768300522119",1,4,0,2,0
"260059","img/object_images/Pottery01.jpg","1","s","0.647734000347555",1,4,0,2,0
"260059","img/object_images/piggy_bank01.jpg","1","s","0.800228600390255",1,4,0,2,0
"260059","img/object_images/jewel02.jpg","1","s","1.09299880033359",1,4,0,2,0
"260059","img/object_images/joystick03.jpg","1","k","1.15797690022737",1,4,0,2,0
"260059","img/object_images/bicycle_lock01.jpg","0","k","0.904192700516432",1,4,0,2,0
"260059","img/object_images/brief_case01.jpg","1","s","1.15571410069242",1,4,0,2,0
"260059","img/object_images/lamp01.jpg","0","k","0.973292600363493",1,4,0,2,0
"260059","img/object_images/hammer01.jpg","1","k","0.732399200554937",1,4,0,2,0
"260059","img/object_images/chain01.jpg","0","k","1.00707670021802",1,4,0,2,0
"260059","img/object_images/chair02.jpg","0","k","1.15828740037978",1,4,0,2,0
"260059","img/object_images/lighter01.jpg","0","s","1.10298410058022",1,4,0,2,0
"260059","img/object_images/hair_brush05.jpg","1","k","0.938751100562513",1,4,0,2,0
"260059","img/object_images/bow01.jpg","1","k","1.09580550016835",1,4,0,2,0
"260059","img/object_images/hat02.jpg","1","k","0.935563300270587",1,4,0,2,0
"260059","img/object_images/motorcycle01.jpg","1","s","0.880553000140935",1,4,0,2,0
"260059","img/object_images/Woopie01.jpg","1","k","1.31401570048183",1,4,0,2,0
"260059","img/object_images/bean_bag02.jpg","1","k","1.8617163002491",1,4,0,2,0
"260059","img/object_images/egg_slicer01.jpg","1","k","1.21717920014635",1,4,0,2,0
"260059","img/object_images/mirror01.jpg","1","s","1.0183311002329",1,4,0,2,0
"260059","img/object_images/water_scooter01.jpg","0","s","1.30954800033942",1,4,0,2,0
"260059","img/object_images/usb03.jpg","1","s","1.22504250053316",1,4,0,2,0
"260059","img/object_images/basket04.jpg","0","s","0.873401300050318",1,4,0,2,0
"260059","img/object_images/jacket04.jpg","1","k","1.10491140000522",1,4,0,2,0
"260059","img/object_images/bottle01.jpg","1","k","0.872862700372934",1,4,0,2,0
"260059","img/object_images/cards01.jpg","1","k","1.05600770004094",1,4,0,2,0
"260059","img/object_images/bag_pipes01.jpg","0","s","1.09483060054481",1,4,0,2,0
"260059","img/object_images/flask01.jpg","0","k","1.11550410045311",1,4,0,2,0
"260059","img/object_images/chess_piece02.jpg","1","s","0.83891490008682",1,4,0,2,0
"260059","img/object_images/pitcher05.jpg","1","s","0.991466000210494",1,4,0,2,0
"260059","img/object_images/Trowel01.jpg","0","s","1.25988550065085",1,4,0,2,0
"260059","img/object_images/couch03.jpg","1","s","0.859192600473762",1,4,0,2,0
"260059","img/object_images/knit03.jpg","1","s","1.09333130018786",1,4,0,2,0
"260059","img/object_images/video_game07.jpg","1","s","1.1527524003759",1,4,0,2,0
"260059","img/object_images/speaker01.jpg","1","s","0.976606900338084",1,4,0,2,0
"260059","img/object_images/container01.jpg","0","s","0.931089200079441",1,4,0,2,0
"260059","img/object_images/ball01.jpg","1","s","0.811975799966604",1,4,0,2,0
"260059","img/object_images/golf_ball03.jpg","0","s","1.07402710057795",1,4,0,2,0
"260059","img/object_images/pitcher03.jpg","0","s","0.980637600179762",1,5,0,2,0
"260059","img/object_images/bell03.jpg","0","k","1.10408860025927",1,5,0,2,0
"260059","img/object_images/helmet05.jpg","0","s","0.993406500667334",1,5,0,2,0
"260059","img/object_images/dresser03.jpg","1","s","0.762418400496244",1,5,0,2,0
"260059","img/object_images/clip03.jpg","1","s","0.884702200535685",1,5,0,2,0
"260059","img/object_images/lid01.jpg","1","s","0.541790300048888",1,5,0,2,0
"260059","img/object_images/camera07.jpg","1","k","0.759808100294322",1,5,0,2,0
"260059","img/object_images/coloring_pencil02.jpg","0","s","0.67863340023905",1,5,0,2,0
"260059","img/object_images/balloon01.jpg","0","s","0.456555100623518",1,5,0,2,0
"260059","img/object_images/car04.jpg","0","s","0.427332200109959",1,5,0,2,0
"260059","img/object_images/sign02.jpg","0","k","0.935122100636363",1,5,0,2,0
"260059","img/object_images/jewel01.jpg","0","s","0.97960690036416",1,5,0,2,0
"260059","img/object_images/fan05.jpg","0","s","0.756184300407767",1,5,0,2,0
"260059","img/object_images/office_supplies01.jpg","0","s","1.28439539996907",1,5,0,2,0
"260059","img/object_images/lawn_mower01.jpg","0","s","0.743655700236559",1,5,0,2,0
"260059","img/object_images/binoculars03.jpg","1","k","0.784336100332439",1,5,0,2,0
"260059","img/object_images/faucet01.jpg","1","s","0.865235600154847",1,5,0,2,0
"260059","img/object_images/video_game01.jpg","0","k","1.1329723005183",1,5,0,2,0
"260059","img/object_images/bag06.jpg","1","k","0.9202791005373",1,5,0,2,0
"260059","img/object_images/Vacuum01.jpg","0","s","0.978566400241107",1,5,0,2,0
"260059","img/object_images/lock04.jpg","1","s","0.738184100482613",1,5,0,2,0
"260059","img/object_images/tie01.jpg","1","s","0.989940000232309",1,5,0,2,0
"260059","img/object_images/socks02.jpg","1","s","0.78203280037269",1,5,0,2,0
"260059","img/object_images/bottle10.jpg","1","s","1.28299310058355",1,5,0,2,0
"260059","img/object_images/toy04.jpg","1","k","0.790480700321496",1,5,0,2,0
"260059","img/object_images/tool13.jpg","1","s","0.763668700121343",1,5,0,2,0
"260059","img/object_images/socks01.jpg","1","s","0.549810700118542",1,5,0,2,0
"260059","img/object_images/tennis_racket01.jpg","1","s","0.621923900209367",1,5,0,2,0
"260059","img/object_images/vga_port 01.jpg","1","k","0.837214800529182",1,5,0,2,0
"260059","img/object_images/laptop01.jpg","1","k","0.771231200546026",1,5,0,2,0
"260059","img/object_images/pitcher09.jpg","1","s","0.720411800313741",1,5,0,2,0
"260059","img/object_images/watch01.jpg","0","k","1.55862470064312",1,5,0,2,0
"260059","img/object_images/headset02.jpg","1","s","0.735774700529873",1,5,0,2,0
"260059","img/object_images/jewelry09.jpg","1","s","0.756956100463867",1,5,0,2,0
"260059","img/object_images/badminton01.jpg","1","s","0.951654800213873",1,5,0,2,0
"260059","img/object_images/couch04.jpg","1","s","0.760006700176746",1,5,0,2,0
"260059","img/object_images/shoes10.jpg","0","s","0.918837600387633",1,5,0,2,0
"260059","img/object_images/Kitchen_Towel.jpg","0","s","0.717227400280535",1,5,0,2,0
"260059","img/object_images/lock01.jpg","0","k","0.875866500660777",1,5,0,2,0
"260059","img/object_images/bow_tie02.jpg","1","k","1.07845960045233",1,5,0,2,0
"260059","img/object_images/coloring_pencil01.jpg","1","s","1.00017730053514",1,5,0,2,0
"260059","img/object_images/hammer02.jpg","0","k","1.44213440036401",1,5,0,2,0
"260059","img/object_images/shoes08.jpg","0","k","0.920494000427425",1,5,0,2,0
"260059","img/object_images/grater01.jpg","0","s","0.717982599977404",1,5,0,2,0
"260059","img/object_images/helmet03.jpg","0","s","0.790767900645733",1,5,0,2,0
"260059","img/object_images/razor02.jpg","0","s","0.901627900078893",1,5,0,2,0
"260059","img/object_images/paint_brush04.jpg","1","k","0.980837200302631",1,5,0,2,0
"260059","img/object_images/phone02.jpg","1","s","0.758643500041217",1,5,0,2,0
"260059","img/object_images/gift_box05.jpg","0","s","0.948914200533181",1,6,0,2,0
"260059","img/object_images/umbrella01.jpg","0","s","0.707791800610721",1,6,0,2,0
"260059","img/object_images/car02.jpg","1","k","1.38273490034044",1,6,0,2,0
"260059","img/object_images/remote_controller01.jpg","0","s","0.943228400312364",1,6,0,2,0
"260059","img/object_images/camera_lens01.jpg","1","k","0.742110900115222",1,6,0,2,0
"260059","img/object_images/hair_dryer01.jpg","0","s","0.70585980033502",1,6,0,2,0
"260059","img/object_images/purse01.jpg","1","s","0.811799400020391",1,6,0,2,0
"260059","img/object_images/fork02.jpg","0","s","0.851515100337565",1,6,0,2,0
"260059","img/object_images/spray_can01.jpg","1","k","1.00250220065936",1,6,0,2,0
"260059","img/object_images/shower_head03.jpg","1","s","0.780325900297612",1,6,0,2,0
"260059","img/object_images/trash_can03.jpg","1","k","0.857898400630802",1,6,0,2,0
"260059","img/object_images/jewelry07.jpg","1","s","0.631710200104862",1,6,0,2,0
"260059","img/object_images/pitcher07.jpg","1","s","0.88386300066486",1,6,0,2,0
"260059","img/object_images/scale02.jpg","0","s","1.07271350035444",1,6,0,2,0
"260059","img/object_images/shoes12.jpg","0","s","0.727037900593132",1,6,0,2,0
"260059","img/object_images/computer_mouse02.jpg","0","s","0.892739100381732",1,6,0,2,0
"260059","img/object_images/rock02.jpg","1","s","0.669342300388962",1,6,0,2,0
"260059","img/object_images/jewel03.jpg","1","k","1.19028060045093",1,6,0,2,0
"260059","img/object_images/hand_grip_exerciser01.jpg","0","s","0.919450100511312",1,6,0,2,0
"260059","img/object_images/bucket01.jpg","1","s","0.985364300198853",1,6,0,2,0
"260059","img/object_images/keyboard02.jpg","1","s","0.907079299911857",1,6,0,2,0
"260059","img/object_images/blender02.jpg","1","s","1.15484800003469",1,6,0,2,0
"260059","img/object_images/Sprayer01.jpg","1","s","1.09605770045891",1,6,0,2,0
"260059","img/object_images/cutting_board01.jpg","1","s","0.89601380052045",1,6,0,2,0
"260059","img/object_images/usb02.jpg","1","k","0.974661900196224",1,6,0,2,0
"260059","img/object_images/hot_air_balloon02.jpg","1","k","0.950862700585276",1,6,0,2,0
"260059","img/object_images/ribbon01.jpg","1","k","0.895082900300622",1,6,0,2,0
"260059","img/object_images/Eyeliner01.jpg","0","s","0.76086060050875",1,6,0,2,0
"260059","img/object_images/drone02.jpg","0","s","0.845812400337309",1,6,0,2,0
"260059","img/object_images/paper_cup02.jpg","0","s","1.1268695006147",1,6,0,2,0
"260059","img/object_images/paper_cup01.jpg","0","s","0.786711000371724",1,6,0,2,0
"260059","img/object_images/tool19.jpg","0","s","0.785275400616229",1,6,0,2,0
"260059","img/object_images/funnel01.jpg","0","s","0.781686200294644",1,6,0,2,0
"260059","img/object_images/ironing_table02.jpg","0","s","1.00343170017004",1,6,0,2,0
"260059","img/object_images/tool06.jpg","0","s","0.750631500501186",1,6,0,2,0
"260059","img/object_images/belt01.jpg","1","s","1.15985200041905",1,6,0,2,0
"260059","img/object_images/toy05.jpg","1","k","0.996274200733751",1,6,0,2,0
"260059","img/object_images/cup03.jpg","1","k","0.906034000217915",1,6,0,2,0
"260059","img/object_images/toaster02.jpg","0","k","0.72268500039354",1,6,0,2,0
"260059","img/object_images/shoes07.jpg","0","s","0.925716900266707",1,6,0,2,0
"260059","img/object_images/chair04.jpg","1","k","1.23476580064744",1,6,0,2,0
"260059","img/object_images/perfume01.jpg","1","s","0.845281100366265",1,6,0,2,0
"260059","img/object_images/fridge03.jpg","1","k","1.06057640025392",1,6,0,2,0
"260059","img/object_images/tray01.jpg","0","k","0.730683400761336",1,6,0,2,0
"260059","img/object_images/soap03.jpg","1","k","1.06566240033135",1,6,0,2,0
"260059","img/object_images/glasses07.jpg","0","k","0.778150600381196",1,6,0,2,0
"260059","img/object_images/piano03.jpg","0","s","1.13490790035576",1,6,0,2,0
"260059","img/object_images/hair_brush01.jpg","0","k","0.955436800140888",1,6,0,2,0
"260059","img/object_images/Oven01.jpg","1","s","1.01226260047406",1,7,0,2,0
"260059","img/object_images/decorative02.jpg","1","s","0.77248500008136",1,7,0,2,0
"260059","img/object_images/gloves02.jpg","1","k","0.671007800381631",1,7,0,2,0
"260059","img/object_images/hat09.jpg","0","k","0.91366990050301",1,7,0,2,0
"260059","img/object_images/cup01.jpg","0","k","0.738190500065684",1,7,0,2,0
"260059","img/object_images/measuring_tape02.jpg","1","s","0.715550899971277",1,7,0,2,0
"260059","img/object_images/bell02.jpg","1","k","0.744422900024801",1,7,0,2,0
"260059","img/object_images/video_game03.jpg","1","k","1.26077440008521",1,7,0,2,0
"260059","img/object_images/yoga_mat01.jpg","1","s","0.951280600391328",1,7,0,2,0
"260059","img/object_images/pen06.jpg","0","s","1.16890710033476",1,7,0,2,0
"260059","img/object_images/ring03.jpg","1","k","0.882150600664318",1,7,0,2,0
"260059","img/object_images/fan02.jpg","1","k","0.99690470052883",1,7,0,2,0
"260059","img/object_images/remover01.jpg","1","s","0.600141900591552",1,7,0,2,0
"260059","img/object_images/frame01.jpg","0","s","0.685359199997038",1,7,0,2,0
"260059","img/object_images/Confetti 01.jpg","1","s","0.569056400097907",1,7,0,2,0
"260059","img/object_images/box03.jpg","1","k","0.763327700551599",1,7,0,2,0
"260059","img/object_images/Stool01.jpg","1","k","0.704567600507289",1,7,0,2,0
"260059","img/object_images/handkerchief01.jpg","1","k","0.784967000130564",1,7,0,2,0
"260059","img/object_images/wire02.jpg","1","k","0.836234800517559",1,7,0,2,0
"260059","img/object_images/bicycle01.jpg","0","s","0.856119300238788",1,7,0,2,0
"260059","img/object_images/cochlear_implant01.jpg","0","k","0.801293900702149",1,7,0,2,0
"260059","img/object_images/compass01.jpg","0","k","0.75350770028308",1,7,0,2,0
"260059","img/object_images/stapler.jpg","0","s","0.698200200218707",1,7,0,2,0
"260059","img/object_images/bottle06.jpg","1","s","0.722497900016606",1,7,0,2,0
"260059","img/object_images/mail_box01.jpg","0","k","0.850831600371748",1,7,0,2,0
"260059","img/object_images/fork03.jpg","1","k","0.678577100392431",1,7,0,2,0
"260059","img/object_images/rock03.jpg","1","k","1.01022510044277",1,7,0,2,0
"260059","img/object_images/glasses06.jpg","0","k","0.704923000186682",1,7,0,2,0
"260059","img/object_images/boat02.jpg","1","k","0.612589000724256",1,7,0,2,0
"260059","img/object_images/stove01.jpg","0","k","0.696619000285864",1,7,0,2,0
"260059","img/object_images/camera03.jpg","0","k","0.612585000228137",1,7,0,2,0
"260059","img/object_images/outlet01.jpg","0","s","0.929563100449741",1,7,0,2,0
"260059","img/object_images/chair06.jpg","1","s","0.71641690004617",1,7,0,2,0
"260059","img/object_images/razor03.jpg","0","k","0.843550700694323",1,7,0,2,0
"260059","img/object_images/chair03.jpg","0","k","0.701584300491959",1,7,0,2,0
"260059","img/object_images/car03.jpg","0","k","0.463509200606495",1,7,0,2,0
"260059","img/object_images/towels01.jpg","0","k","0.993193600326776",1,7,0,2,0
"260059","img/object_images/hair_clips01.jpg","1","s","0.795563200488687",1,7,0,2,0
"260059","img/object_images/clipboard01.jpg","0","k","0.953802100382745",1,7,0,2,0
"260059","img/object_images/basketball_hoop02.jpg","1","s","0.77445110026747",1,7,0,2,0
"260059","img/object_images/screwdriver01.jpg","1","s","0.878771200310439",1,7,0,2,0
"260059","img/object_images/tv02.jpg","1","s","0.881727700587362",1,7,0,2,0
"260059","img/object_images/floss02.jpg","0","s","0.738835500087589",1,7,0,2,0
"260059","img/object_images/tennis_racket02.jpg","1","s","0.745473800692707",1,7,0,2,0
"260059","img/object_images/jacket03.jpg","1","s","0.850192700512707",1,7,0,2,0
"260059","img/object_images/duster01.jpg","0","s","1.12361970031634",1,7,0,2,0
"260059","img/object_images/car01.jpg","1","s","1.09479020023718",1,7,0,2,0
"260059","img/object_images/towel02.jpg","0","s","0.815541900228709",1,7,0,2,0
"260059","img/object_images/fire_extinguisher01.jpg","1","k","0.89763590041548",1,8,0,2,0
"260059","img/object_images/scoreboard01.jpg","1","s","0.704480800312012",1,8,0,2,0
"260059","img/object_images/hat06.jpg","1","k","0.600892400369048",1,8,0,2,0
"260059","img/object_images/lantern01.jpg","1","k","1.19302680063993",1,8,0,2,0
"260059","img/object_images/cellphone02.jpg","1","k","0.864137900527567",1,8,0,2,0
"260059","img/object_images/Recycling01.jpg","0","s","0.840089300181717",1,8,0,2,0
"260059","img/object_images/egg_basket01.jpg","1","s","0.734970100224018",1,8,0,2,0
"260059","img/object_images/pot01 (1).jpg","0","k","1.05081120040268",1,8,0,2,0
"260059","img/object_images/couch01.jpg","1","k","0.927746000699699",1,8,0,2,0
"260059","img/object_images/belt03.jpg","1","s","0.842668500263244",1,8,0,2,0
"260059","img/object_images/dresser04.jpg","0","s","1.00782670034096",1,8,0,2,0
"260059","img/object_images/dust_pan01.jpg","0","k","1.16118180006742",1,8,0,2,0
"260059","img/object_images/helmet02.jpg","0","s","0.683885400183499",1,8,0,2,0
"260059","img/object_images/phone04.jpg","0","s","0.753444900270551",1,8,0,2,0
"260059","img/object_images/pan03.jpg","1","s","1.0987736005336",1,8,0,2,0
"260059","img/object_images/chess_piece01.jpg","1","s","0.994966800324619",1,8,0,2,0
"260059","img/object_images/helmet04.jpg","1","k","1.15942580066621",1,8,0,2,0
"260059","img/object_images/Safe01.jpg","1","s","0.941907400265336",1,8,0,2,0
"260059","img/object_images/cellphone01.jpg","0","k","0.843508300371468",1,8,0,2,0
"260059","img/object_images/gift_box04.jpg","1","s","0.80047590052709",1,8,0,2,0
"260059","img/object_images/gift_box01.jpg","0","s","0.837805200368166",1,8,0,2,0
"260059","img/object_images/ladle02.jpg","1","s","0.709390900097787",1,8,0,2,0
"260059","img/object_images/gift_box03.jpg","0","s","1.01201339997351",1,8,0,2,0
"260059","img/object_images/knit04.jpg","1","k","1.01732010021806",1,8,0,2,0
"260059","img/object_images/tool09.jpg","1","s","0.717019900679588",1,8,0,2,0
"260059","img/object_images/floss01.jpg","1","s","1.05286330031231",1,8,0,2,0
"260059","img/object_images/pillows01.jpg","1","k","0.772322500124574",1,8,0,2,0
"260059","img/object_images/floppy_disk03.jpg","1","k","0.878743800334632",1,8,0,2,0
"260059","img/object_images/calculator01.jpg","0","k","0.850149300415069",1,8,0,2,0
"260059","img/object_images/laptop03.jpg","1","s","0.707577800378203",1,8,0,2,0
"260059","img/object_images/tool20.jpg","1","k","0.604605900123715",1,8,0,2,0
"260059","img/object_images/wagon_cart03.jpg","1","k","0.575080000329763",1,8,0,2,0
"260059","img/object_images/toilet_paper01.jpg","1","k","0.745087200310081",1,8,0,2,0
"260059","img/object_images/Screws01.jpg","0","s","1.03216660022736",1,8,0,2,0
"260059","img/object_images/satellite01.jpg","0","s","0.945761900395155",1,8,0,2,0
"260059","img/object_images/dart01.jpg","0","s","0.695329300127923",1,8,0,2,0
"260059","img/object_images/nut_cracker01.jpg","1","k","0.973803500644863",1,8,0,2,0
"260059","img/object_images/airfryer02.jpg","1","k","1.51172230020165",1,8,0,2,0
"260059","img/object_images/blanket01.jpg","1","k","0.963444100692868",1,8,0,2,0
"260059","img/object_images/skate_board01.jpg","0","s","1.07498190039769",1,8,0,2,0
"260059","img/object_images/sponge03.jpg","0","s","1.02848880039528",1,8,0,2,0
"260059","img/object_images/chair01.jpg","0","s","0.79766090027988",1,8,0,2,0
"260059","img/object_images/Shoes05.jpg","1","s","1.23985730018467",1,8,0,2,0
"260059","img/object_images/toilet_paper_dispenser01.jpg","0","s","0.891847700346261",1,8,0,2,0
"260059","img/object_images/frisbee01.jpg","0","s","0.852835700381547",1,8,0,2,0
"260059","img/object_images/shovel03.jpg","0","k","1.12973970035091",1,8,0,2,0
"260059","img/object_images/bottle07.jpg","1","s","1.04471709998325",1,8,0,2,0
"260059","img/object_images/drone01.jpg","1","k","1.26375150028616",1,8,0,2,0
