"participant_id","current_trial_object","pre_trial_object","post_trial_object","current_trial_accuracy","pre_trial_accuracy","post_trial_accuracy","current_trial_congruency","pre_trial_congruency","post_trial_congruency","current_trial_rt","pre_trial_rt","post_trial_rt","current_trial_responded","pre_trial_responded","post_trial_responded","current_trial_legitResponse","pre_trial_legitResponse","post_trial_legitResponse","current_trial_resp_nums","pre_trial_resp_nums","post_trial_resp_nums"
"260064","img/object_images/projector01.jpg",NA,"img/object_images/Kitchen_Towel.jpg","0",NA,"0","0",NA,"0","1.72495380000328",NA,"0.810680400005367","1",NA,"1","1",NA,"1","1",NA,"1"
"260064","img/object_images/Kitchen_Towel.jpg","img/object_images/projector01.jpg","img/object_images/jewelry09.jpg","0","0","1","0","0","1","0.810680400005367","1.72495380000328","0.803681000004872","1","1","1","1","1","1","1","1","1"
"260064","img/object_images/jewelry09.jpg","img/object_images/Kitchen_Towel.jpg","img/object_images/fire_extinguisher01.jpg","1","0","1","1","0","0","0.803681000004872","0.810680400005367","0.673578700007056","1","1","1","1","1","1","1","1","1"
"260064","img/object_images/fire_extinguisher01.jpg","img/object_images/jewelry09.jpg","img/object_images/lighter01.jpg","1","1","1","0","1","1","0.673578700007056","0.803681000004872","0.66349760000594","1","1","1","1","1","1","1","1","1"
"260064","img/object_images/lighter01.jpg","img/object_images/fire_extinguisher01.jpg","img/object_images/cup03.jpg","1","1","1","1","0","1","0.66349760000594","0.673578700007056","0.644248300006439","1","1","1","1","1","1","1","1","1"
"260064","img/object_images/cup03.jpg","img/object_images/lighter01.jpg","img/object_images/bicycle_lock01.jpg","1","1","1","1","1","0","0.644248300006439","0.66349760000594","0.542416000003868","1","1","1","1","1","1","1","1","1"
"260064","img/object_images/bicycle_lock01.jpg","img/object_images/cup03.jpg","img/object_images/purse01.jpg","1","1","1","0","1","1","0.542416000003868","0.644248300006439","0.61868470000627","1","1","1","1","1","1","1","1","1"
"260064","img/object_images/purse01.jpg","img/object_images/bicycle_lock01.jpg","img/object_images/faucet01.jpg","1","1","1","1","0","0","0.61868470000627","0.542416000003868","0.965342000010423","1","1","1","1","1","1","1","1","1"
"260064","img/object_images/faucet01.jpg","img/object_images/purse01.jpg","img/object_images/pan01.jpg","1","1","1","0","1","1","0.965342000010423","0.61868470000627","0.563556800007063","1","1","1","1","1","1","1","1","1"
"260064","img/object_images/pan01.jpg","img/object_images/faucet01.jpg","img/object_images/Pottery01.jpg","1","1","1","1","0","0","0.563556800007063","0.965342000010423","0.606843600005959","1","1","1","1","1","1","1","1","1"
"260064","img/object_images/Pottery01.jpg","img/object_images/pan01.jpg","img/object_images/Sprayer01.jpg","1","1","0","0","1","0","0.606843600005959","0.563556800007063","0.984418600004574","1","1","1","1","1","1","1","1","1"
"260064","img/object_images/Sprayer01.jpg","img/object_images/Pottery01.jpg","img/object_images/TrashCan02.jpg","0","1","1","0","0","1","0.984418600004574","0.606843600005959","0.582217100003618","1","1","1","1","1","1","1","1","1"
"260064","img/object_images/TrashCan02.jpg","img/object_images/Sprayer01.jpg","img/object_images/cellphone02.jpg","1","0","1","1","0","1","0.582217100003618","0.984418600004574","0.580482300007134","1","1","1","1","1","1","1","1","1"
"260064","img/object_images/cellphone02.jpg","img/object_images/TrashCan02.jpg","img/object_images/ring03.jpg","1","1","1","1","1","1","0.580482300007134","0.582217100003618","0.713098200008972","1","1","1","1","1","1","1","1","1"
"260064","img/object_images/ring03.jpg","img/object_images/cellphone02.jpg","img/object_images/hole_puncher01.jpg","1","1","1","1","1","1","0.713098200008972","0.580482300007134","0.573369300007471","1","1","1","1","1","1","1","1","1"
"260064","img/object_images/hole_puncher01.jpg","img/object_images/ring03.jpg","img/object_images/speaker01.jpg","1","1","1","1","1","1","0.573369300007471","0.713098200008972","0.655491600009555","1","1","1","1","1","1","1","1","1"
"260064","img/object_images/speaker01.jpg","img/object_images/hole_puncher01.jpg","img/object_images/tool08.jpg","1","1","1","1","1","0","0.655491600009555","0.573369300007471","0.593309400006547","1","1","1","1","1","1","1","1","1"
"260064","img/object_images/tool08.jpg","img/object_images/speaker01.jpg","img/object_images/book01.jpg","1","1","1","0","1","1","0.593309400006547","0.655491600009555","0.498643400009314","1","1","1","1","1","1","1","1","1"
"260064","img/object_images/book01.jpg","img/object_images/tool08.jpg","img/object_images/hair_clips01.jpg","1","1","1","1","0","1","0.498643400009314","0.593309400006547","0.771959600002447","1","1","1","1","1","1","1","1","1"
"260064","img/object_images/hair_clips01.jpg","img/object_images/book01.jpg","img/object_images/tray01.jpg","1","1","1","1","1","1","0.771959600002447","0.498643400009314","0.619996100002027","1","1","1","1","1","1","1","1","1"
"260064","img/object_images/tray01.jpg","img/object_images/hair_clips01.jpg","img/object_images/colander01.jpg","1","1","1","1","1","0","0.619996100002027","0.771959600002447","0.534478400011722","1","1","1","1","1","1","1","1","1"
"260064","img/object_images/colander01.jpg","img/object_images/tray01.jpg","img/object_images/exfoliater_brush01.jpg","1","1","1","0","1","0","0.534478400011722","0.619996100002027","0.609878900002514","1","1","1","1","1","1","1","1","1"
"260064","img/object_images/exfoliater_brush01.jpg","img/object_images/colander01.jpg","img/object_images/Traffic Sign 01.jpg","1","1","0","0","0","0","0.609878900002514","0.534478400011722","1.00512250000611","1","1","1","1","1","1","1","1","1"
"260064","img/object_images/Traffic Sign 01.jpg","img/object_images/exfoliater_brush01.jpg","img/object_images/glasses07.jpg","0","1","1","0","0","1","1.00512250000611","0.609878900002514","0.75425940000423","1","1","1","1","1","1","1","1","1"
"260064","img/object_images/glasses07.jpg","img/object_images/Traffic Sign 01.jpg","img/object_images/yo_yo01.jpg","1","0","1","1","0","0","0.75425940000423","1.00512250000611","0.692699100000027","1","1","1","1","1","1","1","1","1"
"260064","img/object_images/yo_yo01.jpg","img/object_images/glasses07.jpg","img/object_images/basket02.jpg","1","1","1","0","1","0","0.692699100000027","0.75425940000423","0.761646700004349","1","1","1","1","1","1","1","1","1"
"260064","img/object_images/basket02.jpg","img/object_images/yo_yo01.jpg","img/object_images/tool07.jpg","1","1","1","0","0","0","0.761646700004349","0.692699100000027","0.570779700006824","1","1","1","1","1","1","1","1","1"
"260064","img/object_images/tool07.jpg","img/object_images/basket02.jpg","img/object_images/blanket01.jpg","1","1","1","0","0","1","0.570779700006824","0.761646700004349","0.648504299999331","1","1","1","1","1","1","1","1","1"
"260064","img/object_images/blanket01.jpg","img/object_images/tool07.jpg","img/object_images/gift_box04.jpg","1","1","1","1","0","0","0.648504299999331","0.570779700006824","0.676667000007001","1","1","1","1","1","1","1","1","1"
"260064","img/object_images/gift_box04.jpg","img/object_images/blanket01.jpg","img/object_images/glasses06.jpg","1","1","1","0","1","1","0.676667000007001","0.648504299999331","0.551031100010732","1","1","1","1","1","1","1","1","1"
"260064","img/object_images/glasses06.jpg","img/object_images/gift_box04.jpg","img/object_images/handcuffs01.jpg","1","1","1","1","0","0","0.551031100010732","0.676667000007001","0.552303100004792","1","1","1","1","1","1","1","1","1"
"260064","img/object_images/handcuffs01.jpg","img/object_images/glasses06.jpg",NA,"1","1",NA,"0","1",NA,"0.552303100004792","0.551031100010732",NA,"1","1",NA,"1","1",NA,"1","1",NA
"260064","img/object_images/shower_head01.jpg",NA,"img/object_images/flashlight03.jpg","1",NA,"0","1",NA,"0","1.22170470000128",NA,"0.967923000003793","1",NA,"1","1",NA,"1","1",NA,"1"
"260064","img/object_images/flashlight03.jpg","img/object_images/shower_head01.jpg","img/object_images/jacket04.jpg","0","1","1","0","1","0","0.967923000003793","1.22170470000128","0.525261500006309","1","1","1","1","1","1","1","1","1"
"260064","img/object_images/jacket04.jpg","img/object_images/flashlight03.jpg","img/object_images/boat04.jpg","1","0","1","0","0","0","0.525261500006309","0.967923000003793","0.584258600007161","1","1","1","1","1","1","1","1","1"
"260064","img/object_images/boat04.jpg","img/object_images/jacket04.jpg","img/object_images/mail_box01.jpg","1","1","1","0","0","0","0.584258600007161","0.525261500006309","0.593820600006438","1","1","1","1","1","1","1","1","1"
"260064","img/object_images/mail_box01.jpg","img/object_images/boat04.jpg","img/object_images/matches02.jpg","1","1","1","0","0","0","0.593820600006438","0.584258600007161","0.479772700011381","1","1","1","1","1","1","1","1","1"
"260064","img/object_images/matches02.jpg","img/object_images/mail_box01.jpg","img/object_images/blender02.jpg","1","1","1","0","0","1","0.479772700011381","0.593820600006438","0.828782200005662","1","1","1","1","1","1","1","1","1"
"260064","img/object_images/blender02.jpg","img/object_images/matches02.jpg","img/object_images/hoverboard01.jpg","1","1","0","1","0","0","0.828782200005662","0.479772700011381","0.900962900006562","1","1","1","1","1","1","1","1","1"
"260064","img/object_images/hoverboard01.jpg","img/object_images/blender02.jpg","img/object_images/remover01.jpg","0","1","1","0","1","1","0.900962900006562","0.828782200005662","0.627880900006858","1","1","1","1","1","1","1","1","1"
"260064","img/object_images/remover01.jpg","img/object_images/hoverboard01.jpg","img/object_images/knit03.jpg","1","0","1","1","0","1","0.627880900006858","0.900962900006562","0.540758300005109","1","1","1","1","1","1","1","1","1"
"260064","img/object_images/knit03.jpg","img/object_images/remover01.jpg","img/object_images/curtain02.jpg","1","1","1","1","1","0","0.540758300005109","0.627880900006858","0.64419390000694","1","1","1","1","1","1","1","1","1"
"260064","img/object_images/curtain02.jpg","img/object_images/knit03.jpg","img/object_images/bottle07.jpg","1","1","1","0","1","1","0.64419390000694","0.540758300005109","0.515146300007473","1","1","1","1","1","1","1","1","1"
"260064","img/object_images/bottle07.jpg","img/object_images/curtain02.jpg","img/object_images/paper_cup02.jpg","1","1","1","1","0","1","0.515146300007473","0.64419390000694","0.617729500001587","1","1","1","1","1","1","1","1","1"
"260064","img/object_images/paper_cup02.jpg","img/object_images/bottle07.jpg","img/object_images/camera03.jpg","1","1","1","1","1","0","0.617729500001587","0.515146300007473","0.706932400004007","1","1","1","1","1","1","1","1","1"
"260064","img/object_images/camera03.jpg","img/object_images/paper_cup02.jpg","img/object_images/car01.jpg","1","1","1","0","1","1","0.706932400004007","0.617729500001587","0.561575200001244","1","1","1","1","1","1","1","1","1"
"260064","img/object_images/car01.jpg","img/object_images/camera03.jpg","img/object_images/stereo02.jpg","1","1","1","1","0","0","0.561575200001244","0.706932400004007","0.497889800004486","1","1","1","1","1","1","1","1","1"
"260064","img/object_images/stereo02.jpg","img/object_images/car01.jpg","img/object_images/hand_grip_exerciser01.jpg","1","1","1","0","1","0","0.497889800004486","0.561575200001244","0.641887199999474","1","1","1","1","1","1","1","1","1"
"260064","img/object_images/hand_grip_exerciser01.jpg","img/object_images/stereo02.jpg","img/object_images/video_game01.jpg","1","1","1","0","0","1","0.641887199999474","0.497889800004486","0.499499600002309","1","1","1","1","1","1","1","1","1"
"260064","img/object_images/video_game01.jpg","img/object_images/hand_grip_exerciser01.jpg","img/object_images/toy08.jpg","1","1","1","1","0","0","0.499499600002309","0.641887199999474","0.563488200001302","1","1","1","1","1","1","1","1","1"
"260064","img/object_images/toy08.jpg","img/object_images/video_game01.jpg","img/object_images/dresser03.jpg","1","1","1","0","1","0","0.563488200001302","0.499499600002309","0.638854000004358","1","1","1","1","1","1","1","1","1"
"260064","img/object_images/dresser03.jpg","img/object_images/toy08.jpg","img/object_images/phone02.jpg","1","1","1","0","0","1","0.638854000004358","0.563488200001302","0.627041500010819","1","1","1","1","1","1","1","1","1"
"260064","img/object_images/phone02.jpg","img/object_images/dresser03.jpg","img/object_images/sponge03.jpg","1","1","1","1","0","1","0.627041500010819","0.638854000004358","0.569062200003827","1","1","1","1","1","1","1","1","1"
"260064","img/object_images/sponge03.jpg","img/object_images/phone02.jpg","img/object_images/gloves02.jpg","1","1","1","1","1","0","0.569062200003827","0.627041500010819","0.704356400005054","1","1","1","1","1","1","1","1","1"
"260064","img/object_images/gloves02.jpg","img/object_images/sponge03.jpg","img/object_images/knife02.jpg","1","1","1","0","1","0","0.704356400005054","0.569062200003827","0.608636800003296","1","1","1","1","1","1","1","1","1"
"260064","img/object_images/knife02.jpg","img/object_images/gloves02.jpg","img/object_images/Statue01.jpg","1","1","1","0","0","1","0.608636800003296","0.704356400005054","0.579550900009053","1","1","1","1","1","1","1","1","1"
"260064","img/object_images/Statue01.jpg","img/object_images/knife02.jpg","img/object_images/backpack01.jpg","1","1","1","1","0","0","0.579550900009053","0.608636800003296","0.817656400002306","1","1","1","1","1","1","1","1","1"
"260064","img/object_images/backpack01.jpg","img/object_images/Statue01.jpg","img/object_images/tool18.jpg","1","1","1","0","1","0","0.817656400002306","0.579550900009053","0.76029930000368","1","1","1","1","1","1","1","1","1"
"260064","img/object_images/tool18.jpg","img/object_images/backpack01.jpg","img/object_images/basket04.jpg","1","1","1","0","0","1","0.76029930000368","0.817656400002306","0.532540100008191","1","1","1","1","1","1","1","1","1"
"260064","img/object_images/basket04.jpg","img/object_images/tool18.jpg","img/object_images/kite01.jpg","1","1","1","1","0","1","0.532540100008191","0.76029930000368","0.860321400003158","1","1","1","1","1","1","1","1","1"
"260064","img/object_images/kite01.jpg","img/object_images/basket04.jpg","img/object_images/keyboard02.jpg","1","1","1","1","1","1","0.860321400003158","0.532540100008191","0.5635406000074","1","1","1","1","1","1","1","1","1"
"260064","img/object_images/keyboard02.jpg","img/object_images/kite01.jpg","img/object_images/knit04.jpg","1","1","1","1","1","1","0.5635406000074","0.860321400003158","0.561713499999314","1","1","1","1","1","1","1","1","1"
"260064","img/object_images/knit04.jpg","img/object_images/keyboard02.jpg","img/object_images/remote_controller01.jpg","1","1","1","1","1","1","0.561713499999314","0.5635406000074","0.610858400010329","1","1","1","1","1","1","1","1","1"
"260064","img/object_images/remote_controller01.jpg","img/object_images/knit04.jpg",NA,"1","1",NA,"1","1",NA,"0.610858400010329","0.561713499999314",NA,"1","1",NA,"1","1",NA,"1","1",NA
"260064","img/object_images/compass01.jpg",NA,"img/object_images/usb02.jpg","1",NA,"1","1",NA,"0","0.448396400002821",NA,"0.53912360000686","1",NA,"1","1",NA,"1","1",NA,"1"
"260064","img/object_images/usb02.jpg","img/object_images/compass01.jpg","img/object_images/Thermometer01.jpg","1","1","1","0","1","0","0.53912360000686","0.448396400002821","0.563422100007301","1","1","1","1","1","1","1","1","1"
"260064","img/object_images/Thermometer01.jpg","img/object_images/usb02.jpg","img/object_images/knit05.jpg","1","1","1","0","0","1","0.563422100007301","0.53912360000686","0.481599600003392","1","1","1","1","1","1","1","1","1"
"260064","img/object_images/knit05.jpg","img/object_images/Thermometer01.jpg","img/object_images/pitcher01.jpg","1","1","1","1","0","0","0.481599600003392","0.563422100007301","0.477397100003145","1","1","1","1","1","1","1","1","1"
"260064","img/object_images/pitcher01.jpg","img/object_images/knit05.jpg","img/object_images/pillows01.jpg","1","1","1","0","1","1","0.477397100003145","0.481599600003392","0.401504600005865","1","1","1","1","1","1","1","1","1"
"260064","img/object_images/pillows01.jpg","img/object_images/pitcher01.jpg","img/object_images/book03.jpg","1","1","1","1","0","1","0.401504600005865","0.477397100003145","0.529001200004132","1","1","1","1","1","1","1","1","1"
"260064","img/object_images/book03.jpg","img/object_images/pillows01.jpg","img/object_images/hammer03.jpg","1","1","1","1","1","1","0.529001200004132","0.401504600005865","0.406982000007702","1","1","1","1","1","1","1","1","1"
"260064","img/object_images/hammer03.jpg","img/object_images/book03.jpg","img/object_images/wire02.jpg","1","1","1","1","1","1","0.406982000007702","0.529001200004132","0.36959680000291","1","1","1","1","1","1","1","1","1"
"260064","img/object_images/wire02.jpg","img/object_images/hammer03.jpg","img/object_images/paint_brush04.jpg","1","1","1","1","1","0","0.36959680000291","0.406982000007702","0.450877300005232","1","1","1","1","1","1","1","1","1"
"260064","img/object_images/paint_brush04.jpg","img/object_images/wire02.jpg","img/object_images/chess_piece02.jpg","1","1","1","0","1","1","0.450877300005232","0.36959680000291","0.467513900002814","1","1","1","1","1","1","1","1","1"
"260064","img/object_images/chess_piece02.jpg","img/object_images/paint_brush04.jpg","img/object_images/clip03.jpg","1","1","1","1","0","0","0.467513900002814","0.450877300005232","0.487970100009989","1","1","1","1","1","1","1","1","1"
"260064","img/object_images/clip03.jpg","img/object_images/chess_piece02.jpg","img/object_images/bottle01.jpg","1","1","0","0","1","0","0.487970100009989","0.467513900002814","0.46220080000785","1","1","1","1","1","1","1","1","1"
"260064","img/object_images/bottle01.jpg","img/object_images/clip03.jpg","img/object_images/floppy_disk03.jpg","0","1","1","0","0","1","0.46220080000785","0.487970100009989","0.591173500011791","1","1","1","1","1","1","1","1","1"
"260064","img/object_images/floppy_disk03.jpg","img/object_images/bottle01.jpg","img/object_images/tv02.jpg","1","0","1","1","0","0","0.591173500011791","0.46220080000785","0.524746200004301","1","1","1","1","1","1","1","1","1"
"260064","img/object_images/tv02.jpg","img/object_images/floppy_disk03.jpg","img/object_images/tennis_racket02.jpg","1","1","1","0","1","1","0.524746200004301","0.591173500011791","0.386718400004611","1","1","1","1","1","1","1","1","1"
"260064","img/object_images/tennis_racket02.jpg","img/object_images/tv02.jpg","img/object_images/retainer01.jpg","1","1","1","1","0","0","0.386718400004611","0.524746200004301","0.56929210000817","1","1","1","1","1","1","1","1","1"
"260064","img/object_images/retainer01.jpg","img/object_images/tennis_racket02.jpg","img/object_images/lid01.jpg","1","1","1","0","1","1","0.56929210000817","0.386718400004611","0.574690300003567","1","1","1","1","1","1","1","1","1"
"260064","img/object_images/lid01.jpg","img/object_images/retainer01.jpg","img/object_images/note_book01.jpg","1","1","1","1","0","0","0.574690300003567","0.56929210000817","0.455267300007108","1","1","1","1","1","1","1","1","1"
"260064","img/object_images/note_book01.jpg","img/object_images/lid01.jpg","img/object_images/knife04.jpg","1","1","1","0","1","1","0.455267300007108","0.574690300003567","0.423540700008743","1","1","1","1","1","1","1","1","1"
"260064","img/object_images/knife04.jpg","img/object_images/note_book01.jpg","img/object_images/motorcycle01.jpg","1","1","1","1","0","1","0.423540700008743","0.455267300007108","0.438820600007602","1","1","1","1","1","1","1","1","1"
"260064","img/object_images/motorcycle01.jpg","img/object_images/knife04.jpg","img/object_images/microscope01.jpg","1","1","1","1","1","0","0.438820600007602","0.423540700008743","0.746816400009266","1","1","1","1","1","1","1","1","1"
"260064","img/object_images/microscope01.jpg","img/object_images/motorcycle01.jpg","img/object_images/cellphone01.jpg","1","1","1","0","1","1","0.746816400009266","0.438820600007602","0.46828030001052","1","1","1","1","1","1","1","1","1"
"260064","img/object_images/cellphone01.jpg","img/object_images/microscope01.jpg","img/object_images/clock02.jpg","1","1","1","1","0","0","0.46828030001052","0.746816400009266","0.383435600007942","1","1","1","1","1","1","1","1","1"
"260064","img/object_images/clock02.jpg","img/object_images/cellphone01.jpg","img/object_images/ear_bud01.jpg","1","1","1","0","1","1","0.383435600007942","0.46828030001052","0.538883600005647","1","1","1","1","1","1","1","1","1"
"260064","img/object_images/ear_bud01.jpg","img/object_images/clock02.jpg","img/object_images/bell02.jpg","1","1","1","1","0","0","0.538883600005647","0.383435600007942","0.525000000008731","1","1","1","1","1","1","1","1","1"
"260064","img/object_images/bell02.jpg","img/object_images/ear_bud01.jpg","img/object_images/pen03.jpg","1","1","1","0","1","0","0.525000000008731","0.538883600005647","0.546289900004922","1","1","1","1","1","1","1","1","1"
"260064","img/object_images/pen03.jpg","img/object_images/bell02.jpg","img/object_images/floppy_disk02.jpg","1","1","0","0","0","0","0.546289900004922","0.525000000008731","0.454891000008502","1","1","1","1","1","1","1","1","1"
"260064","img/object_images/floppy_disk02.jpg","img/object_images/pen03.jpg","img/object_images/Oven01.jpg","0","1","1","0","0","1","0.454891000008502","0.546289900004922","0.5152461000107","1","1","1","1","1","1","1","1","1"
"260064","img/object_images/Oven01.jpg","img/object_images/floppy_disk02.jpg","img/object_images/chair05.jpg","1","0","1","1","0","0","0.5152461000107","0.454891000008502","0.716008000010333","1","1","1","1","1","1","1","1","1"
"260064","img/object_images/chair05.jpg","img/object_images/Oven01.jpg","img/object_images/crutches02.jpg","1","1","1","0","1","0","0.716008000010333","0.5152461000107","0.498178200010443","1","1","1","1","1","1","1","1","1"
"260064","img/object_images/crutches02.jpg","img/object_images/chair05.jpg","img/object_images/Staples01.jpg","1","1","1","0","0","1","0.498178200010443","0.716008000010333","0.471843600003922","1","1","1","1","1","1","1","1","1"
"260064","img/object_images/Staples01.jpg","img/object_images/crutches02.jpg",NA,"1","1",NA,"1","0",NA,"0.471843600003922","0.498178200010443",NA,"1","1",NA,"1","1",NA,"1","1",NA
"260064","img/object_images/Wisk01.jpg",NA,"img/object_images/airfryer01.jpg","1",NA,"1","1",NA,"0","0.672087200007809",NA,"0.578881300010835","1",NA,"1","1",NA,"1","2",NA,"1"
"260064","img/object_images/airfryer01.jpg","img/object_images/Wisk01.jpg","img/object_images/couch04.jpg","1","1","1","0","1","1","0.578881300010835","0.672087200007809","0.406453000010515","1","1","1","1","1","1","1","2","1"
"260064","img/object_images/couch04.jpg","img/object_images/airfryer01.jpg","img/object_images/brief_case02.jpg","1","1","1","1","0","1","0.406453000010515","0.578881300010835","0.601409800008696","1","1","1","1","1","1","1","1","1"
"260064","img/object_images/brief_case02.jpg","img/object_images/couch04.jpg","img/object_images/toy_train02.jpg","1","1","1","1","1","1","0.601409800008696","0.406453000010515","0.465365900003235","1","1","1","1","1","1","1","1","1"
"260064","img/object_images/toy_train02.jpg","img/object_images/brief_case02.jpg","img/object_images/bottle12.jpg","1","1","1","1","1","1","0.465365900003235","0.601409800008696","0.472402300001704","1","1","1","1","1","1","1","1","1"
"260064","img/object_images/bottle12.jpg","img/object_images/toy_train02.jpg","img/object_images/lamp01.jpg","1","1","1","1","1","1","0.472402300001704","0.465365900003235","0.409166500001447","1","1","1","1","1","1","1","1","1"
"260064","img/object_images/lamp01.jpg","img/object_images/bottle12.jpg","img/object_images/cochlear_implant01.jpg","1","1","1","1","1","0","0.409166500001447","0.472402300001704","0.3631288000106","1","1","1","1","1","1","1","1","1"
"260064","img/object_images/cochlear_implant01.jpg","img/object_images/lamp01.jpg","img/object_images/toilet_paper01.jpg","1","1","1","0","1","1","0.3631288000106","0.409166500001447","0.335321200007456","1","1","1","1","1","1","1","1","1"
"260064","img/object_images/toilet_paper01.jpg","img/object_images/cochlear_implant01.jpg","img/object_images/car02.jpg","1","1","1","1","0","0","0.335321200007456","0.3631288000106","0.419796800008044","1","1","1","1","1","1","1","1","1"
"260064","img/object_images/car02.jpg","img/object_images/toilet_paper01.jpg","img/object_images/helmet05.jpg","1","1","1","0","1","1","0.419796800008044","0.335321200007456","0.487571500008926","1","1","1","1","1","1","1","1","1"
"260064","img/object_images/helmet05.jpg","img/object_images/car02.jpg","img/object_images/ball01.jpg","1","1","1","1","0","1","0.487571500008926","0.419796800008044","0.438514200010104","1","1","1","1","1","1","1","1","1"
"260064","img/object_images/ball01.jpg","img/object_images/helmet05.jpg","img/object_images/Recycling01.jpg","1","1","1","1","1","1","0.438514200010104","0.487571500008926","0.50822010000411","1","1","1","1","1","1","1","1","1"
"260064","img/object_images/Recycling01.jpg","img/object_images/ball01.jpg","img/object_images/drone02.jpg","1","1","1","1","1","0","0.50822010000411","0.438514200010104","0.444406700007676","1","1","1","1","1","1","1","1","1"
"260064","img/object_images/drone02.jpg","img/object_images/Recycling01.jpg","img/object_images/Woopie01.jpg","1","1","1","0","1","1","0.444406700007676","0.50822010000411","0.482819000004383","1","1","1","1","1","1","1","1","1"
"260064","img/object_images/Woopie01.jpg","img/object_images/drone02.jpg","img/object_images/hat02.jpg","1","1","1","1","0","0","0.482819000004383","0.444406700007676","0.532994200002577","1","1","1","1","1","1","1","1","1"
"260064","img/object_images/hat02.jpg","img/object_images/Woopie01.jpg","img/object_images/razor03.jpg","1","1","1","0","1","0","0.532994200002577","0.482819000004383","0.472966300010739","1","1","1","1","1","1","1","1","1"
"260064","img/object_images/razor03.jpg","img/object_images/hat02.jpg","img/object_images/soap01.jpg","1","1","1","0","0","0","0.472966300010739","0.532994200002577","0.544628900002863","1","1","1","1","1","1","1","1","1"
"260064","img/object_images/soap01.jpg","img/object_images/razor03.jpg","img/object_images/basketball_hoop02.jpg","1","1","0","0","0","0","0.544628900002863","0.472966300010739","0.475035900009971","1","1","1","1","1","1","1","1","1"
"260064","img/object_images/basketball_hoop02.jpg","img/object_images/soap01.jpg","img/object_images/guitar01.jpg","0","1","1","0","0","1","0.475035900009971","0.544628900002863","0.460792500001844","1","1","1","1","1","1","1","1","1"
"260064","img/object_images/guitar01.jpg","img/object_images/basketball_hoop02.jpg","img/object_images/pitcher03.jpg","1","0","1","1","0","1","0.460792500001844","0.475035900009971","0.56350430000748","1","1","1","1","1","1","1","1","1"
"260064","img/object_images/pitcher03.jpg","img/object_images/guitar01.jpg","img/object_images/ironing_table02.jpg","1","1","1","1","1","0","0.56350430000748","0.460792500001844","0.515274400000635","1","1","1","1","1","1","1","1","1"
"260064","img/object_images/ironing_table02.jpg","img/object_images/pitcher03.jpg","img/object_images/video_game06.jpg","1","1","0","0","1","0","0.515274400000635","0.56350430000748","0.393978900006914","1","1","1","1","1","1","1","1","1"
"260064","img/object_images/video_game06.jpg","img/object_images/ironing_table02.jpg","img/object_images/brief_case01.jpg","0","1","1","0","0","0","0.393978900006914","0.515274400000635","0.51915870000812","1","1","1","1","1","1","1","1","1"
"260064","img/object_images/brief_case01.jpg","img/object_images/video_game06.jpg","img/object_images/decorative02.jpg","1","0","1","0","0","0","0.51915870000812","0.393978900006914","0.626716600010695","1","1","1","1","1","1","1","1","1"
"260064","img/object_images/decorative02.jpg","img/object_images/brief_case01.jpg","img/object_images/tie01.jpg","1","1","1","0","0","0","0.626716600010695","0.51915870000812","0.497690900010639","1","1","1","1","1","1","1","1","1"
"260064","img/object_images/tie01.jpg","img/object_images/decorative02.jpg","img/object_images/lantern01.jpg","1","1","1","0","0","1","0.497690900010639","0.626716600010695","0.428317800004152","1","1","1","1","1","1","1","1","1"
"260064","img/object_images/lantern01.jpg","img/object_images/tie01.jpg","img/object_images/container01.jpg","1","1","1","1","0","0","0.428317800004152","0.497690900010639","0.423588400008157","1","1","1","1","1","1","1","1","1"
"260064","img/object_images/container01.jpg","img/object_images/lantern01.jpg","img/object_images/broom01.jpg","1","1","0","0","1","1","0.423588400008157","0.428317800004152","0.332955000005313","1","1","1","1","1","1","1","1","1"
"260064","img/object_images/broom01.jpg","img/object_images/container01.jpg","img/object_images/chair01.jpg","0","1","1","1","0","0","0.332955000005313","0.423588400008157","0.568328000008478","1","1","1","1","1","1","1","1","1"
"260064","img/object_images/chair01.jpg","img/object_images/broom01.jpg","img/object_images/gloves05.jpg","1","0","1","0","1","1","0.568328000008478","0.332955000005313","0.51130290000583","1","1","1","1","1","1","1","1","1"
"260064","img/object_images/gloves05.jpg","img/object_images/chair01.jpg","img/object_images/pot01.jpg","1","1","1","1","0","0","0.51130290000583","0.568328000008478","0.536409000007552","1","1","1","1","1","1","1","1","1"
"260064","img/object_images/pot01.jpg","img/object_images/gloves05.jpg",NA,"1","1",NA,"0","1",NA,"0.536409000007552","0.51130290000583",NA,"1","1",NA,"1","1",NA,"1","1",NA
"260064","img/object_images/Safe01.jpg",NA,"img/object_images/TreeSlice01.jpg","1",NA,"1","1",NA,"1","0.627652600007423",NA,"0.47602540000662","1",NA,"1","1",NA,"1","1",NA,"1"
"260064","img/object_images/TreeSlice01.jpg","img/object_images/Safe01.jpg","img/object_images/origami01.jpg","1","1","1","1","1","1","0.47602540000662","0.627652600007423","0.56069020000723","1","1","1","1","1","1","1","1","1"
"260064","img/object_images/origami01.jpg","img/object_images/TreeSlice01.jpg","img/object_images/yoga_mat01.jpg","1","1","1","1","1","0","0.56069020000723","0.47602540000662","0.509138800007349","1","1","1","1","1","1","1","1","1"
"260064","img/object_images/yoga_mat01.jpg","img/object_images/origami01.jpg","img/object_images/pitcher07.jpg","1","1","0","0","1","1","0.509138800007349","0.56069020000723","0.311138900011429","1","1","1","1","1","1","1","1","1"
"260064","img/object_images/pitcher07.jpg","img/object_images/yoga_mat01.jpg","img/object_images/lock03.jpg","0","1","1","1","0","1","0.311138900011429","0.509138800007349","0.520949000005203","1","1","1","1","1","1","1","1","1"
"260064","img/object_images/lock03.jpg","img/object_images/pitcher07.jpg","img/object_images/scale02.jpg","1","0","0","1","1","0","0.520949000005203","0.311138900011429","0.410783500003163","1","1","1","1","1","1","1","1","1"
"260064","img/object_images/scale02.jpg","img/object_images/lock03.jpg","img/object_images/Shoes05.jpg","0","1","1","0","1","0","0.410783500003163","0.520949000005203","0.556442400004016","1","1","1","1","1","1","1","1","1"
"260064","img/object_images/Shoes05.jpg","img/object_images/scale02.jpg","img/object_images/nut_cracker01.jpg","1","0","1","0","0","1","0.556442400004016","0.410783500003163","0.492843200001516","1","1","1","1","1","1","1","1","1"
"260064","img/object_images/nut_cracker01.jpg","img/object_images/Shoes05.jpg","img/object_images/shovel01.jpg","1","1","1","1","0","0","0.492843200001516","0.556442400004016","0.497076500003459","1","1","1","1","1","1","1","1","1"
"260064","img/object_images/shovel01.jpg","img/object_images/nut_cracker01.jpg","img/object_images/helmet03.jpg","1","1","1","0","1","1","0.497076500003459","0.492843200001516","0.443739100002858","1","1","1","1","1","1","1","1","1"
"260064","img/object_images/helmet03.jpg","img/object_images/shovel01.jpg","img/object_images/water_gun01.jpg","1","1","1","1","0","1","0.443739100002858","0.497076500003459","0.467628700003843","1","1","1","1","1","1","1","1","1"
"260064","img/object_images/water_gun01.jpg","img/object_images/helmet03.jpg","img/object_images/badminton01.jpg","1","1","1","1","1","1","0.467628700003843","0.443739100002858","0.402244900004007","1","1","1","1","1","1","1","1","1"
"260064","img/object_images/badminton01.jpg","img/object_images/water_gun01.jpg","img/object_images/bookmark01.jpg","1","1","1","1","1","0","0.402244900004007","0.467628700003843","0.62556890000269","1","1","1","1","1","1","1","1","1"
"260064","img/object_images/bookmark01.jpg","img/object_images/badminton01.jpg","img/object_images/frame01.jpg","1","1","1","0","1","1","0.62556890000269","0.402244900004007","0.418129300007422","1","1","1","1","1","1","1","1","1"
"260064","img/object_images/frame01.jpg","img/object_images/bookmark01.jpg","img/object_images/belt03.jpg","1","1","1","1","0","0","0.418129300007422","0.62556890000269","0.523892800003523","1","1","1","1","1","1","1","1","1"
"260064","img/object_images/belt03.jpg","img/object_images/frame01.jpg","img/object_images/ToolBag01.jpg","1","1","1","0","1","0","0.523892800003523","0.418129300007422","0.688642000008258","1","1","1","1","1","1","1","1","1"
"260064","img/object_images/ToolBag01.jpg","img/object_images/belt03.jpg","img/object_images/trumpet01.jpg","1","1","1","0","0","0","0.688642000008258","0.523892800003523","0.503690300007293","1","1","1","1","1","1","1","1","1"
"260064","img/object_images/trumpet01.jpg","img/object_images/ToolBag01.jpg","img/object_images/headset02.jpg","1","1","1","0","0","0","0.503690300007293","0.688642000008258","0.580488300009165","1","1","1","1","1","1","1","1","1"
"260064","img/object_images/headset02.jpg","img/object_images/trumpet01.jpg","img/object_images/fan01.jpg","1","1","1","0","0","0","0.580488300009165","0.503690300007293","0.563343500012706","1","1","1","1","1","1","1","1","1"
"260064","img/object_images/fan01.jpg","img/object_images/headset02.jpg","img/object_images/bucket01.jpg","1","1","1","0","0","1","0.563343500012706","0.580488300009165","0.500381700010621","1","1","1","1","1","1","1","1","1"
"260064","img/object_images/bucket01.jpg","img/object_images/fan01.jpg","img/object_images/jewel02.jpg","1","1","1","1","0","0","0.500381700010621","0.563343500012706","0.461986900001648","1","1","1","1","1","1","1","1","1"
"260064","img/object_images/jewel02.jpg","img/object_images/bucket01.jpg","img/object_images/tennis_racket01.jpg","1","1","1","0","1","1","0.461986900001648","0.500381700010621","0.413759000010032","1","1","1","1","1","1","1","1","1"
"260064","img/object_images/tennis_racket01.jpg","img/object_images/jewel02.jpg","img/object_images/egg_basket01.jpg","1","1","1","1","0","1","0.413759000010032","0.461986900001648","0.437253000003693","1","1","1","1","1","1","1","1","1"
"260064","img/object_images/egg_basket01.jpg","img/object_images/tennis_racket01.jpg","img/object_images/bottle06.jpg","1","1","1","1","1","0","0.437253000003693","0.413759000010032","0.637625500006834","1","1","1","1","1","1","1","1","1"
"260064","img/object_images/bottle06.jpg","img/object_images/egg_basket01.jpg","img/object_images/phone04.jpg","1","1","1","0","1","1","0.637625500006834","0.437253000003693","0.44084550000116","1","1","1","1","1","1","1","1","1"
"260064","img/object_images/phone04.jpg","img/object_images/bottle06.jpg","img/object_images/Eyeliner01.jpg","1","1","1","1","0","1","0.44084550000116","0.637625500006834","0.436402000006638","1","1","1","1","1","1","1","1","1"
"260064","img/object_images/Eyeliner01.jpg","img/object_images/phone04.jpg","img/object_images/piano03.jpg","1","1","1","1","1","0","0.436402000006638","0.44084550000116","0.534717800008366","1","1","1","1","1","1","1","1","1"
"260064","img/object_images/piano03.jpg","img/object_images/Eyeliner01.jpg","img/object_images/joystick03.jpg","1","1","1","0","1","1","0.534717800008366","0.436402000006638","0.478322200004186","1","1","1","1","1","1","1","1","1"
"260064","img/object_images/joystick03.jpg","img/object_images/piano03.jpg","img/object_images/note_book02.jpg","1","1","1","1","0","0","0.478322200004186","0.534717800008366","0.653930400003446","1","1","1","1","1","1","1","1","1"
"260064","img/object_images/note_book02.jpg","img/object_images/joystick03.jpg","img/object_images/dice01.jpg","1","1","1","0","1","0","0.653930400003446","0.478322200004186","0.447341000006418","1","1","1","1","1","1","1","1","1"
"260064","img/object_images/dice01.jpg","img/object_images/note_book02.jpg","img/object_images/usb03.jpg","1","1","1","0","0","0","0.447341000006418","0.653930400003446","0.568511500001478","1","1","1","1","1","1","1","1","1"
"260064","img/object_images/usb03.jpg","img/object_images/dice01.jpg",NA,"1","1",NA,"0","0",NA,"0.568511500001478","0.447341000006418",NA,"1","1",NA,"1","1",NA,"1","1",NA
"260064","img/object_images/chess_piece01.jpg",NA,"img/object_images/stove01.jpg","0",NA,"1","0",NA,"0","0.580259900001693",NA,"0.549758699999074","1",NA,"1","1",NA,"1","1",NA,"1"
"260064","img/object_images/stove01.jpg","img/object_images/chess_piece01.jpg","img/object_images/lock01.jpg","1","0","0","0","0","0","0.549758699999074","0.580259900001693","0.450226900007692","1","1","1","1","1","1","1","1","1"
"260064","img/object_images/lock01.jpg","img/object_images/stove01.jpg","img/object_images/trash_can05.jpg","0","1","1","0","0","1","0.450226900007692","0.549758699999074","0.460329600005934","1","1","1","1","1","1","1","1","1"
"260064","img/object_images/trash_can05.jpg","img/object_images/lock01.jpg","img/object_images/combs01.jpg","1","0","0","1","0","1","0.460329600005934","0.450226900007692","0.365018700002111","1","1","1","1","1","1","1","1","1"
"260064","img/object_images/combs01.jpg","img/object_images/trash_can05.jpg","img/object_images/laptop03.jpg","0","1","1","1","1","1","0.365018700002111","0.460329600005934","0.456143100003828","1","1","1","1","1","1","1","1","1"
"260064","img/object_images/laptop03.jpg","img/object_images/combs01.jpg","img/object_images/calculator01.jpg","1","0","1","1","1","1","0.456143100003828","0.365018700002111","0.485580200009281","1","1","1","1","1","1","1","1","1"
"260064","img/object_images/calculator01.jpg","img/object_images/laptop03.jpg","img/object_images/accardion01.jpg","1","1","1","1","1","1","0.485580200009281","0.456143100003828","0.480196400007117","1","1","1","1","1","1","1","1","1"
"260064","img/object_images/accardion01.jpg","img/object_images/calculator01.jpg","img/object_images/shoes08.jpg","1","1","1","1","1","1","0.480196400007117","0.485580200009281","0.434817200002726","1","1","1","1","1","1","1","1","1"
"260064","img/object_images/shoes08.jpg","img/object_images/accardion01.jpg","img/object_images/spatula02.jpg","1","1","1","1","1","1","0.434817200002726","0.480196400007117","0.544984700005443","1","1","1","1","1","1","1","1","1"
"260064","img/object_images/spatula02.jpg","img/object_images/shoes08.jpg","img/object_images/microphone03.jpg","1","1","1","1","1","1","0.544984700005443","0.434817200002726","0.556774300006509","1","1","1","1","1","1","1","1","1"
"260064","img/object_images/microphone03.jpg","img/object_images/spatula02.jpg","img/object_images/trash_can03.jpg","1","1","1","1","1","1","0.556774300006509","0.544984700005443","0.435136600004626","1","1","1","1","1","1","1","1","1"
"260064","img/object_images/trash_can03.jpg","img/object_images/microphone03.jpg","img/object_images/ball02.jpg","1","1","1","1","1","1","0.435136600004626","0.556774300006509","0.400864700000966","1","1","1","1","1","1","1","1","1"
"260064","img/object_images/ball02.jpg","img/object_images/trash_can03.jpg","img/object_images/fan04.jpg","1","1","1","1","1","0","0.400864700000966","0.435136600004626","0.53217680000671","1","1","1","1","1","1","1","1","1"
"260064","img/object_images/fan04.jpg","img/object_images/ball02.jpg","img/object_images/helmet02.jpg","1","1","0","0","1","0","0.53217680000671","0.400864700000966",NA,"1","1","0","1","1","0","1","1","0"
"260064","img/object_images/helmet02.jpg","img/object_images/fan04.jpg","img/object_images/chair02.jpg","0","1","1","0","0","1",NA,"0.53217680000671","0.37082050000754","0","1","1","0","1","1","0","1","1"
"260064","img/object_images/chair02.jpg","img/object_images/helmet02.jpg","img/object_images/towels01.jpg","1","0","1","1","0","0","0.37082050000754",NA,"0.467030200008594","1","0","1","1","0","1","1","0","1"
"260064","img/object_images/towels01.jpg","img/object_images/chair02.jpg","img/object_images/toy05.jpg","1","1","1","0","1","0","0.467030200008594","0.37082050000754","0.510548500009463","1","1","1","1","1","1","1","1","1"
"260064","img/object_images/toy05.jpg","img/object_images/towels01.jpg","img/object_images/jewel03.jpg","1","1","1","0","0","1","0.510548500009463","0.467030200008594","0.440071500001068","1","1","1","1","1","1","1","1","1"
"260064","img/object_images/jewel03.jpg","img/object_images/toy05.jpg","img/object_images/gift_box05.jpg","1","1","0","1","0","0","0.440071500001068","0.510548500009463","0.435423000009905","1","1","1","1","1","1","1","1","1"
"260064","img/object_images/gift_box05.jpg","img/object_images/jewel03.jpg","img/object_images/pitcher05.jpg","0","1","1","0","1","0","0.435423000009905","0.440071500001068","0.586007400001108","1","1","1","1","1","1","1","1","1"
"260064","img/object_images/pitcher05.jpg","img/object_images/gift_box05.jpg","img/object_images/backpack03.jpg","1","0","1","0","0","1","0.586007400001108","0.435423000009905","0.46152890000667","1","1","1","1","1","1","1","1","1"
"260064","img/object_images/backpack03.jpg","img/object_images/pitcher05.jpg","img/object_images/Vest02.jpg","1","1","1","1","0","0","0.46152890000667","0.586007400001108","0.491495600006601","1","1","1","1","1","1","1","1","1"
"260064","img/object_images/Vest02.jpg","img/object_images/backpack03.jpg","img/object_images/vase01.jpg","1","1","1","0","1","0","0.491495600006601","0.46152890000667","0.62473420000606","1","1","1","1","1","1","1","1","1"
"260064","img/object_images/vase01.jpg","img/object_images/Vest02.jpg","img/object_images/robe01.jpg","1","1","1","0","0","1","0.62473420000606","0.491495600006601","0.415338700004213","1","1","1","1","1","1","1","1","1"
"260064","img/object_images/robe01.jpg","img/object_images/vase01.jpg","img/object_images/surf_board01.jpg","1","1","1","1","0","1","0.415338700004213","0.62473420000606","0.530978900009359","1","1","1","1","1","1","1","1","1"
"260064","img/object_images/surf_board01.jpg","img/object_images/robe01.jpg","img/object_images/hair_brush02.jpg","1","1","1","1","1","0","0.530978900009359","0.415338700004213","0.520989000011468","1","1","1","1","1","1","1","1","1"
"260064","img/object_images/hair_brush02.jpg","img/object_images/surf_board01.jpg","img/object_images/umbrella01.jpg","1","1","1","0","1","0","0.520989000011468","0.530978900009359","0.698375200001465","1","1","1","1","1","1","1","1","1"
"260064","img/object_images/umbrella01.jpg","img/object_images/hair_brush02.jpg","img/object_images/bucket02.jpg","1","1","1","0","0","1","0.698375200001465","0.520989000011468","0.738328400002501","1","1","1","1","1","1","1","1","2"
"260064","img/object_images/bucket02.jpg","img/object_images/umbrella01.jpg","img/object_images/laptop01.jpg","1","1","1","1","0","0","0.738328400002501","0.698375200001465","0.751554200003739","1","1","1","1","1","1","2","1","1"
"260064","img/object_images/laptop01.jpg","img/object_images/bucket02.jpg","img/object_images/hair_dryer01.jpg","1","1","0","0","1","0","0.751554200003739","0.738328400002501","0.725197800005844","1","1","1","1","1","1","1","2","1"
"260064","img/object_images/hair_dryer01.jpg","img/object_images/laptop01.jpg","img/object_images/Lint_Roller02.jpg","0","1","1","0","0","0","0.725197800005844","0.751554200003739","0.511939200005145","1","1","1","1","1","1","1","1","1"
"260064","img/object_images/Lint_Roller02.jpg","img/object_images/hair_dryer01.jpg",NA,"1","0",NA,"0","0",NA,"0.511939200005145","0.725197800005844",NA,"1","1",NA,"1","1",NA,"1","1",NA
"260064","img/object_images/sink01.jpg",NA,"img/object_images/pot01 (1).jpg","0",NA,"1","0",NA,"0","0.956830400005856",NA,"0.545403399999486","1",NA,"1","1",NA,"1","1",NA,"1"
"260064","img/object_images/pot01 (1).jpg","img/object_images/sink01.jpg","img/object_images/outlet01.jpg","1","0","1","0","0","0","0.545403399999486","0.956830400005856","0.346682300005341","1","1","1","1","1","1","1","1","1"
"260064","img/object_images/outlet01.jpg","img/object_images/pot01 (1).jpg","img/object_images/helmet01.jpg","1","1","1","0","0","0","0.346682300005341","0.545403399999486","0.466092300004675","1","1","1","1","1","1","1","1","1"
"260064","img/object_images/helmet01.jpg","img/object_images/outlet01.jpg","img/object_images/bottle05.jpg","1","1","0","0","0","0","0.466092300004675","0.346682300005341","0.338950400007889","1","1","1","1","1","1","1","1","1"
"260064","img/object_images/bottle05.jpg","img/object_images/helmet01.jpg","img/object_images/judge_gavel01.jpg","0","1","1","0","0","1","0.338950400007889","0.466092300004675","0.506244300006074","1","1","1","1","1","1","1","1","1"
"260064","img/object_images/judge_gavel01.jpg","img/object_images/bottle05.jpg","img/object_images/bird_house02.jpg","1","0","1","1","0","1","0.506244300006074","0.338950400007889","0.550940300003276","1","1","1","1","1","1","1","1","1"
"260064","img/object_images/bird_house02.jpg","img/object_images/judge_gavel01.jpg","img/object_images/tool09.jpg","1","1","1","1","1","1","0.550940300003276","0.506244300006074","0.462938100012252","1","1","1","1","1","1","1","1","1"
"260064","img/object_images/tool09.jpg","img/object_images/bird_house02.jpg","img/object_images/MetalWire01.jpg","1","1","1","1","1","0","0.462938100012252","0.550940300003276","0.510169300003326","1","1","1","1","1","1","1","1","1"
"260064","img/object_images/MetalWire01.jpg","img/object_images/tool09.jpg","img/object_images/toy03.jpg","1","1","1","0","1","1","0.510169300003326","0.462938100012252","0.562634200003231","1","1","1","1","1","1","1","1","1"
"260064","img/object_images/toy03.jpg","img/object_images/MetalWire01.jpg","img/object_images/guitar02.jpg","1","1","1","1","0","0","0.562634200003231","0.510169300003326","0.517078400007449","1","1","1","1","1","1","1","1","1"
"260064","img/object_images/guitar02.jpg","img/object_images/toy03.jpg","img/object_images/acoustic_capo01.jpg","1","1","1","0","1","1","0.517078400007449","0.562634200003231","0.490205000009155","1","1","1","1","1","1","1","1","1"
"260064","img/object_images/acoustic_capo01.jpg","img/object_images/guitar02.jpg","img/object_images/Tin01.jpg","1","1","1","1","0","1","0.490205000009155","0.517078400007449","0.451243400006206","1","1","1","1","1","1","1","1","1"
"260064","img/object_images/Tin01.jpg","img/object_images/acoustic_capo01.jpg","img/object_images/fridge03.jpg","1","1","1","1","1","0","0.451243400006206","0.490205000009155","0.747576200010371","1","1","1","1","1","1","1","1","1"
"260064","img/object_images/fridge03.jpg","img/object_images/Tin01.jpg","img/object_images/ornament01.jpg","1","1","1","0","1","1","0.747576200010371","0.451243400006206","0.556084500007273","1","1","1","1","1","1","1","1","1"
"260064","img/object_images/ornament01.jpg","img/object_images/fridge03.jpg","img/object_images/Ring02.jpg","1","1","1","1","0","0","0.556084500007273","0.747576200010371","0.51508790000662","1","1","1","1","1","1","1","1","1"
"260064","img/object_images/Ring02.jpg","img/object_images/ornament01.jpg","img/object_images/jewel04.jpg","1","1","1","0","1","0","0.51508790000662","0.556084500007273","0.668643300006806","1","1","1","1","1","1","1","1","1"
"260064","img/object_images/jewel04.jpg","img/object_images/Ring02.jpg","img/object_images/Vacuum01.jpg","1","1","1","0","0","0","0.668643300006806","0.51508790000662","0.563522000004014","1","1","1","1","1","1","1","1","1"
"260064","img/object_images/Vacuum01.jpg","img/object_images/jewel04.jpg","img/object_images/Stool01.jpg","1","1","0","0","0","0","0.563522000004014","0.668643300006806","0.842527000007976","1","1","1","1","1","1","1","1","1"
"260064","img/object_images/Stool01.jpg","img/object_images/Vacuum01.jpg","img/object_images/frisbee01.jpg","0","1","1","0","0","1","0.842527000007976","0.563522000004014","0.492711100007","1","1","1","1","1","1","1","1","1"
"260064","img/object_images/frisbee01.jpg","img/object_images/Stool01.jpg","img/object_images/towel02.jpg","1","0","1","1","0","1","0.492711100007","0.842527000007976","0.428007900009106","1","1","1","1","1","1","1","1","1"
"260064","img/object_images/towel02.jpg","img/object_images/frisbee01.jpg","img/object_images/dart01.jpg","1","1","1","1","1","0","0.428007900009106","0.492711100007","0.512731900002109","1","1","1","1","1","1","1","1","1"
"260064","img/object_images/dart01.jpg","img/object_images/towel02.jpg","img/object_images/shovel03.jpg","1","1","1","0","1","1","0.512731900002109","0.428007900009106","0.455574000006891","1","1","1","1","1","1","1","1","1"
"260064","img/object_images/shovel03.jpg","img/object_images/dart01.jpg","img/object_images/toy04.jpg","1","1","1","1","0","0","0.455574000006891","0.512731900002109","0.548816400005308","1","1","1","1","1","1","1","1","1"
"260064","img/object_images/toy04.jpg","img/object_images/shovel03.jpg","img/object_images/stapler.jpg","1","1","1","0","1","1","0.548816400005308","0.455574000006891","0.461915900006716","1","1","1","1","1","1","1","1","1"
"260064","img/object_images/stapler.jpg","img/object_images/toy04.jpg","img/object_images/tool02.jpg","1","1","1","1","0","1","0.461915900006716","0.548816400005308","0.519384700004593","1","1","1","1","1","1","1","1","1"
"260064","img/object_images/tool02.jpg","img/object_images/stapler.jpg","img/object_images/video_game07.jpg","1","1","0","1","1","1","0.519384700004593","0.461915900006716","0.477268000002368","1","1","1","1","1","1","1","1","1"
"260064","img/object_images/video_game07.jpg","img/object_images/tool02.jpg","img/object_images/mirror01.jpg","0","1","1","1","1","1","0.477268000002368","0.519384700004593","0.495483100006822","1","1","1","1","1","1","1","1","1"
"260064","img/object_images/mirror01.jpg","img/object_images/video_game07.jpg","img/object_images/gauze01.jpg","1","0","1","1","1","0","0.495483100006822","0.477268000002368","0.513782500005618","1","1","1","1","1","1","1","1","1"
"260064","img/object_images/gauze01.jpg","img/object_images/mirror01.jpg","img/object_images/crown02.jpg","1","1","1","0","1","1","0.513782500005618","0.495483100006822","0.496239100008097","1","1","1","1","1","1","1","1","1"
"260064","img/object_images/crown02.jpg","img/object_images/gauze01.jpg","img/object_images/watch01.jpg","1","1","1","1","0","0","0.496239100008097","0.513782500005618","0.511092200002167","1","1","1","1","1","1","1","1","1"
"260064","img/object_images/watch01.jpg","img/object_images/crown02.jpg","img/object_images/bow01.jpg","1","1","1","0","1","1","0.511092200002167","0.496239100008097","0.491414200005238","1","1","1","1","1","1","1","1","1"
"260064","img/object_images/bow01.jpg","img/object_images/watch01.jpg",NA,"1","1",NA,"1","0",NA,"0.491414200005238","0.511092200002167",NA,"1","1",NA,"1","1",NA,"1","1",NA
"260064","img/object_images/grater01.jpg",NA,"img/object_images/balloon01.jpg","0",NA,"1","1",NA,"0",NA,NA,"0.707762000005459","0",NA,"1","0",NA,"1","0",NA,"1"
"260064","img/object_images/balloon01.jpg","img/object_images/grater01.jpg","img/object_images/vga_port 01.jpg","1","0","1","0","1","0","0.707762000005459",NA,"0.569243700003426","1","0","1","1","0","1","1","0","1"
"260064","img/object_images/vga_port 01.jpg","img/object_images/balloon01.jpg","img/object_images/measuring_tape02.jpg","1","1","1","0","0","1","0.569243700003426","0.707762000005459","0.524709700010135","1","1","1","1","1","1","1","1","1"
"260064","img/object_images/measuring_tape02.jpg","img/object_images/vga_port 01.jpg","img/object_images/Witchhat01.jpg","1","1","1","1","0","1","0.524709700010135","0.569243700003426","0.456322400001227","1","1","1","1","1","1","1","1","1"
"260064","img/object_images/Witchhat01.jpg","img/object_images/measuring_tape02.jpg","img/object_images/coloring_pencil01.jpg","1","1","1","1","1","1","0.456322400001227","0.524709700010135","0.415747000006377","1","1","1","1","1","1","1","1","1"
"260064","img/object_images/coloring_pencil01.jpg","img/object_images/Witchhat01.jpg","img/object_images/bow_tie01.jpg","1","1","1","1","1","0","0.415747000006377","0.456322400001227","0.598865600004501","1","1","1","1","1","1","1","1","1"
"260064","img/object_images/bow_tie01.jpg","img/object_images/coloring_pencil01.jpg","img/object_images/bath_tub01.jpg","1","1","1","0","1","0","0.598865600004501","0.415747000006377","0.45350770001096","1","1","1","1","1","1","1","1","1"
"260064","img/object_images/bath_tub01.jpg","img/object_images/bow_tie01.jpg","img/object_images/socks02.jpg","1","1","1","0","0","0","0.45350770001096","0.598865600004501","0.560502200009068","1","1","1","1","1","1","1","1","1"
"260064","img/object_images/socks02.jpg","img/object_images/bath_tub01.jpg","img/object_images/handkerchief01.jpg","1","1","1","0","0","0","0.560502200009068","0.45350770001096","0.813262500007113","1","1","1","1","1","1","1","1","1"
"260064","img/object_images/handkerchief01.jpg","img/object_images/socks02.jpg","img/object_images/fork03.jpg","1","1","1","0","0","1","0.813262500007113","0.560502200009068","0.499939600005746","1","1","1","1","1","1","1","1","1"
"260064","img/object_images/fork03.jpg","img/object_images/handkerchief01.jpg","img/object_images/ironing_table01.jpg","1","1","1","1","0","0","0.499939600005746","0.813262500007113","0.75933680000162","1","1","1","1","1","1","1","1","1"
"260064","img/object_images/ironing_table01.jpg","img/object_images/fork03.jpg","img/object_images/sleeping_bag01.jpg","1","1","1","0","1","0","0.75933680000162","0.499939600005746","0.485883100001956","1","1","1","1","1","1","1","1","1"
"260064","img/object_images/sleeping_bag01.jpg","img/object_images/ironing_table01.jpg","img/object_images/jacket03.jpg","1","1","0","0","0","0","0.485883100001956","0.75933680000162","0.493555500004732","1","1","1","1","1","1","1","1","2"
"260064","img/object_images/jacket03.jpg","img/object_images/sleeping_bag01.jpg","img/object_images/pitcher02.jpg","0","1","1","0","0","1","0.493555500004732","0.485883100001956","0.456179300002987","1","1","1","1","1","1","2","1","1"
"260064","img/object_images/pitcher02.jpg","img/object_images/jacket03.jpg","img/object_images/gift_box01.jpg","1","0","1","1","0","1","0.456179300002987","0.493555500004732","0.493823800010432","1","1","1","1","1","1","1","2","1"
"260064","img/object_images/gift_box01.jpg","img/object_images/pitcher02.jpg","img/object_images/gift_box02.jpg","1","1","1","1","1","1","0.493823800010432","0.456179300002987","0.550221900004544","1","1","1","1","1","1","1","1","1"
"260064","img/object_images/gift_box02.jpg","img/object_images/gift_box01.jpg","img/object_images/clip02.jpg","1","1","1","1","1","1","0.550221900004544","0.493823800010432","0.379664500011131","1","1","1","1","1","1","1","1","1"
"260064","img/object_images/clip02.jpg","img/object_images/gift_box02.jpg","img/object_images/funnel01.jpg","1","1","1","1","1","0","0.379664500011131","0.550221900004544","0.686931700001878","1","1","1","1","1","1","1","1","1"
"260064","img/object_images/funnel01.jpg","img/object_images/clip02.jpg","img/object_images/bow_tie02.jpg","1","1","1","0","1","0","0.686931700001878","0.379664500011131","0.446263300007558","1","1","1","1","1","1","1","1","1"
"260064","img/object_images/bow_tie02.jpg","img/object_images/funnel01.jpg","img/object_images/lawn_mower01.jpg","1","1","1","0","0","1","0.446263300007558","0.686931700001878","0.517941400001291","1","1","1","1","1","1","1","1","1"
"260064","img/object_images/lawn_mower01.jpg","img/object_images/bow_tie02.jpg","img/object_images/jewelry01.jpg","1","1","1","1","0","1","0.517941400001291","0.446263300007558","0.568754600011744","1","1","1","1","1","1","1","1","1"
"260064","img/object_images/jewelry01.jpg","img/object_images/lawn_mower01.jpg","img/object_images/camera07.jpg","1","1","1","1","1","1","0.568754600011744","0.517941400001291","0.50963920000504","1","1","1","1","1","1","1","1","1"
"260064","img/object_images/camera07.jpg","img/object_images/jewelry01.jpg","img/object_images/wallet02.jpg","1","1","1","1","1","1","0.50963920000504","0.568754600011744","0.612369600006787","1","1","1","1","1","1","1","1","1"
"260064","img/object_images/wallet02.jpg","img/object_images/camera07.jpg","img/object_images/dresser04.jpg","1","1","1","1","1","0","0.612369600006787","0.50963920000504","0.52140910000162","1","1","1","1","1","1","1","1","1"
"260064","img/object_images/dresser04.jpg","img/object_images/wallet02.jpg","img/object_images/Screws01.jpg","1","1","1","0","1","1","0.52140910000162","0.612369600006787","0.490319800002908","1","1","1","1","1","1","1","1","1"
"260064","img/object_images/Screws01.jpg","img/object_images/dresser04.jpg","img/object_images/paper_cup01.jpg","1","1","1","1","0","0","0.490319800002908","0.52140910000162","0.65779840000323","1","1","1","1","1","1","1","1","1"
"260064","img/object_images/paper_cup01.jpg","img/object_images/Screws01.jpg","img/object_images/hammer01.jpg","1","1","1","0","1","0","0.65779840000323","0.490319800002908","0.638358200005314","1","1","1","1","1","1","1","1","1"
"260064","img/object_images/hammer01.jpg","img/object_images/paper_cup01.jpg","img/object_images/golf_ball03.jpg","1","1","1","0","0","1","0.638358200005314","0.65779840000323","0.552847500010103","1","1","1","1","1","1","1","1","1"
"260064","img/object_images/golf_ball03.jpg","img/object_images/hammer01.jpg","img/object_images/couch03.jpg","1","1","1","1","0","0","0.552847500010103","0.638358200005314","0.590363400006026","1","1","1","1","1","1","1","1","1"
"260064","img/object_images/couch03.jpg","img/object_images/golf_ball03.jpg","img/object_images/gift_box03.jpg","1","1","1","0","1","0","0.590363400006026","0.552847500010103","0.72727210001176","1","1","1","1","1","1","1","1","1"
"260064","img/object_images/gift_box03.jpg","img/object_images/couch03.jpg","img/object_images/lock04.jpg","1","1","1","0","0","1","0.72727210001176","0.590363400006026","0.622391300006711","1","1","1","1","1","1","1","1","1"
"260064","img/object_images/lock04.jpg","img/object_images/gift_box03.jpg",NA,"1","1",NA,"1","0",NA,"0.622391300006711","0.72727210001176",NA,"1","1",NA,"1","1",NA,"1","1",NA
"260064","img/object_images/boat02.jpg",NA,"img/object_images/flask01.jpg","1",NA,"1","1",NA,"0","0.5262159000049",NA,"0.562944200006314","1",NA,"1","1",NA,"1","1",NA,"1"
"260064","img/object_images/flask01.jpg","img/object_images/boat02.jpg","img/object_images/fan02.jpg","1","1","1","0","1","0","0.562944200006314","0.5262159000049","0.508651400006784","1","1","1","1","1","1","1","1","1"
"260064","img/object_images/fan02.jpg","img/object_images/flask01.jpg","img/object_images/tool19.jpg","1","1","1","0","0","1","0.508651400006784","0.562944200006314","0.3679012000066","1","1","1","1","1","1","1","1","1"
"260064","img/object_images/tool19.jpg","img/object_images/fan02.jpg","img/object_images/shoes07.jpg","1","1","0","1","0","0","0.3679012000066","0.508651400006784","0.453024800008279","1","1","1","1","1","1","1","1","2"
"260064","img/object_images/shoes07.jpg","img/object_images/tool19.jpg","img/object_images/bicycle01.jpg","0","1","1","0","1","1","0.453024800008279","0.3679012000066","0.469177100007073","1","1","1","1","1","1","2","1","1"
"260064","img/object_images/bicycle01.jpg","img/object_images/shoes07.jpg","img/object_images/wagon_cart03.jpg","1","0","1","1","0","1","0.469177100007073","0.453024800008279","0.520378700006404","1","1","1","1","1","1","1","2","1"
"260064","img/object_images/wagon_cart03.jpg","img/object_images/bicycle01.jpg","img/object_images/perfume02.jpg","1","1","1","1","1","0","0.520378700006404","0.469177100007073","0.600473500009684","1","1","1","1","1","1","1","1","1"
"260064","img/object_images/perfume02.jpg","img/object_images/wagon_cart03.jpg","img/object_images/piggy_bank01.jpg","1","1","1","0","1","1","0.600473500009684","0.520378700006404","0.479115700007242","1","1","1","1","1","1","1","1","1"
"260064","img/object_images/piggy_bank01.jpg","img/object_images/perfume02.jpg","img/object_images/dog_leash01.jpg","1","1","0","1","0","0","0.479115700007242","0.600473500009684","0.342355100001441","1","1","1","1","1","1","1","1","1"
"260064","img/object_images/dog_leash01.jpg","img/object_images/piggy_bank01.jpg","img/object_images/hat06.jpg","0","1","1","0","1","0","0.342355100001441","0.479115700007242","0.582718800011207","1","1","1","1","1","1","1","1","1"
"260064","img/object_images/hat06.jpg","img/object_images/dog_leash01.jpg","img/object_images/bottle02.jpg","1","0","1","0","0","1","0.582718800011207","0.342355100001441","0.548992300005921","1","1","1","1","1","1","1","1","1"
"260064","img/object_images/bottle02.jpg","img/object_images/hat06.jpg","img/object_images/coloring_pencil02.jpg","1","1","1","1","0","0","0.548992300005921","0.582718800011207","0.551808600008371","1","1","1","1","1","1","1","1","1"
"260064","img/object_images/coloring_pencil02.jpg","img/object_images/bottle02.jpg","img/object_images/knit01.jpg","1","1","1","0","1","0","0.551808600008371","0.548992300005921","0.635005600008299","1","1","1","1","1","1","1","1","1"
"260064","img/object_images/knit01.jpg","img/object_images/coloring_pencil02.jpg","img/object_images/toaster01.jpg","1","1","1","0","0","1","0.635005600008299","0.551808600008371","0.561487100007071","1","1","1","1","1","1","1","1","1"
"260064","img/object_images/toaster01.jpg","img/object_images/knit01.jpg","img/object_images/scoreboard01.jpg","1","1","1","1","0","1","0.561487100007071","0.635005600008299","0.424728900004993","1","1","1","1","1","1","1","1","1"
"260064","img/object_images/scoreboard01.jpg","img/object_images/toaster01.jpg","img/object_images/pen05.jpg","1","1","1","1","1","0","0.424728900004993","0.561487100007071","0.504791500003194","1","1","1","1","1","1","1","1","1"
"260064","img/object_images/pen05.jpg","img/object_images/scoreboard01.jpg","img/object_images/bottle09.jpg","1","1","1","0","1","0","0.504791500003194","0.424728900004993","0.482650400008424","1","1","1","1","1","1","1","1","1"
"260064","img/object_images/bottle09.jpg","img/object_images/pen05.jpg","img/object_images/audio_port01.jpg","1","1","0","0","0","1","0.482650400008424","0.504791500003194","0.446539200005645","1","1","1","1","1","1","1","1","1"
"260064","img/object_images/audio_port01.jpg","img/object_images/bottle09.jpg","img/object_images/boat_toy10.jpg","0","1","1","1","0","0","0.446539200005645","0.482650400008424","0.675503900005424","1","1","1","1","1","1","1","1","1"
"260064","img/object_images/boat_toy10.jpg","img/object_images/audio_port01.jpg","img/object_images/tie02.jpg","1","0","0","0","1","0","0.675503900005424","0.446539200005645","0.676260600004753","1","1","1","1","1","1","1","1","1"
"260064","img/object_images/tie02.jpg","img/object_images/boat_toy10.jpg","img/object_images/toilet_paper_dispenser01.jpg","0","1","1","0","0","1","0.676260600004753","0.675503900005424","0.551042400009464","1","1","1","1","1","1","1","1","1"
"260064","img/object_images/toilet_paper_dispenser01.jpg","img/object_images/tie02.jpg","img/object_images/helmet04.jpg","1","0","1","1","0","1","0.551042400009464","0.676260600004753","0.429281000011542","1","1","1","1","1","1","1","1","1"
"260064","img/object_images/helmet04.jpg","img/object_images/toilet_paper_dispenser01.jpg","img/object_images/bottle10.jpg","1","1","0","1","1","1","0.429281000011542","0.551042400009464","0.835342000005767","1","1","1","1","1","1","1","1","1"
"260064","img/object_images/bottle10.jpg","img/object_images/helmet04.jpg","img/object_images/WoodBox01.jpg","0","1","1","1","1","0","0.835342000005767","0.429281000011542","0.531366499999422","1","1","1","1","1","1","1","1","1"
"260064","img/object_images/WoodBox01.jpg","img/object_images/bottle10.jpg","img/object_images/purse04.jpg","1","0","1","0","1","1","0.531366499999422","0.835342000005767","0.473960900002567","1","1","1","1","1","1","1","1","1"
"260064","img/object_images/purse04.jpg","img/object_images/WoodBox01.jpg","img/object_images/water_scooter01.jpg","1","1","1","1","0","1","0.473960900002567","0.531366499999422","0.496356600007857","1","1","1","1","1","1","1","1","1"
"260064","img/object_images/water_scooter01.jpg","img/object_images/purse04.jpg","img/object_images/camera_lens01.jpg","1","1","1","1","1","1","0.496356600007857","0.473960900002567","0.347070300005726","1","1","1","1","1","1","1","1","1"
"260064","img/object_images/camera_lens01.jpg","img/object_images/water_scooter01.jpg","img/object_images/chair03.jpg","1","1","1","1","1","0","0.347070300005726","0.496356600007857","0.651910200009297","1","1","1","1","1","1","1","1","1"
"260064","img/object_images/chair03.jpg","img/object_images/camera_lens01.jpg","img/object_images/bean_bag02.jpg","1","1","1","0","1","1","0.651910200009297","0.347070300005726","0.476153200004774","1","1","1","1","1","1","1","1","1"
"260064","img/object_images/bean_bag02.jpg","img/object_images/chair03.jpg","img/object_images/hot_air_balloon02.jpg","1","1","0","1","0","0","0.476153200004774","0.651910200009297","0.462712600005034","1","1","1","1","1","1","1","1","2"
"260064","img/object_images/hot_air_balloon02.jpg","img/object_images/bean_bag02.jpg","img/object_images/cellphone03.jpg","0","1","1","0","1","0","0.462712600005034","0.476153200004774","0.442790900007822","1","1","1","1","1","1","2","1","1"
"260064","img/object_images/cellphone03.jpg","img/object_images/hot_air_balloon02.jpg",NA,"1","0",NA,"0","0",NA,"0.442790900007822","0.462712600005034",NA,"1","1",NA,"1","1",NA,"1","2",NA
"260064","img/object_images/ladle02.jpg",NA,"img/object_images/shower_head03.jpg","1",NA,"1","0",NA,"1","1.39320660000521",NA,"0.502791700011585","1",NA,"1","1",NA,"1","1",NA,"1"
"260064","img/object_images/shower_head03.jpg","img/object_images/ladle02.jpg","img/object_images/car03.jpg","1","1","0","1","0","0","0.502791700011585","1.39320660000521","0.457091700001911","1","1","1","1","1","1","1","1","1"
"260064","img/object_images/car03.jpg","img/object_images/shower_head03.jpg","img/object_images/hair_brush05.jpg","0","1","1","0","1","1","0.457091700001911","0.502791700011585","0.449844400005531","1","1","1","1","1","1","1","1","1"
"260064","img/object_images/hair_brush05.jpg","img/object_images/car03.jpg","img/object_images/binoculars03.jpg","1","0","1","1","0","1","0.449844400005531","0.457091700001911","0.436134800002037","1","1","1","1","1","1","1","1","1"
"260064","img/object_images/binoculars03.jpg","img/object_images/hair_brush05.jpg","img/object_images/belt01.jpg","1","1","1","1","1","0","0.436134800002037","0.449844400005531","0.303539100001217","1","1","1","1","1","1","1","1","1"
"260064","img/object_images/belt01.jpg","img/object_images/binoculars03.jpg","img/object_images/car04.jpg","1","1","0","0","1","0","0.303539100001217","0.436134800002037","0.437570500005677","1","1","1","1","1","1","1","1","1"
"260064","img/object_images/car04.jpg","img/object_images/belt01.jpg","img/object_images/jewel01.jpg","0","1","0","0","0","0","0.437570500005677","0.303539100001217","0.436415100004524","1","1","1","1","1","1","1","1","1"
"260064","img/object_images/jewel01.jpg","img/object_images/car04.jpg","img/object_images/cutting_board01.jpg","0","0","1","0","0","1","0.436415100004524","0.437570500005677","0.484584300007555","1","1","1","1","1","1","1","1","1"
"260064","img/object_images/cutting_board01.jpg","img/object_images/jewel01.jpg","img/object_images/shoes10.jpg","1","0","1","1","0","0","0.484584300007555","0.436415100004524","0.551223300004494","1","1","1","1","1","1","1","1","1"
"260064","img/object_images/shoes10.jpg","img/object_images/cutting_board01.jpg","img/object_images/toaster02.jpg","1","1","1","0","1","1","0.551223300004494","0.484584300007555","0.443152000007103","1","1","1","1","1","1","1","1","1"
"260064","img/object_images/toaster02.jpg","img/object_images/shoes10.jpg","img/object_images/chair04.jpg","1","1","1","1","0","1","0.443152000007103","0.551223300004494","0.579665000004752","1","1","1","1","1","1","1","1","1"
"260064","img/object_images/chair04.jpg","img/object_images/toaster02.jpg","img/object_images/yarn02.jpg","1","1","1","1","1","0","0.579665000004752","0.443152000007103","0.578295100007381","1","1","1","1","1","1","1","1","1"
"260064","img/object_images/yarn02.jpg","img/object_images/chair04.jpg","img/object_images/mask01.jpg","1","1","1","0","1","0","0.578295100007381","0.579665000004752","0.518102300004102","1","1","1","1","1","1","1","1","1"
"260064","img/object_images/mask01.jpg","img/object_images/yarn02.jpg","img/object_images/jewelry07.jpg","1","1","1","0","0","1","0.518102300004102","0.578295100007381","0.497202099999413","1","1","1","1","1","1","1","1","1"
"260064","img/object_images/jewelry07.jpg","img/object_images/mask01.jpg","img/object_images/ice_tray03.jpg","1","1","1","1","0","1","0.497202099999413","0.518102300004102","0.605553000001237","1","1","1","1","1","1","1","1","1"
"260064","img/object_images/ice_tray03.jpg","img/object_images/jewelry07.jpg","img/object_images/key02.jpg","1","1","1","1","1","1","0.605553000001237","0.497202099999413","0.585997000009229","1","1","1","1","1","1","1","1","1"
"260064","img/object_images/key02.jpg","img/object_images/ice_tray03.jpg","img/object_images/slinky_toy01.jpg","1","1","1","1","1","1","0.585997000009229","0.605553000001237","0.91410060000635","1","1","1","1","1","1","1","1","1"
"260064","img/object_images/slinky_toy01.jpg","img/object_images/key02.jpg","img/object_images/lemon_squeezer02.jpg","1","1","1","1","1","1","0.91410060000635","0.585997000009229","0.563097300000663","1","1","1","1","1","1","1","1","1"
"260064","img/object_images/lemon_squeezer02.jpg","img/object_images/slinky_toy01.jpg","img/object_images/WitchHat02.jpg","1","1","1","1","1","1","0.563097300000663","0.91410060000635","0.486449900003208","1","1","1","1","1","1","1","1","1"
"260064","img/object_images/WitchHat02.jpg","img/object_images/lemon_squeezer02.jpg","img/object_images/fan05.jpg","1","1","0","1","1","0","0.486449900003208","0.563097300000663","0.343456300004618","1","1","1","1","1","1","1","1","1"
"260064","img/object_images/fan05.jpg","img/object_images/WitchHat02.jpg","img/object_images/dress03.jpg","0","1","1","0","1","1","0.343456300004618","0.486449900003208","0.495933100006368","1","1","1","1","1","1","1","1","1"
"260064","img/object_images/dress03.jpg","img/object_images/fan05.jpg","img/object_images/screwdriver01.jpg","1","0","1","1","0","0","0.495933100006368","0.343456300004618","0.648703800005023","1","1","1","1","1","1","1","1","1"
"260064","img/object_images/screwdriver01.jpg","img/object_images/dress03.jpg","img/object_images/satellite01.jpg","1","1","1","0","1","0","0.648703800005023","0.495933100006368","0.543046000006143","1","1","1","1","1","1","1","1","1"
"260064","img/object_images/satellite01.jpg","img/object_images/screwdriver01.jpg","img/object_images/MeasuringCup01.jpg","1","1","1","0","0","1","0.543046000006143","0.648703800005023","0.445777300003101","1","1","1","1","1","1","1","1","1"
"260064","img/object_images/MeasuringCup01.jpg","img/object_images/satellite01.jpg","img/object_images/rock03.jpg","1","1","1","1","0","0","0.445777300003101","0.543046000006143","0.456690800005163","1","1","1","1","1","1","1","1","1"
"260064","img/object_images/rock03.jpg","img/object_images/MeasuringCup01.jpg","img/object_images/tool11.jpg","1","1","1","0","1","1","0.456690800005163","0.445777300003101","0.492379900002561","1","1","1","1","1","1","1","1","1"
"260064","img/object_images/tool11.jpg","img/object_images/rock03.jpg","img/object_images/ribbon01.jpg","1","1","1","1","0","0","0.492379900002561","0.456690800005163","0.51565830000618","1","1","1","1","1","1","1","1","1"
"260064","img/object_images/ribbon01.jpg","img/object_images/tool11.jpg","img/object_images/tv01.jpg","1","1","1","0","1","0","0.51565830000618","0.492379900002561","0.434149100008653","1","1","1","1","1","1","1","1","1"
"260064","img/object_images/tv01.jpg","img/object_images/ribbon01.jpg","img/object_images/razor01.jpg","1","1","1","0","0","0","0.434149100008653","0.51565830000618","0.556610300009197","1","1","1","1","1","1","1","1","1"
"260064","img/object_images/razor01.jpg","img/object_images/tv01.jpg","img/object_images/cards01.jpg","1","1","0","0","0","0","0.556610300009197","0.434149100008653","0.646740500000305","1","1","1","1","1","1","1","1","1"
"260064","img/object_images/cards01.jpg","img/object_images/razor01.jpg","img/object_images/bag06.jpg","0","1","1","0","0","1","0.646740500000305","0.556610300009197","0.513472600003297","1","1","1","1","1","1","1","1","1"
"260064","img/object_images/bag06.jpg","img/object_images/cards01.jpg",NA,"1","0",NA,"1","0",NA,"0.513472600003297","0.646740500000305",NA,"1","1",NA,"1","1",NA,"1","1",NA
"260064","img/object_images/scarf01.jpg",NA,"img/object_images/toothbrush01.jpg","1",NA,"1","1",NA,"0","0.823710300006496",NA,"0.619269400005578","1",NA,"1","1",NA,"1","1",NA,"1"
"260064","img/object_images/toothbrush01.jpg","img/object_images/scarf01.jpg","img/object_images/tripod01.jpg","1","1","1","0","1","1","0.619269400005578","0.823710300006496","0.48236370000086","1","1","1","1","1","1","1","1","1"
"260064","img/object_images/tripod01.jpg","img/object_images/toothbrush01.jpg","img/object_images/tool06.jpg","1","1","1","1","0","0","0.48236370000086","0.619269400005578","0.526642000004358","1","1","1","1","1","1","1","1","1"
"260064","img/object_images/tool06.jpg","img/object_images/tripod01.jpg","img/object_images/airfryer02.jpg","1","1","1","0","1","1","0.526642000004358","0.48236370000086","0.372759600009886","1","1","1","1","1","1","1","1","1"
"260064","img/object_images/airfryer02.jpg","img/object_images/tool06.jpg","img/object_images/box03.jpg","1","1","1","1","0","0","0.372759600009886","0.526642000004358","0.4663714000053","1","1","1","1","1","1","1","1","1"
"260064","img/object_images/box03.jpg","img/object_images/airfryer02.jpg","img/object_images/bell03.jpg","1","1","1","0","1","0","0.4663714000053","0.372759600009886","0.418503600005351","1","1","1","1","1","1","1","1","1"
"260064","img/object_images/bell03.jpg","img/object_images/box03.jpg","img/object_images/pitcher09.jpg","1","1","1","0","0","1","0.418503600005351","0.4663714000053","0.426881900006265","1","1","1","1","1","1","1","1","1"
"260064","img/object_images/pitcher09.jpg","img/object_images/bell03.jpg","img/object_images/bag_pipes01.jpg","1","1","1","1","0","1","0.426881900006265","0.418503600005351","0.403433100007533","1","1","1","1","1","1","1","1","1"
"260064","img/object_images/bag_pipes01.jpg","img/object_images/pitcher09.jpg","img/object_images/soap03.jpg","1","1","0","1","1","0","0.403433100007533","0.426881900006265","0.282143400007044","1","1","1","1","1","1","1","1","1"
"260064","img/object_images/soap03.jpg","img/object_images/bag_pipes01.jpg","img/object_images/blender01.jpg","0","1","1","0","1","0","0.282143400007044","0.403433100007533","0.429000400006771","1","1","1","1","1","1","1","1","1"
"260064","img/object_images/blender01.jpg","img/object_images/soap03.jpg","img/object_images/fork02.jpg","1","0","1","0","0","0","0.429000400006771","0.282143400007044","0.623999499999627","1","1","1","1","1","1","1","1","1"
"260064","img/object_images/fork02.jpg","img/object_images/blender01.jpg","img/object_images/couch01.jpg","1","1","1","0","0","0","0.623999499999627","0.429000400006771","0.481894200005627","1","1","1","1","1","1","1","1","1"
"260064","img/object_images/couch01.jpg","img/object_images/fork02.jpg","img/object_images/Violin01.jpg","1","1","1","0","0","0","0.481894200005627","0.623999499999627","0.47362490001251","1","1","1","1","1","1","1","1","1"
"260064","img/object_images/Violin01.jpg","img/object_images/couch01.jpg","img/object_images/egg_slicer01.jpg","1","1","1","0","0","1","0.47362490001251","0.481894200005627","0.464972800007672","1","1","1","1","1","1","1","1","1"
"260064","img/object_images/egg_slicer01.jpg","img/object_images/Violin01.jpg","img/object_images/skate_board01.jpg","1","1","1","1","0","0","0.464972800007672","0.47362490001251","0.467159000007086","1","1","1","1","1","1","1","1","1"
"260064","img/object_images/skate_board01.jpg","img/object_images/egg_slicer01.jpg","img/object_images/video_game03.jpg","1","1","1","0","1","1","0.467159000007086","0.464972800007672","0.420074700006808","1","1","1","1","1","1","1","1","1"
"260064","img/object_images/video_game03.jpg","img/object_images/skate_board01.jpg","img/object_images/chair06.jpg","1","1","1","1","0","0","0.420074700006808","0.467159000007086","0.526673500004108","1","1","1","1","1","1","1","1","1"
"260064","img/object_images/chair06.jpg","img/object_images/video_game03.jpg","img/object_images/chain01.jpg","1","1","1","0","1","0","0.526673500004108","0.420074700006808","0.464915400007158","1","1","1","1","1","1","1","1","1"
"260064","img/object_images/chain01.jpg","img/object_images/chair06.jpg","img/object_images/shoes12.jpg","1","1","1","0","0","1","0.464915400007158","0.526673500004108","0.423222900004475","1","1","1","1","1","1","1","1","1"
"260064","img/object_images/shoes12.jpg","img/object_images/chain01.jpg","img/object_images/clip04.jpg","1","1","1","1","0","1","0.423222900004475","0.464915400007158","0.805355000004056","1","1","1","1","1","1","1","1","1"
"260064","img/object_images/clip04.jpg","img/object_images/shoes12.jpg","img/object_images/Trowel01.jpg","1","1","0","1","1","0","0.805355000004056","0.423222900004475","0.390904800005956","1","1","1","1","1","1","1","1","1"
"260064","img/object_images/Trowel01.jpg","img/object_images/clip04.jpg","img/object_images/rock02.jpg","0","1","1","0","1","0","0.390904800005956","0.805355000004056","0.645945500007656","1","1","1","1","1","1","1","1","1"
"260064","img/object_images/rock02.jpg","img/object_images/Trowel01.jpg","img/object_images/mail_box02.jpg","1","0","1","0","0","1","0.645945500007656","0.390904800005956","0.391009000006307","1","1","1","1","1","1","1","1","1"
"260064","img/object_images/mail_box02.jpg","img/object_images/rock02.jpg","img/object_images/hair_brush01.jpg","1","1","1","1","0","1","0.391009000006307","0.645945500007656","0.387633000005735","1","1","1","1","1","1","1","1","1"
"260064","img/object_images/hair_brush01.jpg","img/object_images/mail_box02.jpg","img/object_images/computer_mouse02.jpg","1","1","1","1","1","0","0.387633000005735","0.391009000006307","0.496452300008969","1","1","1","1","1","1","1","1","1"
"260064","img/object_images/computer_mouse02.jpg","img/object_images/hair_brush01.jpg","img/object_images/pen01.jpg","1","1","1","0","1","0","0.496452300008969","0.387633000005735","0.572438500006683","1","1","1","1","1","1","1","1","1"
"260064","img/object_images/pen01.jpg","img/object_images/computer_mouse02.jpg","img/object_images/book02.jpg","1","1","1","0","0","1","0.572438500006683","0.496452300008969","0.491302800000994","1","1","1","1","1","1","1","1","1"
"260064","img/object_images/book02.jpg","img/object_images/pen01.jpg","img/object_images/toy01.jpg","1","1","1","1","0","1","0.491302800000994","0.572438500006683","0.544385600005626","1","1","1","1","1","1","1","1","1"
"260064","img/object_images/toy01.jpg","img/object_images/book02.jpg","img/object_images/floss02.jpg","1","1","1","1","1","1","0.544385600005626","0.491302800000994","0.505168800009415","1","1","1","1","1","1","1","1","1"
"260064","img/object_images/floss02.jpg","img/object_images/toy01.jpg","img/object_images/drone01.jpg","1","1","1","1","1","1","0.505168800009415","0.544385600005626","0.535208900000725","1","1","1","1","1","1","1","1","1"
"260064","img/object_images/drone01.jpg","img/object_images/floss02.jpg","img/object_images/computer_mouse01.jpg","1","1","0","1","1","1","0.535208900000725","0.505168800009415","0.493372100012493","1","1","1","1","1","1","1","1","1"
"260064","img/object_images/computer_mouse01.jpg","img/object_images/drone01.jpg",NA,"0","1",NA,"1","1",NA,"0.493372100012493","0.535208900000725",NA,"1","1",NA,"1","1",NA,"1","1",NA
"260064","img/object_images/board01.jpg",NA,"img/object_images/knife01.jpg","1",NA,"1","1",NA,"1","0.789510200011136",NA,"0.37193350000598","1",NA,"1","1",NA,"1","1",NA,"1"
"260064","img/object_images/knife01.jpg","img/object_images/board01.jpg","img/object_images/lemon_squeezer01.jpg","1","1","1","1","1","1","0.37193350000598","0.789510200011136","0.430050200004189","1","1","1","1","1","1","1","1","1"
"260064","img/object_images/lemon_squeezer01.jpg","img/object_images/knife01.jpg","img/object_images/camera05.jpg","1","1","1","1","1","0","0.430050200004189","0.37193350000598","0.321151500007545","1","1","1","1","1","1","1","1","1"
"260064","img/object_images/camera05.jpg","img/object_images/lemon_squeezer01.jpg","img/object_images/perfume01.jpg","1","1","1","0","1","0","0.321151500007545","0.430050200004189","0.404802800010657","1","1","1","1","1","1","1","1","1"
"260064","img/object_images/perfume01.jpg","img/object_images/camera05.jpg","img/object_images/pen06.jpg","1","1","0","0","0","0","0.404802800010657","0.321151500007545","0.456160900008399","1","1","1","1","1","1","1","1","1"
"260064","img/object_images/pen06.jpg","img/object_images/perfume01.jpg","img/object_images/hat09.jpg","0","1","1","0","0","0","0.456160900008399","0.404802800010657","0.627553700011049","1","1","1","1","1","1","1","1","1"
"260064","img/object_images/hat09.jpg","img/object_images/pen06.jpg","img/object_images/spray_can01.jpg","1","0","1","0","0","0","0.627553700011049","0.456160900008399","0.419781800002966","1","1","1","1","1","1","1","1","1"
"260064","img/object_images/spray_can01.jpg","img/object_images/hat09.jpg","img/object_images/Confetti 01.jpg","1","1","0","0","0","0","0.419781800002966","0.627553700011049","0.48328980000224","1","1","1","1","1","1","1","1","1"
"260064","img/object_images/Confetti 01.jpg","img/object_images/spray_can01.jpg","img/object_images/hammer02.jpg","0","1","1","0","0","0","0.48328980000224","0.419781800002966","0.645766600006027","1","1","1","1","1","1","1","1","1"
"260064","img/object_images/hammer02.jpg","img/object_images/Confetti 01.jpg","img/object_images/floss01.jpg","1","0","1","0","0","1","0.645766600006027","0.48328980000224","0.527604400005657","1","1","1","1","1","1","1","1","1"
"260064","img/object_images/floss01.jpg","img/object_images/hammer02.jpg","img/object_images/sign02.jpg","1","1","1","1","0","0","0.527604400005657","0.645766600006027","0.515127500009839","1","1","1","1","1","1","1","1","1"
"260064","img/object_images/sign02.jpg","img/object_images/floss01.jpg","img/object_images/pan03.jpg","1","1","1","0","1","1","0.515127500009839","0.527604400005657","0.486216300007072","1","1","1","1","1","1","1","1","1"
"260064","img/object_images/pan03.jpg","img/object_images/sign02.jpg","img/object_images/cup01.jpg","1","1","1","1","0","0","0.486216300007072","0.515127500009839","0.514165700005833","1","1","1","1","1","1","1","1","1"
"260064","img/object_images/cup01.jpg","img/object_images/pan03.jpg","img/object_images/duster01.jpg","1","1","1","0","1","0","0.514165700005833","0.486216300007072","0.560559800011106","1","1","1","1","1","1","1","1","1"
"260064","img/object_images/duster01.jpg","img/object_images/cup01.jpg","img/object_images/office_supplies01.jpg","1","1","1","0","0","1","0.560559800011106","0.514165700005833","0.539373200001137","1","1","1","1","1","1","1","1","1"
"260064","img/object_images/office_supplies01.jpg","img/object_images/duster01.jpg","img/object_images/video_game02.jpg","1","1","1","1","0","1","0.539373200001137","0.560559800011106","0.508222000004025","1","1","1","1","1","1","1","1","1"
"260064","img/object_images/video_game02.jpg","img/object_images/office_supplies01.jpg","img/object_images/sink_filter01 (1).jpg","1","1","0","1","1","0","0.508222000004025","0.539373200001137","0.755020200005674","1","1","1","1","1","1","1","1","1"
"260064","img/object_images/sink_filter01 (1).jpg","img/object_images/video_game02.jpg","img/object_images/hat13.jpg","0","1","1","0","1","1","0.755020200005674","0.508222000004025","0.552641500005848","1","1","1","1","1","1","1","1","1"
"260064","img/object_images/hat13.jpg","img/object_images/sink_filter01 (1).jpg","img/object_images/razor02.jpg","1","0","1","1","0","1","0.552641500005848","0.755020200005674","0.519467099999019","1","1","1","1","1","1","1","1","1"
"260064","img/object_images/razor02.jpg","img/object_images/hat13.jpg","img/object_images/dust_pan01.jpg","1","1","1","1","1","1","0.519467099999019","0.552641500005848","0.546746400010306","1","1","1","1","1","1","1","1","1"
"260064","img/object_images/dust_pan01.jpg","img/object_images/razor02.jpg","img/object_images/Candle_Holder01.jpg","1","1","1","1","1","0","0.546746400010306","0.519467099999019","0.510114000004251","1","1","1","1","1","1","1","1","1"
"260064","img/object_images/Candle_Holder01.jpg","img/object_images/dust_pan01.jpg","img/object_images/tool13.jpg","1","1","1","0","1","1","0.510114000004251","0.546746400010306","0.445475800006534","1","1","1","1","1","1","1","1","1"
"260064","img/object_images/tool13.jpg","img/object_images/Candle_Holder01.jpg","img/object_images/glasses03.jpg","1","1","0","1","0","0","0.445475800006534","0.510114000004251","0.468082100000174","1","1","1","1","1","1","1","1","1"
"260064","img/object_images/glasses03.jpg","img/object_images/tool13.jpg","img/object_images/socks01.jpg","0","1","1","0","1","1","0.468082100000174","0.445475800006534","0.488038000003144","1","1","1","1","1","1","1","1","1"
"260064","img/object_images/socks01.jpg","img/object_images/glasses03.jpg","img/object_images/clipboard01.jpg","1","0","1","1","0","1","0.488038000003144","0.468082100000174","0.707446200009144","1","1","1","1","1","1","1","1","1"
"260064","img/object_images/clipboard01.jpg","img/object_images/socks01.jpg","img/object_images/bow_tie03.jpg","1","1","1","1","1","1","0.707446200009144","0.488038000003144","0.662161300002481","1","1","1","1","1","1","1","1","1"
"260064","img/object_images/bow_tie03.jpg","img/object_images/clipboard01.jpg","img/object_images/ruler02.jpg","1","1","1","1","1","1","0.662161300002481","0.707446200009144","0.568719600007171","1","1","1","1","1","1","1","1","1"
"260064","img/object_images/ruler02.jpg","img/object_images/bow_tie03.jpg","img/object_images/bag04.jpg","1","1","1","1","1","0","0.568719600007171","0.662161300002481","0.623569100003806","1","1","1","1","1","1","1","1","1"
"260064","img/object_images/bag04.jpg","img/object_images/ruler02.jpg","img/object_images/vase02.jpg","1","1","0","0","1","1","0.623569100003806","0.568719600007171",NA,"1","1","0","1","1","0","1","1","0"
"260064","img/object_images/vase02.jpg","img/object_images/bag04.jpg","img/object_images/candle02.jpg","0","1","1","1","0","0",NA,"0.623569100003806","0.606460300004983","0","1","1","0","1","1","0","1","1"
"260064","img/object_images/candle02.jpg","img/object_images/vase02.jpg","img/object_images/tool20.jpg","1","0","0","0","1","0","0.606460300004983",NA,"0.644300500011013","1","0","1","1","0","1","1","0","1"
"260064","img/object_images/tool20.jpg","img/object_images/candle02.jpg",NA,"0","1",NA,"0","0",NA,"0.644300500011013","0.606460300004983",NA,"1","1",NA,"1","1",NA,"1","1",NA
