"participant_id","current_trial_object","pre_trial_object","post_trial_object","current_trial_accuracy","pre_trial_accuracy","post_trial_accuracy","current_trial_congruency","pre_trial_congruency","post_trial_congruency","current_trial_rt","pre_trial_rt","post_trial_rt","current_trial_responded","pre_trial_responded","post_trial_responded","current_trial_legitResponse","pre_trial_legitResponse","post_trial_legitResponse","current_trial_resp_nums","pre_trial_resp_nums","post_trial_resp_nums"
"260043","img/object_images/helmet02.jpg",NA,"img/object_images/pitcher05.jpg","0",NA,"1","0",NA,"0","1.09384510014206",NA,"0.710560300154611","1",NA,"1","1",NA,"1","1",NA,"1"
"260043","img/object_images/pitcher05.jpg","img/object_images/helmet02.jpg","img/object_images/laptop01.jpg","1","0","1","0","0","0","0.710560300154611","1.09384510014206","0.744373200228438","1","1","1","1","1","1","1","1","1"
"260043","img/object_images/laptop01.jpg","img/object_images/pitcher05.jpg","img/object_images/chess_piece01.jpg","1","1","1","0","0","0","0.744373200228438","0.710560300154611","0.591461200267076","1","1","1","1","1","1","1","1","1"
"260043","img/object_images/chess_piece01.jpg","img/object_images/laptop01.jpg","img/object_images/vase01.jpg","1","1","1","0","0","0","0.591461200267076","0.744373200228438","0.524364300072193","1","1","1","1","1","1","1","1","1"
"260043","img/object_images/vase01.jpg","img/object_images/chess_piece01.jpg","img/object_images/stove01.jpg","1","1","1","0","0","0","0.524364300072193","0.591461200267076","0.647213299991563","1","1","1","1","1","1","1","1","1"
"260043","img/object_images/stove01.jpg","img/object_images/vase01.jpg","img/object_images/spatula02.jpg","1","1","1","0","0","1","0.647213299991563","0.524364300072193","0.59954520012252","1","1","1","1","1","1","1","1","1"
"260043","img/object_images/spatula02.jpg","img/object_images/stove01.jpg","img/object_images/backpack03.jpg","1","1","1","1","0","1","0.59954520012252","0.647213299991563","0.521513100015","1","1","1","1","1","1","1","1","1"
"260043","img/object_images/backpack03.jpg","img/object_images/spatula02.jpg","img/object_images/jewel03.jpg","1","1","1","1","1","1","0.521513100015","0.59954520012252","0.665810300270095","1","1","1","1","1","1","1","1","1"
"260043","img/object_images/jewel03.jpg","img/object_images/backpack03.jpg","img/object_images/towels01.jpg","1","1","1","1","1","0","0.665810300270095","0.521513100015","0.543611400062218","1","1","1","1","1","1","1","1","1"
"260043","img/object_images/towels01.jpg","img/object_images/jewel03.jpg","img/object_images/bucket02.jpg","1","1","1","0","1","1","0.543611400062218","0.665810300270095","0.629220000235364","1","1","1","1","1","1","1","1","1"
"260043","img/object_images/bucket02.jpg","img/object_images/towels01.jpg","img/object_images/toy05.jpg","1","1","1","1","0","0","0.629220000235364","0.543611400062218","0.629151900066063","1","1","1","1","1","1","1","1","1"
"260043","img/object_images/toy05.jpg","img/object_images/bucket02.jpg","img/object_images/robe01.jpg","1","1","1","0","1","1","0.629151900066063","0.629220000235364","0.697855900041759","1","1","1","1","1","1","1","1","1"
"260043","img/object_images/robe01.jpg","img/object_images/toy05.jpg","img/object_images/Lint_Roller02.jpg","1","1","1","1","0","0","0.697855900041759","0.629151900066063","0.54134580004029","1","1","1","1","1","1","1","1","1"
"260043","img/object_images/Lint_Roller02.jpg","img/object_images/robe01.jpg","img/object_images/Vest02.jpg","1","1","1","0","1","0","0.54134580004029","0.697855900041759","0.617840100312606","1","1","1","1","1","1","1","1","1"
"260043","img/object_images/Vest02.jpg","img/object_images/Lint_Roller02.jpg","img/object_images/trash_can05.jpg","1","1","1","0","0","1","0.617840100312606","0.54134580004029","0.624539000215009","1","1","1","1","1","1","1","1","1"
"260043","img/object_images/trash_can05.jpg","img/object_images/Vest02.jpg","img/object_images/shoes08.jpg","1","1","1","1","0","1","0.624539000215009","0.617840100312606","0.630059400107712","1","1","1","1","1","1","1","1","1"
"260043","img/object_images/shoes08.jpg","img/object_images/trash_can05.jpg","img/object_images/chair02.jpg","1","1","1","1","1","1","0.630059400107712","0.624539000215009","0.963797300122678","1","1","1","1","1","1","1","1","1"
"260043","img/object_images/chair02.jpg","img/object_images/shoes08.jpg","img/object_images/accardion01.jpg","1","1","1","1","1","1","0.963797300122678","0.630059400107712","0.636514000128955","1","1","1","1","1","1","1","1","1"
"260043","img/object_images/accardion01.jpg","img/object_images/chair02.jpg","img/object_images/combs01.jpg","1","1","1","1","1","1","0.636514000128955","0.963797300122678","0.523924100212753","1","1","1","1","1","1","1","1","1"
"260043","img/object_images/combs01.jpg","img/object_images/accardion01.jpg","img/object_images/calculator01.jpg","1","1","1","1","1","1","0.523924100212753","0.636514000128955","0.590671200072393","1","1","1","1","1","1","1","1","1"
"260043","img/object_images/calculator01.jpg","img/object_images/combs01.jpg","img/object_images/lock01.jpg","1","1","1","1","1","0","0.590671200072393","0.523924100212753","0.601461600046605","1","1","1","1","1","1","1","1","1"
"260043","img/object_images/lock01.jpg","img/object_images/calculator01.jpg","img/object_images/hair_dryer01.jpg","1","1","1","0","1","0","0.601461600046605","0.590671200072393","0.592310200212523","1","1","1","1","1","1","1","1","1"
"260043","img/object_images/hair_dryer01.jpg","img/object_images/lock01.jpg","img/object_images/ball02.jpg","1","1","1","0","0","1","0.592310200212523","0.601461600046605","0.548233499983326","1","1","1","1","1","1","1","1","1"
"260043","img/object_images/ball02.jpg","img/object_images/hair_dryer01.jpg","img/object_images/surf_board01.jpg","1","1","1","1","0","1","0.548233499983326","0.592310200212523","0.571797500131652","1","1","1","1","1","1","1","1","1"
"260043","img/object_images/surf_board01.jpg","img/object_images/ball02.jpg","img/object_images/trash_can03.jpg","1","1","1","1","1","1","0.571797500131652","0.548233499983326","0.704760300228372","1","1","1","1","1","1","1","1","1"
"260043","img/object_images/trash_can03.jpg","img/object_images/surf_board01.jpg","img/object_images/laptop03.jpg","1","1","1","1","1","1","0.704760300228372","0.571797500131652","0.528628000058234","1","1","1","1","1","1","1","1","1"
"260043","img/object_images/laptop03.jpg","img/object_images/trash_can03.jpg","img/object_images/gift_box05.jpg","1","1","1","1","1","0","0.528628000058234","0.704760300228372","0.644400600111112","1","1","1","1","1","1","1","1","1"
"260043","img/object_images/gift_box05.jpg","img/object_images/laptop03.jpg","img/object_images/hair_brush02.jpg","1","1","1","0","1","0","0.644400600111112","0.528628000058234","0.641854700166732","1","1","1","1","1","1","1","1","1"
"260043","img/object_images/hair_brush02.jpg","img/object_images/gift_box05.jpg","img/object_images/umbrella01.jpg","1","1","1","0","0","0","0.641854700166732","0.644400600111112","0.619975000154227","1","1","1","1","1","1","1","1","1"
"260043","img/object_images/umbrella01.jpg","img/object_images/hair_brush02.jpg","img/object_images/microphone03.jpg","1","1","1","0","0","1","0.619975000154227","0.641854700166732","0.50473970011808","1","1","1","1","1","1","1","1","1"
"260043","img/object_images/microphone03.jpg","img/object_images/umbrella01.jpg","img/object_images/fan04.jpg","1","1","1","1","0","0","0.50473970011808","0.619975000154227","0.648609700147063","1","1","1","1","1","1","1","1","1"
"260043","img/object_images/fan04.jpg","img/object_images/microphone03.jpg",NA,"1","1",NA,"0","1",NA,"0.648609700147063","0.50473970011808",NA,"1","1",NA,"1","1",NA,"1","1",NA
"260043","img/object_images/Trowel01.jpg",NA,"img/object_images/book02.jpg","1",NA,"1","0",NA,"1","0.663415600080043",NA,"0.440231000073254","1",NA,"1","1",NA,"1","1",NA,"1"
"260043","img/object_images/book02.jpg","img/object_images/Trowel01.jpg","img/object_images/scarf01.jpg","1","1","1","1","0","1","0.440231000073254","0.663415600080043","0.503117000218481","1","1","1","1","1","1","1","1","1"
"260043","img/object_images/scarf01.jpg","img/object_images/book02.jpg","img/object_images/skate_board01.jpg","1","1","1","1","1","0","0.503117000218481","0.440231000073254","0.507851700065657","1","1","1","1","1","1","1","1","1"
"260043","img/object_images/skate_board01.jpg","img/object_images/scarf01.jpg","img/object_images/toy01.jpg","1","1","1","0","1","1","0.507851700065657","0.503117000218481","0.453355100005865","1","1","1","1","1","1","1","1","1"
"260043","img/object_images/toy01.jpg","img/object_images/skate_board01.jpg","img/object_images/tool06.jpg","1","1","1","1","0","0","0.453355100005865","0.507851700065657","0.453777100192383","1","1","1","1","1","1","1","1","1"
"260043","img/object_images/tool06.jpg","img/object_images/toy01.jpg","img/object_images/clip04.jpg","1","1","1","0","1","1","0.453777100192383","0.453355100005865","0.414005200145766","1","1","1","1","1","1","1","1","1"
"260043","img/object_images/clip04.jpg","img/object_images/tool06.jpg","img/object_images/shoes12.jpg","1","1","1","1","0","1","0.414005200145766","0.453777100192383","0.440400500083342","1","1","1","1","1","1","1","1","1"
"260043","img/object_images/shoes12.jpg","img/object_images/clip04.jpg","img/object_images/blender01.jpg","1","1","1","1","1","0","0.440400500083342","0.414005200145766","0.361259300261736","1","1","1","1","1","1","1","1","1"
"260043","img/object_images/blender01.jpg","img/object_images/shoes12.jpg","img/object_images/pen01.jpg","1","1","0","0","1","0","0.361259300261736","0.440400500083342","0.435646900208667","1","1","1","1","1","1","1","1","1"
"260043","img/object_images/pen01.jpg","img/object_images/blender01.jpg","img/object_images/Violin01.jpg","0","1","1","0","0","0","0.435646900208667","0.361259300261736","0.480783100239932","1","1","1","1","1","1","1","1","1"
"260043","img/object_images/Violin01.jpg","img/object_images/pen01.jpg","img/object_images/rock02.jpg","1","0","1","0","0","0","0.480783100239932","0.435646900208667","0.507217900129035","1","1","1","1","1","1","1","1","1"
"260043","img/object_images/rock02.jpg","img/object_images/Violin01.jpg","img/object_images/egg_slicer01.jpg","1","1","1","0","0","1","0.507217900129035","0.480783100239932","0.558581999968737","1","1","1","1","1","1","1","1","1"
"260043","img/object_images/egg_slicer01.jpg","img/object_images/rock02.jpg","img/object_images/soap03.jpg","1","1","1","1","0","0","0.558581999968737","0.507217900129035","0.441775200190023","1","1","1","1","1","1","1","1","1"
"260043","img/object_images/soap03.jpg","img/object_images/egg_slicer01.jpg","img/object_images/bag_pipes01.jpg","1","1","0","0","1","1","0.441775200190023","0.558581999968737","0.468787100166082","1","1","1","1","1","1","1","1","1"
"260043","img/object_images/bag_pipes01.jpg","img/object_images/soap03.jpg","img/object_images/bell03.jpg","0","1","1","1","0","0","0.468787100166082","0.441775200190023","0.523590700235218","1","1","1","1","1","1","1","1","1"
"260043","img/object_images/bell03.jpg","img/object_images/bag_pipes01.jpg","img/object_images/fork02.jpg","1","0","1","0","1","0","0.523590700235218","0.468787100166082","0.503691600169986","1","1","1","1","1","1","1","1","1"
"260043","img/object_images/fork02.jpg","img/object_images/bell03.jpg","img/object_images/box03.jpg","1","1","1","0","0","0","0.503691600169986","0.523590700235218","0.508303000126034","1","1","1","1","1","1","1","1","1"
"260043","img/object_images/box03.jpg","img/object_images/fork02.jpg","img/object_images/pitcher09.jpg","1","1","1","0","0","1","0.508303000126034","0.503691600169986","0.3774274000898","1","1","1","1","1","1","1","1","1"
"260043","img/object_images/pitcher09.jpg","img/object_images/box03.jpg","img/object_images/tripod01.jpg","1","1","1","1","0","1","0.3774274000898","0.508303000126034","0.510611300123855","1","1","1","1","1","1","1","1","1"
"260043","img/object_images/tripod01.jpg","img/object_images/pitcher09.jpg","img/object_images/drone01.jpg","1","1","1","1","1","1","0.510611300123855","0.3774274000898","0.507105900207534","1","1","1","1","1","1","1","1","1"
"260043","img/object_images/drone01.jpg","img/object_images/tripod01.jpg","img/object_images/mail_box02.jpg","1","1","1","1","1","1","0.507105900207534","0.510611300123855","0.523929400136694","1","1","1","1","1","1","1","1","1"
"260043","img/object_images/mail_box02.jpg","img/object_images/drone01.jpg","img/object_images/video_game03.jpg","1","1","1","1","1","1","0.523929400136694","0.507105900207534","0.500320800114423","1","1","1","1","1","1","1","1","1"
"260043","img/object_images/video_game03.jpg","img/object_images/mail_box02.jpg","img/object_images/hair_brush01.jpg","1","1","1","1","1","1","0.500320800114423","0.523929400136694","0.539522000122815","1","1","1","1","1","1","1","1","1"
"260043","img/object_images/hair_brush01.jpg","img/object_images/video_game03.jpg","img/object_images/chair06.jpg","1","1","1","1","1","0","0.539522000122815","0.500320800114423","0.518036300083622","1","1","1","1","1","1","1","1","1"
"260043","img/object_images/chair06.jpg","img/object_images/hair_brush01.jpg","img/object_images/airfryer02.jpg","1","1","1","0","1","1","0.518036300083622","0.539522000122815","0.425951700191945","1","1","1","1","1","1","1","1","1"
"260043","img/object_images/airfryer02.jpg","img/object_images/chair06.jpg","img/object_images/couch01.jpg","1","1","1","1","0","0","0.425951700191945","0.518036300083622","0.607579000061378","1","1","1","1","1","1","1","1","1"
"260043","img/object_images/couch01.jpg","img/object_images/airfryer02.jpg","img/object_images/computer_mouse01.jpg","1","1","1","0","1","1","0.607579000061378","0.425951700191945","0.578882300294936","1","1","1","1","1","1","1","1","1"
"260043","img/object_images/computer_mouse01.jpg","img/object_images/couch01.jpg","img/object_images/computer_mouse02.jpg","1","1","1","1","0","0","0.578882300294936","0.607579000061378","0.525934500154108","1","1","1","1","1","1","1","1","1"
"260043","img/object_images/computer_mouse02.jpg","img/object_images/computer_mouse01.jpg","img/object_images/floss02.jpg","1","1","1","0","1","1","0.525934500154108","0.578882300294936","0.40192550001666","1","1","1","1","1","1","1","1","1"
"260043","img/object_images/floss02.jpg","img/object_images/computer_mouse02.jpg","img/object_images/toothbrush01.jpg","1","1","1","1","0","0","0.40192550001666","0.525934500154108","0.500500100199133","1","1","1","1","1","1","1","1","1"
"260043","img/object_images/toothbrush01.jpg","img/object_images/floss02.jpg","img/object_images/chain01.jpg","1","1","1","0","1","0","0.500500100199133","0.40192550001666","0.504379600053653","1","1","1","1","1","1","1","1","1"
"260043","img/object_images/chain01.jpg","img/object_images/toothbrush01.jpg",NA,"1","1",NA,"0","0",NA,"0.504379600053653","0.500500100199133",NA,"1","1",NA,"1","1",NA,"1","1",NA
"260043","img/object_images/boat02.jpg",NA,"img/object_images/toilet_paper_dispenser01.jpg","1",NA,"1","1",NA,"1","0.589478200301528",NA,"0.456760000204667","1",NA,"1","1",NA,"1","1",NA,"1"
"260043","img/object_images/toilet_paper_dispenser01.jpg","img/object_images/boat02.jpg","img/object_images/pen05.jpg","1","1","1","1","1","0","0.456760000204667","0.589478200301528","0.408973100129515","1","1","1","1","1","1","1","1","1"
"260043","img/object_images/pen05.jpg","img/object_images/toilet_paper_dispenser01.jpg","img/object_images/boat_toy10.jpg","1","1","0","0","1","0","0.408973100129515","0.456760000204667","0.377231300109997","1","1","1","1","1","1","1","1","1"
"260043","img/object_images/boat_toy10.jpg","img/object_images/pen05.jpg","img/object_images/bottle10.jpg","0","1","1","0","0","1","0.377231300109997","0.408973100129515","0.625611199997365","1","1","1","1","1","1","1","1","1"
"260043","img/object_images/bottle10.jpg","img/object_images/boat_toy10.jpg","img/object_images/piggy_bank01.jpg","1","0","1","1","0","1","0.625611199997365","0.377231300109997","0.35799859999679","1","1","1","1","1","1","1","1","1"
"260043","img/object_images/piggy_bank01.jpg","img/object_images/bottle10.jpg","img/object_images/perfume02.jpg","1","1","1","1","1","0","0.35799859999679","0.625611199997365","0.546474900096655","1","1","1","1","1","1","1","1","1"
"260043","img/object_images/perfume02.jpg","img/object_images/piggy_bank01.jpg","img/object_images/tool19.jpg","1","1","1","0","1","1","0.546474900096655","0.35799859999679","0.445250900229439","1","1","1","1","1","1","1","1","1"
"260043","img/object_images/tool19.jpg","img/object_images/perfume02.jpg","img/object_images/purse04.jpg","1","1","1","1","0","1","0.445250900229439","0.546474900096655","0.482865700032562","1","1","1","1","1","1","1","1","1"
"260043","img/object_images/purse04.jpg","img/object_images/tool19.jpg","img/object_images/cellphone03.jpg","1","1","1","1","1","0","0.482865700032562","0.445250900229439","0.363151200115681","1","1","1","1","1","1","1","1","1"
"260043","img/object_images/cellphone03.jpg","img/object_images/purse04.jpg","img/object_images/bottle09.jpg","1","1","1","0","1","0","0.363151200115681","0.482865700032562","0.353366200113669","1","1","1","1","1","1","1","1","1"
"260043","img/object_images/bottle09.jpg","img/object_images/cellphone03.jpg","img/object_images/knit01.jpg","1","1","1","0","0","0","0.353366200113669","0.363151200115681","0.567660800181329","1","1","1","1","1","1","1","1","1"
"260043","img/object_images/knit01.jpg","img/object_images/bottle09.jpg","img/object_images/shoes07.jpg","1","1","1","0","0","0","0.567660800181329","0.353366200113669","0.539954900043085","1","1","1","1","1","1","1","1","1"
"260043","img/object_images/shoes07.jpg","img/object_images/knit01.jpg","img/object_images/bicycle01.jpg","1","1","0","0","0","1","0.539954900043085","0.567660800181329","0.409441499970853","1","1","1","1","1","1","1","1","1"
"260043","img/object_images/bicycle01.jpg","img/object_images/shoes07.jpg","img/object_images/fan02.jpg","0","1","1","1","0","0","0.409441499970853","0.539954900043085","0.51352100004442","1","1","1","1","1","1","1","1","1"
"260043","img/object_images/fan02.jpg","img/object_images/bicycle01.jpg","img/object_images/audio_port01.jpg","1","0","1","0","1","1","0.51352100004442","0.409441499970853","0.578482100041583","1","1","1","1","1","1","1","1","1"
"260043","img/object_images/audio_port01.jpg","img/object_images/fan02.jpg","img/object_images/tie02.jpg","1","1","1","1","0","0","0.578482100041583","0.51352100004442","0.451137400232255","1","1","1","1","1","1","1","1","1"
"260043","img/object_images/tie02.jpg","img/object_images/audio_port01.jpg","img/object_images/camera_lens01.jpg","1","1","1","0","1","1","0.451137400232255","0.578482100041583","0.451360899955034","1","1","1","1","1","1","1","1","1"
"260043","img/object_images/camera_lens01.jpg","img/object_images/tie02.jpg","img/object_images/WoodBox01.jpg","1","1","1","1","0","0","0.451360899955034","0.451137400232255","0.58387010009028","1","1","1","1","1","1","1","1","1"
"260043","img/object_images/WoodBox01.jpg","img/object_images/camera_lens01.jpg","img/object_images/hat06.jpg","1","1","1","0","1","0","0.58387010009028","0.451360899955034","0.580837500048801","1","1","1","1","1","1","1","1","1"
"260043","img/object_images/hat06.jpg","img/object_images/WoodBox01.jpg","img/object_images/coloring_pencil02.jpg","1","1","1","0","0","0","0.580837500048801","0.58387010009028","0.473337200237438","1","1","1","1","1","1","1","1","1"
"260043","img/object_images/coloring_pencil02.jpg","img/object_images/hat06.jpg","img/object_images/dog_leash01.jpg","1","1","1","0","0","0","0.473337200237438","0.580837500048801","0.529564400203526","1","1","1","1","1","1","1","1","1"
"260043","img/object_images/dog_leash01.jpg","img/object_images/coloring_pencil02.jpg","img/object_images/bean_bag02.jpg","1","1","1","0","0","1","0.529564400203526","0.473337200237438","0.422282400308177","1","1","1","1","1","1","1","1","1"
"260043","img/object_images/bean_bag02.jpg","img/object_images/dog_leash01.jpg","img/object_images/scoreboard01.jpg","1","1","1","1","0","1","0.422282400308177","0.529564400203526","0.508360000094399","1","1","1","1","1","1","1","1","1"
"260043","img/object_images/scoreboard01.jpg","img/object_images/bean_bag02.jpg","img/object_images/water_scooter01.jpg","1","1","1","1","1","1","0.508360000094399","0.422282400308177","0.53010329999961","1","1","1","1","1","1","1","1","1"
"260043","img/object_images/water_scooter01.jpg","img/object_images/scoreboard01.jpg","img/object_images/flask01.jpg","1","1","1","1","1","0","0.53010329999961","0.508360000094399","0.460775400046259","1","1","1","1","1","1","1","1","1"
"260043","img/object_images/flask01.jpg","img/object_images/water_scooter01.jpg","img/object_images/hot_air_balloon02.jpg","1","1","1","0","1","0","0.460775400046259","0.53010329999961","0.72726109996438","1","1","1","1","1","1","1","1","1"
"260043","img/object_images/hot_air_balloon02.jpg","img/object_images/flask01.jpg","img/object_images/chair03.jpg","1","1","1","0","0","0","0.72726109996438","0.460775400046259","0.624149500159547","1","1","1","1","1","1","1","1","1"
"260043","img/object_images/chair03.jpg","img/object_images/hot_air_balloon02.jpg","img/object_images/wagon_cart03.jpg","1","1","1","0","0","1","0.624149500159547","0.72726109996438","0.504739900119603","1","1","1","1","1","1","1","1","1"
"260043","img/object_images/wagon_cart03.jpg","img/object_images/chair03.jpg","img/object_images/helmet04.jpg","1","1","1","1","0","1","0.504739900119603","0.624149500159547","0.497655800310895","1","1","1","1","1","1","1","1","1"
"260043","img/object_images/helmet04.jpg","img/object_images/wagon_cart03.jpg","img/object_images/toaster01.jpg","1","1","1","1","1","1","0.497655800310895","0.504739900119603","0.486778100021183","1","1","1","1","1","1","1","1","1"
"260043","img/object_images/toaster01.jpg","img/object_images/helmet04.jpg","img/object_images/bottle02.jpg","1","1","1","1","1","1","0.486778100021183","0.497655800310895","0.44106850028038","1","1","1","1","1","1","1","1","1"
"260043","img/object_images/bottle02.jpg","img/object_images/toaster01.jpg",NA,"1","1",NA,"1","1",NA,"0.44106850028038","0.486778100021183",NA,"1","1",NA,"1","1",NA,"1","1",NA
"260043","img/object_images/tv01.jpg",NA,"img/object_images/mask01.jpg","0",NA,"1","0",NA,"0","0.500848300289363",NA,"0.658122900174931","1",NA,"1","1",NA,"1","2",NA,"1"
"260043","img/object_images/mask01.jpg","img/object_images/tv01.jpg","img/object_images/jewelry07.jpg","1","0","1","0","0","1","0.658122900174931","0.500848300289363","0.431219900026918","1","1","1","1","1","1","1","2","1"
"260043","img/object_images/jewelry07.jpg","img/object_images/mask01.jpg","img/object_images/MeasuringCup01.jpg","1","1","1","1","0","1","0.431219900026918","0.658122900174931","0.443776400061324","1","1","1","1","1","1","1","1","1"
"260043","img/object_images/MeasuringCup01.jpg","img/object_images/jewelry07.jpg","img/object_images/belt01.jpg","1","1","1","1","1","0","0.443776400061324","0.431219900026918","0.469329399988055","1","1","1","1","1","1","1","1","1"
"260043","img/object_images/belt01.jpg","img/object_images/MeasuringCup01.jpg","img/object_images/fan05.jpg","1","1","1","0","1","0","0.469329399988055","0.443776400061324","0.498752800282091","1","1","1","1","1","1","1","1","1"
"260043","img/object_images/fan05.jpg","img/object_images/belt01.jpg","img/object_images/screwdriver01.jpg","1","1","1","0","0","0","0.498752800282091","0.469329399988055","0.521713200258091","1","1","1","1","1","1","1","1","1"
"260043","img/object_images/screwdriver01.jpg","img/object_images/fan05.jpg","img/object_images/ribbon01.jpg","1","1","1","0","0","0","0.521713200258091","0.498752800282091","0.530866300221533","1","1","1","1","1","1","1","1","1"
"260043","img/object_images/ribbon01.jpg","img/object_images/screwdriver01.jpg","img/object_images/bag06.jpg","1","1","1","0","0","1","0.530866300221533","0.521713200258091","0.389704500092193","1","1","1","1","1","1","1","1","1"
"260043","img/object_images/bag06.jpg","img/object_images/ribbon01.jpg","img/object_images/yarn02.jpg","1","1","1","1","0","0","0.389704500092193","0.530866300221533","0.516724799992517","1","1","1","1","1","1","1","1","1"
"260043","img/object_images/yarn02.jpg","img/object_images/bag06.jpg","img/object_images/ice_tray03.jpg","1","1","1","0","1","1","0.516724799992517","0.389704500092193","0.497598300222307","1","1","1","1","1","1","1","1","1"
"260043","img/object_images/ice_tray03.jpg","img/object_images/yarn02.jpg","img/object_images/slinky_toy01.jpg","1","1","1","1","0","1","0.497598300222307","0.516724799992517","0.543632700107992","1","1","1","1","1","1","1","1","1"
"260043","img/object_images/slinky_toy01.jpg","img/object_images/ice_tray03.jpg","img/object_images/razor01.jpg","1","1","1","1","1","0","0.543632700107992","0.497598300222307","0.509167400188744","1","1","1","1","1","1","1","1","1"
"260043","img/object_images/razor01.jpg","img/object_images/slinky_toy01.jpg","img/object_images/dress03.jpg","1","1","1","0","1","1","0.509167400188744","0.543632700107992","0.455152899958193","1","1","1","1","1","1","1","1","1"
"260043","img/object_images/dress03.jpg","img/object_images/razor01.jpg","img/object_images/chair04.jpg","1","1","1","1","0","1","0.455152899958193","0.509167400188744","0.559037000173703","1","1","1","1","1","1","1","1","1"
"260043","img/object_images/chair04.jpg","img/object_images/dress03.jpg","img/object_images/key02.jpg","1","1","1","1","1","1","0.559037000173703","0.455152899958193","0.48437640001066","1","1","1","1","1","1","1","1","1"
"260043","img/object_images/key02.jpg","img/object_images/chair04.jpg","img/object_images/tool11.jpg","1","1","1","1","1","1","0.48437640001066","0.559037000173703","0.486023599980399","1","1","1","1","1","1","1","1","1"
"260043","img/object_images/tool11.jpg","img/object_images/key02.jpg","img/object_images/car04.jpg","1","1","1","1","1","0","0.486023599980399","0.48437640001066","0.470057300059125","1","1","1","1","1","1","1","1","1"
"260043","img/object_images/car04.jpg","img/object_images/tool11.jpg","img/object_images/WitchHat02.jpg","1","1","1","0","1","1","0.470057300059125","0.486023599980399","0.467145400121808","1","1","1","1","1","1","1","1","1"
"260043","img/object_images/WitchHat02.jpg","img/object_images/car04.jpg","img/object_images/cutting_board01.jpg","1","1","1","1","0","1","0.467145400121808","0.470057300059125","0.465772300027311","1","1","1","1","1","1","1","1","1"
"260043","img/object_images/cutting_board01.jpg","img/object_images/WitchHat02.jpg","img/object_images/hair_brush05.jpg","1","1","1","1","1","1","0.465772300027311","0.467145400121808","0.401265400229022","1","1","1","1","1","1","1","1","1"
"260043","img/object_images/hair_brush05.jpg","img/object_images/cutting_board01.jpg","img/object_images/rock03.jpg","1","1","1","1","1","0","0.401265400229022","0.465772300027311","0.511935400078073","1","1","1","1","1","1","1","1","1"
"260043","img/object_images/rock03.jpg","img/object_images/hair_brush05.jpg","img/object_images/jewel01.jpg","1","1","1","0","1","0","0.511935400078073","0.401265400229022","0.522055900190026","1","1","1","1","1","1","1","1","1"
"260043","img/object_images/jewel01.jpg","img/object_images/rock03.jpg","img/object_images/shoes10.jpg","1","1","1","0","0","0","0.522055900190026","0.511935400078073","0.60225690016523","1","1","1","1","1","1","1","1","1"
"260043","img/object_images/shoes10.jpg","img/object_images/jewel01.jpg","img/object_images/satellite01.jpg","1","1","1","0","0","0","0.60225690016523","0.522055900190026","0.335181100061163","1","1","1","1","1","1","1","1","1"
"260043","img/object_images/satellite01.jpg","img/object_images/shoes10.jpg","img/object_images/binoculars03.jpg","1","1","1","0","0","1","0.335181100061163","0.60225690016523","0.444401900051162","1","1","1","1","1","1","1","1","1"
"260043","img/object_images/binoculars03.jpg","img/object_images/satellite01.jpg","img/object_images/cards01.jpg","1","1","1","1","0","0","0.444401900051162","0.335181100061163","0.491569800069556","1","1","1","1","1","1","1","1","1"
"260043","img/object_images/cards01.jpg","img/object_images/binoculars03.jpg","img/object_images/ladle02.jpg","1","1","1","0","1","0","0.491569800069556","0.444401900051162","0.461847200058401","1","1","1","1","1","1","1","1","1"
"260043","img/object_images/ladle02.jpg","img/object_images/cards01.jpg","img/object_images/shower_head03.jpg","1","1","0","0","0","1","0.461847200058401","0.491569800069556","0.331128900172189","1","1","1","1","1","1","1","1","1"
"260043","img/object_images/shower_head03.jpg","img/object_images/ladle02.jpg","img/object_images/lemon_squeezer02.jpg","0","1","1","1","0","1","0.331128900172189","0.461847200058401","0.443176500266418","1","1","1","1","1","1","1","1","1"
"260043","img/object_images/lemon_squeezer02.jpg","img/object_images/shower_head03.jpg","img/object_images/toaster02.jpg","1","0","1","1","1","1","0.443176500266418","0.331128900172189","0.488447699928656","1","1","1","1","1","1","1","1","1"
"260043","img/object_images/toaster02.jpg","img/object_images/lemon_squeezer02.jpg","img/object_images/car03.jpg","1","1","1","1","1","0","0.488447699928656","0.443176500266418","0.574393900111318","1","1","1","1","1","1","1","1","1"
"260043","img/object_images/car03.jpg","img/object_images/toaster02.jpg",NA,"1","1",NA,"0","1",NA,"0.574393900111318","0.488447699928656",NA,"1","1",NA,"1","1",NA,"1","1",NA
"260043","img/object_images/tennis_racket01.jpg",NA,"img/object_images/jewel02.jpg","1",NA,"0","1",NA,"0","0.453071000054479",NA,"0.521012800047174","1",NA,"1","1",NA,"1","1",NA,"1"
"260043","img/object_images/jewel02.jpg","img/object_images/tennis_racket01.jpg","img/object_images/scale02.jpg","0","1","1","0","1","0","0.521012800047174","0.453071000054479","0.444849099963903","1","1","1","1","1","1","1","1","1"
"260043","img/object_images/scale02.jpg","img/object_images/jewel02.jpg","img/object_images/joystick03.jpg","1","0","1","0","0","1","0.444849099963903","0.521012800047174","0.491488500032574","1","1","1","1","1","1","1","1","1"
"260043","img/object_images/joystick03.jpg","img/object_images/scale02.jpg","img/object_images/dice01.jpg","1","1","1","1","0","0","0.491488500032574","0.444849099963903","0.477433300111443","1","1","1","1","1","1","1","1","1"
"260043","img/object_images/dice01.jpg","img/object_images/joystick03.jpg","img/object_images/phone04.jpg","1","1","1","0","1","1","0.477433300111443","0.491488500032574","0.469910300103948","1","1","1","1","1","1","1","1","1"
"260043","img/object_images/phone04.jpg","img/object_images/dice01.jpg","img/object_images/ToolBag01.jpg","1","1","1","1","0","0","0.469910300103948","0.477433300111443","0.50788710010238","1","1","1","1","1","1","1","1","1"
"260043","img/object_images/ToolBag01.jpg","img/object_images/phone04.jpg","img/object_images/egg_basket01.jpg","1","1","1","0","1","1","0.50788710010238","0.469910300103948","0.448438700055704","1","1","1","1","1","1","1","1","1"
"260043","img/object_images/egg_basket01.jpg","img/object_images/ToolBag01.jpg","img/object_images/belt03.jpg","1","1","1","1","0","0","0.448438700055704","0.50788710010238","0.569697600090876","1","1","1","1","1","1","1","1","1"
"260043","img/object_images/belt03.jpg","img/object_images/egg_basket01.jpg","img/object_images/usb03.jpg","1","1","1","0","1","0","0.569697600090876","0.448438700055704","0.462787500116974","1","1","1","1","1","1","1","1","1"
"260043","img/object_images/usb03.jpg","img/object_images/belt03.jpg","img/object_images/yoga_mat01.jpg","1","1","1","0","0","0","0.462787500116974","0.569697600090876","0.421350700082257","1","1","1","1","1","1","1","1","1"
"260043","img/object_images/yoga_mat01.jpg","img/object_images/usb03.jpg","img/object_images/water_gun01.jpg","1","1","1","0","0","1","0.421350700082257","0.462787500116974","0.536784400232136","1","1","1","1","1","1","1","1","1"
"260043","img/object_images/water_gun01.jpg","img/object_images/yoga_mat01.jpg","img/object_images/Safe01.jpg","1","1","1","1","0","1","0.536784400232136","0.421350700082257","0.561358500039205","1","1","1","1","1","1","1","1","1"
"260043","img/object_images/Safe01.jpg","img/object_images/water_gun01.jpg","img/object_images/helmet03.jpg","1","1","1","1","1","1","0.561358500039205","0.536784400232136","0.421927700052038","1","1","1","1","1","1","1","1","1"
"260043","img/object_images/helmet03.jpg","img/object_images/Safe01.jpg","img/object_images/trumpet01.jpg","1","1","0","1","1","0","0.421927700052038","0.561358500039205","0.3164192000404","1","1","1","1","1","1","1","1","1"
"260043","img/object_images/trumpet01.jpg","img/object_images/helmet03.jpg","img/object_images/fan01.jpg","0","1","1","0","1","0","0.3164192000404","0.421927700052038","0.487121800193563","1","1","1","1","1","1","1","1","1"
"260043","img/object_images/fan01.jpg","img/object_images/trumpet01.jpg","img/object_images/pitcher07.jpg","1","0","1","0","0","1","0.487121800193563","0.3164192000404","0.445292100077495","1","1","1","1","1","1","1","1","1"
"260043","img/object_images/pitcher07.jpg","img/object_images/fan01.jpg","img/object_images/Eyeliner01.jpg","1","1","1","1","0","1","0.445292100077495","0.487121800193563","0.528858600184321","1","1","1","1","1","1","1","1","1"
"260043","img/object_images/Eyeliner01.jpg","img/object_images/pitcher07.jpg","img/object_images/headset02.jpg","1","1","1","1","1","0","0.528858600184321","0.445292100077495","0.464328500209376","1","1","1","1","1","1","1","1","1"
"260043","img/object_images/headset02.jpg","img/object_images/Eyeliner01.jpg","img/object_images/frame01.jpg","1","1","1","0","1","1","0.464328500209376","0.528858600184321","0.519188400125131","1","1","1","1","1","1","1","1","1"
"260043","img/object_images/frame01.jpg","img/object_images/headset02.jpg","img/object_images/nut_cracker01.jpg","1","1","1","1","0","1","0.519188400125131","0.464328500209376","0.459520400036126","1","1","1","1","1","1","1","1","1"
"260043","img/object_images/nut_cracker01.jpg","img/object_images/frame01.jpg","img/object_images/origami01.jpg","1","1","1","1","1","1","0.459520400036126","0.519188400125131","0.450544400140643","1","1","1","1","1","1","1","1","1"
"260043","img/object_images/origami01.jpg","img/object_images/nut_cracker01.jpg","img/object_images/Shoes05.jpg","1","1","1","1","1","0","0.450544400140643","0.459520400036126","0.417464700061828","1","1","1","1","1","1","1","1","1"
"260043","img/object_images/Shoes05.jpg","img/object_images/origami01.jpg","img/object_images/bottle06.jpg","1","1","1","0","1","0","0.417464700061828","0.450544400140643","0.55984010011889","1","1","1","1","1","1","1","1","1"
"260043","img/object_images/bottle06.jpg","img/object_images/Shoes05.jpg","img/object_images/piano03.jpg","1","1","1","0","0","0","0.55984010011889","0.417464700061828","0.50312630017288","1","1","1","1","1","1","1","1","1"
"260043","img/object_images/piano03.jpg","img/object_images/bottle06.jpg","img/object_images/shovel01.jpg","1","1","1","0","0","0","0.50312630017288","0.55984010011889","0.663115300005302","1","1","1","1","1","1","1","1","1"
"260043","img/object_images/shovel01.jpg","img/object_images/piano03.jpg","img/object_images/bookmark01.jpg","1","1","1","0","0","0","0.663115300005302","0.50312630017288","0.516193100251257","1","1","1","1","1","1","1","1","1"
"260043","img/object_images/bookmark01.jpg","img/object_images/shovel01.jpg","img/object_images/lock03.jpg","1","1","1","0","0","1","0.516193100251257","0.663115300005302","0.440353400073946","1","1","1","1","1","1","1","1","1"
"260043","img/object_images/lock03.jpg","img/object_images/bookmark01.jpg","img/object_images/badminton01.jpg","1","1","1","1","0","1","0.440353400073946","0.516193100251257","0.419623300200328","1","1","1","1","1","1","1","1","1"
"260043","img/object_images/badminton01.jpg","img/object_images/lock03.jpg","img/object_images/TreeSlice01.jpg","1","1","1","1","1","1","0.419623300200328","0.440353400073946","0.514532200060785","1","1","1","1","1","1","1","1","1"
"260043","img/object_images/TreeSlice01.jpg","img/object_images/badminton01.jpg","img/object_images/bucket01.jpg","1","1","1","1","1","1","0.514532200060785","0.419623300200328","0.420547000132501","1","1","1","1","1","1","1","1","1"
"260043","img/object_images/bucket01.jpg","img/object_images/TreeSlice01.jpg","img/object_images/note_book02.jpg","1","1","1","1","1","0","0.420547000132501","0.514532200060785","0.530835100216791","1","1","1","1","1","1","1","1","1"
"260043","img/object_images/note_book02.jpg","img/object_images/bucket01.jpg",NA,"1","1",NA,"0","1",NA,"0.530835100216791","0.420547000132501",NA,"1","1",NA,"1","1",NA,"1","1",NA
"260043","img/object_images/helmet01.jpg",NA,"img/object_images/guitar02.jpg","1",NA,"1","0",NA,"0","0.59397800010629",NA,"0.485478600254282","1",NA,"1","1",NA,"1","1",NA,"1"
"260043","img/object_images/guitar02.jpg","img/object_images/helmet01.jpg","img/object_images/stapler.jpg","1","1","1","0","0","1","0.485478600254282","0.59397800010629","0.435067200101912","1","1","1","1","1","1","1","1","1"
"260043","img/object_images/stapler.jpg","img/object_images/guitar02.jpg","img/object_images/frisbee01.jpg","1","1","1","1","0","1","0.435067200101912","0.485478600254282","0.558194299926981","1","1","1","1","1","1","1","1","1"
"260043","img/object_images/frisbee01.jpg","img/object_images/stapler.jpg","img/object_images/shovel03.jpg","1","1","1","1","1","1","0.558194299926981","0.435067200101912","0.577357800211757","1","1","1","1","1","1","1","1","1"
"260043","img/object_images/shovel03.jpg","img/object_images/frisbee01.jpg","img/object_images/sink01.jpg","1","1","0","1","1","0","0.577357800211757","0.558194299926981","0.365665400167927","1","1","1","1","1","1","1","1","1"
"260043","img/object_images/sink01.jpg","img/object_images/shovel03.jpg","img/object_images/judge_gavel01.jpg","0","1","1","0","1","1","0.365665400167927","0.577357800211757","0.55399060016498","1","1","1","1","1","1","1","1","1"
"260043","img/object_images/judge_gavel01.jpg","img/object_images/sink01.jpg","img/object_images/bottle05.jpg","1","0","1","1","0","0","0.55399060016498","0.365665400167927","0.476382399909198","1","1","1","1","1","1","1","1","1"
"260043","img/object_images/bottle05.jpg","img/object_images/judge_gavel01.jpg","img/object_images/Vacuum01.jpg","1","1","1","0","1","0","0.476382399909198","0.55399060016498","0.465529200155288","1","1","1","1","1","1","1","1","1"
"260043","img/object_images/Vacuum01.jpg","img/object_images/bottle05.jpg","img/object_images/ornament01.jpg","1","1","1","0","0","1","0.465529200155288","0.476382399909198","0.501171800075099","1","1","1","1","1","1","1","1","1"
"260043","img/object_images/ornament01.jpg","img/object_images/Vacuum01.jpg","img/object_images/watch01.jpg","1","1","1","1","0","0","0.501171800075099","0.465529200155288","0.621600100072101","1","1","1","1","1","1","1","1","1"
"260043","img/object_images/watch01.jpg","img/object_images/ornament01.jpg","img/object_images/bird_house02.jpg","1","1","1","0","1","1","0.621600100072101","0.501171800075099","0.608565800124779","1","1","1","1","1","1","1","1","1"
"260043","img/object_images/bird_house02.jpg","img/object_images/watch01.jpg","img/object_images/video_game07.jpg","1","1","1","1","0","1","0.608565800124779","0.621600100072101","0.54976010019891","1","1","1","1","1","1","1","1","1"
"260043","img/object_images/video_game07.jpg","img/object_images/bird_house02.jpg","img/object_images/MetalWire01.jpg","1","1","1","1","1","0","0.54976010019891","0.608565800124779","0.418297600233927","1","1","1","1","1","1","1","1","1"
"260043","img/object_images/MetalWire01.jpg","img/object_images/video_game07.jpg","img/object_images/toy03.jpg","1","1","1","0","1","1","0.418297600233927","0.54976010019891","0.426382700214162","1","1","1","1","1","1","1","1","1"
"260043","img/object_images/toy03.jpg","img/object_images/MetalWire01.jpg","img/object_images/jewel04.jpg","1","1","1","1","0","0","0.426382700214162","0.418297600233927","0.529134700307623","1","1","1","1","1","1","1","1","1"
"260043","img/object_images/jewel04.jpg","img/object_images/toy03.jpg","img/object_images/toy04.jpg","1","1","1","0","1","0","0.529134700307623","0.426382700214162","0.512921300251037","1","1","1","1","1","1","1","1","1"
"260043","img/object_images/toy04.jpg","img/object_images/jewel04.jpg","img/object_images/crown02.jpg","1","1","1","0","0","1","0.512921300251037","0.529134700307623","0.49743780028075","1","1","1","1","1","1","1","1","1"
"260043","img/object_images/crown02.jpg","img/object_images/toy04.jpg","img/object_images/tool09.jpg","1","1","1","1","0","1","0.49743780028075","0.512921300251037","0.466340499930084","1","1","1","1","1","1","1","1","1"
"260043","img/object_images/tool09.jpg","img/object_images/crown02.jpg","img/object_images/Tin01.jpg","1","1","1","1","1","1","0.466340499930084","0.49743780028075","0.454012100119144","1","1","1","1","1","1","1","1","1"
"260043","img/object_images/Tin01.jpg","img/object_images/tool09.jpg","img/object_images/tool02.jpg","1","1","1","1","1","1","0.454012100119144","0.466340499930084","0.418914900161326","1","1","1","1","1","1","1","1","1"
"260043","img/object_images/tool02.jpg","img/object_images/Tin01.jpg","img/object_images/Stool01.jpg","1","1","0","1","1","0","0.418914900161326","0.454012100119144","0.825614700093865","1","1","1","1","1","1","1","1","1"
"260043","img/object_images/Stool01.jpg","img/object_images/tool02.jpg","img/object_images/bow01.jpg","0","1","1","0","1","1","0.825614700093865","0.418914900161326","0.442592300008982","1","1","1","1","1","1","1","1","1"
"260043","img/object_images/bow01.jpg","img/object_images/Stool01.jpg","img/object_images/dart01.jpg","1","0","1","1","0","0","0.442592300008982","0.825614700093865","0.513951700180769","1","1","1","1","1","1","1","1","1"
"260043","img/object_images/dart01.jpg","img/object_images/bow01.jpg","img/object_images/outlet01.jpg","1","1","1","0","1","0","0.513951700180769","0.442592300008982","0.595215399982408","1","1","1","1","1","1","1","1","1"
"260043","img/object_images/outlet01.jpg","img/object_images/dart01.jpg","img/object_images/acoustic_capo01.jpg","1","1","1","0","0","1","0.595215399982408","0.513951700180769","0.376248100074008","1","1","1","1","1","1","1","1","1"
"260043","img/object_images/acoustic_capo01.jpg","img/object_images/outlet01.jpg","img/object_images/pot01 (1).jpg","1","1","1","1","0","0","0.376248100074008","0.595215399982408","0.524871499976143","1","1","1","1","1","1","1","1","1"
"260043","img/object_images/pot01 (1).jpg","img/object_images/acoustic_capo01.jpg","img/object_images/gauze01.jpg","1","1","1","0","1","0","0.524871499976143","0.376248100074008","0.563951900228858","1","1","1","1","1","1","1","1","1"
"260043","img/object_images/gauze01.jpg","img/object_images/pot01 (1).jpg","img/object_images/towel02.jpg","1","1","1","0","0","1","0.563951900228858","0.524871499976143","0.394400000106543","1","1","1","1","1","1","1","1","1"
"260043","img/object_images/towel02.jpg","img/object_images/gauze01.jpg","img/object_images/mirror01.jpg","1","1","1","1","0","1","0.394400000106543","0.563951900228858","0.543946800054982","1","1","1","1","1","1","1","1","1"
"260043","img/object_images/mirror01.jpg","img/object_images/towel02.jpg","img/object_images/Ring02.jpg","1","1","1","1","1","0","0.543946800054982","0.394400000106543","0.506481200223789","1","1","1","1","1","1","1","1","1"
"260043","img/object_images/Ring02.jpg","img/object_images/mirror01.jpg","img/object_images/fridge03.jpg","1","1","1","0","1","0","0.506481200223789","0.543946800054982","0.608471000101417","1","1","1","1","1","1","1","1","1"
"260043","img/object_images/fridge03.jpg","img/object_images/Ring02.jpg",NA,"1","1",NA,"0","0",NA,"0.608471000101417","0.506481200223789",NA,"1","1",NA,"1","1",NA,"1","1",NA
"260043","img/object_images/socks01.jpg",NA,"img/object_images/Candle_Holder01.jpg","0",NA,"1","1",NA,"0",NA,NA,"0.520942500093952","0",NA,"1","0",NA,"1","0",NA,"1"
"260043","img/object_images/Candle_Holder01.jpg","img/object_images/socks01.jpg","img/object_images/hat09.jpg","1","0","1","0","1","0","0.520942500093952",NA,"0.466076800134033","1","0","1","1","0","1","1","0","1"
"260043","img/object_images/hat09.jpg","img/object_images/Candle_Holder01.jpg","img/object_images/tool13.jpg","1","1","1","0","0","1","0.466076800134033","0.520942500093952","0.496298500103876","1","1","1","1","1","1","1","1","1"
"260043","img/object_images/tool13.jpg","img/object_images/hat09.jpg","img/object_images/perfume01.jpg","1","1","1","1","0","0","0.496298500103876","0.466076800134033","0.467962600057945","1","1","1","1","1","1","1","1","1"
"260043","img/object_images/perfume01.jpg","img/object_images/tool13.jpg","img/object_images/hat13.jpg","1","1","1","0","1","1","0.467962600057945","0.496298500103876","0.505535500124097","1","1","1","1","1","1","1","1","1"
"260043","img/object_images/hat13.jpg","img/object_images/perfume01.jpg","img/object_images/pan03.jpg","1","1","1","1","0","1","0.505535500124097","0.467962600057945","0.454121900023893","1","1","1","1","1","1","1","1","1"
"260043","img/object_images/pan03.jpg","img/object_images/hat13.jpg","img/object_images/camera05.jpg","1","1","1","1","1","0","0.454121900023893","0.505535500124097","0.344937400193885","1","1","1","1","1","1","1","1","1"
"260043","img/object_images/camera05.jpg","img/object_images/pan03.jpg","img/object_images/tool20.jpg","1","1","1","0","1","0","0.344937400193885","0.454121900023893","0.508210900239646","1","1","1","1","1","1","1","1","1"
"260043","img/object_images/tool20.jpg","img/object_images/camera05.jpg","img/object_images/floss01.jpg","1","1","1","0","0","1","0.508210900239646","0.344937400193885","0.464909200090915","1","1","1","1","1","1","1","1","1"
"260043","img/object_images/floss01.jpg","img/object_images/tool20.jpg","img/object_images/vase02.jpg","1","1","1","1","0","1","0.464909200090915","0.508210900239646","0.455960400169715","1","1","1","1","1","1","1","1","1"
"260043","img/object_images/vase02.jpg","img/object_images/floss01.jpg","img/object_images/cup01.jpg","1","1","1","1","1","0","0.455960400169715","0.464909200090915","0.57302590017207","1","1","1","1","1","1","1","1","1"
"260043","img/object_images/cup01.jpg","img/object_images/vase02.jpg","img/object_images/hammer02.jpg","1","1","1","0","1","0","0.57302590017207","0.455960400169715","0.57333720033057","1","1","1","1","1","1","1","1","1"
"260043","img/object_images/hammer02.jpg","img/object_images/cup01.jpg","img/object_images/knife01.jpg","1","1","1","0","0","1","0.57333720033057","0.57302590017207","0.500591300195083","1","1","1","1","1","1","1","1","1"
"260043","img/object_images/knife01.jpg","img/object_images/hammer02.jpg","img/object_images/pen06.jpg","1","1","1","1","0","0","0.500591300195083","0.57333720033057","0.448144600028172","1","1","1","1","1","1","1","1","1"
"260043","img/object_images/pen06.jpg","img/object_images/knife01.jpg","img/object_images/lemon_squeezer01.jpg","1","1","1","0","1","1","0.448144600028172","0.500591300195083","0.478309100028127","1","1","1","1","1","1","1","1","1"
"260043","img/object_images/lemon_squeezer01.jpg","img/object_images/pen06.jpg","img/object_images/board01.jpg","1","1","1","1","0","1","0.478309100028127","0.448144600028172","0.492581800092012","1","1","1","1","1","1","1","1","1"
"260043","img/object_images/board01.jpg","img/object_images/lemon_squeezer01.jpg","img/object_images/candle02.jpg","1","1","1","1","1","0","0.492581800092012","0.478309100028127","0.717120600165799","1","1","1","1","1","1","1","1","1"
"260043","img/object_images/candle02.jpg","img/object_images/board01.jpg","img/object_images/sign02.jpg","1","1","1","0","1","0","0.717120600165799","0.492581800092012","0.696790100075305","1","1","1","1","1","1","1","1","1"
"260043","img/object_images/sign02.jpg","img/object_images/candle02.jpg","img/object_images/bow_tie03.jpg","1","1","1","0","0","1","0.696790100075305","0.717120600165799","0.507609600201249","1","1","1","1","1","1","1","1","1"
"260043","img/object_images/bow_tie03.jpg","img/object_images/sign02.jpg","img/object_images/bag04.jpg","1","1","1","1","0","0","0.507609600201249","0.696790100075305","0.52093440014869","1","1","1","1","1","1","1","1","1"
"260043","img/object_images/bag04.jpg","img/object_images/bow_tie03.jpg","img/object_images/video_game02.jpg","1","1","1","0","1","1","0.52093440014869","0.507609600201249","0.446144300047308","1","1","1","1","1","1","1","1","1"
"260043","img/object_images/video_game02.jpg","img/object_images/bag04.jpg","img/object_images/dust_pan01.jpg","1","1","1","1","0","1","0.446144300047308","0.52093440014869","0.594499700004235","1","1","1","1","1","1","1","1","1"
"260043","img/object_images/dust_pan01.jpg","img/object_images/video_game02.jpg","img/object_images/glasses03.jpg","1","1","1","1","1","0","0.594499700004235","0.446144300047308","0.565320500172675","1","1","1","1","1","1","1","1","1"
"260043","img/object_images/glasses03.jpg","img/object_images/dust_pan01.jpg","img/object_images/office_supplies01.jpg","1","1","1","0","1","1","0.565320500172675","0.594499700004235","0.523720000172034","1","1","1","1","1","1","1","1","1"
"260043","img/object_images/office_supplies01.jpg","img/object_images/glasses03.jpg","img/object_images/Confetti 01.jpg","1","1","1","1","0","0","0.523720000172034","0.565320500172675","0.578469600062817","1","1","1","1","1","1","1","1","1"
"260043","img/object_images/Confetti 01.jpg","img/object_images/office_supplies01.jpg","img/object_images/razor02.jpg","1","1","1","0","1","1","0.578469600062817","0.523720000172034","0.498397100018337","1","1","1","1","1","1","1","1","1"
"260043","img/object_images/razor02.jpg","img/object_images/Confetti 01.jpg","img/object_images/ruler02.jpg","1","1","1","1","0","1","0.498397100018337","0.578469600062817","0.536947899963707","1","1","1","1","1","1","1","1","1"
"260043","img/object_images/ruler02.jpg","img/object_images/razor02.jpg","img/object_images/spray_can01.jpg","1","1","1","1","1","0","0.536947899963707","0.498397100018337","0.552699300227687","1","1","1","1","1","1","1","1","1"
"260043","img/object_images/spray_can01.jpg","img/object_images/ruler02.jpg","img/object_images/sink_filter01 (1).jpg","1","1","1","0","1","0","0.552699300227687","0.536947899963707","0.566665000049397","1","1","1","1","1","1","1","1","1"
"260043","img/object_images/sink_filter01 (1).jpg","img/object_images/spray_can01.jpg","img/object_images/duster01.jpg","1","1","1","0","0","0","0.566665000049397","0.552699300227687","0.431447500130162","1","1","1","1","1","1","1","1","1"
"260043","img/object_images/duster01.jpg","img/object_images/sink_filter01 (1).jpg","img/object_images/clipboard01.jpg","1","1","1","0","0","1","0.431447500130162","0.566665000049397","0.506880100117996","1","1","1","1","1","1","1","1","1"
"260043","img/object_images/clipboard01.jpg","img/object_images/duster01.jpg",NA,"1","1",NA,"1","0",NA,"0.506880100117996","0.431447500130162",NA,"1","1",NA,"1","1",NA,"1","1",NA
"260043","img/object_images/couch04.jpg",NA,"img/object_images/car02.jpg","1",NA,"1","1",NA,"0","0.56347420020029",NA,"0.499867800157517","1",NA,"1","1",NA,"1","1",NA,"1"
"260043","img/object_images/car02.jpg","img/object_images/couch04.jpg","img/object_images/basketball_hoop02.jpg","1","1","1","0","1","0","0.499867800157517","0.56347420020029","0.504269700031728","1","1","1","1","1","1","1","1","1"
"260043","img/object_images/basketball_hoop02.jpg","img/object_images/car02.jpg","img/object_images/lantern01.jpg","1","1","1","0","0","1","0.504269700031728","0.499867800157517","0.445347800152376","1","1","1","1","1","1","1","1","1"
"260043","img/object_images/lantern01.jpg","img/object_images/basketball_hoop02.jpg","img/object_images/gloves05.jpg","1","1","1","1","0","1","0.445347800152376","0.504269700031728","0.274956899927929","1","1","1","1","1","1","1","1","1"
"260043","img/object_images/gloves05.jpg","img/object_images/lantern01.jpg","img/object_images/lamp01.jpg","1","1","1","1","1","1","0.274956899927929","0.445347800152376","0.447485000127926","1","1","1","1","1","1","1","1","1"
"260043","img/object_images/lamp01.jpg","img/object_images/gloves05.jpg","img/object_images/helmet05.jpg","1","1","1","1","1","1","0.447485000127926","0.274956899927929","0.42904660012573","1","1","1","1","1","1","1","1","1"
"260043","img/object_images/helmet05.jpg","img/object_images/lamp01.jpg","img/object_images/container01.jpg","1","1","1","1","1","0","0.42904660012573","0.447485000127926","0.343591300072148","1","1","1","1","1","1","1","1","1"
"260043","img/object_images/container01.jpg","img/object_images/helmet05.jpg","img/object_images/Woopie01.jpg","1","1","1","0","1","1","0.343591300072148","0.42904660012573","0.438343999907374","1","1","1","1","1","1","1","1","1"
"260043","img/object_images/Woopie01.jpg","img/object_images/container01.jpg","img/object_images/pitcher03.jpg","1","1","1","1","0","1","0.438343999907374","0.343591300072148","0.555791500257328","1","1","1","1","1","1","1","1","1"
"260043","img/object_images/pitcher03.jpg","img/object_images/Woopie01.jpg","img/object_images/cochlear_implant01.jpg","1","1","0","1","1","0","0.555791500257328","0.438343999907374","0.392835000064224","1","1","1","1","1","1","1","1","1"
"260043","img/object_images/cochlear_implant01.jpg","img/object_images/pitcher03.jpg","img/object_images/tie01.jpg","0","1","1","0","1","0","0.392835000064224","0.555791500257328","0.583064800128341","1","1","1","1","1","1","1","1","1"
"260043","img/object_images/tie01.jpg","img/object_images/cochlear_implant01.jpg","img/object_images/hat02.jpg","1","0","1","0","0","0","0.583064800128341","0.392835000064224","0.612617200240493","1","1","1","1","1","1","1","1","1"
"260043","img/object_images/hat02.jpg","img/object_images/tie01.jpg","img/object_images/toilet_paper01.jpg","1","1","1","0","0","1","0.612617200240493","0.583064800128341","0.465548400068656","1","1","1","1","1","1","1","1","1"
"260043","img/object_images/toilet_paper01.jpg","img/object_images/hat02.jpg","img/object_images/razor03.jpg","1","1","1","1","0","0","0.465548400068656","0.612617200240493","0.721951900282875","1","1","1","1","1","1","1","1","1"
"260043","img/object_images/razor03.jpg","img/object_images/toilet_paper01.jpg","img/object_images/decorative02.jpg","1","1","1","0","1","0","0.721951900282875","0.465548400068656","0.601966100046411","1","1","1","1","1","1","1","1","1"
"260043","img/object_images/decorative02.jpg","img/object_images/razor03.jpg","img/object_images/chair01.jpg","1","1","1","0","0","0","0.601966100046411","0.721951900282875","0.555728500243276","1","1","1","1","1","1","1","1","1"
"260043","img/object_images/chair01.jpg","img/object_images/decorative02.jpg","img/object_images/soap01.jpg","1","1","1","0","0","0","0.555728500243276","0.601966100046411","0.47796760010533","1","1","1","1","1","1","1","1","1"
"260043","img/object_images/soap01.jpg","img/object_images/chair01.jpg","img/object_images/broom01.jpg","1","1","1","0","0","1","0.47796760010533","0.555728500243276","0.525190399959683","1","1","1","1","1","1","1","1","1"
"260043","img/object_images/broom01.jpg","img/object_images/soap01.jpg","img/object_images/Recycling01.jpg","1","1","1","1","0","1","0.525190399959683","0.47796760010533","0.485864200163633","1","1","1","1","1","1","1","1","1"
"260043","img/object_images/Recycling01.jpg","img/object_images/broom01.jpg","img/object_images/toy_train02.jpg","1","1","1","1","1","1","0.485864200163633","0.525190399959683","0.504727400140837","1","1","1","1","1","1","1","1","1"
"260043","img/object_images/toy_train02.jpg","img/object_images/Recycling01.jpg","img/object_images/ball01.jpg","1","1","1","1","1","1","0.504727400140837","0.485864200163633","0.470709099899978","1","1","1","1","1","1","1","1","1"
"260043","img/object_images/ball01.jpg","img/object_images/toy_train02.jpg","img/object_images/Wisk01.jpg","1","1","1","1","1","1","0.470709099899978","0.504727400140837","0.605814900016412","1","1","1","1","1","1","1","1","1"
"260043","img/object_images/Wisk01.jpg","img/object_images/ball01.jpg","img/object_images/bottle12.jpg","1","1","1","1","1","1","0.605814900016412","0.470709099899978","0.424409000203013","1","1","1","1","1","1","1","1","1"
"260043","img/object_images/bottle12.jpg","img/object_images/Wisk01.jpg","img/object_images/drone02.jpg","1","1","1","1","1","0","0.424409000203013","0.605814900016412","0.436037300154567","1","1","1","1","1","1","1","1","1"
"260043","img/object_images/drone02.jpg","img/object_images/bottle12.jpg","img/object_images/airfryer01.jpg","1","1","1","0","1","0","0.436037300154567","0.424409000203013","0.569494999945164","1","1","1","1","1","1","1","1","1"
"260043","img/object_images/airfryer01.jpg","img/object_images/drone02.jpg","img/object_images/brief_case02.jpg","1","1","1","0","0","1","0.569494999945164","0.436037300154567","0.451799700036645","1","1","1","1","1","1","1","1","1"
"260043","img/object_images/brief_case02.jpg","img/object_images/airfryer01.jpg","img/object_images/pot01.jpg","1","1","1","1","0","0","0.451799700036645","0.569494999945164","0.455720000201836","1","1","1","1","1","1","1","1","1"
"260043","img/object_images/pot01.jpg","img/object_images/brief_case02.jpg","img/object_images/ironing_table02.jpg","1","1","1","0","1","0","0.455720000201836","0.451799700036645","0.501903500175104","1","1","1","1","1","1","1","1","1"
"260043","img/object_images/ironing_table02.jpg","img/object_images/pot01.jpg","img/object_images/guitar01.jpg","1","1","1","0","0","1","0.501903500175104","0.455720000201836","0.707468400010839","1","1","1","1","1","1","1","1","1"
"260043","img/object_images/guitar01.jpg","img/object_images/ironing_table02.jpg","img/object_images/video_game06.jpg","1","1","1","1","0","0","0.707468400010839","0.501903500175104","0.456664400175214","1","1","1","1","1","1","1","1","1"
"260043","img/object_images/video_game06.jpg","img/object_images/guitar01.jpg","img/object_images/brief_case01.jpg","1","1","1","0","1","0","0.456664400175214","0.707468400010839","0.513843100052327","1","1","1","1","1","1","1","1","1"
"260043","img/object_images/brief_case01.jpg","img/object_images/video_game06.jpg",NA,"1","1",NA,"0","0",NA,"0.513843100052327","0.456664400175214",NA,"1","1",NA,"1","1",NA,"1","1",NA
"260043","img/object_images/couch03.jpg",NA,"img/object_images/golf_ball03.jpg","0",NA,"1","0",NA,"1","0.781685000052676",NA,"0.504434800241143","1",NA,"1","1",NA,"1","1",NA,"1"
"260043","img/object_images/golf_ball03.jpg","img/object_images/couch03.jpg","img/object_images/paper_cup01.jpg","1","0","1","1","0","0","0.504434800241143","0.781685000052676","0.534669900080189","1","1","1","1","1","1","1","1","1"
"260043","img/object_images/paper_cup01.jpg","img/object_images/golf_ball03.jpg","img/object_images/socks02.jpg","1","1","1","0","1","0","0.534669900080189","0.504434800241143","0.465737400110811","1","1","1","1","1","1","1","1","1"
"260043","img/object_images/socks02.jpg","img/object_images/paper_cup01.jpg","img/object_images/wallet02.jpg","1","1","1","0","0","1","0.465737400110811","0.534669900080189","0.437101700110361","1","1","1","1","1","1","1","1","1"
"260043","img/object_images/wallet02.jpg","img/object_images/socks02.jpg","img/object_images/Screws01.jpg","1","1","1","1","0","1","0.437101700110361","0.465737400110811","0.475152000086382","1","1","1","1","1","1","1","1","1"
"260043","img/object_images/Screws01.jpg","img/object_images/wallet02.jpg","img/object_images/hammer01.jpg","1","1","1","1","1","0","0.475152000086382","0.437101700110361","0.507473600097001","1","1","1","1","1","1","1","1","1"
"260043","img/object_images/hammer01.jpg","img/object_images/Screws01.jpg","img/object_images/fork03.jpg","1","1","1","0","1","1","0.507473600097001","0.475152000086382","0.3879803000018","1","1","1","1","1","1","1","1","1"
"260043","img/object_images/fork03.jpg","img/object_images/hammer01.jpg","img/object_images/vga_port 01.jpg","1","1","1","1","0","0","0.3879803000018","0.507473600097001","0.370892400154844","1","1","1","1","1","1","1","1","1"
"260043","img/object_images/vga_port 01.jpg","img/object_images/fork03.jpg","img/object_images/gift_box02.jpg","1","1","1","0","1","1","0.370892400154844","0.3879803000018","0.516469000140205","1","1","1","1","1","1","1","1","1"
"260043","img/object_images/gift_box02.jpg","img/object_images/vga_port 01.jpg","img/object_images/grater01.jpg","1","1","1","1","0","1","0.516469000140205","0.370892400154844","0.449976100120694","1","1","1","1","1","1","1","1","1"
"260043","img/object_images/grater01.jpg","img/object_images/gift_box02.jpg","img/object_images/sleeping_bag01.jpg","1","1","1","1","1","0","0.449976100120694","0.516469000140205","0.572222900111228","1","1","1","1","1","1","1","1","1"
"260043","img/object_images/sleeping_bag01.jpg","img/object_images/grater01.jpg","img/object_images/funnel01.jpg","1","1","0","0","1","0","0.572222900111228","0.449976100120694","0.480406600283459","1","1","1","1","1","1","1","1","1"
"260043","img/object_images/funnel01.jpg","img/object_images/sleeping_bag01.jpg","img/object_images/jacket03.jpg","0","1","1","0","0","0","0.480406600283459","0.572222900111228","0.498911100206897","1","1","1","1","1","1","1","1","1"
"260043","img/object_images/jacket03.jpg","img/object_images/funnel01.jpg","img/object_images/gift_box03.jpg","1","0","1","0","0","0","0.498911100206897","0.480406600283459","0.539742000168189","1","1","1","1","1","1","1","1","1"
"260043","img/object_images/gift_box03.jpg","img/object_images/jacket03.jpg","img/object_images/ironing_table01.jpg","1","1","1","0","0","0","0.539742000168189","0.498911100206897","0.504460400203243","1","1","1","1","1","1","1","1","1"
"260043","img/object_images/ironing_table01.jpg","img/object_images/gift_box03.jpg","img/object_images/pitcher02.jpg","1","1","1","0","0","1","0.504460400203243","0.539742000168189","0.675642000045627","1","1","1","1","1","1","1","1","1"
"260043","img/object_images/pitcher02.jpg","img/object_images/ironing_table01.jpg","img/object_images/lock04.jpg","1","1","1","1","0","1","0.675642000045627","0.504460400203243","0.515006300061941","1","1","1","1","1","1","1","1","1"
"260043","img/object_images/lock04.jpg","img/object_images/pitcher02.jpg","img/object_images/handkerchief01.jpg","1","1","1","1","1","0","0.515006300061941","0.675642000045627","0.517296600155532","1","1","1","1","1","1","1","1","1"
"260043","img/object_images/handkerchief01.jpg","img/object_images/lock04.jpg","img/object_images/Witchhat01.jpg","1","1","1","0","1","1","0.517296600155532","0.515006300061941","0.446358000161126","1","1","1","1","1","1","1","1","1"
"260043","img/object_images/Witchhat01.jpg","img/object_images/handkerchief01.jpg","img/object_images/jewelry01.jpg","1","1","1","1","0","1","0.446358000161126","0.517296600155532","0.476616299943998","1","1","1","1","1","1","1","1","1"
"260043","img/object_images/jewelry01.jpg","img/object_images/Witchhat01.jpg","img/object_images/balloon01.jpg","1","1","1","1","1","0","0.476616299943998","0.446358000161126","0.488583999918774","1","1","1","1","1","1","1","1","1"
"260043","img/object_images/balloon01.jpg","img/object_images/jewelry01.jpg","img/object_images/bow_tie02.jpg","1","1","1","0","1","0","0.488583999918774","0.476616299943998","0.532042200211436","1","1","1","1","1","1","1","1","1"
"260043","img/object_images/bow_tie02.jpg","img/object_images/balloon01.jpg","img/object_images/bow_tie01.jpg","1","1","1","0","0","0","0.532042200211436","0.488583999918774","0.479974700137973","1","1","1","1","1","1","1","1","1"
"260043","img/object_images/bow_tie01.jpg","img/object_images/bow_tie02.jpg","img/object_images/lawn_mower01.jpg","1","1","1","0","0","1","0.479974700137973","0.532042200211436","0.493338400032371","1","1","1","1","1","1","1","1","1"
"260043","img/object_images/lawn_mower01.jpg","img/object_images/bow_tie01.jpg","img/object_images/measuring_tape02.jpg","1","1","1","1","0","1","0.493338400032371","0.479974700137973","0.504000300075859","1","1","1","1","1","1","1","1","1"
"260043","img/object_images/measuring_tape02.jpg","img/object_images/lawn_mower01.jpg","img/object_images/camera07.jpg","1","1","1","1","1","1","0.504000300075859","0.493338400032371","0.518800800200552","1","1","1","1","1","1","1","1","1"
"260043","img/object_images/camera07.jpg","img/object_images/measuring_tape02.jpg","img/object_images/coloring_pencil01.jpg","1","1","1","1","1","1","0.518800800200552","0.504000300075859","0.452827000059187","1","1","1","1","1","1","1","1","1"
"260043","img/object_images/coloring_pencil01.jpg","img/object_images/camera07.jpg","img/object_images/bath_tub01.jpg","1","1","1","1","1","0","0.452827000059187","0.518800800200552","0.490009100176394","1","1","1","1","1","1","1","1","1"
"260043","img/object_images/bath_tub01.jpg","img/object_images/coloring_pencil01.jpg","img/object_images/clip02.jpg","1","1","1","0","1","1","0.490009100176394","0.452827000059187","0.450945599935949","1","1","1","1","1","1","1","1","1"
"260043","img/object_images/clip02.jpg","img/object_images/bath_tub01.jpg","img/object_images/gift_box01.jpg","1","1","1","1","0","1","0.450945599935949","0.490009100176394","0.586107100127265","1","1","1","1","1","1","1","1","1"
"260043","img/object_images/gift_box01.jpg","img/object_images/clip02.jpg","img/object_images/dresser04.jpg","1","1","1","1","1","0","0.586107100127265","0.450945599935949","0.533925000112504","1","1","1","1","1","1","1","1","1"
"260043","img/object_images/dresser04.jpg","img/object_images/gift_box01.jpg",NA,"1","1",NA,"0","1",NA,"0.533925000112504","0.586107100127265",NA,"1","1",NA,"1","1",NA,"1","1",NA
"260043","img/object_images/glasses06.jpg",NA,"img/object_images/Kitchen_Towel.jpg","1",NA,"1","1",NA,"0","0.649527800036594",NA,"0.51114850025624","1",NA,"1","1",NA,"1","1",NA,"1"
"260043","img/object_images/Kitchen_Towel.jpg","img/object_images/glasses06.jpg","img/object_images/projector01.jpg","1","1","1","0","1","0","0.51114850025624","0.649527800036594","0.46834610006772","1","1","1","1","1","1","1","1","1"
"260043","img/object_images/projector01.jpg","img/object_images/Kitchen_Towel.jpg","img/object_images/bicycle_lock01.jpg","1","1","1","0","0","0","0.46834610006772","0.51114850025624","0.501080299960449","1","1","1","1","1","1","1","1","1"
"260043","img/object_images/bicycle_lock01.jpg","img/object_images/projector01.jpg","img/object_images/lighter01.jpg","1","1","1","0","0","1","0.501080299960449","0.46834610006772","0.53083850024268","1","1","1","1","1","1","1","1","1"
"260043","img/object_images/lighter01.jpg","img/object_images/bicycle_lock01.jpg","img/object_images/ring03.jpg","1","1","1","1","0","1","0.53083850024268","0.501080299960449","0.33812510012649","1","1","1","1","1","1","1","1","1"
"260043","img/object_images/ring03.jpg","img/object_images/lighter01.jpg","img/object_images/faucet01.jpg","1","1","1","1","1","0","0.33812510012649","0.53083850024268","0.576288100099191","1","1","1","1","1","1","1","1","1"
"260043","img/object_images/faucet01.jpg","img/object_images/ring03.jpg","img/object_images/pan01.jpg","1","1","1","0","1","1","0.576288100099191","0.33812510012649","0.73405190021731","1","1","1","1","1","1","1","1","1"
"260043","img/object_images/pan01.jpg","img/object_images/faucet01.jpg","img/object_images/basket02.jpg","1","1","1","1","0","0","0.73405190021731","0.576288100099191","0.48455740022473","1","1","1","1","1","1","1","1","1"
"260043","img/object_images/basket02.jpg","img/object_images/pan01.jpg","img/object_images/purse01.jpg","1","1","1","0","1","1","0.48455740022473","0.73405190021731","0.464494100073352","1","1","1","1","1","1","1","1","1"
"260043","img/object_images/purse01.jpg","img/object_images/basket02.jpg","img/object_images/exfoliater_brush01.jpg","1","1","1","1","0","0","0.464494100073352","0.48455740022473","0.44638209999539","1","1","1","1","1","1","1","1","1"
"260043","img/object_images/exfoliater_brush01.jpg","img/object_images/purse01.jpg","img/object_images/tool07.jpg","1","1","1","0","1","0","0.44638209999539","0.464494100073352","0.504613200202584","1","1","1","1","1","1","1","1","1"
"260043","img/object_images/tool07.jpg","img/object_images/exfoliater_brush01.jpg","img/object_images/handcuffs01.jpg","1","1","1","0","0","0","0.504613200202584","0.44638209999539","0.616330400109291","1","1","1","1","1","1","1","1","1"
"260043","img/object_images/handcuffs01.jpg","img/object_images/tool07.jpg","img/object_images/hair_clips01.jpg","1","1","1","0","0","1","0.616330400109291","0.504613200202584","0.43445170018822","1","1","1","1","1","1","1","1","1"
"260043","img/object_images/hair_clips01.jpg","img/object_images/handcuffs01.jpg","img/object_images/fire_extinguisher01.jpg","1","1","1","1","0","0","0.43445170018822","0.616330400109291","0.515504400013015","1","1","1","1","1","1","1","1","1"
"260043","img/object_images/fire_extinguisher01.jpg","img/object_images/hair_clips01.jpg","img/object_images/cup03.jpg","1","1","1","0","1","1","0.515504400013015","0.43445170018822","0.482025200035423","1","1","1","1","1","1","1","1","1"
"260043","img/object_images/cup03.jpg","img/object_images/fire_extinguisher01.jpg","img/object_images/TrashCan02.jpg","1","1","1","1","0","1","0.482025200035423","0.515504400013015","0.494088100036606","1","1","1","1","1","1","1","1","1"
"260043","img/object_images/TrashCan02.jpg","img/object_images/cup03.jpg","img/object_images/hole_puncher01.jpg","1","1","1","1","1","1","0.494088100036606","0.482025200035423","0.604797000065446","1","1","1","1","1","1","1","1","1"
"260043","img/object_images/hole_puncher01.jpg","img/object_images/TrashCan02.jpg","img/object_images/jewelry09.jpg","1","1","1","1","1","1","0.604797000065446","0.494088100036606","0.693031399976462","1","1","1","1","1","1","1","1","1"
"260043","img/object_images/jewelry09.jpg","img/object_images/hole_puncher01.jpg","img/object_images/book01.jpg","1","1","1","1","1","1","0.693031399976462","0.604797000065446","0.444431399926543","1","1","1","1","1","1","1","1","1"
"260043","img/object_images/book01.jpg","img/object_images/jewelry09.jpg","img/object_images/tray01.jpg","1","1","1","1","1","1","0.444431399926543","0.693031399976462","0.459007500205189","1","1","1","1","1","1","1","1","1"
"260043","img/object_images/tray01.jpg","img/object_images/book01.jpg","img/object_images/colander01.jpg","1","1","1","1","1","0","0.459007500205189","0.444431399926543","0.596465100068599","1","1","1","1","1","1","1","1","1"
"260043","img/object_images/colander01.jpg","img/object_images/tray01.jpg","img/object_images/tool08.jpg","1","1","1","0","1","0","0.596465100068599","0.459007500205189","0.545695499982685","1","1","1","1","1","1","1","1","1"
"260043","img/object_images/tool08.jpg","img/object_images/colander01.jpg","img/object_images/Pottery01.jpg","1","1","0","0","0","0","0.545695499982685","0.596465100068599","0.385202400153503","1","1","1","1","1","1","1","1","1"
"260043","img/object_images/Pottery01.jpg","img/object_images/tool08.jpg","img/object_images/cellphone02.jpg","0","1","1","0","0","1","0.385202400153503","0.545695499982685","0.33800070011057","1","1","1","1","1","1","1","1","1"
"260043","img/object_images/cellphone02.jpg","img/object_images/Pottery01.jpg","img/object_images/gift_box04.jpg","1","0","1","1","0","0","0.33800070011057","0.385202400153503","0.559571500169113","1","1","1","1","1","1","1","1","1"
"260043","img/object_images/gift_box04.jpg","img/object_images/cellphone02.jpg","img/object_images/speaker01.jpg","1","1","1","0","1","1","0.559571500169113","0.33800070011057","0.450450700009242","1","1","1","1","1","1","1","1","1"
"260043","img/object_images/speaker01.jpg","img/object_images/gift_box04.jpg","img/object_images/blanket01.jpg","1","1","1","1","0","1","0.450450700009242","0.559571500169113","0.60180290020071","1","1","1","1","1","1","1","1","1"
"260043","img/object_images/blanket01.jpg","img/object_images/speaker01.jpg","img/object_images/Sprayer01.jpg","1","1","1","1","1","0","0.60180290020071","0.450450700009242","0.500347299966961","1","1","1","1","1","1","1","1","1"
"260043","img/object_images/Sprayer01.jpg","img/object_images/blanket01.jpg","img/object_images/yo_yo01.jpg","1","1","1","0","1","0","0.500347299966961","0.60180290020071","0.485703600104898","1","1","1","1","1","1","1","1","1"
"260043","img/object_images/yo_yo01.jpg","img/object_images/Sprayer01.jpg","img/object_images/Traffic Sign 01.jpg","1","1","1","0","0","0","0.485703600104898","0.500347299966961","0.50506930006668","1","1","1","1","1","1","1","1","1"
"260043","img/object_images/Traffic Sign 01.jpg","img/object_images/yo_yo01.jpg","img/object_images/glasses07.jpg","1","1","1","0","0","1","0.50506930006668","0.485703600104898","0.50569189991802","1","1","1","1","1","1","1","1","1"
"260043","img/object_images/glasses07.jpg","img/object_images/Traffic Sign 01.jpg",NA,"1","1",NA,"1","0",NA,"0.50569189991802","0.50506930006668",NA,"1","1",NA,"1","1",NA,"1","1",NA
"260043","img/object_images/clip03.jpg",NA,"img/object_images/compass01.jpg","0",NA,"1","0",NA,"1",NA,NA,"0.498012400232255","0",NA,"1","0",NA,"1","0",NA,"1"
"260043","img/object_images/compass01.jpg","img/object_images/clip03.jpg","img/object_images/cellphone01.jpg","1","0","1","1","0","1","0.498012400232255",NA,"0.494355200091377","1","0","1","1","0","1","1","0","1"
"260043","img/object_images/cellphone01.jpg","img/object_images/compass01.jpg","img/object_images/Oven01.jpg","1","1","1","1","1","1","0.494355200091377","0.498012400232255","0.424956900067627","1","1","1","1","1","1","1","1","1"
"260043","img/object_images/Oven01.jpg","img/object_images/cellphone01.jpg","img/object_images/motorcycle01.jpg","1","1","1","1","1","1","0.424956900067627","0.494355200091377","0.58672930020839","1","1","1","1","1","1","1","1","1"
"260043","img/object_images/motorcycle01.jpg","img/object_images/Oven01.jpg","img/object_images/hammer03.jpg","1","1","1","1","1","1","0.58672930020839","0.424956900067627","0.588673799997196","1","1","1","1","1","1","1","1","1"
"260043","img/object_images/hammer03.jpg","img/object_images/motorcycle01.jpg","img/object_images/microscope01.jpg","1","1","1","1","1","0","0.588673799997196","0.58672930020839","0.429756600176916","1","1","1","1","1","1","1","1","1"
"260043","img/object_images/microscope01.jpg","img/object_images/hammer03.jpg","img/object_images/note_book01.jpg","1","1","1","0","1","0","0.429756600176916","0.588673799997196","0.64514880022034","1","1","1","1","1","1","1","1","1"
"260043","img/object_images/note_book01.jpg","img/object_images/microscope01.jpg","img/object_images/knit05.jpg","1","1","1","0","0","1","0.64514880022034","0.429756600176916","0.46212730021216","1","1","1","1","1","1","1","1","1"
"260043","img/object_images/knit05.jpg","img/object_images/note_book01.jpg","img/object_images/clock02.jpg","1","1","1","1","0","0","0.46212730021216","0.64514880022034","0.57567139994353","1","1","1","1","1","1","1","1","1"
"260043","img/object_images/clock02.jpg","img/object_images/knit05.jpg","img/object_images/floppy_disk02.jpg","1","1","0","0","1","0","0.57567139994353","0.46212730021216","0.493393200216815","1","1","1","1","1","1","1","1","1"
"260043","img/object_images/floppy_disk02.jpg","img/object_images/clock02.jpg","img/object_images/wire02.jpg","0","1","1","0","0","1","0.493393200216815","0.57567139994353","0.44028460024856","1","1","1","1","1","1","1","1","1"
"260043","img/object_images/wire02.jpg","img/object_images/floppy_disk02.jpg","img/object_images/floppy_disk03.jpg","1","0","1","1","0","1","0.44028460024856","0.493393200216815","0.529063699999824","1","1","1","1","1","1","1","1","1"
"260043","img/object_images/floppy_disk03.jpg","img/object_images/wire02.jpg","img/object_images/tennis_racket02.jpg","1","1","1","1","1","1","0.529063699999824","0.44028460024856","0.633814000058919","1","1","1","1","1","1","1","1","1"
"260043","img/object_images/tennis_racket02.jpg","img/object_images/floppy_disk03.jpg","img/object_images/paint_brush04.jpg","1","1","1","1","1","0","0.633814000058919","0.529063699999824","0.64327870006673","1","1","1","1","1","1","1","1","1"
"260043","img/object_images/paint_brush04.jpg","img/object_images/tennis_racket02.jpg","img/object_images/chess_piece02.jpg","1","1","1","0","1","1","0.64327870006673","0.633814000058919","0.481128900079057","1","1","1","1","1","1","1","1","1"
"260043","img/object_images/chess_piece02.jpg","img/object_images/paint_brush04.jpg","img/object_images/ear_bud01.jpg","1","1","1","1","0","1","0.481128900079057","0.64327870006673","0.487327999901026","1","1","1","1","1","1","1","1","1"
"260043","img/object_images/ear_bud01.jpg","img/object_images/chess_piece02.jpg","img/object_images/pen03.jpg","1","1","1","1","1","0","0.487327999901026","0.481128900079057","0.725468400167301","1","1","1","1","1","1","1","1","1"
"260043","img/object_images/pen03.jpg","img/object_images/ear_bud01.jpg","img/object_images/chair05.jpg","1","1","1","0","1","0","0.725468400167301","0.487327999901026","0.5719073000364","1","1","1","1","1","1","1","1","1"
"260043","img/object_images/chair05.jpg","img/object_images/pen03.jpg","img/object_images/book03.jpg","1","1","1","0","0","1","0.5719073000364","0.725468400167301","0.526723700109869","1","1","1","1","1","1","1","1","1"
"260043","img/object_images/book03.jpg","img/object_images/chair05.jpg","img/object_images/Staples01.jpg","1","1","1","1","0","1","0.526723700109869","0.5719073000364","0.436334000201896","1","1","1","1","1","1","1","1","1"
"260043","img/object_images/Staples01.jpg","img/object_images/book03.jpg","img/object_images/retainer01.jpg","1","1","1","1","1","0","0.436334000201896","0.526723700109869","0.57493680017069","1","1","1","1","1","1","1","1","1"
"260043","img/object_images/retainer01.jpg","img/object_images/Staples01.jpg","img/object_images/bell02.jpg","1","1","1","0","1","0","0.57493680017069","0.436334000201896","0.503364200005308","1","1","1","1","1","1","1","1","1"
"260043","img/object_images/bell02.jpg","img/object_images/retainer01.jpg","img/object_images/crutches02.jpg","1","1","1","0","0","0","0.503364200005308","0.57493680017069","0.402228600112721","1","1","1","1","1","1","1","1","1"
"260043","img/object_images/crutches02.jpg","img/object_images/bell02.jpg","img/object_images/bottle01.jpg","1","1","1","0","0","0","0.402228600112721","0.503364200005308","0.37767650000751","1","1","1","1","1","1","1","1","1"
"260043","img/object_images/bottle01.jpg","img/object_images/crutches02.jpg","img/object_images/tv02.jpg","1","1","1","0","0","0","0.37767650000751","0.402228600112721","0.476164099993184","1","1","1","1","1","1","1","1","1"
"260043","img/object_images/tv02.jpg","img/object_images/bottle01.jpg","img/object_images/knife04.jpg","1","1","1","0","0","1","0.476164099993184","0.37767650000751","0.392010000068694","1","1","1","1","1","1","1","1","1"
"260043","img/object_images/knife04.jpg","img/object_images/tv02.jpg","img/object_images/pitcher01.jpg","1","1","1","1","0","0","0.392010000068694","0.476164099993184","0.484587999992073","1","1","1","1","1","1","1","1","1"
"260043","img/object_images/pitcher01.jpg","img/object_images/knife04.jpg","img/object_images/Thermometer01.jpg","1","1","1","0","1","0","0.484587999992073","0.392010000068694","0.509616200113669","1","1","1","1","1","1","1","1","1"
"260043","img/object_images/Thermometer01.jpg","img/object_images/pitcher01.jpg","img/object_images/lid01.jpg","1","1","1","0","0","1","0.509616200113669","0.484587999992073","0.436315200058743","1","1","1","1","1","1","1","1","1"
"260043","img/object_images/lid01.jpg","img/object_images/Thermometer01.jpg","img/object_images/pillows01.jpg","1","1","1","1","0","1","0.436315200058743","0.509616200113669","0.405160899972543","1","1","1","1","1","1","1","1","1"
"260043","img/object_images/pillows01.jpg","img/object_images/lid01.jpg","img/object_images/usb02.jpg","1","1","0","1","1","0","0.405160899972543","0.436315200058743","0.415254600113258","1","1","1","1","1","1","1","1","1"
"260043","img/object_images/usb02.jpg","img/object_images/pillows01.jpg",NA,"0","1",NA,"0","1",NA,"0.415254600113258","0.405160899972543",NA,"1","1",NA,"1","1",NA,"1","1",NA
"260043","img/object_images/curtain02.jpg",NA,"img/object_images/matches02.jpg","1",NA,"1","0",NA,"0","0.526046700077131",NA,"0.547259800136089","1",NA,"1","1",NA,"1","1",NA,"1"
"260043","img/object_images/matches02.jpg","img/object_images/curtain02.jpg","img/object_images/hand_grip_exerciser01.jpg","1","1","1","0","0","0","0.547259800136089","0.526046700077131","0.517425200203434","1","1","1","1","1","1","1","1","1"
"260043","img/object_images/hand_grip_exerciser01.jpg","img/object_images/matches02.jpg","img/object_images/mail_box01.jpg","1","1","1","0","0","0","0.517425200203434","0.547259800136089","0.450314600020647","1","1","1","1","1","1","1","1","1"
"260043","img/object_images/mail_box01.jpg","img/object_images/hand_grip_exerciser01.jpg","img/object_images/remover01.jpg","1","1","1","0","0","1","0.450314600020647","0.517425200203434","0.453729100059718","1","1","1","1","1","1","1","1","1"
"260043","img/object_images/remover01.jpg","img/object_images/mail_box01.jpg","img/object_images/tool18.jpg","1","1","1","1","0","0","0.453729100059718","0.450314600020647","0.485088900197297","1","1","1","1","1","1","1","1","1"
"260043","img/object_images/tool18.jpg","img/object_images/remover01.jpg","img/object_images/video_game01.jpg","1","1","1","0","1","1","0.485088900197297","0.453729100059718","0.523558600107208","1","1","1","1","1","1","1","1","1"
"260043","img/object_images/video_game01.jpg","img/object_images/tool18.jpg","img/object_images/knit03.jpg","1","1","1","1","0","1","0.523558600107208","0.485088900197297","0.498492900049314","1","1","1","1","1","1","1","1","1"
"260043","img/object_images/knit03.jpg","img/object_images/video_game01.jpg","img/object_images/remote_controller01.jpg","1","1","1","1","1","1","0.498492900049314","0.523558600107208","0.381693000206724","1","1","1","1","1","1","1","1","1"
"260043","img/object_images/remote_controller01.jpg","img/object_images/knit03.jpg","img/object_images/shower_head01.jpg","1","1","1","1","1","1","0.381693000206724","0.498492900049314","0.361114000203088","1","1","1","1","1","1","1","1","1"
"260043","img/object_images/shower_head01.jpg","img/object_images/remote_controller01.jpg","img/object_images/hoverboard01.jpg","1","1","1","1","1","0","0.361114000203088","0.381693000206724","0.469689300050959","1","1","1","1","1","1","1","1","1"
"260043","img/object_images/hoverboard01.jpg","img/object_images/shower_head01.jpg","img/object_images/kite01.jpg","1","1","0","0","1","1","0.469689300050959","0.361114000203088","0.356147299986333","1","1","1","1","1","1","1","1","1"
"260043","img/object_images/kite01.jpg","img/object_images/hoverboard01.jpg","img/object_images/jacket04.jpg","0","1","1","1","0","0","0.356147299986333","0.469689300050959","0.314168800134212","1","1","1","1","1","1","1","1","1"
"260043","img/object_images/jacket04.jpg","img/object_images/kite01.jpg","img/object_images/toy08.jpg","1","0","1","0","1","0","0.314168800134212","0.356147299986333","0.495174900162965","1","1","1","1","1","1","1","1","1"
"260043","img/object_images/toy08.jpg","img/object_images/jacket04.jpg","img/object_images/basket04.jpg","1","1","1","0","0","1","0.495174900162965","0.314168800134212","0.487366399960592","1","1","1","1","1","1","1","1","1"
"260043","img/object_images/basket04.jpg","img/object_images/toy08.jpg","img/object_images/sponge03.jpg","1","1","1","1","0","1","0.487366399960592","0.495174900162965","0.496317100012675","1","1","1","1","1","1","1","1","1"
"260043","img/object_images/sponge03.jpg","img/object_images/basket04.jpg","img/object_images/bottle07.jpg","1","1","1","1","1","1","0.496317100012675","0.487366399960592","0.503922200063244","1","1","1","1","1","1","1","1","1"
"260043","img/object_images/bottle07.jpg","img/object_images/sponge03.jpg","img/object_images/camera03.jpg","1","1","1","1","1","0","0.503922200063244","0.496317100012675","0.620156400138512","1","1","1","1","1","1","1","1","1"
"260043","img/object_images/camera03.jpg","img/object_images/bottle07.jpg","img/object_images/keyboard02.jpg","1","1","1","0","1","1","0.620156400138512","0.503922200063244","0.678573300130665","1","1","1","1","1","1","1","1","1"
"260043","img/object_images/keyboard02.jpg","img/object_images/camera03.jpg","img/object_images/knife02.jpg","1","1","1","1","0","0","0.678573300130665","0.620156400138512","0.540049999952316","1","1","1","1","1","1","1","1","1"
"260043","img/object_images/knife02.jpg","img/object_images/keyboard02.jpg","img/object_images/flashlight03.jpg","1","1","1","0","1","0","0.540049999952316","0.678573300130665","0.655509600182995","1","1","1","1","1","1","1","1","1"
"260043","img/object_images/flashlight03.jpg","img/object_images/knife02.jpg","img/object_images/paper_cup02.jpg","1","1","1","0","0","1","0.655509600182995","0.540049999952316","0.356493400176987","1","1","1","1","1","1","1","1","1"
"260043","img/object_images/paper_cup02.jpg","img/object_images/flashlight03.jpg","img/object_images/backpack01.jpg","1","1","1","1","0","0","0.356493400176987","0.655509600182995","0.551543400157243","1","1","1","1","1","1","1","1","1"
"260043","img/object_images/backpack01.jpg","img/object_images/paper_cup02.jpg","img/object_images/Statue01.jpg","1","1","1","0","1","1","0.551543400157243","0.356493400176987","0.634481000015512","1","1","1","1","1","1","1","1","1"
"260043","img/object_images/Statue01.jpg","img/object_images/backpack01.jpg","img/object_images/phone02.jpg","1","1","1","1","0","1","0.634481000015512","0.551543400157243","0.534859900129959","1","1","1","1","1","1","1","1","1"
"260043","img/object_images/phone02.jpg","img/object_images/Statue01.jpg","img/object_images/car01.jpg","1","1","1","1","1","1","0.534859900129959","0.634481000015512","0.639693400124088","1","1","1","1","1","1","1","1","1"
"260043","img/object_images/car01.jpg","img/object_images/phone02.jpg","img/object_images/gloves02.jpg","1","1","1","1","1","0","0.639693400124088","0.534859900129959","0.539430000120774","1","1","1","1","1","1","1","1","1"
"260043","img/object_images/gloves02.jpg","img/object_images/car01.jpg","img/object_images/blender02.jpg","1","1","1","0","1","1","0.539430000120774","0.639693400124088","0.53630860010162","1","1","1","1","1","1","1","1","1"
"260043","img/object_images/blender02.jpg","img/object_images/gloves02.jpg","img/object_images/boat04.jpg","1","1","0","1","0","0","0.53630860010162","0.539430000120774","0.496366700157523","1","1","1","1","1","1","1","1","1"
"260043","img/object_images/boat04.jpg","img/object_images/blender02.jpg","img/object_images/stereo02.jpg","0","1","0","0","1","0","0.496366700157523","0.53630860010162","0.418060299940407","1","1","1","1","1","1","1","1","1"
"260043","img/object_images/stereo02.jpg","img/object_images/boat04.jpg","img/object_images/dresser03.jpg","0","0","1","0","0","0","0.418060299940407","0.496366700157523","0.473465900169685","1","1","1","1","1","1","1","1","1"
"260043","img/object_images/dresser03.jpg","img/object_images/stereo02.jpg","img/object_images/knit04.jpg","1","0","1","0","0","1","0.473465900169685","0.418060299940407","0.376782400300726","1","1","1","1","1","1","1","1","1"
"260043","img/object_images/knit04.jpg","img/object_images/dresser03.jpg",NA,"1","1",NA,"1","0",NA,"0.376782400300726","0.473465900169685",NA,"1","1",NA,"1","1",NA,"1","1",NA
