"participant_id","current_trial_object","pre_trial_object","post_trial_object","current_trial_accuracy","pre_trial_accuracy","post_trial_accuracy","current_trial_congruency","pre_trial_congruency","post_trial_congruency","current_trial_rt","pre_trial_rt","post_trial_rt","current_trial_responded","pre_trial_responded","post_trial_responded","current_trial_legitResponse","pre_trial_legitResponse","post_trial_legitResponse","current_trial_resp_nums","pre_trial_resp_nums","post_trial_resp_nums"
"260005","img/object_images/purse01.jpg",NA,"img/object_images/hole_puncher01.jpg","0",NA,"1","1",NA,"1",NA,NA,"0.530289400136098","0",NA,"1","0",NA,"1","0",NA,"1"
"260005","img/object_images/hole_puncher01.jpg","img/object_images/purse01.jpg","img/object_images/hair_clips01.jpg","1","0","1","1","1","1","0.530289400136098",NA,"0.459442000137642","1","0","1","1","0","1","1","0","1"
"260005","img/object_images/hair_clips01.jpg","img/object_images/hole_puncher01.jpg","img/object_images/pan01.jpg","1","1","0","1","1","1","0.459442000137642","0.530289400136098","0.460391800152138","1","1","1","1","1","1","1","1","2"
"260005","img/object_images/pan01.jpg","img/object_images/hair_clips01.jpg","img/object_images/yo_yo01.jpg","0","1","1","1","1","0","0.460391800152138","0.459442000137642","0.79598019993864","1","1","1","1","1","1","2","1","1"
"260005","img/object_images/yo_yo01.jpg","img/object_images/pan01.jpg","img/object_images/fire_extinguisher01.jpg","1","0","1","0","1","0","0.79598019993864","0.460391800152138","0.522531000198796","1","1","1","1","1","1","1","2","1"
"260005","img/object_images/fire_extinguisher01.jpg","img/object_images/yo_yo01.jpg","img/object_images/exfoliater_brush01.jpg","1","1","1","0","0","0","0.522531000198796","0.79598019993864","0.458629400236532","1","1","1","1","1","1","1","1","1"
"260005","img/object_images/exfoliater_brush01.jpg","img/object_images/fire_extinguisher01.jpg","img/object_images/Kitchen_Towel.jpg","1","1","1","0","0","0","0.458629400236532","0.522531000198796","0.443202100228518","1","1","1","1","1","1","1","1","1"
"260005","img/object_images/Kitchen_Towel.jpg","img/object_images/exfoliater_brush01.jpg","img/object_images/speaker01.jpg","1","1","1","0","0","1","0.443202100228518","0.458629400236532","0.598596400115639","1","1","1","1","1","1","1","1","1"
"260005","img/object_images/speaker01.jpg","img/object_images/Kitchen_Towel.jpg","img/object_images/cup03.jpg","1","1","1","1","0","1","0.598596400115639","0.443202100228518","0.537147599970922","1","1","1","1","1","1","1","1","1"
"260005","img/object_images/cup03.jpg","img/object_images/speaker01.jpg","img/object_images/tool08.jpg","1","1","1","1","1","0","0.537147599970922","0.598596400115639","0.566842700121924","1","1","1","1","1","1","1","1","1"
"260005","img/object_images/tool08.jpg","img/object_images/cup03.jpg","img/object_images/glasses07.jpg","1","1","1","0","1","1","0.566842700121924","0.537147599970922","0.563301000278443","1","1","1","1","1","1","1","1","1"
"260005","img/object_images/glasses07.jpg","img/object_images/tool08.jpg","img/object_images/tray01.jpg","1","1","1","1","0","1","0.563301000278443","0.566842700121924","0.48136300011538","1","1","1","1","1","1","1","1","1"
"260005","img/object_images/tray01.jpg","img/object_images/glasses07.jpg","img/object_images/Sprayer01.jpg","1","1","1","1","1","0","0.48136300011538","0.563301000278443","0.46435260004364","1","1","1","1","1","1","1","1","1"
"260005","img/object_images/Sprayer01.jpg","img/object_images/tray01.jpg","img/object_images/cellphone02.jpg","1","1","1","0","1","1","0.46435260004364","0.48136300011538","0.556612899992615","1","1","1","1","1","1","1","1","1"
"260005","img/object_images/cellphone02.jpg","img/object_images/Sprayer01.jpg","img/object_images/blanket01.jpg","1","1","1","1","0","1","0.556612899992615","0.46435260004364","0.551671700086445","1","1","1","1","1","1","1","1","1"
"260005","img/object_images/blanket01.jpg","img/object_images/cellphone02.jpg","img/object_images/ring03.jpg","1","1","1","1","1","1","0.551671700086445","0.556612899992615","0.498606600100175","1","1","1","1","1","1","1","1","1"
"260005","img/object_images/ring03.jpg","img/object_images/blanket01.jpg","img/object_images/TrashCan02.jpg","1","1","1","1","1","1","0.498606600100175","0.551671700086445","0.523880200227723","1","1","1","1","1","1","1","1","1"
"260005","img/object_images/TrashCan02.jpg","img/object_images/ring03.jpg","img/object_images/projector01.jpg","1","1","1","1","1","0","0.523880200227723","0.498606600100175","0.541593100177124","1","1","1","1","1","1","1","1","1"
"260005","img/object_images/projector01.jpg","img/object_images/TrashCan02.jpg","img/object_images/tool07.jpg","1","1","1","0","1","0","0.541593100177124","0.523880200227723","0.5915475001093","1","1","1","1","1","1","1","1","1"
"260005","img/object_images/tool07.jpg","img/object_images/projector01.jpg","img/object_images/Traffic Sign 01.jpg","1","1","1","0","0","0","0.5915475001093","0.541593100177124","0.711807100102305","1","1","1","1","1","1","1","1","1"
"260005","img/object_images/Traffic Sign 01.jpg","img/object_images/tool07.jpg","img/object_images/basket02.jpg","1","1","1","0","0","0","0.711807100102305","0.5915475001093","0.528965899953619","1","1","1","1","1","1","1","1","1"
"260005","img/object_images/basket02.jpg","img/object_images/Traffic Sign 01.jpg","img/object_images/handcuffs01.jpg","1","1","1","0","0","0","0.528965899953619","0.711807100102305","0.544544400181621","1","1","1","1","1","1","1","1","1"
"260005","img/object_images/handcuffs01.jpg","img/object_images/basket02.jpg","img/object_images/colander01.jpg","1","1","1","0","0","0","0.544544400181621","0.528965899953619","0.735483000054955","1","1","1","1","1","1","1","1","1"
"260005","img/object_images/colander01.jpg","img/object_images/handcuffs01.jpg","img/object_images/faucet01.jpg","1","1","1","0","0","0","0.735483000054955","0.544544400181621","0.577430000063032","1","1","1","1","1","1","1","1","1"
"260005","img/object_images/faucet01.jpg","img/object_images/colander01.jpg","img/object_images/lighter01.jpg","1","1","1","0","0","1","0.577430000063032","0.735483000054955","0.469403700204566","1","1","1","1","1","1","1","1","1"
"260005","img/object_images/lighter01.jpg","img/object_images/faucet01.jpg","img/object_images/jewelry09.jpg","1","1","1","1","0","1","0.469403700204566","0.577430000063032","0.575843500206247","1","1","1","1","1","1","1","1","1"
"260005","img/object_images/jewelry09.jpg","img/object_images/lighter01.jpg","img/object_images/Pottery01.jpg","1","1","1","1","1","0","0.575843500206247","0.469403700204566","0.552748700138181","1","1","1","1","1","1","1","1","1"
"260005","img/object_images/Pottery01.jpg","img/object_images/jewelry09.jpg","img/object_images/gift_box04.jpg","1","1","0","0","1","0","0.552748700138181","0.575843500206247","1.85446660011075","1","1","1","1","1","1","1","1","1"
"260005","img/object_images/gift_box04.jpg","img/object_images/Pottery01.jpg","img/object_images/bicycle_lock01.jpg","0","1","1","0","0","0","1.85446660011075","0.552748700138181","0.673051299992949","1","1","1","1","1","1","1","1","1"
"260005","img/object_images/bicycle_lock01.jpg","img/object_images/gift_box04.jpg","img/object_images/glasses06.jpg","1","0","1","0","0","1","0.673051299992949","1.85446660011075","0.526360000250861","1","1","1","1","1","1","1","1","1"
"260005","img/object_images/glasses06.jpg","img/object_images/bicycle_lock01.jpg","img/object_images/book01.jpg","1","1","1","1","0","1","0.526360000250861","0.673051299992949","0.674184900242835","1","1","1","1","1","1","1","1","1"
"260005","img/object_images/book01.jpg","img/object_images/glasses06.jpg",NA,"1","1",NA,"1","1",NA,"0.674184900242835","0.526360000250861",NA,"1","1",NA,"1","1",NA,"1","1",NA
"260005","img/object_images/hammer03.jpg",NA,"img/object_images/clip03.jpg","1",NA,"0","1",NA,"0","1.44151140004396",NA,"0.355447200126946","1",NA,"1","1",NA,"1","1",NA,"1"
"260005","img/object_images/clip03.jpg","img/object_images/hammer03.jpg","img/object_images/bottle01.jpg","0","1","1","0","1","0","0.355447200126946","1.44151140004396","0.482414500089362","1","1","1","1","1","1","1","1","1"
"260005","img/object_images/bottle01.jpg","img/object_images/clip03.jpg","img/object_images/bell02.jpg","1","0","1","0","0","0","0.482414500089362","0.355447200126946","0.539338000118732","1","1","1","1","1","1","1","1","1"
"260005","img/object_images/bell02.jpg","img/object_images/bottle01.jpg","img/object_images/Staples01.jpg","1","1","1","0","0","1","0.539338000118732","0.482414500089362","0.471067300066352","1","1","1","1","1","1","1","1","1"
"260005","img/object_images/Staples01.jpg","img/object_images/bell02.jpg","img/object_images/wire02.jpg","1","1","1","1","0","1","0.471067300066352","0.539338000118732","0.560251400107518","1","1","1","1","1","1","1","1","1"
"260005","img/object_images/wire02.jpg","img/object_images/Staples01.jpg","img/object_images/usb02.jpg","1","1","1","1","1","0","0.560251400107518","0.471067300066352","0.564816100057214","1","1","1","1","1","1","1","1","1"
"260005","img/object_images/usb02.jpg","img/object_images/wire02.jpg","img/object_images/floppy_disk02.jpg","1","1","1","0","1","0","0.564816100057214","0.560251400107518","0.585413100197911","1","1","1","1","1","1","1","1","1"
"260005","img/object_images/floppy_disk02.jpg","img/object_images/usb02.jpg","img/object_images/knife04.jpg","1","1","1","0","0","1","0.585413100197911","0.564816100057214","0.470455400180072","1","1","1","1","1","1","1","1","1"
"260005","img/object_images/knife04.jpg","img/object_images/floppy_disk02.jpg","img/object_images/note_book01.jpg","1","1","1","1","0","0","0.470455400180072","0.585413100197911","0.827931500039995","1","1","1","1","1","1","1","1","1"
"260005","img/object_images/note_book01.jpg","img/object_images/knife04.jpg","img/object_images/tennis_racket02.jpg","1","1","1","0","1","1","0.827931500039995","0.470455400180072","0.570364200277254","1","1","1","1","1","1","1","1","1"
"260005","img/object_images/tennis_racket02.jpg","img/object_images/note_book01.jpg","img/object_images/lid01.jpg","1","1","1","1","0","1","0.570364200277254","0.827931500039995","0.709684800123796","1","1","1","1","1","1","1","1","1"
"260005","img/object_images/lid01.jpg","img/object_images/tennis_racket02.jpg","img/object_images/paint_brush04.jpg","1","1","1","1","1","0","0.709684800123796","0.570364200277254","0.703536699991673","1","1","1","1","1","1","1","1","1"
"260005","img/object_images/paint_brush04.jpg","img/object_images/lid01.jpg","img/object_images/retainer01.jpg","1","1","1","0","1","0","0.703536699991673","0.709684800123796","0.763183900155127","1","1","1","1","1","1","1","1","1"
"260005","img/object_images/retainer01.jpg","img/object_images/paint_brush04.jpg","img/object_images/clock02.jpg","1","1","1","0","0","0","0.763183900155127","0.703536699991673","0.717994800070301","1","1","1","1","1","1","1","1","1"
"260005","img/object_images/clock02.jpg","img/object_images/retainer01.jpg","img/object_images/chess_piece02.jpg","1","1","1","0","0","1","0.717994800070301","0.763183900155127","0.526788200251758","1","1","1","1","1","1","1","1","1"
"260005","img/object_images/chess_piece02.jpg","img/object_images/clock02.jpg","img/object_images/Oven01.jpg","1","1","1","1","0","1","0.526788200251758","0.717994800070301","0.544658500002697","1","1","1","1","1","1","1","1","1"
"260005","img/object_images/Oven01.jpg","img/object_images/chess_piece02.jpg","img/object_images/ear_bud01.jpg","1","1","1","1","1","1","0.544658500002697","0.526788200251758","0.519187700236216","1","1","1","1","1","1","1","1","1"
"260005","img/object_images/ear_bud01.jpg","img/object_images/Oven01.jpg","img/object_images/knit05.jpg","1","1","1","1","1","1","0.519187700236216","0.544658500002697","0.482063699979335","1","1","1","1","1","1","1","1","1"
"260005","img/object_images/knit05.jpg","img/object_images/ear_bud01.jpg","img/object_images/chair05.jpg","1","1","1","1","1","0","0.482063699979335","0.519187700236216","0.551756800152361","1","1","1","1","1","1","1","1","1"
"260005","img/object_images/chair05.jpg","img/object_images/knit05.jpg","img/object_images/tv02.jpg","1","1","1","0","1","0","0.551756800152361","0.482063699979335","0.584602300077677","1","1","1","1","1","1","1","1","1"
"260005","img/object_images/tv02.jpg","img/object_images/chair05.jpg","img/object_images/cellphone01.jpg","1","1","1","0","0","1","0.584602300077677","0.551756800152361","0.605931000085548","1","1","1","1","1","1","1","1","1"
"260005","img/object_images/cellphone01.jpg","img/object_images/tv02.jpg","img/object_images/pillows01.jpg","1","1","1","1","0","1","0.605931000085548","0.584602300077677","0.560922499978915","1","1","1","1","1","1","1","1","1"
"260005","img/object_images/pillows01.jpg","img/object_images/cellphone01.jpg","img/object_images/Thermometer01.jpg","1","1","1","1","1","0","0.560922499978915","0.605931000085548","0.684869300108403","1","1","1","1","1","1","1","1","1"
"260005","img/object_images/Thermometer01.jpg","img/object_images/pillows01.jpg","img/object_images/book03.jpg","1","1","1","0","1","1","0.684869300108403","0.560922499978915","0.537809600122273","1","1","1","1","1","1","1","1","1"
"260005","img/object_images/book03.jpg","img/object_images/Thermometer01.jpg","img/object_images/microscope01.jpg","1","1","1","1","0","0","0.537809600122273","0.684869300108403","0.614974800031632","1","1","1","1","1","1","1","1","1"
"260005","img/object_images/microscope01.jpg","img/object_images/book03.jpg","img/object_images/motorcycle01.jpg","1","1","1","0","1","1","0.614974800031632","0.537809600122273","0.467445100191981","1","1","1","1","1","1","1","1","1"
"260005","img/object_images/motorcycle01.jpg","img/object_images/microscope01.jpg","img/object_images/pen03.jpg","1","1","1","1","0","0","0.467445100191981","0.614974800031632","0.585079800104722","1","1","1","1","1","1","1","1","1"
"260005","img/object_images/pen03.jpg","img/object_images/motorcycle01.jpg","img/object_images/crutches02.jpg","1","1","1","0","1","0","0.585079800104722","0.467445100191981","0.651779200183228","1","1","1","1","1","1","1","1","1"
"260005","img/object_images/crutches02.jpg","img/object_images/pen03.jpg","img/object_images/pitcher01.jpg","1","1","1","0","0","0","0.651779200183228","0.585079800104722","0.514503100188449","1","1","1","1","1","1","1","1","1"
"260005","img/object_images/pitcher01.jpg","img/object_images/crutches02.jpg","img/object_images/compass01.jpg","1","1","1","0","0","1","0.514503100188449","0.651779200183228","0.530304700136185","1","1","1","1","1","1","1","1","1"
"260005","img/object_images/compass01.jpg","img/object_images/pitcher01.jpg","img/object_images/floppy_disk03.jpg","1","1","1","1","0","1","0.530304700136185","0.514503100188449","0.566909200046211","1","1","1","1","1","1","1","1","1"
"260005","img/object_images/floppy_disk03.jpg","img/object_images/compass01.jpg",NA,"1","1",NA,"1","1",NA,"0.566909200046211","0.530304700136185",NA,"1","1",NA,"1","1",NA,"1","1",NA
"260005","img/object_images/fork03.jpg",NA,"img/object_images/lawn_mower01.jpg","1",NA,"1","1",NA,"1","0.549233600031585",NA,"0.412811700021848","1",NA,"1","1",NA,"1","1",NA,"1"
"260005","img/object_images/lawn_mower01.jpg","img/object_images/fork03.jpg","img/object_images/dresser04.jpg","1","1","1","1","1","0","0.412811700021848","0.549233600031585","0.467698600143194","1","1","1","1","1","1","1","1","1"
"260005","img/object_images/dresser04.jpg","img/object_images/lawn_mower01.jpg","img/object_images/paper_cup01.jpg","1","1","1","0","1","0","0.467698600143194","0.412811700021848","0.403069399995729","1","1","1","1","1","1","1","1","1"
"260005","img/object_images/paper_cup01.jpg","img/object_images/dresser04.jpg","img/object_images/hammer01.jpg","1","1","1","0","0","0","0.403069399995729","0.467698600143194","0.455445400206372","1","1","1","1","1","1","1","1","1"
"260005","img/object_images/hammer01.jpg","img/object_images/paper_cup01.jpg","img/object_images/socks02.jpg","1","1","1","0","0","0","0.455445400206372","0.403069399995729","0.641616200096905","1","1","1","1","1","1","1","1","1"
"260005","img/object_images/socks02.jpg","img/object_images/hammer01.jpg","img/object_images/gift_box01.jpg","1","1","1","0","0","1","0.641616200096905","0.455445400206372","0.491933000041172","1","1","1","1","1","1","1","1","1"
"260005","img/object_images/gift_box01.jpg","img/object_images/socks02.jpg","img/object_images/lock04.jpg","1","1","1","1","0","1","0.491933000041172","0.641616200096905","0.574092800030485","1","1","1","1","1","1","1","1","1"
"260005","img/object_images/lock04.jpg","img/object_images/gift_box01.jpg","img/object_images/grater01.jpg","1","1","1","1","1","1","0.574092800030485","0.491933000041172","0.505839300109074","1","1","1","1","1","1","1","1","1"
"260005","img/object_images/grater01.jpg","img/object_images/lock04.jpg","img/object_images/pitcher02.jpg","1","1","1","1","1","1","0.505839300109074","0.574092800030485","0.596726400079206","1","1","1","1","1","1","1","1","1"
"260005","img/object_images/pitcher02.jpg","img/object_images/grater01.jpg","img/object_images/Witchhat01.jpg","1","1","1","1","1","1","0.596726400079206","0.505839300109074","0.527942500077188","1","1","1","1","1","1","1","1","1"
"260005","img/object_images/Witchhat01.jpg","img/object_images/pitcher02.jpg","img/object_images/clip02.jpg","1","1","1","1","1","1","0.527942500077188","0.596726400079206","0.483857500134036","1","1","1","1","1","1","1","1","1"
"260005","img/object_images/clip02.jpg","img/object_images/Witchhat01.jpg","img/object_images/couch03.jpg","1","1","1","1","1","0","0.483857500134036","0.527942500077188","0.640626800246537","1","1","1","1","1","1","1","1","1"
"260005","img/object_images/couch03.jpg","img/object_images/clip02.jpg","img/object_images/jewelry01.jpg","1","1","1","0","1","1","0.640626800246537","0.483857500134036","0.571531200082973","1","1","1","1","1","1","1","1","1"
"260005","img/object_images/jewelry01.jpg","img/object_images/couch03.jpg","img/object_images/wallet02.jpg","1","1","1","1","0","1","0.571531200082973","0.640626800246537","0.545913100009784","1","1","1","1","1","1","1","1","1"
"260005","img/object_images/wallet02.jpg","img/object_images/jewelry01.jpg","img/object_images/jacket03.jpg","1","1","1","1","1","0","0.545913100009784","0.571531200082973","0.520681100198999","1","1","1","1","1","1","1","1","1"
"260005","img/object_images/jacket03.jpg","img/object_images/wallet02.jpg","img/object_images/bath_tub01.jpg","1","1","1","0","1","0","0.520681100198999","0.545913100009784","0.643963800277561","1","1","1","1","1","1","1","1","1"
"260005","img/object_images/bath_tub01.jpg","img/object_images/jacket03.jpg","img/object_images/bow_tie02.jpg","1","1","1","0","0","0","0.643963800277561","0.520681100198999","0.508295400068164","1","1","1","1","1","1","1","1","1"
"260005","img/object_images/bow_tie02.jpg","img/object_images/bath_tub01.jpg","img/object_images/balloon01.jpg","1","1","1","0","0","0","0.508295400068164","0.643963800277561","0.619354800088331","1","1","1","1","1","1","1","1","1"
"260005","img/object_images/balloon01.jpg","img/object_images/bow_tie02.jpg","img/object_images/gift_box02.jpg","1","1","1","0","0","1","0.619354800088331","0.508295400068164","0.577459400054067","1","1","1","1","1","1","1","1","1"
"260005","img/object_images/gift_box02.jpg","img/object_images/balloon01.jpg","img/object_images/handkerchief01.jpg","1","1","1","1","0","0","0.577459400054067","0.619354800088331","0.530573800206184","1","1","1","1","1","1","1","1","1"
"260005","img/object_images/handkerchief01.jpg","img/object_images/gift_box02.jpg","img/object_images/measuring_tape02.jpg","1","1","1","0","1","1","0.530573800206184","0.577459400054067","0.565372300101444","1","1","1","1","1","1","1","1","1"
"260005","img/object_images/measuring_tape02.jpg","img/object_images/handkerchief01.jpg","img/object_images/coloring_pencil01.jpg","1","1","1","1","0","1","0.565372300101444","0.530573800206184","0.561241600196809","1","1","1","1","1","1","1","1","1"
"260005","img/object_images/coloring_pencil01.jpg","img/object_images/measuring_tape02.jpg","img/object_images/camera07.jpg","1","1","1","1","1","1","0.561241600196809","0.565372300101444","0.489921000087634","1","1","1","1","1","1","1","1","1"
"260005","img/object_images/camera07.jpg","img/object_images/coloring_pencil01.jpg","img/object_images/golf_ball03.jpg","1","1","1","1","1","1","0.489921000087634","0.561241600196809","0.52006690017879","1","1","1","1","1","1","1","1","1"
"260005","img/object_images/golf_ball03.jpg","img/object_images/camera07.jpg","img/object_images/Screws01.jpg","1","1","1","1","1","1","0.52006690017879","0.489921000087634","0.527828400023282","1","1","1","1","1","1","1","1","1"
"260005","img/object_images/Screws01.jpg","img/object_images/golf_ball03.jpg","img/object_images/ironing_table01.jpg","1","1","1","1","1","0","0.527828400023282","0.52006690017879","0.580545700155199","1","1","1","1","1","1","1","1","1"
"260005","img/object_images/ironing_table01.jpg","img/object_images/Screws01.jpg","img/object_images/funnel01.jpg","1","1","1","0","1","0","0.580545700155199","0.527828400023282","0.538583800196648","1","1","1","1","1","1","1","1","1"
"260005","img/object_images/funnel01.jpg","img/object_images/ironing_table01.jpg","img/object_images/sleeping_bag01.jpg","1","1","1","0","0","0","0.538583800196648","0.580545700155199","0.577540800208226","1","1","1","1","1","1","1","1","1"
"260005","img/object_images/sleeping_bag01.jpg","img/object_images/funnel01.jpg","img/object_images/vga_port 01.jpg","1","1","1","0","0","0","0.577540800208226","0.538583800196648","0.61862780014053","1","1","1","1","1","1","1","1","1"
"260005","img/object_images/vga_port 01.jpg","img/object_images/sleeping_bag01.jpg","img/object_images/gift_box03.jpg","1","1","0","0","0","0","0.61862780014053","0.577540800208226","0.413443400058895","1","1","1","1","1","1","1","1","1"
"260005","img/object_images/gift_box03.jpg","img/object_images/vga_port 01.jpg","img/object_images/bow_tie01.jpg","0","1","0","0","0","0","0.413443400058895","0.61862780014053","1.48482330003753","1","1","1","1","1","1","1","1","1"
"260005","img/object_images/bow_tie01.jpg","img/object_images/gift_box03.jpg",NA,"0","0",NA,"0","0",NA,"1.48482330003753","0.413443400058895",NA,"1","1",NA,"1","1",NA,"1","1",NA
"260005","img/object_images/phone02.jpg",NA,"img/object_images/knife02.jpg","0",NA,"1","1",NA,"0","1.20908480021171",NA,"0.838720100000501","1",NA,"1","1",NA,"1","1",NA,"1"
"260005","img/object_images/knife02.jpg","img/object_images/phone02.jpg","img/object_images/knit04.jpg","1","0","1","0","1","1","0.838720100000501","1.20908480021171","0.453155400231481","1","1","1","1","1","1","1","1","1"
"260005","img/object_images/knit04.jpg","img/object_images/knife02.jpg","img/object_images/remover01.jpg","1","1","1","1","0","1","0.453155400231481","0.838720100000501","0.538336300291121","1","1","1","1","1","1","1","1","1"
"260005","img/object_images/remover01.jpg","img/object_images/knit04.jpg","img/object_images/jacket04.jpg","1","1","1","1","1","0","0.538336300291121","0.453155400231481","0.627872999990359","1","1","1","1","1","1","1","1","1"
"260005","img/object_images/jacket04.jpg","img/object_images/remover01.jpg","img/object_images/remote_controller01.jpg","1","1","1","0","1","1","0.627872999990359","0.538336300291121","0.43018739996478","1","1","1","1","1","1","1","1","1"
"260005","img/object_images/remote_controller01.jpg","img/object_images/jacket04.jpg","img/object_images/hoverboard01.jpg","1","1","1","1","0","0","0.43018739996478","0.627872999990359","0.480894099920988","1","1","1","1","1","1","1","1","1"
"260005","img/object_images/hoverboard01.jpg","img/object_images/remote_controller01.jpg","img/object_images/knit03.jpg","1","1","1","0","1","1","0.480894099920988","0.43018739996478","0.396418700227514","1","1","1","1","1","1","1","1","1"
"260005","img/object_images/knit03.jpg","img/object_images/hoverboard01.jpg","img/object_images/dresser03.jpg","1","1","1","1","0","0","0.396418700227514","0.480894099920988","0.515470500104129","1","1","1","1","1","1","1","1","1"
"260005","img/object_images/dresser03.jpg","img/object_images/knit03.jpg","img/object_images/hand_grip_exerciser01.jpg","1","1","1","0","1","0","0.515470500104129","0.396418700227514","0.454770400188863","1","1","1","1","1","1","1","1","1"
"260005","img/object_images/hand_grip_exerciser01.jpg","img/object_images/dresser03.jpg","img/object_images/sponge03.jpg","1","1","1","0","0","1","0.454770400188863","0.515470500104129","0.515671700239182","1","1","1","1","1","1","1","1","1"
"260005","img/object_images/sponge03.jpg","img/object_images/hand_grip_exerciser01.jpg","img/object_images/mail_box01.jpg","1","1","0","1","0","0","0.515671700239182","0.454770400188863","0.998535300139338","1","1","1","1","1","1","1","1","1"
"260005","img/object_images/mail_box01.jpg","img/object_images/sponge03.jpg","img/object_images/basket04.jpg","0","1","1","0","1","1","0.998535300139338","0.515671700239182","0.606298400089145","1","1","1","1","1","1","1","1","1"
"260005","img/object_images/basket04.jpg","img/object_images/mail_box01.jpg","img/object_images/toy08.jpg","1","0","1","1","0","0","0.606298400089145","0.998535300139338","0.593555000144988","1","1","1","1","1","1","1","1","1"
"260005","img/object_images/toy08.jpg","img/object_images/basket04.jpg","img/object_images/blender02.jpg","1","1","1","0","1","1","0.593555000144988","0.606298400089145","0.460281600011513","1","1","1","1","1","1","1","1","1"
"260005","img/object_images/blender02.jpg","img/object_images/toy08.jpg","img/object_images/tool18.jpg","1","1","1","1","0","0","0.460281600011513","0.593555000144988","0.354759900132194","1","1","1","1","1","1","1","1","1"
"260005","img/object_images/tool18.jpg","img/object_images/blender02.jpg","img/object_images/keyboard02.jpg","1","1","1","0","1","1","0.354759900132194","0.460281600011513","0.559431400150061","1","1","1","1","1","1","1","1","1"
"260005","img/object_images/keyboard02.jpg","img/object_images/tool18.jpg","img/object_images/matches02.jpg","1","1","1","1","0","0","0.559431400150061","0.354759900132194","0.496864099986851","1","1","1","1","1","1","1","1","1"
"260005","img/object_images/matches02.jpg","img/object_images/keyboard02.jpg","img/object_images/video_game01.jpg","1","1","1","0","1","1","0.496864099986851","0.559431400150061","0.495592500083148","1","1","1","1","1","1","1","1","1"
"260005","img/object_images/video_game01.jpg","img/object_images/matches02.jpg","img/object_images/backpack01.jpg","1","1","0","1","0","0","0.495592500083148","0.496864099986851","1.2949902000837","1","1","1","1","1","1","1","1","1"
"260005","img/object_images/backpack01.jpg","img/object_images/video_game01.jpg","img/object_images/Statue01.jpg","0","1","1","0","1","1","1.2949902000837","0.495592500083148","0.523937100311741","1","1","1","1","1","1","1","1","1"
"260005","img/object_images/Statue01.jpg","img/object_images/backpack01.jpg","img/object_images/kite01.jpg","1","0","1","1","0","1","0.523937100311741","1.2949902000837","0.486571300076321","1","1","1","1","1","1","1","1","1"
"260005","img/object_images/kite01.jpg","img/object_images/Statue01.jpg","img/object_images/curtain02.jpg","1","1","1","1","1","0","0.486571300076321","0.523937100311741","0.513692300068215","1","1","1","1","1","1","1","1","1"
"260005","img/object_images/curtain02.jpg","img/object_images/kite01.jpg","img/object_images/car01.jpg","1","1","1","0","1","1","0.513692300068215","0.486571300076321","0.449567300034687","1","1","1","1","1","1","1","1","1"
"260005","img/object_images/car01.jpg","img/object_images/curtain02.jpg","img/object_images/stereo02.jpg","1","1","1","1","0","0","0.449567300034687","0.513692300068215","0.535880699986592","1","1","1","1","1","1","1","1","1"
"260005","img/object_images/stereo02.jpg","img/object_images/car01.jpg","img/object_images/gloves02.jpg","1","1","1","0","1","0","0.535880699986592","0.449567300034687","0.514923900132999","1","1","1","1","1","1","1","1","1"
"260005","img/object_images/gloves02.jpg","img/object_images/stereo02.jpg","img/object_images/flashlight03.jpg","1","1","1","0","0","0","0.514923900132999","0.535880699986592","0.596248700050637","1","1","1","1","1","1","1","1","1"
"260005","img/object_images/flashlight03.jpg","img/object_images/gloves02.jpg","img/object_images/paper_cup02.jpg","1","1","1","0","0","1","0.596248700050637","0.514923900132999","0.45794799993746","1","1","1","1","1","1","1","1","1"
"260005","img/object_images/paper_cup02.jpg","img/object_images/flashlight03.jpg","img/object_images/camera03.jpg","1","1","1","1","0","0","0.45794799993746","0.596248700050637","0.491248600184918","1","1","1","1","1","1","1","1","1"
"260005","img/object_images/camera03.jpg","img/object_images/paper_cup02.jpg","img/object_images/bottle07.jpg","1","1","1","0","1","1","0.491248600184918","0.45794799993746","0.528668800136074","1","1","1","1","1","1","1","1","1"
"260005","img/object_images/bottle07.jpg","img/object_images/camera03.jpg","img/object_images/boat04.jpg","1","1","1","1","0","0","0.528668800136074","0.491248600184918","0.60739460028708","1","1","1","1","1","1","1","1","1"
"260005","img/object_images/boat04.jpg","img/object_images/bottle07.jpg","img/object_images/shower_head01.jpg","1","1","1","0","1","1","0.60739460028708","0.528668800136074","0.469779600156471","1","1","1","1","1","1","1","1","1"
"260005","img/object_images/shower_head01.jpg","img/object_images/boat04.jpg",NA,"1","1",NA,"1","0",NA,"0.469779600156471","0.60739460028708",NA,"1","1",NA,"1","1",NA,"1","1",NA
"260005","img/object_images/guitar02.jpg",NA,"img/object_images/pot01 (1).jpg","1",NA,"0","0",NA,"0","1.90332680009305",NA,"0.485091000096873","1",NA,"1","1",NA,"1","1",NA,"1"
"260005","img/object_images/pot01 (1).jpg","img/object_images/guitar02.jpg","img/object_images/acoustic_capo01.jpg","0","1","1","0","0","1","0.485091000096873","1.90332680009305","0.386466399999335","1","1","1","1","1","1","1","1","1"
"260005","img/object_images/acoustic_capo01.jpg","img/object_images/pot01 (1).jpg","img/object_images/ornament01.jpg","1","0","1","1","0","1","0.386466399999335","0.485091000096873","0.462452500127256","1","1","1","1","1","1","1","1","1"
"260005","img/object_images/ornament01.jpg","img/object_images/acoustic_capo01.jpg","img/object_images/crown02.jpg","1","1","1","1","1","1","0.462452500127256","0.386466399999335","0.418633199995384","1","1","1","1","1","1","1","1","1"
"260005","img/object_images/crown02.jpg","img/object_images/ornament01.jpg","img/object_images/Ring02.jpg","1","1","1","1","1","0","0.418633199995384","0.462452500127256","0.604138100286946","1","1","1","1","1","1","1","1","1"
"260005","img/object_images/Ring02.jpg","img/object_images/crown02.jpg","img/object_images/watch01.jpg","1","1","1","0","1","0","0.604138100286946","0.418633199995384","0.733741800300777","1","1","1","1","1","1","1","1","1"
"260005","img/object_images/watch01.jpg","img/object_images/Ring02.jpg","img/object_images/video_game07.jpg","1","1","1","0","0","1","0.733741800300777","0.604138100286946","0.427397200139239","1","1","1","1","1","1","1","1","1"
"260005","img/object_images/video_game07.jpg","img/object_images/watch01.jpg","img/object_images/tool02.jpg","1","1","1","1","0","1","0.427397200139239","0.733741800300777","0.375745699973777","1","1","1","1","1","1","1","1","1"
"260005","img/object_images/tool02.jpg","img/object_images/video_game07.jpg","img/object_images/fridge03.jpg","1","1","1","1","1","0","0.375745699973777","0.427397200139239","0.554539800155908","1","1","1","1","1","1","1","1","1"
"260005","img/object_images/fridge03.jpg","img/object_images/tool02.jpg","img/object_images/judge_gavel01.jpg","1","1","1","0","1","1","0.554539800155908","0.375745699973777","0.560466800117865","1","1","1","1","1","1","1","1","1"
"260005","img/object_images/judge_gavel01.jpg","img/object_images/fridge03.jpg","img/object_images/tool09.jpg","1","1","1","1","0","1","0.560466800117865","0.554539800155908","0.468975700205192","1","1","1","1","1","1","1","1","1"
"260005","img/object_images/tool09.jpg","img/object_images/judge_gavel01.jpg","img/object_images/sink01.jpg","1","1","1","1","1","0","0.468975700205192","0.560466800117865","0.640637600095943","1","1","1","1","1","1","1","1","1"
"260005","img/object_images/sink01.jpg","img/object_images/tool09.jpg","img/object_images/shovel03.jpg","1","1","1","0","1","1","0.640637600095943","0.468975700205192","0.597667600028217","1","1","1","1","1","1","1","1","1"
"260005","img/object_images/shovel03.jpg","img/object_images/sink01.jpg","img/object_images/bow01.jpg","1","1","1","1","0","1","0.597667600028217","0.640637600095943","0.467390300007537","1","1","1","1","1","1","1","1","1"
"260005","img/object_images/bow01.jpg","img/object_images/shovel03.jpg","img/object_images/toy03.jpg","1","1","1","1","1","1","0.467390300007537","0.597667600028217","0.47944699996151","1","1","1","1","1","1","1","1","1"
"260005","img/object_images/toy03.jpg","img/object_images/bow01.jpg","img/object_images/stapler.jpg","1","1","1","1","1","1","0.47944699996151","0.467390300007537","0.465129000134766","1","1","1","1","1","1","1","1","1"
"260005","img/object_images/stapler.jpg","img/object_images/toy03.jpg","img/object_images/outlet01.jpg","1","1","1","1","1","0","0.465129000134766","0.47944699996151","0.610533400205895","1","1","1","1","1","1","1","1","1"
"260005","img/object_images/outlet01.jpg","img/object_images/stapler.jpg","img/object_images/dart01.jpg","1","1","1","0","1","0","0.610533400205895","0.465129000134766","0.853322800248861","1","1","1","1","1","1","1","1","1"
"260005","img/object_images/dart01.jpg","img/object_images/outlet01.jpg","img/object_images/jewel04.jpg","1","1","1","0","0","0","0.853322800248861","0.610533400205895","0.588181300321594","1","1","1","1","1","1","1","1","1"
"260005","img/object_images/jewel04.jpg","img/object_images/dart01.jpg","img/object_images/helmet01.jpg","1","1","1","0","0","0","0.588181300321594","0.853322800248861","0.639458399964496","1","1","1","1","1","1","1","1","1"
"260005","img/object_images/helmet01.jpg","img/object_images/jewel04.jpg","img/object_images/Stool01.jpg","1","1","0","0","0","0","0.639458399964496","0.588181300321594","1.22392240003683","1","1","1","1","1","1","1","1","1"
"260005","img/object_images/Stool01.jpg","img/object_images/helmet01.jpg","img/object_images/MetalWire01.jpg","0","1","1","0","0","0","1.22392240003683","0.639458399964496","0.644531400175765","1","1","1","1","1","1","1","1","1"
"260005","img/object_images/MetalWire01.jpg","img/object_images/Stool01.jpg","img/object_images/bird_house02.jpg","1","0","1","0","0","1","0.644531400175765","1.22392240003683","0.529919600114226","1","1","1","1","1","1","1","1","1"
"260005","img/object_images/bird_house02.jpg","img/object_images/MetalWire01.jpg","img/object_images/bottle05.jpg","1","1","1","1","0","0","0.529919600114226","0.644531400175765","0.558723600115627","1","1","1","1","1","1","1","1","1"
"260005","img/object_images/bottle05.jpg","img/object_images/bird_house02.jpg","img/object_images/gauze01.jpg","1","1","1","0","1","0","0.558723600115627","0.529919600114226","0.493127400055528","1","1","1","1","1","1","1","1","1"
"260005","img/object_images/gauze01.jpg","img/object_images/bottle05.jpg","img/object_images/towel02.jpg","1","1","1","0","0","1","0.493127400055528","0.558723600115627","0.520183400250971","1","1","1","1","1","1","1","1","1"
"260005","img/object_images/towel02.jpg","img/object_images/gauze01.jpg","img/object_images/toy04.jpg","1","1","1","1","0","0","0.520183400250971","0.493127400055528","0.484006900107488","1","1","1","1","1","1","1","1","1"
"260005","img/object_images/toy04.jpg","img/object_images/towel02.jpg","img/object_images/Vacuum01.jpg","1","1","1","0","1","0","0.484006900107488","0.520183400250971","0.465749800205231","1","1","1","1","1","1","1","1","1"
"260005","img/object_images/Vacuum01.jpg","img/object_images/toy04.jpg","img/object_images/frisbee01.jpg","1","1","1","0","0","1","0.465749800205231","0.484006900107488","0.506837200140581","1","1","1","1","1","1","1","1","1"
"260005","img/object_images/frisbee01.jpg","img/object_images/Vacuum01.jpg","img/object_images/Tin01.jpg","1","1","1","1","0","1","0.506837200140581","0.465749800205231","0.49921609996818","1","1","1","1","1","1","1","1","1"
"260005","img/object_images/Tin01.jpg","img/object_images/frisbee01.jpg","img/object_images/mirror01.jpg","1","1","1","1","1","1","0.49921609996818","0.506837200140581","0.424566600006074","1","1","1","1","1","1","1","1","1"
"260005","img/object_images/mirror01.jpg","img/object_images/Tin01.jpg",NA,"1","1",NA,"1","1",NA,"0.424566600006074","0.49921609996818",NA,"1","1",NA,"1","1",NA,"1","1",NA
"260005","img/object_images/vase02.jpg",NA,"img/object_images/tool13.jpg","1",NA,"1","1",NA,"1","0.461038500070572",NA,"0.530414900043979","1",NA,"1","1",NA,"1","1",NA,"1"
"260005","img/object_images/tool13.jpg","img/object_images/vase02.jpg","img/object_images/sink_filter01 (1).jpg","1","1","0","1","1","0","0.530414900043979","0.461038500070572","0.509086700156331","1","1","1","1","1","1","1","1","1"
"260005","img/object_images/sink_filter01 (1).jpg","img/object_images/tool13.jpg","img/object_images/cup01.jpg","0","1","1","0","1","0","0.509086700156331","0.530414900043979","0.675435400335118","1","1","1","1","1","1","1","1","1"
"260005","img/object_images/cup01.jpg","img/object_images/sink_filter01 (1).jpg","img/object_images/candle02.jpg","1","0","1","0","0","0","0.675435400335118","0.509086700156331","0.602952000219375","1","1","1","1","1","1","1","1","1"
"260005","img/object_images/candle02.jpg","img/object_images/cup01.jpg","img/object_images/bag04.jpg","1","1","1","0","0","0","0.602952000219375","0.675435400335118","0.669172400142998","1","1","1","1","1","1","1","1","1"
"260005","img/object_images/bag04.jpg","img/object_images/candle02.jpg","img/object_images/tool20.jpg","1","1","1","0","0","0","0.669172400142998","0.602952000219375","0.452394700143486","1","1","1","1","1","1","1","1","1"
"260005","img/object_images/tool20.jpg","img/object_images/bag04.jpg","img/object_images/hammer02.jpg","1","1","1","0","0","0","0.452394700143486","0.669172400142998","0.416343100136146","1","1","1","1","1","1","1","1","1"
"260005","img/object_images/hammer02.jpg","img/object_images/tool20.jpg","img/object_images/Candle_Holder01.jpg","1","1","1","0","0","0","0.416343100136146","0.452394700143486","0.550328200217336","1","1","1","1","1","1","1","1","1"
"260005","img/object_images/Candle_Holder01.jpg","img/object_images/hammer02.jpg","img/object_images/hat09.jpg","1","1","1","0","0","0","0.550328200217336","0.416343100136146","0.659315600059927","1","1","1","1","1","1","1","1","1"
"260005","img/object_images/hat09.jpg","img/object_images/Candle_Holder01.jpg","img/object_images/knife01.jpg","1","1","1","0","0","1","0.659315600059927","0.550328200217336","0.632896700175479","1","1","1","1","1","1","1","1","1"
"260005","img/object_images/knife01.jpg","img/object_images/hat09.jpg","img/object_images/glasses03.jpg","1","1","1","1","0","0","0.632896700175479","0.659315600059927","0.608019700041041","1","1","1","1","1","1","1","1","1"
"260005","img/object_images/glasses03.jpg","img/object_images/knife01.jpg","img/object_images/video_game02.jpg","1","1","1","0","1","1","0.608019700041041","0.632896700175479","0.694366300012916","1","1","1","1","1","1","1","1","1"
"260005","img/object_images/video_game02.jpg","img/object_images/glasses03.jpg","img/object_images/Confetti 01.jpg","1","1","1","1","0","0","0.694366300012916","0.608019700041041","1.16472129989415","1","1","1","1","1","1","1","1","1"
"260005","img/object_images/Confetti 01.jpg","img/object_images/video_game02.jpg","img/object_images/hat13.jpg","1","1","1","0","1","1","1.16472129989415","0.694366300012916","0.512427800102159","1","1","1","1","1","1","1","1","1"
"260005","img/object_images/hat13.jpg","img/object_images/Confetti 01.jpg","img/object_images/pan03.jpg","1","1","1","1","0","1","0.512427800102159","1.16472129989415","0.51190789998509","1","1","1","1","1","1","1","1","1"
"260005","img/object_images/pan03.jpg","img/object_images/hat13.jpg","img/object_images/ruler02.jpg","1","1","1","1","1","1","0.51190789998509","0.512427800102159","0.545417099958286","1","1","1","1","1","1","1","1","1"
"260005","img/object_images/ruler02.jpg","img/object_images/pan03.jpg","img/object_images/camera05.jpg","1","1","1","1","1","0","0.545417099958286","0.51190789998509","0.555180800147355","1","1","1","1","1","1","1","1","1"
"260005","img/object_images/camera05.jpg","img/object_images/ruler02.jpg","img/object_images/perfume01.jpg","1","1","1","0","1","0","0.555180800147355","0.545417099958286","0.520525200059637","1","1","1","1","1","1","1","1","1"
"260005","img/object_images/perfume01.jpg","img/object_images/camera05.jpg","img/object_images/spray_can01.jpg","1","1","1","0","0","0","0.520525200059637","0.555180800147355","0.587185300188139","1","1","1","1","1","1","1","1","1"
"260005","img/object_images/spray_can01.jpg","img/object_images/perfume01.jpg","img/object_images/socks01.jpg","1","1","1","0","0","1","0.587185300188139","0.520525200059637","0.388295100070536","1","1","1","1","1","1","1","1","1"
"260005","img/object_images/socks01.jpg","img/object_images/spray_can01.jpg","img/object_images/pen06.jpg","1","1","1","1","0","0","0.388295100070536","0.587185300188139","0.488327000290155","1","1","1","1","1","1","1","1","1"
"260005","img/object_images/pen06.jpg","img/object_images/socks01.jpg","img/object_images/dust_pan01.jpg","1","1","1","0","1","1","0.488327000290155","0.388295100070536","0.460779300192371","1","1","1","1","1","1","1","1","1"
"260005","img/object_images/dust_pan01.jpg","img/object_images/pen06.jpg","img/object_images/board01.jpg","1","1","1","1","0","1","0.460779300192371","0.488327000290155","0.458891600137576","1","1","1","1","1","1","1","1","1"
"260005","img/object_images/board01.jpg","img/object_images/dust_pan01.jpg","img/object_images/floss01.jpg","1","1","1","1","1","1","0.458891600137576","0.460779300192371","0.618967400165275","1","1","1","1","1","1","1","1","1"
"260005","img/object_images/floss01.jpg","img/object_images/board01.jpg","img/object_images/duster01.jpg","1","1","1","1","1","0","0.618967400165275","0.458891600137576","0.756434100214392","1","1","1","1","1","1","1","1","1"
"260005","img/object_images/duster01.jpg","img/object_images/floss01.jpg","img/object_images/lemon_squeezer01.jpg","1","1","1","0","1","1","0.756434100214392","0.618967400165275","0.523298900108784","1","1","1","1","1","1","1","1","1"
"260005","img/object_images/lemon_squeezer01.jpg","img/object_images/duster01.jpg","img/object_images/clipboard01.jpg","1","1","1","1","0","1","0.523298900108784","0.756434100214392","0.476544900098816","1","1","1","1","1","1","1","1","1"
"260005","img/object_images/clipboard01.jpg","img/object_images/lemon_squeezer01.jpg","img/object_images/razor02.jpg","1","1","1","1","1","1","0.476544900098816","0.523298900108784","0.507180200191215","1","1","1","1","1","1","1","1","1"
"260005","img/object_images/razor02.jpg","img/object_images/clipboard01.jpg","img/object_images/sign02.jpg","1","1","0","1","1","0","0.507180200191215","0.476544900098816","1.01073980005458","1","1","1","1","1","1","1","1","1"
"260005","img/object_images/sign02.jpg","img/object_images/razor02.jpg","img/object_images/bow_tie03.jpg","0","1","1","0","1","1","1.01073980005458","0.507180200191215","0.483542900066823","1","1","1","1","1","1","1","1","1"
"260005","img/object_images/bow_tie03.jpg","img/object_images/sign02.jpg","img/object_images/office_supplies01.jpg","1","0","1","1","0","1","0.483542900066823","1.01073980005458","0.506065000081435","1","1","1","1","1","1","1","1","1"
"260005","img/object_images/office_supplies01.jpg","img/object_images/bow_tie03.jpg",NA,"1","1",NA,"1","1",NA,"0.506065000081435","0.483542900066823",NA,"1","1",NA,"1","1",NA,"1","1",NA
"260005","img/object_images/razor01.jpg",NA,"img/object_images/tool11.jpg","0",NA,"1","0",NA,"1","0.70502690016292",NA,"0.46581090032123","1",NA,"1","1",NA,"1","1",NA,"1"
"260005","img/object_images/tool11.jpg","img/object_images/razor01.jpg","img/object_images/lemon_squeezer02.jpg","1","0","1","1","0","1","0.46581090032123","0.70502690016292","0.572626500157639","1","1","1","1","1","1","1","1","1"
"260005","img/object_images/lemon_squeezer02.jpg","img/object_images/tool11.jpg","img/object_images/chair04.jpg","1","1","1","1","1","1","0.572626500157639","0.46581090032123","0.500315800076351","1","1","1","1","1","1","1","1","1"
"260005","img/object_images/chair04.jpg","img/object_images/lemon_squeezer02.jpg","img/object_images/slinky_toy01.jpg","1","1","1","1","1","1","0.500315800076351","0.572626500157639","0.485388499917462","1","1","1","1","1","1","1","1","1"
"260005","img/object_images/slinky_toy01.jpg","img/object_images/chair04.jpg","img/object_images/belt01.jpg","1","1","1","1","1","0","0.485388499917462","0.500315800076351","0.6367320001591","1","1","1","1","1","1","1","1","1"
"260005","img/object_images/belt01.jpg","img/object_images/slinky_toy01.jpg","img/object_images/WitchHat02.jpg","1","1","1","0","1","1","0.6367320001591","0.485388499917462","0.472695500124246","1","1","1","1","1","1","1","1","1"
"260005","img/object_images/WitchHat02.jpg","img/object_images/belt01.jpg","img/object_images/shower_head03.jpg","1","1","1","1","0","1","0.472695500124246","0.6367320001591","0.617517000297084","1","1","1","1","1","1","1","1","1"
"260005","img/object_images/shower_head03.jpg","img/object_images/WitchHat02.jpg","img/object_images/ice_tray03.jpg","1","1","1","1","1","1","0.617517000297084","0.472695500124246","0.561419600155205","1","1","1","1","1","1","1","1","1"
"260005","img/object_images/ice_tray03.jpg","img/object_images/shower_head03.jpg","img/object_images/dress03.jpg","1","1","1","1","1","1","0.561419600155205","0.617517000297084","0.515852700220421","1","1","1","1","1","1","1","1","1"
"260005","img/object_images/dress03.jpg","img/object_images/ice_tray03.jpg","img/object_images/MeasuringCup01.jpg","1","1","1","1","1","1","0.515852700220421","0.561419600155205","0.638258800143376","1","1","1","1","1","1","1","1","1"
"260005","img/object_images/MeasuringCup01.jpg","img/object_images/dress03.jpg","img/object_images/jewelry07.jpg","1","1","1","1","1","1","0.638258800143376","0.515852700220421","0.680798700079322","1","1","1","1","1","1","1","1","1"
"260005","img/object_images/jewelry07.jpg","img/object_images/MeasuringCup01.jpg","img/object_images/rock03.jpg","1","1","1","1","1","0","0.680798700079322","0.638258800143376","0.934931000228971","1","1","1","1","1","1","1","1","1"
"260005","img/object_images/rock03.jpg","img/object_images/jewelry07.jpg","img/object_images/cutting_board01.jpg","1","1","1","0","1","1","0.934931000228971","0.680798700079322","0.568519700085744","1","1","1","1","1","1","1","1","1"
"260005","img/object_images/cutting_board01.jpg","img/object_images/rock03.jpg","img/object_images/mask01.jpg","1","1","1","1","0","0","0.568519700085744","0.934931000228971","0.449845500057563","1","1","1","1","1","1","1","1","1"
"260005","img/object_images/mask01.jpg","img/object_images/cutting_board01.jpg","img/object_images/tv01.jpg","1","1","1","0","1","0","0.449845500057563","0.568519700085744","0.758635400095955","1","1","1","1","1","1","1","1","1"
"260005","img/object_images/tv01.jpg","img/object_images/mask01.jpg","img/object_images/binoculars03.jpg","1","1","1","0","0","1","0.758635400095955","0.449845500057563","0.566245200112462","1","1","1","1","1","1","1","1","1"
"260005","img/object_images/binoculars03.jpg","img/object_images/tv01.jpg","img/object_images/toaster02.jpg","1","1","1","1","0","1","0.566245200112462","0.758635400095955","0.577686500037089","1","1","1","1","1","1","1","1","1"
"260005","img/object_images/toaster02.jpg","img/object_images/binoculars03.jpg","img/object_images/fan05.jpg","1","1","1","1","1","0","0.577686500037089","0.566245200112462","0.555076600285247","1","1","1","1","1","1","1","1","1"
"260005","img/object_images/fan05.jpg","img/object_images/toaster02.jpg","img/object_images/ladle02.jpg","1","1","1","0","1","0","0.555076600285247","0.577686500037089","0.552952600177377","1","1","1","1","1","1","1","1","1"
"260005","img/object_images/ladle02.jpg","img/object_images/fan05.jpg","img/object_images/satellite01.jpg","1","1","1","0","0","0","0.552952600177377","0.555076600285247","3.13696609996259","1","1","1","1","1","1","1","1","1"
"260005","img/object_images/satellite01.jpg","img/object_images/ladle02.jpg","img/object_images/car04.jpg","1","1","1","0","0","0","3.13696609996259","0.552952600177377","0.647475900128484","1","1","1","1","1","1","1","1","1"
"260005","img/object_images/car04.jpg","img/object_images/satellite01.jpg","img/object_images/car03.jpg","1","1","1","0","0","0","0.647475900128484","3.13696609996259","0.684994200244546","1","1","1","1","1","1","1","1","1"
"260005","img/object_images/car03.jpg","img/object_images/car04.jpg","img/object_images/bag06.jpg","1","1","1","0","0","1","0.684994200244546","0.647475900128484","0.407290800241754","1","1","1","1","1","1","1","1","1"
"260005","img/object_images/bag06.jpg","img/object_images/car03.jpg","img/object_images/shoes10.jpg","1","1","1","1","0","0","0.407290800241754","0.684994200244546","0.656520600197837","1","1","1","1","1","1","1","1","1"
"260005","img/object_images/shoes10.jpg","img/object_images/bag06.jpg","img/object_images/key02.jpg","1","1","1","0","1","1","0.656520600197837","0.407290800241754","0.570660100318491","1","1","1","1","1","1","1","1","1"
"260005","img/object_images/key02.jpg","img/object_images/shoes10.jpg","img/object_images/ribbon01.jpg","1","1","1","1","0","0","0.570660100318491","0.656520600197837","0.746621200116351","1","1","1","1","1","1","1","1","1"
"260005","img/object_images/ribbon01.jpg","img/object_images/key02.jpg","img/object_images/hair_brush05.jpg","1","1","1","0","1","1","0.746621200116351","0.570660100318491","0.377673800103366","1","1","1","1","1","1","1","1","1"
"260005","img/object_images/hair_brush05.jpg","img/object_images/ribbon01.jpg","img/object_images/cards01.jpg","1","1","1","1","0","0","0.377673800103366","0.746621200116351","0.606941499980167","1","1","1","1","1","1","1","1","1"
"260005","img/object_images/cards01.jpg","img/object_images/hair_brush05.jpg","img/object_images/screwdriver01.jpg","1","1","1","0","1","0","0.606941499980167","0.377673800103366","0.453968500252813","1","1","1","1","1","1","1","1","1"
"260005","img/object_images/screwdriver01.jpg","img/object_images/cards01.jpg","img/object_images/jewel01.jpg","1","1","1","0","0","0","0.453968500252813","0.606941499980167","0.451992300106212","1","1","1","1","1","1","1","1","1"
"260005","img/object_images/jewel01.jpg","img/object_images/screwdriver01.jpg","img/object_images/yarn02.jpg","1","1","1","0","0","0","0.451992300106212","0.453968500252813","0.59448070009239","1","1","1","1","1","1","1","1","1"
"260005","img/object_images/yarn02.jpg","img/object_images/jewel01.jpg",NA,"1","1",NA,"0","0",NA,"0.59448070009239","0.451992300106212",NA,"1","1",NA,"1","1",NA,"1","1",NA
"260005","img/object_images/chair02.jpg",NA,"img/object_images/trash_can05.jpg","1",NA,"1","1",NA,"1","0.471228500129655",NA,"0.46007650019601","1",NA,"1","1",NA,"1","1",NA,"1"
"260005","img/object_images/trash_can05.jpg","img/object_images/chair02.jpg","img/object_images/accardion01.jpg","1","1","1","1","1","1","0.46007650019601","0.471228500129655","0.497216300107539","1","1","1","1","1","1","1","1","1"
"260005","img/object_images/accardion01.jpg","img/object_images/trash_can05.jpg","img/object_images/combs01.jpg","1","1","1","1","1","1","0.497216300107539","0.46007650019601","0.425526099978015","1","1","1","1","1","1","1","1","1"
"260005","img/object_images/combs01.jpg","img/object_images/accardion01.jpg","img/object_images/ball02.jpg","1","1","1","1","1","1","0.425526099978015","0.497216300107539","0.46935290005058","1","1","1","1","1","1","1","1","1"
"260005","img/object_images/ball02.jpg","img/object_images/combs01.jpg","img/object_images/hair_brush02.jpg","1","1","1","1","1","0","0.46935290005058","0.425526099978015","0.642008400289342","1","1","1","1","1","1","1","1","1"
"260005","img/object_images/hair_brush02.jpg","img/object_images/ball02.jpg","img/object_images/towels01.jpg","1","1","1","0","1","0","0.642008400289342","0.46935290005058","0.458968500141054","1","1","1","1","1","1","1","1","1"
"260005","img/object_images/towels01.jpg","img/object_images/hair_brush02.jpg","img/object_images/bucket02.jpg","1","1","1","0","0","1","0.458968500141054","0.642008400289342","0.558865800267085","1","1","1","1","1","1","1","1","1"
"260005","img/object_images/bucket02.jpg","img/object_images/towels01.jpg","img/object_images/laptop03.jpg","1","1","1","1","0","1","0.558865800267085","0.458968500141054","0.443596600089222","1","1","1","1","1","1","1","1","1"
"260005","img/object_images/laptop03.jpg","img/object_images/bucket02.jpg","img/object_images/umbrella01.jpg","1","1","1","1","1","0","0.443596600089222","0.558865800267085","0.523237000219524","1","1","1","1","1","1","1","1","1"
"260005","img/object_images/umbrella01.jpg","img/object_images/laptop03.jpg","img/object_images/Lint_Roller02.jpg","1","1","1","0","1","0","0.523237000219524","0.443596600089222","0.556137200212106","1","1","1","1","1","1","1","1","1"
"260005","img/object_images/Lint_Roller02.jpg","img/object_images/umbrella01.jpg","img/object_images/Vest02.jpg","1","1","1","0","0","0","0.556137200212106","0.523237000219524","0.667018200270832","1","1","1","1","1","1","1","1","1"
"260005","img/object_images/Vest02.jpg","img/object_images/Lint_Roller02.jpg","img/object_images/helmet02.jpg","1","1","1","0","0","0","0.667018200270832","0.556137200212106","0.477460900088772","1","1","1","1","1","1","1","1","1"
"260005","img/object_images/helmet02.jpg","img/object_images/Vest02.jpg","img/object_images/jewel03.jpg","1","1","1","0","0","1","0.477460900088772","0.667018200270832","0.516376000130549","1","1","1","1","1","1","1","1","1"
"260005","img/object_images/jewel03.jpg","img/object_images/helmet02.jpg","img/object_images/trash_can03.jpg","1","1","1","1","0","1","0.516376000130549","0.477460900088772","0.497506200103089","1","1","1","1","1","1","1","1","1"
"260005","img/object_images/trash_can03.jpg","img/object_images/jewel03.jpg","img/object_images/microphone03.jpg","1","1","1","1","1","1","0.497506200103089","0.516376000130549","0.532642500242218","1","1","1","1","1","1","1","1","1"
"260005","img/object_images/microphone03.jpg","img/object_images/trash_can03.jpg","img/object_images/vase01.jpg","1","1","1","1","1","0","0.532642500242218","0.497506200103089","0.582992400042713","1","1","1","1","1","1","1","1","1"
"260005","img/object_images/vase01.jpg","img/object_images/microphone03.jpg","img/object_images/lock01.jpg","1","1","1","0","1","0","0.582992400042713","0.532642500242218","0.60554560017772","1","1","1","1","1","1","1","1","1"
"260005","img/object_images/lock01.jpg","img/object_images/vase01.jpg","img/object_images/hair_dryer01.jpg","1","1","1","0","0","0","0.60554560017772","0.582992400042713","0.585630100220442","1","1","1","1","1","1","1","1","1"
"260005","img/object_images/hair_dryer01.jpg","img/object_images/lock01.jpg","img/object_images/surf_board01.jpg","1","1","1","0","0","1","0.585630100220442","0.60554560017772","0.442867900244892","1","1","1","1","1","1","1","1","1"
"260005","img/object_images/surf_board01.jpg","img/object_images/hair_dryer01.jpg","img/object_images/fan04.jpg","1","1","1","1","0","0","0.442867900244892","0.585630100220442","0.442905999952927","1","1","1","1","1","1","1","1","1"
"260005","img/object_images/fan04.jpg","img/object_images/surf_board01.jpg","img/object_images/stove01.jpg","1","1","1","0","1","0","0.442905999952927","0.442867900244892","0.481880800100043","1","1","1","1","1","1","1","1","1"
"260005","img/object_images/stove01.jpg","img/object_images/fan04.jpg","img/object_images/pitcher05.jpg","1","1","1","0","0","0","0.481880800100043","0.442905999952927","0.51316550001502","1","1","1","1","1","1","1","1","1"
"260005","img/object_images/pitcher05.jpg","img/object_images/stove01.jpg","img/object_images/toy05.jpg","1","1","1","0","0","0","0.51316550001502","0.481880800100043","0.679588400293142","1","1","1","1","1","1","1","1","1"
"260005","img/object_images/toy05.jpg","img/object_images/pitcher05.jpg","img/object_images/spatula02.jpg","1","1","1","0","0","1","0.679588400293142","0.51316550001502","0.50974650029093","1","1","1","1","1","1","1","1","1"
"260005","img/object_images/spatula02.jpg","img/object_images/toy05.jpg","img/object_images/chess_piece01.jpg","1","1","0","1","0","0","0.50974650029093","0.679588400293142","0.398910000221804","1","1","1","1","1","1","1","1","2"
"260005","img/object_images/chess_piece01.jpg","img/object_images/spatula02.jpg","img/object_images/laptop01.jpg","0","1","1","0","1","0","0.398910000221804","0.50974650029093","0.683552599977702","1","1","1","1","1","1","2","1","1"
"260005","img/object_images/laptop01.jpg","img/object_images/chess_piece01.jpg","img/object_images/calculator01.jpg","1","0","1","0","0","1","0.683552599977702","0.398910000221804","0.615414700005203","1","1","1","1","1","1","1","2","1"
"260005","img/object_images/calculator01.jpg","img/object_images/laptop01.jpg","img/object_images/backpack03.jpg","1","1","1","1","0","1","0.615414700005203","0.683552599977702","0.449782900046557","1","1","1","1","1","1","1","1","1"
"260005","img/object_images/backpack03.jpg","img/object_images/calculator01.jpg","img/object_images/gift_box05.jpg","1","1","1","1","1","0","0.449782900046557","0.615414700005203","0.65326080005616","1","1","1","1","1","1","1","1","1"
"260005","img/object_images/gift_box05.jpg","img/object_images/backpack03.jpg","img/object_images/robe01.jpg","1","1","1","0","1","1","0.65326080005616","0.449782900046557","0.535075800027698","1","1","1","1","1","1","1","1","1"
"260005","img/object_images/robe01.jpg","img/object_images/gift_box05.jpg","img/object_images/shoes08.jpg","1","1","1","1","0","1","0.535075800027698","0.65326080005616","0.540414100047201","1","1","1","1","1","1","1","1","1"
"260005","img/object_images/shoes08.jpg","img/object_images/robe01.jpg",NA,"1","1",NA,"1","1",NA,"0.540414100047201","0.535075800027698",NA,"1","1",NA,"1","1",NA,"1","1",NA
"260005","img/object_images/hot_air_balloon02.jpg",NA,"img/object_images/wagon_cart03.jpg","1",NA,"1","0",NA,"1","0.571865200065076",NA,"0.460602500010282","1",NA,"1","1",NA,"1","1",NA,"1"
"260005","img/object_images/wagon_cart03.jpg","img/object_images/hot_air_balloon02.jpg","img/object_images/bottle10.jpg","1","1","1","1","0","1","0.460602500010282","0.571865200065076","0.458725700154901","1","1","1","1","1","1","1","1","1"
"260005","img/object_images/bottle10.jpg","img/object_images/wagon_cart03.jpg","img/object_images/coloring_pencil02.jpg","1","1","1","1","1","0","0.458725700154901","0.460602500010282","0.55264740018174","1","1","1","1","1","1","1","1","1"
"260005","img/object_images/coloring_pencil02.jpg","img/object_images/bottle10.jpg","img/object_images/audio_port01.jpg","1","1","1","0","1","1","0.55264740018174","0.458725700154901","0.55303020006977","1","1","1","1","1","1","1","1","1"
"260005","img/object_images/audio_port01.jpg","img/object_images/coloring_pencil02.jpg","img/object_images/pen05.jpg","1","1","1","1","0","0","0.55303020006977","0.55264740018174","0.751139900181442","1","1","1","1","1","1","1","1","1"
"260005","img/object_images/pen05.jpg","img/object_images/audio_port01.jpg","img/object_images/toilet_paper_dispenser01.jpg","1","1","1","0","1","1","0.751139900181442","0.55303020006977","0.468885600101203","1","1","1","1","1","1","1","1","1"
"260005","img/object_images/toilet_paper_dispenser01.jpg","img/object_images/pen05.jpg","img/object_images/camera_lens01.jpg","1","1","1","1","0","1","0.468885600101203","0.751139900181442","0.486810700269416","1","1","1","1","1","1","1","1","1"
"260005","img/object_images/camera_lens01.jpg","img/object_images/toilet_paper_dispenser01.jpg","img/object_images/purse04.jpg","1","1","1","1","1","1","0.486810700269416","0.468885600101203","0.844919099938124","1","1","1","1","1","1","1","1","1"
"260005","img/object_images/purse04.jpg","img/object_images/camera_lens01.jpg","img/object_images/scoreboard01.jpg","1","1","1","1","1","1","0.844919099938124","0.486810700269416","0.511050900211558","1","1","1","1","1","1","1","1","1"
"260005","img/object_images/scoreboard01.jpg","img/object_images/purse04.jpg","img/object_images/water_scooter01.jpg","1","1","1","1","1","1","0.511050900211558","0.844919099938124","0.560565600171685","1","1","1","1","1","1","1","1","1"
"260005","img/object_images/water_scooter01.jpg","img/object_images/scoreboard01.jpg","img/object_images/boat_toy10.jpg","1","1","1","1","1","0","0.560565600171685","0.511050900211558","0.604238400235772","1","1","1","1","1","1","1","1","1"
"260005","img/object_images/boat_toy10.jpg","img/object_images/water_scooter01.jpg","img/object_images/tool19.jpg","1","1","1","0","1","1","0.604238400235772","0.560565600171685","0.548735399963334","1","1","1","1","1","1","1","1","1"
"260005","img/object_images/tool19.jpg","img/object_images/boat_toy10.jpg","img/object_images/shoes07.jpg","1","1","1","1","0","0","0.548735399963334","0.604238400235772","0.624182300176471","1","1","1","1","1","1","1","1","1"
"260005","img/object_images/shoes07.jpg","img/object_images/tool19.jpg","img/object_images/hat06.jpg","1","1","1","0","1","0","0.624182300176471","0.548735399963334","0.509513500146568","1","1","1","1","1","1","1","1","1"
"260005","img/object_images/hat06.jpg","img/object_images/shoes07.jpg","img/object_images/WoodBox01.jpg","1","1","1","0","0","0","0.509513500146568","0.624182300176471","0.60901360004209","1","1","1","1","1","1","1","1","1"
"260005","img/object_images/WoodBox01.jpg","img/object_images/hat06.jpg","img/object_images/toaster01.jpg","1","1","1","0","0","1","0.60901360004209","0.509513500146568","0.439725800184533","1","1","1","1","1","1","1","1","1"
"260005","img/object_images/toaster01.jpg","img/object_images/WoodBox01.jpg","img/object_images/flask01.jpg","1","1","1","1","0","0","0.439725800184533","0.60901360004209","0.43988830014132","1","1","1","1","1","1","1","1","1"
"260005","img/object_images/flask01.jpg","img/object_images/toaster01.jpg","img/object_images/chair03.jpg","1","1","1","0","1","0","0.43988830014132","0.439725800184533","0.540967900073156","1","1","1","1","1","1","1","1","1"
"260005","img/object_images/chair03.jpg","img/object_images/flask01.jpg","img/object_images/piggy_bank01.jpg","1","1","1","0","0","1","0.540967900073156","0.43988830014132","0.443095600232482","1","1","1","1","1","1","1","1","1"
"260005","img/object_images/piggy_bank01.jpg","img/object_images/chair03.jpg","img/object_images/tie02.jpg","1","1","1","1","0","0","0.443095600232482","0.540967900073156","0.516740600112826","1","1","1","1","1","1","1","1","1"
"260005","img/object_images/tie02.jpg","img/object_images/piggy_bank01.jpg","img/object_images/dog_leash01.jpg","1","1","1","0","1","0","0.516740600112826","0.443095600232482","0.416822100291029","1","1","1","1","1","1","1","1","1"
"260005","img/object_images/dog_leash01.jpg","img/object_images/tie02.jpg","img/object_images/helmet04.jpg","1","1","1","0","0","1","0.416822100291029","0.516740600112826","0.620797700248659","1","1","1","1","1","1","1","1","1"
"260005","img/object_images/helmet04.jpg","img/object_images/dog_leash01.jpg","img/object_images/boat02.jpg","1","1","1","1","0","1","0.620797700248659","0.416822100291029","0.46088460017927","1","1","1","1","1","1","1","1","1"
"260005","img/object_images/boat02.jpg","img/object_images/helmet04.jpg","img/object_images/knit01.jpg","1","1","1","1","1","0","0.46088460017927","0.620797700248659","0.69774440000765","1","1","1","1","1","1","1","1","1"
"260005","img/object_images/knit01.jpg","img/object_images/boat02.jpg","img/object_images/fan02.jpg","1","1","1","0","1","0","0.69774440000765","0.46088460017927","0.879909400129691","1","1","1","1","1","1","1","1","1"
"260005","img/object_images/fan02.jpg","img/object_images/knit01.jpg","img/object_images/bottle09.jpg","1","1","1","0","0","0","0.879909400129691","0.69774440000765","0.594224500237033","1","1","1","1","1","1","1","1","1"
"260005","img/object_images/bottle09.jpg","img/object_images/fan02.jpg","img/object_images/bicycle01.jpg","1","1","1","0","0","1","0.594224500237033","0.879909400129691","0.668232400203124","1","1","1","1","1","1","1","1","1"
"260005","img/object_images/bicycle01.jpg","img/object_images/bottle09.jpg","img/object_images/cellphone03.jpg","1","1","1","1","0","0","0.668232400203124","0.594224500237033","0.541771600255743","1","1","1","1","1","1","1","1","1"
"260005","img/object_images/cellphone03.jpg","img/object_images/bicycle01.jpg","img/object_images/perfume02.jpg","1","1","1","0","1","0","0.541771600255743","0.668232400203124","0.64872770011425","1","1","1","1","1","1","1","1","1"
"260005","img/object_images/perfume02.jpg","img/object_images/cellphone03.jpg","img/object_images/bottle02.jpg","1","1","1","0","0","1","0.64872770011425","0.541771600255743","0.597155200084671","1","1","1","1","1","1","1","1","1"
"260005","img/object_images/bottle02.jpg","img/object_images/perfume02.jpg","img/object_images/bean_bag02.jpg","1","1","1","1","0","1","0.597155200084671","0.64872770011425","0.490067900158465","1","1","1","1","1","1","1","1","1"
"260005","img/object_images/bean_bag02.jpg","img/object_images/bottle02.jpg",NA,"1","1",NA,"1","1",NA,"0.490067900158465","0.597155200084671",NA,"1","1",NA,"1","1",NA,"1","1",NA
"260005","img/object_images/Shoes05.jpg",NA,"img/object_images/lock03.jpg","1",NA,"1","0",NA,"1","0.832618200220168",NA,"0.468848000280559","1",NA,"1","1",NA,"1","1",NA,"1"
"260005","img/object_images/lock03.jpg","img/object_images/Shoes05.jpg","img/object_images/ToolBag01.jpg","1","1","1","1","0","0","0.468848000280559","0.832618200220168","0.530623400118202","1","1","1","1","1","1","1","1","1"
"260005","img/object_images/ToolBag01.jpg","img/object_images/lock03.jpg","img/object_images/dice01.jpg","1","1","1","0","1","0","0.530623400118202","0.468848000280559","0.966034800047055","1","1","1","1","1","1","1","1","1"
"260005","img/object_images/dice01.jpg","img/object_images/ToolBag01.jpg","img/object_images/pitcher07.jpg","1","1","1","0","0","1","0.966034800047055","0.530623400118202","0.522620000177994","1","1","1","1","1","1","1","1","1"
"260005","img/object_images/pitcher07.jpg","img/object_images/dice01.jpg","img/object_images/TreeSlice01.jpg","1","1","1","1","0","1","0.522620000177994","0.966034800047055","0.506650099996477","1","1","1","1","1","1","1","1","1"
"260005","img/object_images/TreeSlice01.jpg","img/object_images/pitcher07.jpg","img/object_images/bottle06.jpg","1","1","0","1","1","0","0.506650099996477","0.522620000177994","1.58347750012763","1","1","1","1","1","1","1","1","1"
"260005","img/object_images/bottle06.jpg","img/object_images/TreeSlice01.jpg","img/object_images/scale02.jpg","0","1","0","0","1","0","1.58347750012763","0.506650099996477","0.601579100126401","1","1","1","1","1","1","1","1","1"
"260005","img/object_images/scale02.jpg","img/object_images/bottle06.jpg","img/object_images/fan01.jpg","0","0","0","0","0","0","0.601579100126401","1.58347750012763",NA,"1","1","0","1","1","0","1","1","0"
"260005","img/object_images/fan01.jpg","img/object_images/scale02.jpg","img/object_images/nut_cracker01.jpg","0","0","0","0","0","1",NA,"0.601579100126401","0.793417800217867","0","1","1","0","1","1","0","1","1"
"260005","img/object_images/nut_cracker01.jpg","img/object_images/fan01.jpg","img/object_images/Safe01.jpg","0","0","1","1","0","1","0.793417800217867",NA,"0.538010700140148","1","0","1","1","0","1","1","0","1"
"260005","img/object_images/Safe01.jpg","img/object_images/nut_cracker01.jpg","img/object_images/helmet03.jpg","1","0","1","1","1","1","0.538010700140148","0.793417800217867","0.484700900036842","1","1","1","1","1","1","1","1","1"
"260005","img/object_images/helmet03.jpg","img/object_images/Safe01.jpg","img/object_images/note_book02.jpg","1","1","1","1","1","0","0.484700900036842","0.538010700140148","0.625646099913865","1","1","1","1","1","1","1","1","1"
"260005","img/object_images/note_book02.jpg","img/object_images/helmet03.jpg","img/object_images/usb03.jpg","1","1","1","0","1","0","0.625646099913865","0.484700900036842","0.517350200098008","1","1","1","1","1","1","1","1","1"
"260005","img/object_images/usb03.jpg","img/object_images/note_book02.jpg","img/object_images/headset02.jpg","1","1","1","0","0","0","0.517350200098008","0.625646099913865","0.659152100328356","1","1","1","1","1","1","1","1","1"
"260005","img/object_images/headset02.jpg","img/object_images/usb03.jpg","img/object_images/phone04.jpg","1","1","1","0","0","1","0.659152100328356","0.517350200098008","0.75577100017108","1","1","1","1","1","1","1","1","1"
"260005","img/object_images/phone04.jpg","img/object_images/headset02.jpg","img/object_images/piano03.jpg","1","1","1","1","0","0","0.75577100017108","0.659152100328356","0.706516200210899","1","1","1","1","1","1","1","1","1"
"260005","img/object_images/piano03.jpg","img/object_images/phone04.jpg","img/object_images/bookmark01.jpg","1","1","1","0","1","0","0.706516200210899","0.75577100017108","0.537387900287285","1","1","1","1","1","1","1","1","1"
"260005","img/object_images/bookmark01.jpg","img/object_images/piano03.jpg","img/object_images/jewel02.jpg","1","1","1","0","0","0","0.537387900287285","0.706516200210899","0.625364400213584","1","1","1","1","1","1","1","1","1"
"260005","img/object_images/jewel02.jpg","img/object_images/bookmark01.jpg","img/object_images/belt03.jpg","1","1","1","0","0","0","0.625364400213584","0.537387900287285","0.610663699917495","1","1","1","1","1","1","1","1","1"
"260005","img/object_images/belt03.jpg","img/object_images/jewel02.jpg","img/object_images/origami01.jpg","1","1","1","0","0","1","0.610663699917495","0.625364400213584","0.549195200204849","1","1","1","1","1","1","1","1","1"
"260005","img/object_images/origami01.jpg","img/object_images/belt03.jpg","img/object_images/yoga_mat01.jpg","1","1","1","1","0","0","0.549195200204849","0.610663699917495","0.525985300075263","1","1","1","1","1","1","1","1","1"
"260005","img/object_images/yoga_mat01.jpg","img/object_images/origami01.jpg","img/object_images/bucket01.jpg","1","1","1","0","1","1","0.525985300075263","0.549195200204849","0.544452100293711","1","1","1","1","1","1","1","1","1"
"260005","img/object_images/bucket01.jpg","img/object_images/yoga_mat01.jpg","img/object_images/egg_basket01.jpg","1","1","1","1","0","1","0.544452100293711","0.525985300075263","0.531694600125775","1","1","1","1","1","1","1","1","1"
"260005","img/object_images/egg_basket01.jpg","img/object_images/bucket01.jpg","img/object_images/frame01.jpg","1","1","1","1","1","1","0.531694600125775","0.544452100293711","0.695009000133723","1","1","1","1","1","1","1","1","1"
"260005","img/object_images/frame01.jpg","img/object_images/egg_basket01.jpg","img/object_images/shovel01.jpg","1","1","1","1","1","0","0.695009000133723","0.531694600125775","0.563242300180718","1","1","1","1","1","1","1","1","1"
"260005","img/object_images/shovel01.jpg","img/object_images/frame01.jpg","img/object_images/tennis_racket01.jpg","1","1","1","0","1","1","0.563242300180718","0.695009000133723","0.461175299948081","1","1","1","1","1","1","1","1","1"
"260005","img/object_images/tennis_racket01.jpg","img/object_images/shovel01.jpg","img/object_images/Eyeliner01.jpg","1","1","1","1","0","1","0.461175299948081","0.563242300180718","0.553665900137275","1","1","1","1","1","1","1","1","1"
"260005","img/object_images/Eyeliner01.jpg","img/object_images/tennis_racket01.jpg","img/object_images/joystick03.jpg","1","1","1","1","1","1","0.553665900137275","0.461175299948081","0.527037400053814","1","1","1","1","1","1","1","1","1"
"260005","img/object_images/joystick03.jpg","img/object_images/Eyeliner01.jpg","img/object_images/trumpet01.jpg","1","1","1","1","1","0","0.527037400053814","0.553665900137275","0.640690400032327","1","1","1","1","1","1","1","1","1"
"260005","img/object_images/trumpet01.jpg","img/object_images/joystick03.jpg","img/object_images/water_gun01.jpg","1","1","1","0","1","1","0.640690400032327","0.527037400053814","0.580792400054634","1","1","1","1","1","1","1","1","1"
"260005","img/object_images/water_gun01.jpg","img/object_images/trumpet01.jpg","img/object_images/badminton01.jpg","1","1","1","1","0","1","0.580792400054634","0.640690400032327","0.531721800100058","1","1","1","1","1","1","1","1","1"
"260005","img/object_images/badminton01.jpg","img/object_images/water_gun01.jpg",NA,"1","1",NA,"1","1",NA,"0.531721800100058","0.580792400054634",NA,"1","1",NA,"1","1",NA,"1","1",NA
"260005","img/object_images/pitcher09.jpg",NA,"img/object_images/drone01.jpg","1",NA,"1","1",NA,"1","0.495147899957374",NA,"0.514827300095931","1",NA,"1","1",NA,"1","1",NA,"1"
"260005","img/object_images/drone01.jpg","img/object_images/pitcher09.jpg","img/object_images/fork02.jpg","1","1","1","1","1","0","0.514827300095931","0.495147899957374","0.705880700144917","1","1","1","1","1","1","1","1","1"
"260005","img/object_images/fork02.jpg","img/object_images/drone01.jpg","img/object_images/chair06.jpg","1","1","1","0","1","0","0.705880700144917","0.514827300095931","0.532198500121012","1","1","1","1","1","1","1","1","1"
"260005","img/object_images/chair06.jpg","img/object_images/fork02.jpg","img/object_images/clip04.jpg","1","1","1","0","0","1","0.532198500121012","0.705880700144917","0.728908899938688","1","1","1","1","1","1","1","1","1"
"260005","img/object_images/clip04.jpg","img/object_images/chair06.jpg","img/object_images/computer_mouse02.jpg","1","1","1","1","0","0","0.728908899938688","0.532198500121012","0.447492600185797","1","1","1","1","1","1","1","1","1"
"260005","img/object_images/computer_mouse02.jpg","img/object_images/clip04.jpg","img/object_images/bag_pipes01.jpg","1","1","1","0","1","1","0.447492600185797","0.728908899938688","0.586207100190222","1","1","1","1","1","1","1","1","1"
"260005","img/object_images/bag_pipes01.jpg","img/object_images/computer_mouse02.jpg","img/object_images/scarf01.jpg","1","1","1","1","0","1","0.586207100190222","0.447492600185797","0.710960100172088","1","1","1","1","1","1","1","1","1"
"260005","img/object_images/scarf01.jpg","img/object_images/bag_pipes01.jpg","img/object_images/rock02.jpg","1","1","1","1","1","0","0.710960100172088","0.586207100190222","0.677219900069758","1","1","1","1","1","1","1","1","1"
"260005","img/object_images/rock02.jpg","img/object_images/scarf01.jpg","img/object_images/egg_slicer01.jpg","1","1","1","0","1","1","0.677219900069758","0.710960100172088","0.604153499938548","1","1","1","1","1","1","1","1","1"
"260005","img/object_images/egg_slicer01.jpg","img/object_images/rock02.jpg","img/object_images/Trowel01.jpg","1","1","1","1","0","0","0.604153499938548","0.677219900069758","0.617938900133595","1","1","1","1","1","1","1","1","1"
"260005","img/object_images/Trowel01.jpg","img/object_images/egg_slicer01.jpg","img/object_images/airfryer02.jpg","1","1","1","0","1","1","0.617938900133595","0.604153499938548","0.580085800029337","1","1","1","1","1","1","1","1","1"
"260005","img/object_images/airfryer02.jpg","img/object_images/Trowel01.jpg","img/object_images/floss02.jpg","1","1","1","1","0","1","0.580085800029337","0.617938900133595","0.483406800311059","1","1","1","1","1","1","1","1","1"
"260005","img/object_images/floss02.jpg","img/object_images/airfryer02.jpg","img/object_images/blender01.jpg","1","1","1","1","1","0","0.483406800311059","0.580085800029337","0.834519000258297","1","1","1","1","1","1","1","1","1"
"260005","img/object_images/blender01.jpg","img/object_images/floss02.jpg","img/object_images/toy01.jpg","1","1","1","0","1","1","0.834519000258297","0.483406800311059","0.501848100218922","1","1","1","1","1","1","1","1","1"
"260005","img/object_images/toy01.jpg","img/object_images/blender01.jpg","img/object_images/mail_box02.jpg","1","1","1","1","0","1","0.501848100218922","0.834519000258297","0.505786499939859","1","1","1","1","1","1","1","1","1"
"260005","img/object_images/mail_box02.jpg","img/object_images/toy01.jpg","img/object_images/book02.jpg","1","1","1","1","1","1","0.505786499939859","0.501848100218922","0.493059900123626","1","1","1","1","1","1","1","1","1"
"260005","img/object_images/book02.jpg","img/object_images/mail_box02.jpg","img/object_images/soap03.jpg","1","1","1","1","1","0","0.493059900123626","0.505786499939859","0.689798100152984","1","1","1","1","1","1","1","1","1"
"260005","img/object_images/soap03.jpg","img/object_images/book02.jpg","img/object_images/chain01.jpg","1","1","1","0","1","0","0.689798100152984","0.493059900123626","0.610817300155759","1","1","1","1","1","1","1","1","1"
"260005","img/object_images/chain01.jpg","img/object_images/soap03.jpg","img/object_images/shoes12.jpg","1","1","1","0","0","1","0.610817300155759","0.689798100152984","0.610316700302064","1","1","1","1","1","1","1","1","1"
"260005","img/object_images/shoes12.jpg","img/object_images/chain01.jpg","img/object_images/tool06.jpg","1","1","1","1","0","0","0.610316700302064","0.610817300155759","0.703617600025609","1","1","1","1","1","1","1","1","1"
"260005","img/object_images/tool06.jpg","img/object_images/shoes12.jpg","img/object_images/computer_mouse01.jpg","1","1","1","0","1","1","0.703617600025609","0.610316700302064","0.573676300235093","1","1","1","1","1","1","1","1","1"
"260005","img/object_images/computer_mouse01.jpg","img/object_images/tool06.jpg","img/object_images/pen01.jpg","1","1","0","1","0","0","0.573676300235093","0.703617600025609","0.488799399929121","1","1","1","1","1","1","1","1","1"
"260005","img/object_images/pen01.jpg","img/object_images/computer_mouse01.jpg","img/object_images/skate_board01.jpg","0","1","1","0","1","0","0.488799399929121","0.573676300235093","0.625040600076318","1","1","1","1","1","1","1","1","1"
"260005","img/object_images/skate_board01.jpg","img/object_images/pen01.jpg","img/object_images/toothbrush01.jpg","1","0","1","0","0","0","0.625040600076318","0.488799399929121","0.51902460004203","1","1","1","1","1","1","1","1","1"
"260005","img/object_images/toothbrush01.jpg","img/object_images/skate_board01.jpg","img/object_images/video_game03.jpg","1","1","1","0","0","1","0.51902460004203","0.625040600076318","0.488282600184903","1","1","1","1","1","1","1","1","1"
"260005","img/object_images/video_game03.jpg","img/object_images/toothbrush01.jpg","img/object_images/Violin01.jpg","1","1","1","1","0","0","0.488282600184903","0.51902460004203","0.491350200260058","1","1","1","1","1","1","1","1","1"
"260005","img/object_images/Violin01.jpg","img/object_images/video_game03.jpg","img/object_images/box03.jpg","1","1","1","0","1","0","0.491350200260058","0.488282600184903","0.609726600116119","1","1","1","1","1","1","1","1","1"
"260005","img/object_images/box03.jpg","img/object_images/Violin01.jpg","img/object_images/tripod01.jpg","1","1","1","0","0","1","0.609726600116119","0.491350200260058","0.518477600300685","1","1","1","1","1","1","1","1","1"
"260005","img/object_images/tripod01.jpg","img/object_images/box03.jpg","img/object_images/bell03.jpg","1","1","1","1","0","0","0.518477600300685","0.609726600116119","0.873504600021988","1","1","1","1","1","1","1","1","1"
"260005","img/object_images/bell03.jpg","img/object_images/tripod01.jpg","img/object_images/couch01.jpg","1","1","0","0","1","0","0.873504600021988","0.518477600300685","0.895677000284195","1","1","1","1","1","1","1","1","1"
"260005","img/object_images/couch01.jpg","img/object_images/bell03.jpg","img/object_images/hair_brush01.jpg","0","1","1","0","0","1","0.895677000284195","0.873504600021988","0.50468960008584","1","1","1","1","1","1","1","1","1"
"260005","img/object_images/hair_brush01.jpg","img/object_images/couch01.jpg",NA,"1","0",NA,"1","0",NA,"0.50468960008584","0.895677000284195",NA,"1","1",NA,"1","1",NA,"1","1",NA
"260005","img/object_images/toy_train02.jpg",NA,"img/object_images/lantern01.jpg","1",NA,"1","1",NA,"1","0.456972000189126",NA,"0.646161000011489","1",NA,"1","1",NA,"1","1",NA,"1"
"260005","img/object_images/lantern01.jpg","img/object_images/toy_train02.jpg","img/object_images/tie01.jpg","1","1","1","1","1","0","0.646161000011489","0.456972000189126","0.45865730009973","1","1","1","1","1","1","1","1","1"
"260005","img/object_images/tie01.jpg","img/object_images/lantern01.jpg","img/object_images/airfryer01.jpg","1","1","1","0","1","0","0.45865730009973","0.646161000011489","0.663235299987718","1","1","1","1","1","1","1","1","1"
"260005","img/object_images/airfryer01.jpg","img/object_images/tie01.jpg","img/object_images/ball01.jpg","1","1","1","0","0","1","0.663235299987718","0.45865730009973","0.500942900078371","1","1","1","1","1","1","1","1","1"
"260005","img/object_images/ball01.jpg","img/object_images/airfryer01.jpg","img/object_images/car02.jpg","1","1","1","1","0","0","0.500942900078371","0.663235299987718","0.685383000178263","1","1","1","1","1","1","1","1","1"
"260005","img/object_images/car02.jpg","img/object_images/ball01.jpg","img/object_images/bottle12.jpg","1","1","1","0","1","1","0.685383000178263","0.500942900078371","0.643890300299972","1","1","1","1","1","1","1","1","1"
"260005","img/object_images/bottle12.jpg","img/object_images/car02.jpg","img/object_images/video_game06.jpg","1","1","1","1","0","0","0.643890300299972","0.685383000178263","0.547154900152236","1","1","1","1","1","1","1","1","1"
"260005","img/object_images/video_game06.jpg","img/object_images/bottle12.jpg","img/object_images/pot01.jpg","1","1","1","0","1","0","0.547154900152236","0.643890300299972","0.532349100103602","1","1","1","1","1","1","1","1","1"
"260005","img/object_images/pot01.jpg","img/object_images/video_game06.jpg","img/object_images/Recycling01.jpg","1","1","1","0","0","1","0.532349100103602","0.547154900152236","0.611323300050572","1","1","1","1","1","1","1","1","1"
"260005","img/object_images/Recycling01.jpg","img/object_images/pot01.jpg","img/object_images/cochlear_implant01.jpg","1","1","1","1","0","0","0.611323300050572","0.532349100103602","0.686456799972802","1","1","1","1","1","1","1","1","1"
"260005","img/object_images/cochlear_implant01.jpg","img/object_images/Recycling01.jpg","img/object_images/brief_case02.jpg","1","1","1","0","1","1","0.686456799972802","0.611323300050572","0.427103200228885","1","1","1","1","1","1","1","1","1"
"260005","img/object_images/brief_case02.jpg","img/object_images/cochlear_implant01.jpg","img/object_images/lamp01.jpg","1","1","1","1","0","1","0.427103200228885","0.686456799972802","0.508076900150627","1","1","1","1","1","1","1","1","1"
"260005","img/object_images/lamp01.jpg","img/object_images/brief_case02.jpg","img/object_images/basketball_hoop02.jpg","1","1","1","1","1","0","0.508076900150627","0.427103200228885","0.536051800241694","1","1","1","1","1","1","1","1","1"
"260005","img/object_images/basketball_hoop02.jpg","img/object_images/lamp01.jpg","img/object_images/chair01.jpg","1","1","1","0","1","0","0.536051800241694","0.508076900150627","0.719866700004786","1","1","1","1","1","1","1","1","1"
"260005","img/object_images/chair01.jpg","img/object_images/basketball_hoop02.jpg","img/object_images/container01.jpg","1","1","1","0","0","0","0.719866700004786","0.536051800241694","0.57367549999617","1","1","1","1","1","1","1","1","1"
"260005","img/object_images/container01.jpg","img/object_images/chair01.jpg","img/object_images/hat02.jpg","1","1","1","0","0","0","0.57367549999617","0.719866700004786","0.533512700116262","1","1","1","1","1","1","1","1","1"
"260005","img/object_images/hat02.jpg","img/object_images/container01.jpg","img/object_images/ironing_table02.jpg","1","1","1","0","0","0","0.533512700116262","0.57367549999617","0.608418800169602","1","1","1","1","1","1","1","1","1"
"260005","img/object_images/ironing_table02.jpg","img/object_images/hat02.jpg","img/object_images/broom01.jpg","1","1","1","0","0","1","0.608418800169602","0.533512700116262","0.569836800219491","1","1","1","1","1","1","1","1","1"
"260005","img/object_images/broom01.jpg","img/object_images/ironing_table02.jpg","img/object_images/decorative02.jpg","1","1","1","1","0","0","0.569836800219491","0.608418800169602","0.610592600191012","1","1","1","1","1","1","1","1","1"
"260005","img/object_images/decorative02.jpg","img/object_images/broom01.jpg","img/object_images/soap01.jpg","1","1","1","0","1","0","0.610592600191012","0.569836800219491","0.580114200012758","1","1","1","1","1","1","1","1","1"
"260005","img/object_images/soap01.jpg","img/object_images/decorative02.jpg","img/object_images/brief_case01.jpg","1","1","1","0","0","0","0.580114200012758","0.610592600191012","0.5906800001394","1","1","1","1","1","1","1","1","1"
"260005","img/object_images/brief_case01.jpg","img/object_images/soap01.jpg","img/object_images/Wisk01.jpg","1","1","1","0","0","1","0.5906800001394","0.580114200012758","0.520288400119171","1","1","1","1","1","1","1","1","1"
"260005","img/object_images/Wisk01.jpg","img/object_images/brief_case01.jpg","img/object_images/toilet_paper01.jpg","1","1","1","1","0","1","0.520288400119171","0.5906800001394","0.47543380013667","1","1","1","1","1","1","1","1","1"
"260005","img/object_images/toilet_paper01.jpg","img/object_images/Wisk01.jpg","img/object_images/Woopie01.jpg","1","1","1","1","1","1","0.47543380013667","0.520288400119171","0.445907399989665","1","1","1","1","1","1","1","1","1"
"260005","img/object_images/Woopie01.jpg","img/object_images/toilet_paper01.jpg","img/object_images/pitcher03.jpg","1","1","1","1","1","1","0.445907399989665","0.47543380013667","0.548512800130993","1","1","1","1","1","1","1","1","1"
"260005","img/object_images/pitcher03.jpg","img/object_images/Woopie01.jpg","img/object_images/drone02.jpg","1","1","1","1","1","0","0.548512800130993","0.445907399989665","0.583995400229469","1","1","1","1","1","1","1","1","1"
"260005","img/object_images/drone02.jpg","img/object_images/pitcher03.jpg","img/object_images/razor03.jpg","1","1","1","0","1","0","0.583995400229469","0.548512800130993","0.582952999975532","1","1","1","1","1","1","1","1","1"
"260005","img/object_images/razor03.jpg","img/object_images/drone02.jpg","img/object_images/couch04.jpg","1","1","1","0","0","1","0.582952999975532","0.583995400229469","0.46081730001606","1","1","1","1","1","1","1","1","1"
"260005","img/object_images/couch04.jpg","img/object_images/razor03.jpg","img/object_images/helmet05.jpg","1","1","1","1","0","1","0.46081730001606","0.582952999975532","0.406090900301933","1","1","1","1","1","1","1","1","1"
"260005","img/object_images/helmet05.jpg","img/object_images/couch04.jpg","img/object_images/gloves05.jpg","1","1","1","1","1","1","0.406090900301933","0.46081730001606","0.440508500207216","1","1","1","1","1","1","1","1","1"
"260005","img/object_images/gloves05.jpg","img/object_images/helmet05.jpg","img/object_images/guitar01.jpg","1","1","1","1","1","1","0.440508500207216","0.406090900301933","0.396613999968395","1","1","1","1","1","1","1","1","1"
"260005","img/object_images/guitar01.jpg","img/object_images/gloves05.jpg",NA,"1","1",NA,"1","1",NA,"0.396613999968395","0.440508500207216",NA,"1","1",NA,"1","1",NA,"1","1",NA
