"participant_id","current_trial_object","pre_trial_object","post_trial_object","current_trial_accuracy","pre_trial_accuracy","post_trial_accuracy","current_trial_congruency","pre_trial_congruency","post_trial_congruency","current_trial_rt","pre_trial_rt","post_trial_rt","current_trial_responded","pre_trial_responded","post_trial_responded","current_trial_legitResponse","pre_trial_legitResponse","post_trial_legitResponse","current_trial_resp_nums","pre_trial_resp_nums","post_trial_resp_nums"
"260071","img/object_images/WoodBox01.jpg",NA,"img/object_images/hat06.jpg","1",NA,"1","0",NA,"0","1.06085780006833",NA,"0.815035699983127","1",NA,"1","1",NA,"1","1",NA,"1"
"260071","img/object_images/hat06.jpg","img/object_images/WoodBox01.jpg","img/object_images/bottle09.jpg","1","1","1","0","0","0","0.815035699983127","1.06085780006833","0.64667099993676","1","1","1","1","1","1","1","1","1"
"260071","img/object_images/bottle09.jpg","img/object_images/hat06.jpg","img/object_images/helmet04.jpg","1","1","1","0","0","1","0.64667099993676","0.815035699983127","0.936491799890064","1","1","1","1","1","1","1","1","1"
"260071","img/object_images/helmet04.jpg","img/object_images/bottle09.jpg","img/object_images/tool19.jpg","1","1","1","1","0","1","0.936491799890064","0.64667099993676","0.621448799967766","1","1","1","1","1","1","1","1","1"
"260071","img/object_images/tool19.jpg","img/object_images/helmet04.jpg","img/object_images/fan02.jpg","1","1","1","1","1","0","0.621448799967766","0.936491799890064","0.586064900038764","1","1","1","1","1","1","1","1","1"
"260071","img/object_images/fan02.jpg","img/object_images/tool19.jpg","img/object_images/water_scooter01.jpg","1","1","1","0","1","1","0.586064900038764","0.621448799967766","0.773649600101635","1","1","1","1","1","1","1","1","1"
"260071","img/object_images/water_scooter01.jpg","img/object_images/fan02.jpg","img/object_images/piggy_bank01.jpg","1","1","1","1","0","1","0.773649600101635","0.586064900038764","0.776291299960576","1","1","1","1","1","1","1","1","1"
"260071","img/object_images/piggy_bank01.jpg","img/object_images/water_scooter01.jpg","img/object_images/dog_leash01.jpg","1","1","1","1","1","0","0.776291299960576","0.773649600101635","0.50408470002003","1","1","1","1","1","1","1","1","1"
"260071","img/object_images/dog_leash01.jpg","img/object_images/piggy_bank01.jpg","img/object_images/cellphone03.jpg","1","1","1","0","1","0","0.50408470002003","0.776291299960576","0.612787700025365","1","1","1","1","1","1","1","1","1"
"260071","img/object_images/cellphone03.jpg","img/object_images/dog_leash01.jpg","img/object_images/pen05.jpg","1","1","0","0","0","0","0.612787700025365","0.50408470002003","0.690926100010984","1","1","1","1","1","1","1","1","1"
"260071","img/object_images/pen05.jpg","img/object_images/cellphone03.jpg","img/object_images/bottle10.jpg","0","1","1","0","0","1","0.690926100010984","0.612787700025365","1.10531280003488","1","1","1","1","1","1","1","1","1"
"260071","img/object_images/bottle10.jpg","img/object_images/pen05.jpg","img/object_images/toilet_paper_dispenser01.jpg","1","0","1","1","0","1","1.10531280003488","0.690926100010984","0.653784599970095","1","1","1","1","1","1","1","1","1"
"260071","img/object_images/toilet_paper_dispenser01.jpg","img/object_images/bottle10.jpg","img/object_images/knit01.jpg","1","1","1","1","1","0","0.653784599970095","1.10531280003488","0.556310500018299","1","1","1","1","1","1","1","1","1"
"260071","img/object_images/knit01.jpg","img/object_images/toilet_paper_dispenser01.jpg","img/object_images/purse04.jpg","1","1","1","0","1","1","0.556310500018299","0.653784599970095","0.538677399978042","1","1","1","1","1","1","1","1","1"
"260071","img/object_images/purse04.jpg","img/object_images/knit01.jpg","img/object_images/scoreboard01.jpg","1","1","1","1","0","1","0.538677399978042","0.556310500018299","0.561805600067601","1","1","1","1","1","1","1","1","1"
"260071","img/object_images/scoreboard01.jpg","img/object_images/purse04.jpg","img/object_images/hot_air_balloon02.jpg","1","1","0","1","1","0","0.561805600067601","0.538677399978042","0.70050239993725","1","1","1","1","1","1","1","1","1"
"260071","img/object_images/hot_air_balloon02.jpg","img/object_images/scoreboard01.jpg","img/object_images/boat_toy10.jpg","0","1","1","0","1","0","0.70050239993725","0.561805600067601","0.904310200014152","1","1","1","1","1","1","1","1","1"
"260071","img/object_images/boat_toy10.jpg","img/object_images/hot_air_balloon02.jpg","img/object_images/audio_port01.jpg","1","0","1","0","0","1","0.904310200014152","0.70050239993725","0.69315559999086","1","1","1","1","1","1","1","1","1"
"260071","img/object_images/audio_port01.jpg","img/object_images/boat_toy10.jpg","img/object_images/toaster01.jpg","1","1","1","1","0","1","0.69315559999086","0.904310200014152","0.757485699956305","1","1","1","1","1","1","1","1","1"
"260071","img/object_images/toaster01.jpg","img/object_images/audio_port01.jpg","img/object_images/camera_lens01.jpg","1","1","1","1","1","1","0.757485699956305","0.69315559999086","0.634598599979654","1","1","1","1","1","1","1","1","1"
"260071","img/object_images/camera_lens01.jpg","img/object_images/toaster01.jpg","img/object_images/bottle02.jpg","1","1","1","1","1","1","0.634598599979654","0.757485699956305","1.33531049999874","1","1","1","1","1","1","1","1","1"
"260071","img/object_images/bottle02.jpg","img/object_images/camera_lens01.jpg","img/object_images/chair03.jpg","1","1","1","1","1","0","1.33531049999874","0.634598599979654","0.99923229997512","1","1","1","1","1","1","1","1","1"
"260071","img/object_images/chair03.jpg","img/object_images/bottle02.jpg","img/object_images/bicycle01.jpg","1","1","1","0","1","1","0.99923229997512","1.33531049999874","0.625559799955226","1","1","1","1","1","1","1","1","1"
"260071","img/object_images/bicycle01.jpg","img/object_images/chair03.jpg","img/object_images/tie02.jpg","1","1","1","1","0","0","0.625559799955226","0.99923229997512","0.57399710000027","1","1","1","1","1","1","1","1","1"
"260071","img/object_images/tie02.jpg","img/object_images/bicycle01.jpg","img/object_images/wagon_cart03.jpg","1","1","1","0","1","1","0.57399710000027","0.625559799955226","0.506553299957886","1","1","1","1","1","1","1","1","1"
"260071","img/object_images/wagon_cart03.jpg","img/object_images/tie02.jpg","img/object_images/boat02.jpg","1","1","1","1","0","1","0.506553299957886","0.57399710000027","0.735283700050786","1","1","1","1","1","1","1","1","1"
"260071","img/object_images/boat02.jpg","img/object_images/wagon_cart03.jpg","img/object_images/shoes07.jpg","1","1","1","1","1","0","0.735283700050786","0.506553299957886","0.57241820008494","1","1","1","1","1","1","1","1","1"
"260071","img/object_images/shoes07.jpg","img/object_images/boat02.jpg","img/object_images/flask01.jpg","1","1","1","0","1","0","0.57241820008494","0.735283700050786","0.716013500001281","1","1","1","1","1","1","1","1","1"
"260071","img/object_images/flask01.jpg","img/object_images/shoes07.jpg","img/object_images/bean_bag02.jpg","1","1","1","0","0","1","0.716013500001281","0.57241820008494","0.637026199954562","1","1","1","1","1","1","1","1","1"
"260071","img/object_images/bean_bag02.jpg","img/object_images/flask01.jpg","img/object_images/perfume02.jpg","1","1","1","1","0","0","0.637026199954562","0.716013500001281","0.941082900040783","1","1","1","1","1","1","1","1","1"
"260071","img/object_images/perfume02.jpg","img/object_images/bean_bag02.jpg","img/object_images/coloring_pencil02.jpg","1","1","1","0","1","0","0.941082900040783","0.637026199954562","0.731276000034995","1","1","1","1","1","1","1","1","1"
"260071","img/object_images/coloring_pencil02.jpg","img/object_images/perfume02.jpg",NA,"1","1",NA,"0","0",NA,"0.731276000034995","0.941082900040783",NA,"1","1",NA,"1","1",NA,"1","1",NA
"260071","img/object_images/bow_tie02.jpg",NA,"img/object_images/coloring_pencil01.jpg","1",NA,"1","0",NA,"1","1.18616330006626",NA,"0.582206299994141","1",NA,"1","1",NA,"1","1",NA,"1"
"260071","img/object_images/coloring_pencil01.jpg","img/object_images/bow_tie02.jpg","img/object_images/clip02.jpg","1","1","1","1","0","1","0.582206299994141","1.18616330006626","0.556960400077514","1","1","1","1","1","1","1","1","1"
"260071","img/object_images/clip02.jpg","img/object_images/coloring_pencil01.jpg","img/object_images/Screws01.jpg","1","1","0","1","1","1","0.556960400077514","0.582206299994141","0.470987099921331","1","1","1","1","1","1","1","1","1"
"260071","img/object_images/Screws01.jpg","img/object_images/clip02.jpg","img/object_images/golf_ball03.jpg","0","1","1","1","1","1","0.470987099921331","0.556960400077514","0.540480700088665","1","1","1","1","1","1","1","1","1"
"260071","img/object_images/golf_ball03.jpg","img/object_images/Screws01.jpg","img/object_images/ironing_table01.jpg","1","0","1","1","1","0","0.540480700088665","0.470987099921331","0.676330999936908","1","1","1","1","1","1","1","1","1"
"260071","img/object_images/ironing_table01.jpg","img/object_images/golf_ball03.jpg","img/object_images/wallet02.jpg","1","1","1","0","1","1","0.676330999936908","0.540480700088665","0.599211000022478","1","1","1","1","1","1","1","1","1"
"260071","img/object_images/wallet02.jpg","img/object_images/ironing_table01.jpg","img/object_images/grater01.jpg","1","1","1","1","0","1","0.599211000022478","0.676330999936908","0.572395600029267","1","1","1","1","1","1","1","1","1"
"260071","img/object_images/grater01.jpg","img/object_images/wallet02.jpg","img/object_images/vga_port 01.jpg","1","1","1","1","1","0","0.572395600029267","0.599211000022478","0.636437800014392","1","1","1","1","1","1","1","1","1"
"260071","img/object_images/vga_port 01.jpg","img/object_images/grater01.jpg","img/object_images/balloon01.jpg","1","1","1","0","1","0","0.636437800014392","0.572395600029267","0.653943600016646","1","1","1","1","1","1","1","1","1"
"260071","img/object_images/balloon01.jpg","img/object_images/vga_port 01.jpg","img/object_images/lawn_mower01.jpg","1","1","1","0","0","1","0.653943600016646","0.636437800014392","0.670020399964415","1","1","1","1","1","1","1","1","1"
"260071","img/object_images/lawn_mower01.jpg","img/object_images/balloon01.jpg","img/object_images/dresser04.jpg","1","1","1","1","0","0","0.670020399964415","0.653943600016646","0.894814500003122","1","1","1","1","1","1","1","1","1"
"260071","img/object_images/dresser04.jpg","img/object_images/lawn_mower01.jpg","img/object_images/bow_tie01.jpg","1","1","1","0","1","0","0.894814500003122","0.670020399964415","0.713253299938515","1","1","1","1","1","1","1","1","1"
"260071","img/object_images/bow_tie01.jpg","img/object_images/dresser04.jpg","img/object_images/gift_box01.jpg","1","1","0","0","0","1","0.713253299938515","0.894814500003122","0.809282000060193","1","1","1","1","1","1","1","1","1"
"260071","img/object_images/gift_box01.jpg","img/object_images/bow_tie01.jpg","img/object_images/couch03.jpg","0","1","1","1","0","0","0.809282000060193","0.713253299938515","0.712300100014545","1","1","1","1","1","1","1","1","1"
"260071","img/object_images/couch03.jpg","img/object_images/gift_box01.jpg","img/object_images/bath_tub01.jpg","1","0","1","0","1","0","0.712300100014545","0.809282000060193","0.592603800003417","1","1","1","1","1","1","1","1","1"
"260071","img/object_images/bath_tub01.jpg","img/object_images/couch03.jpg","img/object_images/funnel01.jpg","1","1","1","0","0","0","0.592603800003417","0.712300100014545","0.479124899953604","1","1","1","1","1","1","1","1","1"
"260071","img/object_images/funnel01.jpg","img/object_images/bath_tub01.jpg","img/object_images/fork03.jpg","1","1","1","0","0","1","0.479124899953604","0.592603800003417","0.905297800083645","1","1","1","1","1","1","1","1","1"
"260071","img/object_images/fork03.jpg","img/object_images/funnel01.jpg","img/object_images/lock04.jpg","1","1","1","1","0","1","0.905297800083645","0.479124899953604","0.413543400005437","1","1","1","1","1","1","1","1","1"
"260071","img/object_images/lock04.jpg","img/object_images/fork03.jpg","img/object_images/pitcher02.jpg","1","1","0","1","1","1","0.413543400005437","0.905297800083645","0.438353199977428","1","1","1","1","1","1","1","1","2"
"260071","img/object_images/pitcher02.jpg","img/object_images/lock04.jpg","img/object_images/hammer01.jpg","0","1","1","1","1","0","0.438353199977428","0.413543400005437","0.614982600091025","1","1","1","1","1","1","2","1","1"
"260071","img/object_images/hammer01.jpg","img/object_images/pitcher02.jpg","img/object_images/jacket03.jpg","1","0","0","0","1","0","0.614982600091025","0.438353199977428","0.399583299993537","1","1","1","1","1","1","1","2","1"
"260071","img/object_images/jacket03.jpg","img/object_images/hammer01.jpg","img/object_images/handkerchief01.jpg","0","1","1","0","0","0","0.399583299993537","0.614982600091025","0.639724600012414","1","1","1","1","1","1","1","1","1"
"260071","img/object_images/handkerchief01.jpg","img/object_images/jacket03.jpg","img/object_images/socks02.jpg","1","0","1","0","0","0","0.639724600012414","0.399583299993537","0.841341699939221","1","1","1","1","1","1","1","1","1"
"260071","img/object_images/socks02.jpg","img/object_images/handkerchief01.jpg","img/object_images/gift_box02.jpg","1","1","0","0","0","1","0.841341699939221","0.639724600012414","0.633181100012735","1","1","1","1","1","1","1","1","1"
"260071","img/object_images/gift_box02.jpg","img/object_images/socks02.jpg","img/object_images/jewelry01.jpg","0","1","1","1","0","1","0.633181100012735","0.841341699939221","0.66791189997457","1","1","1","1","1","1","1","1","1"
"260071","img/object_images/jewelry01.jpg","img/object_images/gift_box02.jpg","img/object_images/sleeping_bag01.jpg","1","0","1","1","1","0","0.66791189997457","0.633181100012735","0.818906900007278","1","1","1","1","1","1","1","1","1"
"260071","img/object_images/sleeping_bag01.jpg","img/object_images/jewelry01.jpg","img/object_images/camera07.jpg","1","1","1","0","1","1","0.818906900007278","0.66791189997457","0.509247199981473","1","1","1","1","1","1","1","1","1"
"260071","img/object_images/camera07.jpg","img/object_images/sleeping_bag01.jpg","img/object_images/paper_cup01.jpg","1","1","1","1","0","0","0.509247199981473","0.818906900007278","0.735657899989747","1","1","1","1","1","1","1","1","1"
"260071","img/object_images/paper_cup01.jpg","img/object_images/camera07.jpg","img/object_images/Witchhat01.jpg","1","1","0","0","1","1","0.735657899989747","0.509247199981473","1.58000409998931","1","1","1","1","1","1","1","1","1"
"260071","img/object_images/Witchhat01.jpg","img/object_images/paper_cup01.jpg","img/object_images/gift_box03.jpg","0","1","1","1","0","0","1.58000409998931","0.735657899989747","0.787450400064699","1","1","1","1","1","1","1","1","1"
"260071","img/object_images/gift_box03.jpg","img/object_images/Witchhat01.jpg","img/object_images/measuring_tape02.jpg","1","0","1","0","1","1","0.787450400064699","1.58000409998931","0.686489399988204","1","1","1","1","1","1","1","1","1"
"260071","img/object_images/measuring_tape02.jpg","img/object_images/gift_box03.jpg",NA,"1","1",NA,"1","0",NA,"0.686489399988204","0.787450400064699",NA,"1","1",NA,"1","1",NA,"1","1",NA
"260071","img/object_images/hair_brush01.jpg",NA,"img/object_images/pen01.jpg","0",NA,"0","1",NA,"0","0.788860500091687",NA,"0.792686400003731","1",NA,"1","1",NA,"1","1",NA,"1"
"260071","img/object_images/pen01.jpg","img/object_images/hair_brush01.jpg","img/object_images/mail_box02.jpg","0","0","1","0","1","1","0.792686400003731","0.788860500091687","0.800127100083046","1","1","1","1","1","1","1","1","1"
"260071","img/object_images/mail_box02.jpg","img/object_images/pen01.jpg","img/object_images/toy01.jpg","1","0","1","1","0","1","0.800127100083046","0.792686400003731","0.654326799907722","1","1","1","1","1","1","1","1","1"
"260071","img/object_images/toy01.jpg","img/object_images/mail_box02.jpg","img/object_images/book02.jpg","1","1","0","1","1","1","0.654326799907722","0.800127100083046","0.66493420000188","1","1","1","1","1","1","1","1","1"
"260071","img/object_images/book02.jpg","img/object_images/toy01.jpg","img/object_images/Violin01.jpg","0","1","1","1","1","0","0.66493420000188","0.654326799907722","1.0584471001057","1","1","1","1","1","1","1","1","1"
"260071","img/object_images/Violin01.jpg","img/object_images/book02.jpg","img/object_images/blender01.jpg","1","0","1","0","1","0","1.0584471001057","0.66493420000188","0.535193099989556","1","1","1","1","1","1","1","1","1"
"260071","img/object_images/blender01.jpg","img/object_images/Violin01.jpg","img/object_images/egg_slicer01.jpg","1","1","1","0","0","1","0.535193099989556","1.0584471001057","0.769144900026731","1","1","1","1","1","1","1","1","1"
"260071","img/object_images/egg_slicer01.jpg","img/object_images/blender01.jpg","img/object_images/video_game03.jpg","1","1","1","1","0","1","0.769144900026731","0.535193099989556","0.61331909999717","1","1","1","1","1","1","1","1","1"
"260071","img/object_images/video_game03.jpg","img/object_images/egg_slicer01.jpg","img/object_images/tripod01.jpg","1","1","1","1","1","1","0.61331909999717","0.769144900026731","0.592994899954647","1","1","1","1","1","1","1","1","1"
"260071","img/object_images/tripod01.jpg","img/object_images/video_game03.jpg","img/object_images/soap03.jpg","1","1","1","1","1","0","0.592994899954647","0.61331909999717","0.71808839996811","1","1","1","1","1","1","1","1","1"
"260071","img/object_images/soap03.jpg","img/object_images/tripod01.jpg","img/object_images/shoes12.jpg","1","1","1","0","1","1","0.71808839996811","0.592994899954647","0.608907399931923","1","1","1","1","1","1","1","1","1"
"260071","img/object_images/shoes12.jpg","img/object_images/soap03.jpg","img/object_images/tool06.jpg","1","1","1","1","0","0","0.608907399931923","0.71808839996811","0.516793299932033","1","1","1","1","1","1","1","1","1"
"260071","img/object_images/tool06.jpg","img/object_images/shoes12.jpg","img/object_images/pitcher09.jpg","1","1","1","0","1","1","0.516793299932033","0.608907399931923","0.659622499952093","1","1","1","1","1","1","1","1","1"
"260071","img/object_images/pitcher09.jpg","img/object_images/tool06.jpg","img/object_images/chain01.jpg","1","1","1","1","0","0","0.659622499952093","0.516793299932033","0.602401899988763","1","1","1","1","1","1","1","1","1"
"260071","img/object_images/chain01.jpg","img/object_images/pitcher09.jpg","img/object_images/bell03.jpg","1","1","1","0","1","0","0.602401899988763","0.659622499952093","0.576912499964237","1","1","1","1","1","1","1","1","1"
"260071","img/object_images/bell03.jpg","img/object_images/chain01.jpg","img/object_images/toothbrush01.jpg","1","1","1","0","0","0","0.576912499964237","0.602401899988763","0.526468599913642","1","1","1","1","1","1","1","1","1"
"260071","img/object_images/toothbrush01.jpg","img/object_images/bell03.jpg","img/object_images/computer_mouse01.jpg","1","1","1","0","0","1","0.526468599913642","0.576912499964237","0.524102700059302","1","1","1","1","1","1","1","1","1"
"260071","img/object_images/computer_mouse01.jpg","img/object_images/toothbrush01.jpg","img/object_images/airfryer02.jpg","1","1","1","1","0","1","0.524102700059302","0.526468599913642","0.52683500002604","1","1","1","1","1","1","1","1","1"
"260071","img/object_images/airfryer02.jpg","img/object_images/computer_mouse01.jpg","img/object_images/chair06.jpg","1","1","1","1","1","0","0.52683500002604","0.524102700059302","0.592597499955446","1","1","1","1","1","1","1","1","1"
"260071","img/object_images/chair06.jpg","img/object_images/airfryer02.jpg","img/object_images/rock02.jpg","1","1","1","0","1","0","0.592597499955446","0.52683500002604","0.580050099990331","1","1","1","1","1","1","1","1","1"
"260071","img/object_images/rock02.jpg","img/object_images/chair06.jpg","img/object_images/couch01.jpg","1","1","0","0","0","0","0.580050099990331","0.592597499955446","0.761233699973673","1","1","1","1","1","1","1","1","1"
"260071","img/object_images/couch01.jpg","img/object_images/rock02.jpg","img/object_images/drone01.jpg","0","1","1","0","0","1","0.761233699973673","0.580050099990331","0.695543799898587","1","1","1","1","1","1","1","1","1"
"260071","img/object_images/drone01.jpg","img/object_images/couch01.jpg","img/object_images/fork02.jpg","1","0","1","1","0","0","0.695543799898587","0.761233699973673","0.613207699963823","1","1","1","1","1","1","1","1","1"
"260071","img/object_images/fork02.jpg","img/object_images/drone01.jpg","img/object_images/box03.jpg","1","1","1","0","1","0","0.613207699963823","0.695543799898587","0.623146299971268","1","1","1","1","1","1","1","1","1"
"260071","img/object_images/box03.jpg","img/object_images/fork02.jpg","img/object_images/bag_pipes01.jpg","1","1","1","0","0","1","0.623146299971268","0.613207699963823","0.662275400012732","1","1","1","1","1","1","1","1","1"
"260071","img/object_images/bag_pipes01.jpg","img/object_images/box03.jpg","img/object_images/clip04.jpg","1","1","1","1","0","1","0.662275400012732","0.623146299971268","0.64716509997379","1","1","1","1","1","1","1","1","1"
"260071","img/object_images/clip04.jpg","img/object_images/bag_pipes01.jpg","img/object_images/scarf01.jpg","1","1","1","1","1","1","0.64716509997379","0.662275400012732","0.635320200002752","1","1","1","1","1","1","1","1","1"
"260071","img/object_images/scarf01.jpg","img/object_images/clip04.jpg","img/object_images/skate_board01.jpg","1","1","1","1","1","0","0.635320200002752","0.64716509997379","0.833448800025508","1","1","1","1","1","1","1","1","1"
"260071","img/object_images/skate_board01.jpg","img/object_images/scarf01.jpg","img/object_images/Trowel01.jpg","1","1","1","0","1","0","0.833448800025508","0.635320200002752","0.694498299970292","1","1","1","1","1","1","1","1","1"
"260071","img/object_images/Trowel01.jpg","img/object_images/skate_board01.jpg","img/object_images/floss02.jpg","1","1","1","0","0","1","0.694498299970292","0.833448800025508","0.564107900019735","1","1","1","1","1","1","1","1","1"
"260071","img/object_images/floss02.jpg","img/object_images/Trowel01.jpg","img/object_images/computer_mouse02.jpg","1","1","1","1","0","0","0.564107900019735","0.694498299970292","0.576853499980643","1","1","1","1","1","1","1","1","1"
"260071","img/object_images/computer_mouse02.jpg","img/object_images/floss02.jpg",NA,"1","1",NA,"0","1",NA,"0.576853499980643","0.564107900019735",NA,"1","1",NA,"1","1",NA,"1","1",NA
"260071","img/object_images/toy_train02.jpg",NA,"img/object_images/pot01.jpg","1",NA,"1","1",NA,"0","0.912632100051269",NA,"0.728810800006613","1",NA,"1","1",NA,"1","1",NA,"1"
"260071","img/object_images/pot01.jpg","img/object_images/toy_train02.jpg","img/object_images/pitcher03.jpg","1","1","0","0","1","1","0.728810800006613","0.912632100051269",NA,"1","1","0","1","1","0","1","1","0"
"260071","img/object_images/pitcher03.jpg","img/object_images/pot01.jpg","img/object_images/decorative02.jpg","0","1","1","1","0","0",NA,"0.728810800006613","0.522359799942933","0","1","1","0","1","1","0","1","1"
"260071","img/object_images/decorative02.jpg","img/object_images/pitcher03.jpg","img/object_images/container01.jpg","1","0","1","0","1","0","0.522359799942933",NA,"0.513449199963361","1","0","1","1","0","1","1","0","1"
"260071","img/object_images/container01.jpg","img/object_images/decorative02.jpg","img/object_images/toilet_paper01.jpg","1","1","1","0","0","1","0.513449199963361","0.522359799942933","0.47950639994815","1","1","1","1","1","1","1","1","1"
"260071","img/object_images/toilet_paper01.jpg","img/object_images/container01.jpg","img/object_images/cochlear_implant01.jpg","1","1","1","1","0","0","0.47950639994815","0.513449199963361","0.573658199980855","1","1","1","1","1","1","1","1","1"
"260071","img/object_images/cochlear_implant01.jpg","img/object_images/toilet_paper01.jpg","img/object_images/hat02.jpg","1","1","1","0","1","0","0.573658199980855","0.47950639994815","0.505414599901997","1","1","1","1","1","1","1","1","1"
"260071","img/object_images/hat02.jpg","img/object_images/cochlear_implant01.jpg","img/object_images/ironing_table02.jpg","1","1","1","0","0","0","0.505414599901997","0.573658199980855","0.656169999972917","1","1","1","1","1","1","1","1","1"
"260071","img/object_images/ironing_table02.jpg","img/object_images/hat02.jpg","img/object_images/razor03.jpg","1","1","1","0","0","0","0.656169999972917","0.505414599901997","0.599376500002109","1","1","1","1","1","1","1","1","1"
"260071","img/object_images/razor03.jpg","img/object_images/ironing_table02.jpg","img/object_images/broom01.jpg","1","1","1","0","0","1","0.599376500002109","0.656169999972917","0.509322300087661","1","1","1","1","1","1","1","1","1"
"260071","img/object_images/broom01.jpg","img/object_images/razor03.jpg","img/object_images/chair01.jpg","1","1","1","1","0","0","0.509322300087661","0.599376500002109","0.592365700053051","1","1","1","1","1","1","1","1","1"
"260071","img/object_images/chair01.jpg","img/object_images/broom01.jpg","img/object_images/ball01.jpg","1","1","1","0","1","1","0.592365700053051","0.509322300087661","0.657866799971089","1","1","1","1","1","1","1","1","1"
"260071","img/object_images/ball01.jpg","img/object_images/chair01.jpg","img/object_images/couch04.jpg","1","1","1","1","0","1","0.657866799971089","0.592365700053051","0.530555300065316","1","1","1","1","1","1","1","1","1"
"260071","img/object_images/couch04.jpg","img/object_images/ball01.jpg","img/object_images/tie01.jpg","1","1","1","1","1","0","0.530555300065316","0.657866799971089","0.540284599992447","1","1","1","1","1","1","1","1","1"
"260071","img/object_images/tie01.jpg","img/object_images/couch04.jpg","img/object_images/video_game06.jpg","1","1","1","0","1","0","0.540284599992447","0.530555300065316","0.602202399983071","1","1","1","1","1","1","1","1","1"
"260071","img/object_images/video_game06.jpg","img/object_images/tie01.jpg","img/object_images/Woopie01.jpg","1","1","1","0","0","1","0.602202399983071","0.540284599992447","0.607491399976425","1","1","1","1","1","1","1","1","1"
"260071","img/object_images/Woopie01.jpg","img/object_images/video_game06.jpg","img/object_images/basketball_hoop02.jpg","1","1","1","1","0","0","0.607491399976425","0.602202399983071","0.598084699944593","1","1","1","1","1","1","1","1","1"
"260071","img/object_images/basketball_hoop02.jpg","img/object_images/Woopie01.jpg","img/object_images/car02.jpg","1","1","0","0","1","0","0.598084699944593","0.607491399976425","0.632499899948016","1","1","1","1","1","1","1","1","1"
"260071","img/object_images/car02.jpg","img/object_images/basketball_hoop02.jpg","img/object_images/gloves05.jpg","0","1","1","0","0","1","0.632499899948016","0.598084699944593","0.603569900034927","1","1","1","1","1","1","1","1","1"
"260071","img/object_images/gloves05.jpg","img/object_images/car02.jpg","img/object_images/lamp01.jpg","1","0","1","1","0","1","0.603569900034927","0.632499899948016","0.466522299917415","1","1","1","1","1","1","1","1","1"
"260071","img/object_images/lamp01.jpg","img/object_images/gloves05.jpg","img/object_images/soap01.jpg","1","1","1","1","1","0","0.466522299917415","0.603569900034927","0.598226599977352","1","1","1","1","1","1","1","1","1"
"260071","img/object_images/soap01.jpg","img/object_images/lamp01.jpg","img/object_images/helmet05.jpg","1","1","1","0","1","1","0.598226599977352","0.466522299917415","0.644781599985436","1","1","1","1","1","1","1","1","1"
"260071","img/object_images/helmet05.jpg","img/object_images/soap01.jpg","img/object_images/brief_case02.jpg","1","1","1","1","0","1","0.644781599985436","0.598226599977352","0.507221999927424","1","1","1","1","1","1","1","1","1"
"260071","img/object_images/brief_case02.jpg","img/object_images/helmet05.jpg","img/object_images/drone02.jpg","1","1","1","1","1","0","0.507221999927424","0.644781599985436","0.58084740000777","1","1","1","1","1","1","1","1","1"
"260071","img/object_images/drone02.jpg","img/object_images/brief_case02.jpg","img/object_images/lantern01.jpg","1","1","1","0","1","1","0.58084740000777","0.507221999927424","0.59827449999284","1","1","1","1","1","1","1","1","1"
"260071","img/object_images/lantern01.jpg","img/object_images/drone02.jpg","img/object_images/airfryer01.jpg","1","1","1","1","0","0","0.59827449999284","0.58084740000777","0.737558900029399","1","1","1","1","1","1","1","1","1"
"260071","img/object_images/airfryer01.jpg","img/object_images/lantern01.jpg","img/object_images/brief_case01.jpg","1","1","0","0","1","0","0.737558900029399","0.59827449999284","0.549313299939968","1","1","1","1","1","1","1","1","1"
"260071","img/object_images/brief_case01.jpg","img/object_images/airfryer01.jpg","img/object_images/guitar01.jpg","0","1","1","0","0","1","0.549313299939968","0.737558900029399","0.699048900045455","1","1","1","1","1","1","1","1","1"
"260071","img/object_images/guitar01.jpg","img/object_images/brief_case01.jpg","img/object_images/Recycling01.jpg","1","0","1","1","0","1","0.699048900045455","0.549313299939968","0.648043600027449","1","1","1","1","1","1","1","1","1"
"260071","img/object_images/Recycling01.jpg","img/object_images/guitar01.jpg","img/object_images/Wisk01.jpg","1","1","1","1","1","1","0.648043600027449","0.699048900045455","0.765974499983713","1","1","1","1","1","1","1","1","1"
"260071","img/object_images/Wisk01.jpg","img/object_images/Recycling01.jpg","img/object_images/bottle12.jpg","1","1","1","1","1","1","0.765974499983713","0.648043600027449","0.55109409999568","1","1","1","1","1","1","1","1","1"
"260071","img/object_images/bottle12.jpg","img/object_images/Wisk01.jpg",NA,"1","1",NA,"1","1",NA,"0.55109409999568","0.765974499983713",NA,"1","1",NA,"1","1",NA,"1","1",NA
"260071","img/object_images/knit05.jpg",NA,"img/object_images/chair05.jpg","0",NA,"0","1",NA,"0","1.37443090009037",NA,"0.814667499973439","1",NA,"1","1",NA,"1","1",NA,"1"
"260071","img/object_images/chair05.jpg","img/object_images/knit05.jpg","img/object_images/bell02.jpg","0","0","1","0","1","0","0.814667499973439","1.37443090009037","0.602224799920805","1","1","1","1","1","1","1","1","1"
"260071","img/object_images/bell02.jpg","img/object_images/chair05.jpg","img/object_images/compass01.jpg","1","0","0","0","0","1","0.602224799920805","0.814667499973439","0.338402599911205","1","1","1","1","1","1","1","1","2"
"260071","img/object_images/compass01.jpg","img/object_images/bell02.jpg","img/object_images/knife04.jpg","0","1","1","1","0","1","0.338402599911205","0.602224799920805","0.807714599999599","1","1","1","1","1","1","2","1","1"
"260071","img/object_images/knife04.jpg","img/object_images/compass01.jpg","img/object_images/retainer01.jpg","1","0","0","1","1","0","0.807714599999599","0.338402599911205","1.07696420000866","1","1","1","1","1","1","1","2","2"
"260071","img/object_images/retainer01.jpg","img/object_images/knife04.jpg","img/object_images/tennis_racket02.jpg","0","1","1","0","1","1","1.07696420000866","0.807714599999599","0.800207399995998","1","1","1","1","1","1","2","1","1"
"260071","img/object_images/tennis_racket02.jpg","img/object_images/retainer01.jpg","img/object_images/bottle01.jpg","1","0","1","1","0","0","0.800207399995998","1.07696420000866","0.813943999935873","1","1","1","1","1","1","1","2","1"
"260071","img/object_images/bottle01.jpg","img/object_images/tennis_racket02.jpg","img/object_images/cellphone01.jpg","1","1","1","0","1","1","0.813943999935873","0.800207399995998","0.7225396001013","1","1","1","1","1","1","1","1","1"
"260071","img/object_images/cellphone01.jpg","img/object_images/bottle01.jpg","img/object_images/paint_brush04.jpg","1","1","1","1","0","0","0.7225396001013","0.813943999935873","0.496505499933846","1","1","1","1","1","1","1","1","1"
"260071","img/object_images/paint_brush04.jpg","img/object_images/cellphone01.jpg","img/object_images/usb02.jpg","1","1","1","0","1","0","0.496505499933846","0.7225396001013","0.713263700017706","1","1","1","1","1","1","1","1","1"
"260071","img/object_images/usb02.jpg","img/object_images/paint_brush04.jpg","img/object_images/pitcher01.jpg","1","1","1","0","0","0","0.713263700017706","0.496505499933846","0.55514489999041","1","1","1","1","1","1","1","1","1"
"260071","img/object_images/pitcher01.jpg","img/object_images/usb02.jpg","img/object_images/motorcycle01.jpg","1","1","0","0","0","1","0.55514489999041","0.713263700017706","0.340389300021343","1","1","1","1","1","1","1","1","1"
"260071","img/object_images/motorcycle01.jpg","img/object_images/pitcher01.jpg","img/object_images/floppy_disk03.jpg","0","1","0","1","0","1","0.340389300021343","0.55514489999041","0.701560799963772","1","1","1","1","1","1","1","1","1"
"260071","img/object_images/floppy_disk03.jpg","img/object_images/motorcycle01.jpg","img/object_images/ear_bud01.jpg","0","0","1","1","1","1","0.701560799963772","0.340389300021343","0.448789600050077","1","1","1","1","1","1","1","1","1"
"260071","img/object_images/ear_bud01.jpg","img/object_images/floppy_disk03.jpg","img/object_images/chess_piece02.jpg","1","0","1","1","1","1","0.448789600050077","0.701560799963772","0.698517299955711","1","1","1","1","1","1","1","1","1"
"260071","img/object_images/chess_piece02.jpg","img/object_images/ear_bud01.jpg","img/object_images/Staples01.jpg","1","1","1","1","1","1","0.698517299955711","0.448789600050077","0.688456100062467","1","1","1","1","1","1","1","1","1"
"260071","img/object_images/Staples01.jpg","img/object_images/chess_piece02.jpg","img/object_images/hammer03.jpg","1","1","1","1","1","1","0.688456100062467","0.698517299955711","0.702168899937533","1","1","1","1","1","1","1","1","1"
"260071","img/object_images/hammer03.jpg","img/object_images/Staples01.jpg","img/object_images/Oven01.jpg","1","1","1","1","1","1","0.702168899937533","0.688456100062467","0.646404700004496","1","1","1","1","1","1","1","1","1"
"260071","img/object_images/Oven01.jpg","img/object_images/hammer03.jpg","img/object_images/tv02.jpg","1","1","1","1","1","0","0.646404700004496","0.702168899937533","0.597206000005826","1","1","1","1","1","1","1","1","1"
"260071","img/object_images/tv02.jpg","img/object_images/Oven01.jpg","img/object_images/floppy_disk02.jpg","1","1","1","0","1","0","0.597206000005826","0.646404700004496","0.652068500057794","1","1","1","1","1","1","1","1","1"
"260071","img/object_images/floppy_disk02.jpg","img/object_images/tv02.jpg","img/object_images/crutches02.jpg","1","1","1","0","0","0","0.652068500057794","0.597206000005826","0.59346700005699","1","1","1","1","1","1","1","1","1"
"260071","img/object_images/crutches02.jpg","img/object_images/floppy_disk02.jpg","img/object_images/book03.jpg","1","1","1","0","0","1","0.59346700005699","0.652068500057794","0.474381700041704","1","1","1","1","1","1","1","1","1"
"260071","img/object_images/book03.jpg","img/object_images/crutches02.jpg","img/object_images/wire02.jpg","1","1","1","1","0","1","0.474381700041704","0.59346700005699","0.782073900103569","1","1","1","1","1","1","1","1","1"
"260071","img/object_images/wire02.jpg","img/object_images/book03.jpg","img/object_images/microscope01.jpg","1","1","1","1","1","0","0.782073900103569","0.474381700041704","0.560146400006488","1","1","1","1","1","1","1","1","1"
"260071","img/object_images/microscope01.jpg","img/object_images/wire02.jpg","img/object_images/clock02.jpg","1","1","1","0","1","0","0.560146400006488","0.782073900103569","0.554855800000951","1","1","1","1","1","1","1","1","1"
"260071","img/object_images/clock02.jpg","img/object_images/microscope01.jpg","img/object_images/note_book01.jpg","1","1","1","0","0","0","0.554855800000951","0.560146400006488","0.710018199984916","1","1","1","1","1","1","1","1","1"
"260071","img/object_images/note_book01.jpg","img/object_images/clock02.jpg","img/object_images/pillows01.jpg","1","1","0","0","0","1","0.710018199984916","0.554855800000951","0.614650700008497","1","1","1","1","1","1","1","1","1"
"260071","img/object_images/pillows01.jpg","img/object_images/note_book01.jpg","img/object_images/clip03.jpg","0","1","1","1","0","0","0.614650700008497","0.710018199984916","0.645192400086671","1","1","1","1","1","1","1","1","1"
"260071","img/object_images/clip03.jpg","img/object_images/pillows01.jpg","img/object_images/lid01.jpg","1","0","1","0","1","1","0.645192400086671","0.614650700008497","0.656989199924283","1","1","1","1","1","1","1","1","1"
"260071","img/object_images/lid01.jpg","img/object_images/clip03.jpg","img/object_images/Thermometer01.jpg","1","1","1","1","0","0","0.656989199924283","0.645192400086671","0.511952299973927","1","1","1","1","1","1","1","1","1"
"260071","img/object_images/Thermometer01.jpg","img/object_images/lid01.jpg","img/object_images/pen03.jpg","1","1","1","0","1","0","0.511952299973927","0.656989199924283","0.690589600009844","1","1","1","1","1","1","1","1","1"
"260071","img/object_images/pen03.jpg","img/object_images/Thermometer01.jpg",NA,"1","1",NA,"0","0",NA,"0.690589600009844","0.511952299973927",NA,"1","1",NA,"1","1",NA,"1","1",NA
"260071","img/object_images/vase01.jpg",NA,"img/object_images/stove01.jpg","1",NA,"1","0",NA,"0","1.03762830002233",NA,"1.62431610003114","1",NA,"1","1",NA,"1","1",NA,"1"
"260071","img/object_images/stove01.jpg","img/object_images/vase01.jpg","img/object_images/Vest02.jpg","1","1","1","0","0","0","1.62431610003114","1.03762830002233","0.669726000051014","1","1","1","1","1","1","1","1","1"
"260071","img/object_images/Vest02.jpg","img/object_images/stove01.jpg","img/object_images/chair02.jpg","1","1","1","0","0","1","0.669726000051014","1.62431610003114","0.77411880006548","1","1","1","1","1","1","1","1","1"
"260071","img/object_images/chair02.jpg","img/object_images/Vest02.jpg","img/object_images/ball02.jpg","1","1","1","1","0","1","0.77411880006548","0.669726000051014","0.488947499892674","1","1","1","1","1","1","1","1","1"
"260071","img/object_images/ball02.jpg","img/object_images/chair02.jpg","img/object_images/toy05.jpg","1","1","1","1","1","0","0.488947499892674","0.77411880006548","0.474903700058348","1","1","1","1","1","1","1","1","1"
"260071","img/object_images/toy05.jpg","img/object_images/ball02.jpg","img/object_images/backpack03.jpg","1","1","1","0","1","1","0.474903700058348","0.488947499892674","0.591355100041255","1","1","1","1","1","1","1","1","1"
"260071","img/object_images/backpack03.jpg","img/object_images/toy05.jpg","img/object_images/pitcher05.jpg","1","1","1","1","0","0","0.591355100041255","0.474903700058348","0.559425099985674","1","1","1","1","1","1","1","1","1"
"260071","img/object_images/pitcher05.jpg","img/object_images/backpack03.jpg","img/object_images/gift_box05.jpg","1","1","1","0","1","0","0.559425099985674","0.591355100041255","0.608016000012867","1","1","1","1","1","1","1","1","1"
"260071","img/object_images/gift_box05.jpg","img/object_images/pitcher05.jpg","img/object_images/helmet02.jpg","1","1","1","0","0","0","0.608016000012867","0.559425099985674","0.864603899884969","1","1","1","1","1","1","1","1","1"
"260071","img/object_images/helmet02.jpg","img/object_images/gift_box05.jpg","img/object_images/hair_dryer01.jpg","1","1","1","0","0","0","0.864603899884969","0.608016000012867","0.564822899992578","1","1","1","1","1","1","1","1","1"
"260071","img/object_images/hair_dryer01.jpg","img/object_images/helmet02.jpg","img/object_images/jewel03.jpg","1","1","1","0","0","1","0.564822899992578","0.864603899884969","0.585675899987109","1","1","1","1","1","1","1","1","1"
"260071","img/object_images/jewel03.jpg","img/object_images/hair_dryer01.jpg","img/object_images/robe01.jpg","1","1","1","1","0","1","0.585675899987109","0.564822899992578","0.548677299986593","1","1","1","1","1","1","1","1","1"
"260071","img/object_images/robe01.jpg","img/object_images/jewel03.jpg","img/object_images/microphone03.jpg","1","1","1","1","1","1","0.548677299986593","0.585675899987109","0.561857900000177","1","1","1","1","1","1","1","1","1"
"260071","img/object_images/microphone03.jpg","img/object_images/robe01.jpg","img/object_images/combs01.jpg","1","1","1","1","1","1","0.561857900000177","0.548677299986593","0.705150799942203","1","1","1","1","1","1","1","1","1"
"260071","img/object_images/combs01.jpg","img/object_images/microphone03.jpg","img/object_images/Lint_Roller02.jpg","1","1","1","1","1","0","0.705150799942203","0.561857900000177","0.518619599984959","1","1","1","1","1","1","1","1","1"
"260071","img/object_images/Lint_Roller02.jpg","img/object_images/combs01.jpg","img/object_images/towels01.jpg","1","1","1","0","1","0","0.518619599984959","0.705150799942203","0.534750699996948","1","1","1","1","1","1","1","1","1"
"260071","img/object_images/towels01.jpg","img/object_images/Lint_Roller02.jpg","img/object_images/shoes08.jpg","1","1","1","0","0","1","0.534750699996948","0.518619599984959","0.643185399938375","1","1","1","1","1","1","1","1","1"
"260071","img/object_images/shoes08.jpg","img/object_images/towels01.jpg","img/object_images/accardion01.jpg","1","1","1","1","0","1","0.643185399938375","0.534750699996948","0.585048099979758","1","1","1","1","1","1","1","1","1"
"260071","img/object_images/accardion01.jpg","img/object_images/shoes08.jpg","img/object_images/lock01.jpg","1","1","1","1","1","0","0.585048099979758","0.643185399938375","0.562363000004552","1","1","1","1","1","1","1","1","1"
"260071","img/object_images/lock01.jpg","img/object_images/accardion01.jpg","img/object_images/fan04.jpg","1","1","1","0","1","0","0.562363000004552","0.585048099979758","0.610541000030935","1","1","1","1","1","1","1","1","1"
"260071","img/object_images/fan04.jpg","img/object_images/lock01.jpg","img/object_images/bucket02.jpg","1","1","1","0","0","1","0.610541000030935","0.562363000004552","0.559480399941094","1","1","1","1","1","1","1","1","1"
"260071","img/object_images/bucket02.jpg","img/object_images/fan04.jpg","img/object_images/umbrella01.jpg","1","1","1","1","0","0","0.559480399941094","0.610541000030935","0.553155899979174","1","1","1","1","1","1","1","1","1"
"260071","img/object_images/umbrella01.jpg","img/object_images/bucket02.jpg","img/object_images/chess_piece01.jpg","1","1","1","0","1","0","0.553155899979174","0.559480399941094","0.671600600006059","1","1","1","1","1","1","1","1","1"
"260071","img/object_images/chess_piece01.jpg","img/object_images/umbrella01.jpg","img/object_images/trash_can05.jpg","1","1","1","0","0","1","0.671600600006059","0.553155899979174","0.542603900074027","1","1","1","1","1","1","1","1","1"
"260071","img/object_images/trash_can05.jpg","img/object_images/chess_piece01.jpg","img/object_images/calculator01.jpg","1","1","1","1","0","1","0.542603900074027","0.671600600006059","0.561825999990106","1","1","1","1","1","1","1","1","1"
"260071","img/object_images/calculator01.jpg","img/object_images/trash_can05.jpg","img/object_images/hair_brush02.jpg","1","1","1","1","1","0","0.561825999990106","0.542603900074027","0.728294599917717","1","1","1","1","1","1","1","1","1"
"260071","img/object_images/hair_brush02.jpg","img/object_images/calculator01.jpg","img/object_images/laptop01.jpg","1","1","1","0","1","0","0.728294599917717","0.561825999990106","0.547721300041303","1","1","1","1","1","1","1","1","1"
"260071","img/object_images/laptop01.jpg","img/object_images/hair_brush02.jpg","img/object_images/trash_can03.jpg","1","1","1","0","0","1","0.547721300041303","0.728294599917717","0.533209799905308","1","1","1","1","1","1","1","1","1"
"260071","img/object_images/trash_can03.jpg","img/object_images/laptop01.jpg","img/object_images/surf_board01.jpg","1","1","1","1","0","1","0.533209799905308","0.547721300041303","0.513786199968308","1","1","1","1","1","1","1","1","1"
"260071","img/object_images/surf_board01.jpg","img/object_images/trash_can03.jpg","img/object_images/laptop03.jpg","1","1","1","1","1","1","0.513786199968308","0.533209799905308","0.567760700010695","1","1","1","1","1","1","1","1","1"
"260071","img/object_images/laptop03.jpg","img/object_images/surf_board01.jpg","img/object_images/spatula02.jpg","1","1","1","1","1","1","0.567760700010695","0.513786199968308","0.663767199963331","1","1","1","1","1","1","1","1","1"
"260071","img/object_images/spatula02.jpg","img/object_images/laptop03.jpg",NA,"1","1",NA,"1","1",NA,"0.663767199963331","0.567760700010695",NA,"1","1",NA,"1","1",NA,"1","1",NA
"260071","img/object_images/basket02.jpg",NA,"img/object_images/Traffic Sign 01.jpg","0",NA,"1","0",NA,"0","0.882455499959178",NA,"0.430308899958618","1",NA,"1","1",NA,"1","1",NA,"1"
"260071","img/object_images/Traffic Sign 01.jpg","img/object_images/basket02.jpg","img/object_images/colander01.jpg","1","0","1","0","0","0","0.430308899958618","0.882455499959178","0.593119699973613","1","1","1","1","1","1","1","1","1"
"260071","img/object_images/colander01.jpg","img/object_images/Traffic Sign 01.jpg","img/object_images/tray01.jpg","1","1","1","0","0","1","0.593119699973613","0.430308899958618","0.491022299975157","1","1","1","1","1","1","1","1","1"
"260071","img/object_images/tray01.jpg","img/object_images/colander01.jpg","img/object_images/Pottery01.jpg","1","1","1","1","0","0","0.491022299975157","0.593119699973613","0.496197299915366","1","1","1","1","1","1","1","1","1"
"260071","img/object_images/Pottery01.jpg","img/object_images/tray01.jpg","img/object_images/gift_box04.jpg","1","1","1","0","1","0","0.496197299915366","0.491022299975157","0.533680599997751","1","1","1","1","1","1","1","1","1"
"260071","img/object_images/gift_box04.jpg","img/object_images/Pottery01.jpg","img/object_images/exfoliater_brush01.jpg","1","1","0","0","0","0","0.533680599997751","0.496197299915366","0.620034000021406","1","1","1","1","1","1","1","1","1"
"260071","img/object_images/exfoliater_brush01.jpg","img/object_images/gift_box04.jpg","img/object_images/Kitchen_Towel.jpg","0","1","1","0","0","0","0.620034000021406","0.533680599997751","0.295939699979499","1","1","1","1","1","1","1","1","1"
"260071","img/object_images/Kitchen_Towel.jpg","img/object_images/exfoliater_brush01.jpg","img/object_images/tool07.jpg","1","0","0","0","0","0","0.295939699979499","0.620034000021406","0.321795499883592","1","1","1","1","1","1","1","1","2"
"260071","img/object_images/tool07.jpg","img/object_images/Kitchen_Towel.jpg","img/object_images/lighter01.jpg","0","1","1","0","0","1","0.321795499883592","0.295939699979499","0.575745000038296","1","1","1","1","1","1","2","1","1"
"260071","img/object_images/lighter01.jpg","img/object_images/tool07.jpg","img/object_images/handcuffs01.jpg","1","0","1","1","0","0","0.575745000038296","0.321795499883592","0.586749300011434","1","1","1","1","1","1","1","2","1"
"260071","img/object_images/handcuffs01.jpg","img/object_images/lighter01.jpg","img/object_images/cellphone02.jpg","1","1","1","0","1","1","0.586749300011434","0.575745000038296","0.6216794999782","1","1","1","1","1","1","1","1","1"
"260071","img/object_images/cellphone02.jpg","img/object_images/handcuffs01.jpg","img/object_images/glasses07.jpg","1","1","1","1","0","1","0.6216794999782","0.586749300011434","0.419956100056879","1","1","1","1","1","1","1","1","1"
"260071","img/object_images/glasses07.jpg","img/object_images/cellphone02.jpg","img/object_images/book01.jpg","1","1","0","1","1","1","0.419956100056879","0.6216794999782","0.623412700020708","1","1","1","1","1","1","1","1","1"
"260071","img/object_images/book01.jpg","img/object_images/glasses07.jpg","img/object_images/hair_clips01.jpg","0","1","1","1","1","1","0.623412700020708","0.419956100056879","0.444849899969995","1","1","1","1","1","1","1","1","2"
"260071","img/object_images/hair_clips01.jpg","img/object_images/book01.jpg","img/object_images/yo_yo01.jpg","1","0","0","1","1","0","0.444849899969995","0.623412700020708","1.27858929999638","1","1","1","1","1","1","2","1","1"
"260071","img/object_images/yo_yo01.jpg","img/object_images/hair_clips01.jpg","img/object_images/hole_puncher01.jpg","0","1","1","0","1","1","1.27858929999638","0.444849899969995","0.567438300000504","1","1","1","1","1","1","1","2","1"
"260071","img/object_images/hole_puncher01.jpg","img/object_images/yo_yo01.jpg","img/object_images/jewelry09.jpg","1","0","0","1","0","1","0.567438300000504","1.27858929999638","0.810760200023651","1","1","1","1","1","1","1","1","1"
"260071","img/object_images/jewelry09.jpg","img/object_images/hole_puncher01.jpg","img/object_images/cup03.jpg","0","1","1","1","1","1","0.810760200023651","0.567438300000504","0.619721199967898","1","1","1","1","1","1","1","1","1"
"260071","img/object_images/cup03.jpg","img/object_images/jewelry09.jpg","img/object_images/projector01.jpg","1","0","1","1","1","0","0.619721199967898","0.810760200023651","0.58905449998565","1","1","1","1","1","1","1","1","1"
"260071","img/object_images/projector01.jpg","img/object_images/cup03.jpg","img/object_images/faucet01.jpg","1","1","1","0","1","0","0.58905449998565","0.619721199967898","0.512407100060955","1","1","1","1","1","1","1","1","1"
"260071","img/object_images/faucet01.jpg","img/object_images/projector01.jpg","img/object_images/Sprayer01.jpg","1","1","0","0","0","0","0.512407100060955","0.58905449998565","0.38608910003677","1","1","1","1","1","1","1","1","1"
"260071","img/object_images/Sprayer01.jpg","img/object_images/faucet01.jpg","img/object_images/fire_extinguisher01.jpg","0","1","1","0","0","0","0.38608910003677","0.512407100060955","0.304442999884486","1","1","1","1","1","1","1","1","1"
"260071","img/object_images/fire_extinguisher01.jpg","img/object_images/Sprayer01.jpg","img/object_images/glasses06.jpg","1","0","1","0","0","1","0.304442999884486","0.38608910003677","0.389815900009126","1","1","1","1","1","1","1","1","1"
"260071","img/object_images/glasses06.jpg","img/object_images/fire_extinguisher01.jpg","img/object_images/ring03.jpg","1","1","0","1","0","1","0.389815900009126","0.304442999884486","0.61070550000295","1","1","1","1","1","1","1","1","1"
"260071","img/object_images/ring03.jpg","img/object_images/glasses06.jpg","img/object_images/speaker01.jpg","0","1","0","1","1","1","0.61070550000295","0.389815900009126","0.285741599975154","1","1","1","1","1","1","1","1","1"
"260071","img/object_images/speaker01.jpg","img/object_images/ring03.jpg","img/object_images/tool08.jpg","0","0","1","1","1","0","0.285741599975154","0.61070550000295","0.502874500001781","1","1","1","1","1","1","1","1","1"
"260071","img/object_images/tool08.jpg","img/object_images/speaker01.jpg","img/object_images/blanket01.jpg","1","0","1","0","1","1","0.502874500001781","0.285741599975154","0.460979799972847","1","1","1","1","1","1","1","1","1"
"260071","img/object_images/blanket01.jpg","img/object_images/tool08.jpg","img/object_images/purse01.jpg","1","1","1","1","0","1","0.460979799972847","0.502874500001781","0.591331899981014","1","1","1","1","1","1","1","1","1"
"260071","img/object_images/purse01.jpg","img/object_images/blanket01.jpg","img/object_images/bicycle_lock01.jpg","1","1","0","1","1","0","0.591331899981014","0.460979799972847","0.771613600081764","1","1","1","1","1","1","1","1","1"
"260071","img/object_images/bicycle_lock01.jpg","img/object_images/purse01.jpg","img/object_images/pan01.jpg","0","1","1","0","1","1","0.771613600081764","0.591331899981014","0.503744199988432","1","1","1","1","1","1","1","1","1"
"260071","img/object_images/pan01.jpg","img/object_images/bicycle_lock01.jpg","img/object_images/TrashCan02.jpg","1","0","1","1","0","1","0.503744199988432","0.771613600081764","0.422681000083685","1","1","1","1","1","1","1","1","1"
"260071","img/object_images/TrashCan02.jpg","img/object_images/pan01.jpg",NA,"1","1",NA,"1","1",NA,"0.422681000083685","0.503744199988432",NA,"1","1",NA,"1","1",NA,"1","1",NA
"260071","img/object_images/pitcher07.jpg",NA,"img/object_images/helmet03.jpg","1",NA,"1","1",NA,"1","0.714561800006777",NA,"0.679334799991921","1",NA,"1","1",NA,"1","1",NA,"1"
"260071","img/object_images/helmet03.jpg","img/object_images/pitcher07.jpg","img/object_images/scale02.jpg","1","1","1","1","1","0","0.679334799991921","0.714561800006777","0.577387100085616","1","1","1","1","1","1","1","1","1"
"260071","img/object_images/scale02.jpg","img/object_images/helmet03.jpg","img/object_images/piano03.jpg","1","1","1","0","1","0","0.577387100085616","0.679334799991921","0.546794600086287","1","1","1","1","1","1","1","1","1"
"260071","img/object_images/piano03.jpg","img/object_images/scale02.jpg","img/object_images/badminton01.jpg","1","1","1","0","0","1","0.546794600086287","0.577387100085616","0.553223900031298","1","1","1","1","1","1","1","1","1"
"260071","img/object_images/badminton01.jpg","img/object_images/piano03.jpg","img/object_images/Safe01.jpg","1","1","1","1","0","1","0.553223900031298","0.546794600086287","0.559415399911813","1","1","1","1","1","1","1","1","1"
"260071","img/object_images/Safe01.jpg","img/object_images/badminton01.jpg","img/object_images/joystick03.jpg","1","1","1","1","1","1","0.559415399911813","0.553223900031298","0.420646300073713","1","1","1","1","1","1","1","1","1"
"260071","img/object_images/joystick03.jpg","img/object_images/Safe01.jpg","img/object_images/nut_cracker01.jpg","1","1","0","1","1","1","0.420646300073713","0.559415399911813","0.459732600022107","1","1","1","1","1","1","1","1","1"
"260071","img/object_images/nut_cracker01.jpg","img/object_images/joystick03.jpg","img/object_images/fan01.jpg","0","1","1","1","1","0","0.459732600022107","0.420646300073713","0.567322499933653","1","1","1","1","1","1","1","1","1"
"260071","img/object_images/fan01.jpg","img/object_images/nut_cracker01.jpg","img/object_images/trumpet01.jpg","1","0","0","0","1","0","0.567322499933653","0.459732600022107","0.549160000053234","1","1","1","1","1","1","1","1","1"
"260071","img/object_images/trumpet01.jpg","img/object_images/fan01.jpg","img/object_images/note_book02.jpg","0","1","0","0","0","0","0.549160000053234","0.567322499933653","0.634389600018039","1","1","1","1","1","1","1","1","1"
"260071","img/object_images/note_book02.jpg","img/object_images/trumpet01.jpg","img/object_images/yoga_mat01.jpg","0","0","0","0","0","0","0.634389600018039","0.549160000053234","0.509890599991195","1","1","1","1","1","1","1","1","1"
"260071","img/object_images/yoga_mat01.jpg","img/object_images/note_book02.jpg","img/object_images/bucket01.jpg","0","0","1","0","0","1","0.509890599991195","0.634389600018039","0.607662299997173","1","1","1","1","1","1","1","1","1"
"260071","img/object_images/bucket01.jpg","img/object_images/yoga_mat01.jpg","img/object_images/Shoes05.jpg","1","0","0","1","0","0","0.607662299997173","0.509890599991195","0.588534599984996","1","1","1","1","1","1","1","1","1"
"260071","img/object_images/Shoes05.jpg","img/object_images/bucket01.jpg","img/object_images/frame01.jpg","0","1","1","0","1","1","0.588534599984996","0.607662299997173","0.805303100030869","1","1","1","1","1","1","1","1","1"
"260071","img/object_images/frame01.jpg","img/object_images/Shoes05.jpg","img/object_images/jewel02.jpg","1","0","0","1","0","0","0.805303100030869","0.588534599984996","0.531296200002544","1","1","1","1","1","1","1","1","1"
"260071","img/object_images/jewel02.jpg","img/object_images/frame01.jpg","img/object_images/ToolBag01.jpg","0","1","0","0","1","0","0.531296200002544","0.805303100030869","0.58218589995522","1","1","1","1","1","1","1","1","1"
"260071","img/object_images/ToolBag01.jpg","img/object_images/jewel02.jpg","img/object_images/bookmark01.jpg","0","0","1","0","0","0","0.58218589995522","0.531296200002544","0.729861099971458","1","1","1","1","1","1","1","1","1"
"260071","img/object_images/bookmark01.jpg","img/object_images/ToolBag01.jpg","img/object_images/TreeSlice01.jpg","1","0","0","0","0","1","0.729861099971458","0.58218589995522","0.891934599960223","1","1","1","1","1","1","1","1","1"
"260071","img/object_images/TreeSlice01.jpg","img/object_images/bookmark01.jpg","img/object_images/phone04.jpg","0","1","0","1","0","1","0.891934599960223","0.729861099971458","0.528812800068408","1","1","1","1","1","1","1","1","1"
"260071","img/object_images/phone04.jpg","img/object_images/TreeSlice01.jpg","img/object_images/water_gun01.jpg","0","0","0","1","1","1","0.528812800068408","0.891934599960223","0.694763500010595","1","1","1","1","1","1","1","1","1"
"260071","img/object_images/water_gun01.jpg","img/object_images/phone04.jpg","img/object_images/bottle06.jpg","0","0","0","1","1","0","0.694763500010595","0.528812800068408","1.03412640001625","1","1","1","1","1","1","1","1","1"
"260071","img/object_images/bottle06.jpg","img/object_images/water_gun01.jpg","img/object_images/usb03.jpg","0","0","0","0","1","0","1.03412640001625","0.694763500010595","0.578139399993233","1","1","1","1","1","1","1","1","1"
"260071","img/object_images/usb03.jpg","img/object_images/bottle06.jpg","img/object_images/belt03.jpg","0","0","0","0","0","0","0.578139399993233","1.03412640001625","0.477973000030033","1","1","1","1","1","1","1","1","1"
"260071","img/object_images/belt03.jpg","img/object_images/usb03.jpg","img/object_images/origami01.jpg","0","0","0","0","0","1","0.477973000030033","0.578139399993233","0.648792900028639","1","1","1","1","1","1","1","1","1"
"260071","img/object_images/origami01.jpg","img/object_images/belt03.jpg","img/object_images/egg_basket01.jpg","0","0","0","1","0","1","0.648792900028639","0.477973000030033","0.473482099943794","1","1","1","1","1","1","1","1","1"
"260071","img/object_images/egg_basket01.jpg","img/object_images/origami01.jpg","img/object_images/dice01.jpg","0","0","0","1","1","0","0.473482099943794","0.648792900028639","0.554725499940105","1","1","1","1","1","1","1","1","1"
"260071","img/object_images/dice01.jpg","img/object_images/egg_basket01.jpg","img/object_images/shovel01.jpg","0","0","0","0","1","0","0.554725499940105","0.473482099943794","0.514943400048651","1","1","1","1","1","1","1","1","1"
"260071","img/object_images/shovel01.jpg","img/object_images/dice01.jpg","img/object_images/headset02.jpg","0","0","0","0","0","0","0.514943400048651","0.554725499940105","0.523271100013517","1","1","1","1","1","1","1","1","1"
"260071","img/object_images/headset02.jpg","img/object_images/shovel01.jpg","img/object_images/tennis_racket01.jpg","0","0","1","0","0","1","0.523271100013517","0.514943400048651","0.519444599980488","1","1","1","1","1","1","1","1","1"
"260071","img/object_images/tennis_racket01.jpg","img/object_images/headset02.jpg","img/object_images/lock03.jpg","1","0","0","1","0","1","0.519444599980488","0.523271100013517","1.09696220001206","1","1","1","1","1","1","1","1","1"
"260071","img/object_images/lock03.jpg","img/object_images/tennis_racket01.jpg","img/object_images/Eyeliner01.jpg","0","1","1","1","1","1","1.09696220001206","0.519444599980488","0.661321999970824","1","1","1","1","1","1","1","1","1"
"260071","img/object_images/Eyeliner01.jpg","img/object_images/lock03.jpg",NA,"1","0",NA,"1","1",NA,"0.661321999970824","1.09696220001206",NA,"1","1",NA,"1","1",NA,"1","1",NA
"260071","img/object_images/Vacuum01.jpg",NA,"img/object_images/watch01.jpg","0",NA,"1","0",NA,"0",NA,NA,"1.09241139993537","0",NA,"1","0",NA,"1","0",NA,"1"
"260071","img/object_images/watch01.jpg","img/object_images/Vacuum01.jpg","img/object_images/bow01.jpg","1","0","0","0","0","1","1.09241139993537",NA,"0.675895899999887","1","0","1","1","0","1","1","0","1"
"260071","img/object_images/bow01.jpg","img/object_images/watch01.jpg","img/object_images/gauze01.jpg","0","1","1","1","0","0","0.675895899999887","1.09241139993537","0.797187200048938","1","1","1","1","1","1","1","1","2"
"260071","img/object_images/gauze01.jpg","img/object_images/bow01.jpg","img/object_images/Stool01.jpg","1","0","0","0","1","0","0.797187200048938","0.675895899999887","0.559490800020285","1","1","1","1","1","1","2","1","1"
"260071","img/object_images/Stool01.jpg","img/object_images/gauze01.jpg","img/object_images/Ring02.jpg","0","1","0","0","0","0","0.559490800020285","0.797187200048938","0.703327400027774","1","1","1","1","1","1","1","2","1"
"260071","img/object_images/Ring02.jpg","img/object_images/Stool01.jpg","img/object_images/stapler.jpg","0","0","1","0","0","1","0.703327400027774","0.559490800020285","0.574470999999903","1","1","1","1","1","1","1","1","1"
"260071","img/object_images/stapler.jpg","img/object_images/Ring02.jpg","img/object_images/toy04.jpg","1","0","0","1","0","0","0.574470999999903","0.703327400027774","1.17954510007985","1","1","1","1","1","1","1","1","1"
"260071","img/object_images/toy04.jpg","img/object_images/stapler.jpg","img/object_images/helmet01.jpg","0","1","1","0","1","0","1.17954510007985","0.574470999999903","0.601401199935935","1","1","1","1","1","1","1","1","1"
"260071","img/object_images/helmet01.jpg","img/object_images/toy04.jpg","img/object_images/acoustic_capo01.jpg","1","0","1","0","0","1","0.601401199935935","1.17954510007985","0.469220000086352","1","1","1","1","1","1","1","1","1"
"260071","img/object_images/acoustic_capo01.jpg","img/object_images/helmet01.jpg","img/object_images/guitar02.jpg","1","1","1","1","0","0","0.469220000086352","0.601401199935935","0.661202599992976","1","1","1","1","1","1","1","1","1"
"260071","img/object_images/guitar02.jpg","img/object_images/acoustic_capo01.jpg","img/object_images/video_game07.jpg","1","1","1","0","1","1","0.661202599992976","0.469220000086352","0.660353699931875","1","1","1","1","1","1","1","1","1"
"260071","img/object_images/video_game07.jpg","img/object_images/guitar02.jpg","img/object_images/jewel04.jpg","1","1","1","1","0","0","0.660353699931875","0.661202599992976","0.745714700082317","1","1","1","1","1","1","1","1","1"
"260071","img/object_images/jewel04.jpg","img/object_images/video_game07.jpg","img/object_images/fridge03.jpg","1","1","1","0","1","0","0.745714700082317","0.660353699931875","0.769037599908188","1","1","1","1","1","1","1","1","1"
"260071","img/object_images/fridge03.jpg","img/object_images/jewel04.jpg","img/object_images/toy03.jpg","1","1","0","0","0","1","0.769037599908188","0.745714700082317","0.612521399976686","1","1","1","1","1","1","1","1","1"
"260071","img/object_images/toy03.jpg","img/object_images/fridge03.jpg","img/object_images/tool09.jpg","0","1","0","1","0","1","0.612521399976686","0.769037599908188","0.748425800004043","1","1","1","1","1","1","1","1","1"
"260071","img/object_images/tool09.jpg","img/object_images/toy03.jpg","img/object_images/MetalWire01.jpg","0","0","0","1","1","0","0.748425800004043","0.612521399976686","0.855273999972269","1","1","1","1","1","1","1","1","1"
"260071","img/object_images/MetalWire01.jpg","img/object_images/tool09.jpg","img/object_images/bottle05.jpg","0","0","0","0","1","0","0.855273999972269","0.748425800004043","0.625607199966908","1","1","1","1","1","1","1","1","1"
"260071","img/object_images/bottle05.jpg","img/object_images/MetalWire01.jpg","img/object_images/outlet01.jpg","0","0","0","0","0","0","0.625607199966908","0.855273999972269","0.752417200012133","1","1","1","1","1","1","1","1","1"
"260071","img/object_images/outlet01.jpg","img/object_images/bottle05.jpg","img/object_images/sink01.jpg","0","0","0","0","0","0","0.752417200012133","0.625607199966908","0.682583099929616","1","1","1","1","1","1","1","1","1"
"260071","img/object_images/sink01.jpg","img/object_images/outlet01.jpg","img/object_images/bird_house02.jpg","0","0","0","0","0","1","0.682583099929616","0.752417200012133","0.567683900007978","1","1","1","1","1","1","1","1","1"
"260071","img/object_images/bird_house02.jpg","img/object_images/sink01.jpg","img/object_images/towel02.jpg","0","0","0","1","0","1","0.567683900007978","0.682583099929616","0.530672100023367","1","1","1","1","1","1","1","1","1"
"260071","img/object_images/towel02.jpg","img/object_images/bird_house02.jpg","img/object_images/ornament01.jpg","0","0","0","1","1","1","0.530672100023367","0.567683900007978","0.632351999985985","1","1","1","1","1","1","1","1","1"
"260071","img/object_images/ornament01.jpg","img/object_images/towel02.jpg","img/object_images/Tin01.jpg","0","0","0","1","1","1","0.632351999985985","0.530672100023367","0.541868600063026","1","1","1","1","1","1","1","1","1"
"260071","img/object_images/Tin01.jpg","img/object_images/ornament01.jpg","img/object_images/crown02.jpg","0","0","0","1","1","1","0.541868600063026","0.632351999985985","0.499556800001301","1","1","1","1","1","1","1","1","1"
"260071","img/object_images/crown02.jpg","img/object_images/Tin01.jpg","img/object_images/frisbee01.jpg","0","0","1","1","1","1","0.499556800001301","0.541868600063026","0.46336179994978","1","1","1","1","1","1","1","1","1"
"260071","img/object_images/frisbee01.jpg","img/object_images/crown02.jpg","img/object_images/pot01 (1).jpg","1","0","0","1","1","0","0.46336179994978","0.499556800001301","0.803906599991024","1","1","1","1","1","1","1","1","1"
"260071","img/object_images/pot01 (1).jpg","img/object_images/frisbee01.jpg","img/object_images/shovel03.jpg","0","1","0","0","1","1","0.803906599991024","0.46336179994978","0.533318299916573","1","1","1","1","1","1","1","1","1"
"260071","img/object_images/shovel03.jpg","img/object_images/pot01 (1).jpg","img/object_images/mirror01.jpg","0","0","0","1","0","1","0.533318299916573","0.803906599991024","0.525294899940491","1","1","1","1","1","1","1","1","1"
"260071","img/object_images/mirror01.jpg","img/object_images/shovel03.jpg","img/object_images/dart01.jpg","0","0","0","1","1","0","0.525294899940491","0.533318299916573","0.494360800017603","1","1","1","1","1","1","1","1","1"
"260071","img/object_images/dart01.jpg","img/object_images/mirror01.jpg","img/object_images/judge_gavel01.jpg","0","0","0","0","1","1","0.494360800017603","0.525294899940491","0.61316980002448","1","1","1","1","1","1","1","1","1"
"260071","img/object_images/judge_gavel01.jpg","img/object_images/dart01.jpg","img/object_images/tool02.jpg","0","0","0","1","0","1","0.61316980002448","0.494360800017603","0.55986669997219","1","1","1","1","1","1","1","1","1"
"260071","img/object_images/tool02.jpg","img/object_images/judge_gavel01.jpg",NA,"0","0",NA,"1","1",NA,"0.55986669997219","0.61316980002448",NA,"1","1",NA,"1","1",NA,"1","1",NA
"260071","img/object_images/flashlight03.jpg",NA,"img/object_images/dresser03.jpg","1",NA,"1","0",NA,"0","1.33420769998338",NA,"0.897788900067098","1",NA,"1","1",NA,"1","1",NA,"1"
"260071","img/object_images/dresser03.jpg","img/object_images/flashlight03.jpg","img/object_images/remote_controller01.jpg","1","1","1","0","0","1","0.897788900067098","1.33420769998338","0.779290999984369","1","1","1","1","1","1","1","1","1"
"260071","img/object_images/remote_controller01.jpg","img/object_images/dresser03.jpg","img/object_images/gloves02.jpg","1","1","0","1","0","0","0.779290999984369","0.897788900067098","1.07494379999116","1","1","1","1","1","1","1","1","1"
"260071","img/object_images/gloves02.jpg","img/object_images/remote_controller01.jpg","img/object_images/basket04.jpg","0","1","1","0","1","1","1.07494379999116","0.779290999984369","0.69737750000786","1","1","1","1","1","1","1","1","1"
"260071","img/object_images/basket04.jpg","img/object_images/gloves02.jpg","img/object_images/car01.jpg","1","0","1","1","0","1","0.69737750000786","1.07494379999116","0.30089750001207","1","1","1","1","1","1","1","1","1"
"260071","img/object_images/car01.jpg","img/object_images/basket04.jpg","img/object_images/phone02.jpg","1","1","1","1","1","1","0.30089750001207","0.69737750000786","0.768564399913885","1","1","1","1","1","1","1","1","1"
"260071","img/object_images/phone02.jpg","img/object_images/car01.jpg","img/object_images/kite01.jpg","1","1","1","1","1","1","0.768564399913885","0.30089750001207","0.596497199963778","1","1","1","1","1","1","1","1","1"
"260071","img/object_images/kite01.jpg","img/object_images/phone02.jpg","img/object_images/boat04.jpg","1","1","1","1","1","0","0.596497199963778","0.768564399913885","0.782127899932675","1","1","1","1","1","1","1","1","1"
"260071","img/object_images/boat04.jpg","img/object_images/kite01.jpg","img/object_images/jacket04.jpg","1","1","1","0","1","0","0.782127899932675","0.596497199963778","0.690828499966301","1","1","1","1","1","1","1","1","1"
"260071","img/object_images/jacket04.jpg","img/object_images/boat04.jpg","img/object_images/tool18.jpg","1","1","1","0","0","0","0.690828499966301","0.782127899932675","0.66924029996153","1","1","1","1","1","1","1","1","1"
"260071","img/object_images/tool18.jpg","img/object_images/jacket04.jpg","img/object_images/curtain02.jpg","1","1","1","0","0","0","0.66924029996153","0.690828499966301","0.58306099998299","1","1","1","1","1","1","1","1","1"
"260071","img/object_images/curtain02.jpg","img/object_images/tool18.jpg","img/object_images/sponge03.jpg","1","1","1","0","0","1","0.58306099998299","0.66924029996153","0.533519299933687","1","1","1","1","1","1","1","1","1"
"260071","img/object_images/sponge03.jpg","img/object_images/curtain02.jpg","img/object_images/hoverboard01.jpg","1","1","1","1","0","0","0.533519299933687","0.58306099998299","0.56888739997521","1","1","1","1","1","1","1","1","1"
"260071","img/object_images/hoverboard01.jpg","img/object_images/sponge03.jpg","img/object_images/paper_cup02.jpg","1","1","1","0","1","1","0.56888739997521","0.533519299933687","0.71159149997402","1","1","1","1","1","1","1","1","1"
"260071","img/object_images/paper_cup02.jpg","img/object_images/hoverboard01.jpg","img/object_images/blender02.jpg","1","1","1","1","0","1","0.71159149997402","0.56888739997521","0.539808499976061","1","1","1","1","1","1","1","1","1"
"260071","img/object_images/blender02.jpg","img/object_images/paper_cup02.jpg","img/object_images/keyboard02.jpg","1","1","1","1","1","1","0.539808499976061","0.71159149997402","0.539897099952213","1","1","1","1","1","1","1","1","1"
"260071","img/object_images/keyboard02.jpg","img/object_images/blender02.jpg","img/object_images/knit04.jpg","1","1","1","1","1","1","0.539897099952213","0.539808499976061","0.555191199993715","1","1","1","1","1","1","1","1","1"
"260071","img/object_images/knit04.jpg","img/object_images/keyboard02.jpg","img/object_images/camera03.jpg","1","1","1","1","1","0","0.555191199993715","0.539897099952213","0.599953700089827","1","1","1","1","1","1","1","1","1"
"260071","img/object_images/camera03.jpg","img/object_images/knit04.jpg","img/object_images/stereo02.jpg","1","1","1","0","1","0","0.599953700089827","0.555191199993715","0.527160999947228","1","1","1","1","1","1","1","1","1"
"260071","img/object_images/stereo02.jpg","img/object_images/camera03.jpg","img/object_images/knit03.jpg","1","1","1","0","0","1","0.527160999947228","0.599953700089827","0.792787300073542","1","1","1","1","1","1","1","1","1"
"260071","img/object_images/knit03.jpg","img/object_images/stereo02.jpg","img/object_images/knife02.jpg","1","1","1","1","0","0","0.792787300073542","0.527160999947228","0.629057299927808","1","1","1","1","1","1","1","1","1"
"260071","img/object_images/knife02.jpg","img/object_images/knit03.jpg","img/object_images/hand_grip_exerciser01.jpg","1","1","1","0","1","0","0.629057299927808","0.792787300073542","0.596715799998492","1","1","1","1","1","1","1","1","1"
"260071","img/object_images/hand_grip_exerciser01.jpg","img/object_images/knife02.jpg","img/object_images/backpack01.jpg","1","1","1","0","0","0","0.596715799998492","0.629057299927808","0.683716400060803","1","1","1","1","1","1","1","1","1"
"260071","img/object_images/backpack01.jpg","img/object_images/hand_grip_exerciser01.jpg","img/object_images/toy08.jpg","1","1","1","0","0","0","0.683716400060803","0.596715799998492","0.627048900001682","1","1","1","1","1","1","1","1","1"
"260071","img/object_images/toy08.jpg","img/object_images/backpack01.jpg","img/object_images/bottle07.jpg","1","1","1","0","0","1","0.627048900001682","0.683716400060803","0.955613499972969","1","1","1","1","1","1","1","1","1"
"260071","img/object_images/bottle07.jpg","img/object_images/toy08.jpg","img/object_images/mail_box01.jpg","1","1","1","1","0","0","0.955613499972969","0.627048900001682","0.552051999955438","1","1","1","1","1","1","1","1","1"
"260071","img/object_images/mail_box01.jpg","img/object_images/bottle07.jpg","img/object_images/remover01.jpg","1","1","1","0","1","1","0.552051999955438","0.955613499972969","1.35316110006534","1","1","1","1","1","1","1","1","1"
"260071","img/object_images/remover01.jpg","img/object_images/mail_box01.jpg","img/object_images/shower_head01.jpg","1","1","1","1","0","1","1.35316110006534","0.552051999955438","0.793646199977957","1","1","1","1","1","1","1","1","1"
"260071","img/object_images/shower_head01.jpg","img/object_images/remover01.jpg","img/object_images/matches02.jpg","1","1","1","1","1","0","0.793646199977957","1.35316110006534","0.536169299972244","1","1","1","1","1","1","1","1","1"
"260071","img/object_images/matches02.jpg","img/object_images/shower_head01.jpg","img/object_images/Statue01.jpg","1","1","1","0","1","1","0.536169299972244","0.793646199977957","0.869014499941841","1","1","1","1","1","1","1","1","1"
"260071","img/object_images/Statue01.jpg","img/object_images/matches02.jpg","img/object_images/video_game01.jpg","1","1","1","1","0","1","0.869014499941841","0.536169299972244","0.771827499964274","1","1","1","1","1","1","1","1","1"
"260071","img/object_images/video_game01.jpg","img/object_images/Statue01.jpg",NA,"1","1",NA,"1","1",NA,"0.771827499964274","0.869014499941841",NA,"1","1",NA,"1","1",NA,"1","1",NA
"260071","img/object_images/lemon_squeezer02.jpg",NA,"img/object_images/screwdriver01.jpg","1",NA,"1","1",NA,"0","0.848215500009246",NA,"1.51082909991965","1",NA,"1","1",NA,"1","1",NA,"1"
"260071","img/object_images/screwdriver01.jpg","img/object_images/lemon_squeezer02.jpg","img/object_images/cutting_board01.jpg","1","1","1","0","1","1","1.51082909991965","0.848215500009246","0.817518600029871","1","1","1","1","1","1","1","1","1"
"260071","img/object_images/cutting_board01.jpg","img/object_images/screwdriver01.jpg","img/object_images/yarn02.jpg","1","1","1","1","0","0","0.817518600029871","1.51082909991965","0.726405899971724","1","1","1","1","1","1","1","1","1"
"260071","img/object_images/yarn02.jpg","img/object_images/cutting_board01.jpg","img/object_images/fan05.jpg","1","1","1","0","1","0","0.726405899971724","0.817518600029871","0.530257000005804","1","1","1","1","1","1","1","1","1"
"260071","img/object_images/fan05.jpg","img/object_images/yarn02.jpg","img/object_images/MeasuringCup01.jpg","1","1","1","0","0","1","0.530257000005804","0.726405899971724","0.642100699944422","1","1","1","1","1","1","1","1","1"
"260071","img/object_images/MeasuringCup01.jpg","img/object_images/fan05.jpg","img/object_images/razor01.jpg","1","1","1","1","0","0","0.642100699944422","0.530257000005804","0.590376400039531","1","1","1","1","1","1","1","1","1"
"260071","img/object_images/razor01.jpg","img/object_images/MeasuringCup01.jpg","img/object_images/jewelry07.jpg","1","1","1","0","1","1","0.590376400039531","0.642100699944422","0.480985400034115","1","1","1","1","1","1","1","1","1"
"260071","img/object_images/jewelry07.jpg","img/object_images/razor01.jpg","img/object_images/ice_tray03.jpg","1","1","1","1","0","1","0.480985400034115","0.590376400039531","0.53811590000987","1","1","1","1","1","1","1","1","1"
"260071","img/object_images/ice_tray03.jpg","img/object_images/jewelry07.jpg","img/object_images/jewel01.jpg","1","1","1","1","1","0","0.53811590000987","0.480985400034115","0.503248300054111","1","1","1","1","1","1","1","1","1"
"260071","img/object_images/jewel01.jpg","img/object_images/ice_tray03.jpg","img/object_images/car04.jpg","1","1","1","0","1","0","0.503248300054111","0.53811590000987","0.569197100005113","1","1","1","1","1","1","1","1","1"
"260071","img/object_images/car04.jpg","img/object_images/jewel01.jpg","img/object_images/bag06.jpg","1","1","0","0","0","1","0.569197100005113","0.503248300054111","0.520318199996836","1","1","1","1","1","1","1","1","1"
"260071","img/object_images/bag06.jpg","img/object_images/car04.jpg","img/object_images/tool11.jpg","0","1","1","1","0","1","0.520318199996836","0.569197100005113","0.570216500083916","1","1","1","1","1","1","1","1","1"
"260071","img/object_images/tool11.jpg","img/object_images/bag06.jpg","img/object_images/car03.jpg","1","0","1","1","1","0","0.570216500083916","0.520318199996836","0.853453900082968","1","1","1","1","1","1","1","1","1"
"260071","img/object_images/car03.jpg","img/object_images/tool11.jpg","img/object_images/chair04.jpg","1","1","1","0","1","1","0.853453900082968","0.570216500083916","0.747860700008459","1","1","1","1","1","1","1","1","1"
"260071","img/object_images/chair04.jpg","img/object_images/car03.jpg","img/object_images/hair_brush05.jpg","1","1","1","1","0","1","0.747860700008459","0.853453900082968","0.569944999995641","1","1","1","1","1","1","1","1","1"
"260071","img/object_images/hair_brush05.jpg","img/object_images/chair04.jpg","img/object_images/rock03.jpg","1","1","0","1","1","0","0.569944999995641","0.747860700008459","0.6136753000319","1","1","1","1","1","1","1","1","1"
"260071","img/object_images/rock03.jpg","img/object_images/hair_brush05.jpg","img/object_images/binoculars03.jpg","0","1","0","0","1","1","0.6136753000319","0.569944999995641","0.793602299992926","1","1","1","1","1","1","1","1","1"
"260071","img/object_images/binoculars03.jpg","img/object_images/rock03.jpg","img/object_images/ribbon01.jpg","0","0","0","1","0","0","0.793602299992926","0.6136753000319","0.444100699969567","1","1","1","1","1","1","1","1","1"
"260071","img/object_images/ribbon01.jpg","img/object_images/binoculars03.jpg","img/object_images/mask01.jpg","0","0","1","0","1","0","0.444100699969567","0.793602299992926","0.5358459999552","1","1","1","1","1","1","1","1","1"
"260071","img/object_images/mask01.jpg","img/object_images/ribbon01.jpg","img/object_images/dress03.jpg","1","0","1","0","0","1","0.5358459999552","0.444100699969567","0.538746799924411","1","1","1","1","1","1","1","1","1"
"260071","img/object_images/dress03.jpg","img/object_images/mask01.jpg","img/object_images/key02.jpg","1","1","1","1","0","1","0.538746799924411","0.5358459999552","0.457334599923342","1","1","1","1","1","1","1","1","1"
"260071","img/object_images/key02.jpg","img/object_images/dress03.jpg","img/object_images/shower_head03.jpg","1","1","1","1","1","1","0.457334599923342","0.538746799924411","0.867225400055759","1","1","1","1","1","1","1","1","1"
"260071","img/object_images/shower_head03.jpg","img/object_images/key02.jpg","img/object_images/tv01.jpg","1","1","1","1","1","0","0.867225400055759","0.457334599923342","0.560983000090346","1","1","1","1","1","1","1","1","1"
"260071","img/object_images/tv01.jpg","img/object_images/shower_head03.jpg","img/object_images/slinky_toy01.jpg","1","1","1","0","1","1","0.560983000090346","0.867225400055759","0.857272199937142","1","1","1","1","1","1","1","1","1"
"260071","img/object_images/slinky_toy01.jpg","img/object_images/tv01.jpg","img/object_images/shoes10.jpg","1","1","1","1","0","0","0.857272199937142","0.560983000090346","0.739949000068009","1","1","1","1","1","1","1","1","1"
"260071","img/object_images/shoes10.jpg","img/object_images/slinky_toy01.jpg","img/object_images/satellite01.jpg","1","1","1","0","1","0","0.739949000068009","0.857272199937142","0.670327199972235","1","1","1","1","1","1","1","1","1"
"260071","img/object_images/satellite01.jpg","img/object_images/shoes10.jpg","img/object_images/ladle02.jpg","1","1","1","0","0","0","0.670327199972235","0.739949000068009","0.675008999998681","1","1","1","1","1","1","1","1","1"
"260071","img/object_images/ladle02.jpg","img/object_images/satellite01.jpg","img/object_images/cards01.jpg","1","1","1","0","0","0","0.675008999998681","0.670327199972235","0.659259899985045","1","1","1","1","1","1","1","1","1"
"260071","img/object_images/cards01.jpg","img/object_images/ladle02.jpg","img/object_images/toaster02.jpg","1","1","1","0","0","1","0.659259899985045","0.675008999998681","0.52037540008314","1","1","1","1","1","1","1","1","1"
"260071","img/object_images/toaster02.jpg","img/object_images/cards01.jpg","img/object_images/belt01.jpg","1","1","1","1","0","0","0.52037540008314","0.659259899985045","0.646917099948041","1","1","1","1","1","1","1","1","1"
"260071","img/object_images/belt01.jpg","img/object_images/toaster02.jpg","img/object_images/WitchHat02.jpg","1","1","1","0","1","1","0.646917099948041","0.52037540008314","1.08568610006478","1","1","1","1","1","1","1","1","1"
"260071","img/object_images/WitchHat02.jpg","img/object_images/belt01.jpg",NA,"1","1",NA,"1","0",NA,"1.08568610006478","0.646917099948041",NA,"1","1",NA,"1","1",NA,"1","1",NA
"260071","img/object_images/sink_filter01 (1).jpg",NA,"img/object_images/tool20.jpg","0",NA,"0","0",NA,"0","0.751145699992776",NA,"0.894372799899429","1",NA,"1","1",NA,"1","1",NA,"1"
"260071","img/object_images/tool20.jpg","img/object_images/sink_filter01 (1).jpg","img/object_images/floss01.jpg","0","0","0","0","0","1","0.894372799899429","0.751145699992776","0.983506700024009","1","1","1","1","1","1","1","1","1"
"260071","img/object_images/floss01.jpg","img/object_images/tool20.jpg","img/object_images/office_supplies01.jpg","0","0","1","1","0","1","0.983506700024009","0.894372799899429","0.745600100024603","1","1","1","1","1","1","1","1","1"
"260071","img/object_images/office_supplies01.jpg","img/object_images/floss01.jpg","img/object_images/hat13.jpg","1","0","0","1","1","1","0.745600100024603","0.983506700024009","0.706092800013721","1","1","1","1","1","1","1","1","1"
"260071","img/object_images/hat13.jpg","img/object_images/office_supplies01.jpg","img/object_images/board01.jpg","0","1","0","1","1","1","0.706092800013721","0.745600100024603","0.732334299944341","1","1","1","1","1","1","1","1","1"
"260071","img/object_images/board01.jpg","img/object_images/hat13.jpg","img/object_images/knife01.jpg","0","0","1","1","1","1","0.732334299944341","0.706092800013721","0.509272399940528","1","1","1","1","1","1","1","1","1"
"260071","img/object_images/knife01.jpg","img/object_images/board01.jpg","img/object_images/bag04.jpg","1","0","0","1","1","0","0.509272399940528","0.732334299944341","0.718183499993756","1","1","1","1","1","1","1","1","1"
"260071","img/object_images/bag04.jpg","img/object_images/knife01.jpg","img/object_images/pan03.jpg","0","1","0","0","1","1","0.718183499993756","0.509272399940528","0.809979200013913","1","1","1","1","1","1","1","1","1"
"260071","img/object_images/pan03.jpg","img/object_images/bag04.jpg","img/object_images/duster01.jpg","0","0","0","1","0","0","0.809979200013913","0.718183499993756","0.522555299918167","1","1","1","1","1","1","1","1","1"
"260071","img/object_images/duster01.jpg","img/object_images/pan03.jpg","img/object_images/hammer02.jpg","0","0","1","0","1","0","0.522555299918167","0.809979200013913","0.604063899954781","1","1","1","1","1","1","1","1","2"
"260071","img/object_images/hammer02.jpg","img/object_images/duster01.jpg","img/object_images/Confetti 01.jpg","1","0","0","0","0","0","0.604063899954781","0.522555299918167","0.829943099990487","1","1","1","1","1","1","2","1","1"
"260071","img/object_images/Confetti 01.jpg","img/object_images/hammer02.jpg","img/object_images/camera05.jpg","0","1","0","0","0","0","0.829943099990487","0.604063899954781","0.713397499988787","1","1","1","1","1","1","1","2","1"
"260071","img/object_images/camera05.jpg","img/object_images/Confetti 01.jpg","img/object_images/lemon_squeezer01.jpg","0","0","0","0","0","1","0.713397499988787","0.829943099990487","0.547177899978124","1","1","1","1","1","1","1","1","1"
"260071","img/object_images/lemon_squeezer01.jpg","img/object_images/camera05.jpg","img/object_images/bow_tie03.jpg","0","0","0","1","0","1","0.547177899978124","0.713397499988787","0.636307300068438","1","1","1","1","1","1","1","1","1"
"260071","img/object_images/bow_tie03.jpg","img/object_images/lemon_squeezer01.jpg","img/object_images/sign02.jpg","0","0","1","1","1","0","0.636307300068438","0.547177899978124","0.594102600007318","1","1","1","1","1","1","1","1","1"
"260071","img/object_images/sign02.jpg","img/object_images/bow_tie03.jpg","img/object_images/socks01.jpg","1","0","0","0","1","1","0.594102600007318","0.636307300068438","1.0479385999497","1","1","1","1","1","1","1","1","1"
"260071","img/object_images/socks01.jpg","img/object_images/sign02.jpg","img/object_images/cup01.jpg","0","1","1","1","0","0","1.0479385999497","0.594102600007318","0.532758799963631","1","1","1","1","1","1","1","1","1"
"260071","img/object_images/cup01.jpg","img/object_images/socks01.jpg","img/object_images/perfume01.jpg","1","0","1","0","1","0","0.532758799963631","1.0479385999497","0.280569799942896","1","1","1","1","1","1","1","1","1"
"260071","img/object_images/perfume01.jpg","img/object_images/cup01.jpg","img/object_images/ruler02.jpg","1","1","1","0","0","1","0.280569799942896","0.532758799963631","0.680576400016434","1","1","1","1","1","1","1","1","1"
"260071","img/object_images/ruler02.jpg","img/object_images/perfume01.jpg","img/object_images/glasses03.jpg","1","1","0","1","0","0","0.680576400016434","0.280569799942896","0.763602599967271","1","1","1","1","1","1","1","1","1"
"260071","img/object_images/glasses03.jpg","img/object_images/ruler02.jpg","img/object_images/razor02.jpg","0","1","1","0","1","1","0.763602599967271","0.680576400016434","0.592623900040053","1","1","1","1","1","1","1","1","1"
"260071","img/object_images/razor02.jpg","img/object_images/glasses03.jpg","img/object_images/tool13.jpg","1","0","1","1","0","1","0.592623900040053","0.763602599967271","0.33874489995651","1","1","1","1","1","1","1","1","1"
"260071","img/object_images/tool13.jpg","img/object_images/razor02.jpg","img/object_images/clipboard01.jpg","1","1","0","1","1","1","0.33874489995651","0.592623900040053","0.677101899986155","1","1","1","1","1","1","1","1","1"
"260071","img/object_images/clipboard01.jpg","img/object_images/tool13.jpg","img/object_images/dust_pan01.jpg","0","1","0","1","1","1","0.677101899986155","0.33874489995651","0.912921700044535","1","1","1","1","1","1","1","1","1"
"260071","img/object_images/dust_pan01.jpg","img/object_images/clipboard01.jpg","img/object_images/Candle_Holder01.jpg","0","0","1","1","1","0","0.912921700044535","0.677101899986155","0.863576699979603","1","1","1","1","1","1","1","1","1"
"260071","img/object_images/Candle_Holder01.jpg","img/object_images/dust_pan01.jpg","img/object_images/vase02.jpg","1","0","0","0","1","1","0.863576699979603","0.912921700044535","1.00372839998454","1","1","1","1","1","1","1","1","1"
"260071","img/object_images/vase02.jpg","img/object_images/Candle_Holder01.jpg","img/object_images/spray_can01.jpg","0","1","1","1","0","0","1.00372839998454","0.863576699979603","0.753646499942988","1","1","1","1","1","1","1","1","1"
"260071","img/object_images/spray_can01.jpg","img/object_images/vase02.jpg","img/object_images/candle02.jpg","1","0","1","0","1","0","0.753646499942988","1.00372839998454","0.742837199941278","1","1","1","1","1","1","1","1","1"
"260071","img/object_images/candle02.jpg","img/object_images/spray_can01.jpg","img/object_images/pen06.jpg","1","1","1","0","0","0","0.742837199941278","0.753646499942988","0.437874800059944","1","1","1","1","1","1","1","1","1"
"260071","img/object_images/pen06.jpg","img/object_images/candle02.jpg","img/object_images/video_game02.jpg","1","1","0","0","0","1","0.437874800059944","0.742837199941278","0.550567399943247","1","1","1","1","1","1","1","1","1"
"260071","img/object_images/video_game02.jpg","img/object_images/pen06.jpg","img/object_images/hat09.jpg","0","1","0","1","0","0","0.550567399943247","0.437874800059944","0.419209399959072","1","1","1","1","1","1","1","1","1"
"260071","img/object_images/hat09.jpg","img/object_images/video_game02.jpg",NA,"0","0",NA,"0","1",NA,"0.419209399959072","0.550567399943247",NA,"1","1",NA,"1","1",NA,"1","1",NA
