"participant_id","current_trial_object","pre_trial_object","post_trial_object","current_trial_accuracy","pre_trial_accuracy","post_trial_accuracy","current_trial_congruency","pre_trial_congruency","post_trial_congruency","current_trial_rt","pre_trial_rt","post_trial_rt","current_trial_responded","pre_trial_responded","post_trial_responded","current_trial_legitResponse","pre_trial_legitResponse","post_trial_legitResponse","current_trial_resp_nums","pre_trial_resp_nums","post_trial_resp_nums"
"260001","img/object_images/car03.jpg",NA,"img/object_images/jewel01.jpg","1",NA,"1","0",NA,"0","0.64261950016953",NA,"0.548104800051078","1",NA,"1","1",NA,"1","1",NA,"1"
"260001","img/object_images/jewel01.jpg","img/object_images/car03.jpg","img/object_images/bag06.jpg","1","1","1","0","0","1","0.548104800051078","0.64261950016953","0.650304900249466","1","1","1","1","1","1","1","1","1"
"260001","img/object_images/bag06.jpg","img/object_images/jewel01.jpg","img/object_images/screwdriver01.jpg","1","1","1","1","0","0","0.650304900249466","0.548104800051078","0.520039699971676","1","1","1","1","1","1","1","1","1"
"260001","img/object_images/screwdriver01.jpg","img/object_images/bag06.jpg","img/object_images/shower_head03.jpg","1","1","1","0","1","1","0.520039699971676","0.650304900249466","0.45058840024285","1","1","1","1","1","1","1","1","1"
"260001","img/object_images/shower_head03.jpg","img/object_images/screwdriver01.jpg","img/object_images/satellite01.jpg","1","1","1","1","0","0","0.45058840024285","0.520039699971676","0.489833600120619","1","1","1","1","1","1","1","1","1"
"260001","img/object_images/satellite01.jpg","img/object_images/shower_head03.jpg","img/object_images/hair_brush05.jpg","1","1","1","0","1","1","0.489833600120619","0.45058840024285","0.521844300208613","1","1","1","1","1","1","1","1","1"
"260001","img/object_images/hair_brush05.jpg","img/object_images/satellite01.jpg","img/object_images/tool11.jpg","1","1","1","1","0","1","0.521844300208613","0.489833600120619","0.542053600074723","1","1","1","1","1","1","1","1","1"
"260001","img/object_images/tool11.jpg","img/object_images/hair_brush05.jpg","img/object_images/car04.jpg","1","1","1","1","1","0","0.542053600074723","0.521844300208613","0.480846600141376","1","1","1","1","1","1","1","1","1"
"260001","img/object_images/car04.jpg","img/object_images/tool11.jpg","img/object_images/mask01.jpg","1","1","1","0","1","0","0.480846600141376","0.542053600074723","0.451798700261861","1","1","1","1","1","1","1","1","1"
"260001","img/object_images/mask01.jpg","img/object_images/car04.jpg","img/object_images/chair04.jpg","1","1","1","0","0","1","0.451798700261861","0.480846600141376","0.413190100109205","1","1","1","1","1","1","1","1","1"
"260001","img/object_images/chair04.jpg","img/object_images/mask01.jpg","img/object_images/jewelry07.jpg","1","1","1","1","0","1","0.413190100109205","0.451798700261861","0.577002099948004","1","1","1","1","1","1","1","1","1"
"260001","img/object_images/jewelry07.jpg","img/object_images/chair04.jpg","img/object_images/slinky_toy01.jpg","1","1","1","1","1","1","0.577002099948004","0.413190100109205","0.407775000203401","1","1","1","1","1","1","1","1","1"
"260001","img/object_images/slinky_toy01.jpg","img/object_images/jewelry07.jpg","img/object_images/WitchHat02.jpg","1","1","1","1","1","1","0.407775000203401","0.577002099948004","0.473778699990362","1","1","1","1","1","1","1","1","1"
"260001","img/object_images/WitchHat02.jpg","img/object_images/slinky_toy01.jpg","img/object_images/ladle02.jpg","1","1","1","1","1","0","0.473778699990362","0.407775000203401","0.417992700124159","1","1","1","1","1","1","1","1","1"
"260001","img/object_images/ladle02.jpg","img/object_images/WitchHat02.jpg","img/object_images/lemon_squeezer02.jpg","1","1","1","0","1","1","0.417992700124159","0.473778699990362","0.464237000094727","1","1","1","1","1","1","1","1","1"
"260001","img/object_images/lemon_squeezer02.jpg","img/object_images/ladle02.jpg","img/object_images/ice_tray03.jpg","1","1","1","1","0","1","0.464237000094727","0.417992700124159","0.488875700160861","1","1","1","1","1","1","1","1","1"
"260001","img/object_images/ice_tray03.jpg","img/object_images/lemon_squeezer02.jpg","img/object_images/belt01.jpg","1","1","1","1","1","0","0.488875700160861","0.464237000094727","0.40442689997144","1","1","1","1","1","1","1","1","1"
"260001","img/object_images/belt01.jpg","img/object_images/ice_tray03.jpg","img/object_images/ribbon01.jpg","1","1","1","0","1","0","0.40442689997144","0.488875700160861","0.419032300123945","1","1","1","1","1","1","1","1","1"
"260001","img/object_images/ribbon01.jpg","img/object_images/belt01.jpg","img/object_images/binoculars03.jpg","1","1","1","0","0","1","0.419032300123945","0.40442689997144","0.485065700020641","1","1","1","1","1","1","1","1","1"
"260001","img/object_images/binoculars03.jpg","img/object_images/ribbon01.jpg","img/object_images/tv01.jpg","1","1","1","1","0","0","0.485065700020641","0.419032300123945","0.467103500152007","1","1","1","1","1","1","1","1","1"
"260001","img/object_images/tv01.jpg","img/object_images/binoculars03.jpg","img/object_images/razor01.jpg","1","1","1","0","1","0","0.467103500152007","0.485065700020641","0.41376020014286","1","1","1","1","1","1","1","1","1"
"260001","img/object_images/razor01.jpg","img/object_images/tv01.jpg","img/object_images/shoes10.jpg","1","1","1","0","0","0","0.41376020014286","0.467103500152007","0.550613300176337","1","1","1","1","1","1","1","1","1"
"260001","img/object_images/shoes10.jpg","img/object_images/razor01.jpg","img/object_images/toaster02.jpg","1","1","1","0","0","1","0.550613300176337","0.41376020014286","0.562601400073618","1","1","1","1","1","1","1","1","1"
"260001","img/object_images/toaster02.jpg","img/object_images/shoes10.jpg","img/object_images/rock03.jpg","1","1","1","1","0","0","0.562601400073618","0.550613300176337","0.525480500189587","1","1","1","1","1","1","1","1","1"
"260001","img/object_images/rock03.jpg","img/object_images/toaster02.jpg","img/object_images/key02.jpg","1","1","1","0","1","1","0.525480500189587","0.562601400073618","0.438059700187296","1","1","1","1","1","1","1","1","1"
"260001","img/object_images/key02.jpg","img/object_images/rock03.jpg","img/object_images/MeasuringCup01.jpg","1","1","1","1","0","1","0.438059700187296","0.525480500189587","0.420886700274423","1","1","1","1","1","1","1","1","1"
"260001","img/object_images/MeasuringCup01.jpg","img/object_images/key02.jpg","img/object_images/yarn02.jpg","1","1","1","1","1","0","0.420886700274423","0.438059700187296","0.481973400106654","1","1","1","1","1","1","1","1","1"
"260001","img/object_images/yarn02.jpg","img/object_images/MeasuringCup01.jpg","img/object_images/fan05.jpg","1","1","1","0","1","0","0.481973400106654","0.420886700274423","0.498072300106287","1","1","1","1","1","1","1","1","1"
"260001","img/object_images/fan05.jpg","img/object_images/yarn02.jpg","img/object_images/dress03.jpg","1","1","1","0","0","1","0.498072300106287","0.481973400106654","0.424158000154421","1","1","1","1","1","1","1","1","1"
"260001","img/object_images/dress03.jpg","img/object_images/fan05.jpg","img/object_images/cards01.jpg","1","1","1","1","0","0","0.424158000154421","0.498072300106287","0.564276900142431","1","1","1","1","1","1","1","1","1"
"260001","img/object_images/cards01.jpg","img/object_images/dress03.jpg","img/object_images/cutting_board01.jpg","1","1","1","0","1","1","0.564276900142431","0.424158000154421","0.794024200178683","1","1","1","1","1","1","1","1","1"
"260001","img/object_images/cutting_board01.jpg","img/object_images/cards01.jpg",NA,"1","1",NA,"1","0",NA,"0.794024200178683","0.564276900142431",NA,"1","1",NA,"1","1",NA,"1","1",NA
"260001","img/object_images/Stool01.jpg",NA,"img/object_images/Vacuum01.jpg","1",NA,"1","0",NA,"0","0.724370900075883",NA,"0.347902900073677","1",NA,"1","1",NA,"1","1",NA,"1"
"260001","img/object_images/Vacuum01.jpg","img/object_images/Stool01.jpg","img/object_images/frisbee01.jpg","1","1","1","0","0","1","0.347902900073677","0.724370900075883","0.524797100108117","1","1","1","1","1","1","1","1","1"
"260001","img/object_images/frisbee01.jpg","img/object_images/Vacuum01.jpg","img/object_images/tool02.jpg","1","1","1","1","0","1","0.524797100108117","0.347902900073677","0.320445500081405","1","1","1","1","1","1","1","1","1"
"260001","img/object_images/tool02.jpg","img/object_images/frisbee01.jpg","img/object_images/pot01 (1).jpg","1","1","0","1","1","0","0.320445500081405","0.524797100108117","0.35379570000805","1","1","1","1","1","1","1","1","1"
"260001","img/object_images/pot01 (1).jpg","img/object_images/tool02.jpg","img/object_images/mirror01.jpg","0","1","1","0","1","1","0.35379570000805","0.320445500081405","0.488060400122777","1","1","1","1","1","1","1","1","1"
"260001","img/object_images/mirror01.jpg","img/object_images/pot01 (1).jpg","img/object_images/jewel04.jpg","1","0","1","1","0","0","0.488060400122777","0.35379570000805","0.379931400064379","1","1","1","1","1","1","1","1","1"
"260001","img/object_images/jewel04.jpg","img/object_images/mirror01.jpg","img/object_images/watch01.jpg","1","1","0","0","1","0","0.379931400064379","0.488060400122777","0.368090500123799","1","1","1","1","1","1","1","1","1"
"260001","img/object_images/watch01.jpg","img/object_images/jewel04.jpg","img/object_images/bottle05.jpg","0","1","1","0","0","0","0.368090500123799","0.379931400064379","0.557226800126955","1","1","1","1","1","1","1","1","1"
"260001","img/object_images/bottle05.jpg","img/object_images/watch01.jpg","img/object_images/crown02.jpg","1","0","1","0","0","1","0.557226800126955","0.368090500123799","0.286586500005796","1","1","1","1","1","1","1","1","1"
"260001","img/object_images/crown02.jpg","img/object_images/bottle05.jpg","img/object_images/Ring02.jpg","1","1","1","1","0","0","0.286586500005796","0.557226800126955","0.441187900025398","1","1","1","1","1","1","1","1","1"
"260001","img/object_images/Ring02.jpg","img/object_images/crown02.jpg","img/object_images/video_game07.jpg","1","1","1","0","1","1","0.441187900025398","0.286586500005796","0.434559700079262","1","1","1","1","1","1","1","1","1"
"260001","img/object_images/video_game07.jpg","img/object_images/Ring02.jpg","img/object_images/tool09.jpg","1","1","1","1","0","1","0.434559700079262","0.441187900025398","0.405567700043321","1","1","1","1","1","1","1","1","1"
"260001","img/object_images/tool09.jpg","img/object_images/video_game07.jpg","img/object_images/ornament01.jpg","1","1","1","1","1","1","0.405567700043321","0.434559700079262","0.409913400188088","1","1","1","1","1","1","1","1","1"
"260001","img/object_images/ornament01.jpg","img/object_images/tool09.jpg","img/object_images/bow01.jpg","1","1","1","1","1","1","0.409913400188088","0.405567700043321","0.34007090004161","1","1","1","1","1","1","1","1","1"
"260001","img/object_images/bow01.jpg","img/object_images/ornament01.jpg","img/object_images/MetalWire01.jpg","1","1","1","1","1","0","0.34007090004161","0.409913400188088","0.393727000104263","1","1","1","1","1","1","1","1","2"
"260001","img/object_images/MetalWire01.jpg","img/object_images/bow01.jpg","img/object_images/bird_house02.jpg","1","1","1","0","1","1","0.393727000104263","0.34007090004161","0.437307800166309","1","1","1","1","1","1","2","1","1"
"260001","img/object_images/bird_house02.jpg","img/object_images/MetalWire01.jpg","img/object_images/outlet01.jpg","1","1","1","1","0","0","0.437307800166309","0.393727000104263","0.380372300045565","1","1","1","1","1","1","1","2","1"
"260001","img/object_images/outlet01.jpg","img/object_images/bird_house02.jpg","img/object_images/fridge03.jpg","1","1","1","0","1","0","0.380372300045565","0.437307800166309","0.420192600227892","1","1","1","1","1","1","1","1","1"
"260001","img/object_images/fridge03.jpg","img/object_images/outlet01.jpg","img/object_images/dart01.jpg","1","1","1","0","0","0","0.420192600227892","0.380372300045565","0.427195000229403","1","1","1","1","1","1","1","1","1"
"260001","img/object_images/dart01.jpg","img/object_images/fridge03.jpg","img/object_images/shovel03.jpg","1","1","1","0","0","1","0.427195000229403","0.420192600227892","0.46427800017409","1","1","1","1","1","1","1","1","1"
"260001","img/object_images/shovel03.jpg","img/object_images/dart01.jpg","img/object_images/helmet01.jpg","1","1","1","1","0","0","0.46427800017409","0.427195000229403","0.395554900169373","1","1","1","1","1","1","1","1","1"
"260001","img/object_images/helmet01.jpg","img/object_images/shovel03.jpg","img/object_images/guitar02.jpg","1","1","0","0","1","0","0.395554900169373","0.46427800017409","0.377515900181606","1","1","1","1","1","1","1","1","2"
"260001","img/object_images/guitar02.jpg","img/object_images/helmet01.jpg","img/object_images/towel02.jpg","0","1","1","0","0","1","0.377515900181606","0.395554900169373","0.397487700218335","1","1","1","1","1","1","2","1","1"
"260001","img/object_images/towel02.jpg","img/object_images/guitar02.jpg","img/object_images/toy03.jpg","1","0","1","1","0","1","0.397487700218335","0.377515900181606","0.533282699994743","1","1","1","1","1","1","1","2","1"
"260001","img/object_images/toy03.jpg","img/object_images/towel02.jpg","img/object_images/judge_gavel01.jpg","1","1","1","1","1","1","0.533282699994743","0.397487700218335","0.403540100203827","1","1","1","1","1","1","1","1","1"
"260001","img/object_images/judge_gavel01.jpg","img/object_images/toy03.jpg","img/object_images/toy04.jpg","1","1","1","1","1","0","0.403540100203827","0.533282699994743","0.537162400083616","1","1","1","1","1","1","1","1","1"
"260001","img/object_images/toy04.jpg","img/object_images/judge_gavel01.jpg","img/object_images/Tin01.jpg","1","1","1","0","1","1","0.537162400083616","0.403540100203827","0.388100800104439","1","1","1","1","1","1","1","1","1"
"260001","img/object_images/Tin01.jpg","img/object_images/toy04.jpg","img/object_images/sink01.jpg","1","1","1","1","0","0","0.388100800104439","0.537162400083616","0.469295600196347","1","1","1","1","1","1","1","1","1"
"260001","img/object_images/sink01.jpg","img/object_images/Tin01.jpg","img/object_images/gauze01.jpg","1","1","1","0","1","0","0.469295600196347","0.388100800104439","0.402327500283718","1","1","1","1","1","1","1","1","1"
"260001","img/object_images/gauze01.jpg","img/object_images/sink01.jpg","img/object_images/acoustic_capo01.jpg","1","1","1","0","0","1","0.402327500283718","0.469295600196347","0.385686500230804","1","1","1","1","1","1","1","1","1"
"260001","img/object_images/acoustic_capo01.jpg","img/object_images/gauze01.jpg","img/object_images/stapler.jpg","1","1","1","1","0","1","0.385686500230804","0.402327500283718","0.389597699977458","1","1","1","1","1","1","1","1","1"
"260001","img/object_images/stapler.jpg","img/object_images/acoustic_capo01.jpg",NA,"1","1",NA,"1","1",NA,"0.389597699977458","0.385686500230804",NA,"1","1",NA,"1","1",NA,"1","1",NA
"260001","img/object_images/couch01.jpg",NA,"img/object_images/skate_board01.jpg","0",NA,"1","0",NA,"0","0.877871700329706",NA,"0.40404920023866","1",NA,"1","1",NA,"1","1",NA,"1"
"260001","img/object_images/skate_board01.jpg","img/object_images/couch01.jpg","img/object_images/Trowel01.jpg","1","0","0","0","0","0","0.40404920023866","0.877871700329706","0.529831000138074","1","1","1","1","1","1","1","1","1"
"260001","img/object_images/Trowel01.jpg","img/object_images/skate_board01.jpg","img/object_images/pen01.jpg","0","1","1","0","0","0","0.529831000138074","0.40404920023866","0.426570900017396","1","1","1","1","1","1","1","1","1"
"260001","img/object_images/pen01.jpg","img/object_images/Trowel01.jpg","img/object_images/drone01.jpg","1","0","1","0","0","1","0.426570900017396","0.529831000138074","0.376116700004786","1","1","1","1","1","1","1","1","1"
"260001","img/object_images/drone01.jpg","img/object_images/pen01.jpg","img/object_images/mail_box02.jpg","1","1","1","1","0","1","0.376116700004786","0.426570900017396","0.373486500233412","1","1","1","1","1","1","1","1","1"
"260001","img/object_images/mail_box02.jpg","img/object_images/drone01.jpg","img/object_images/scarf01.jpg","1","1","1","1","1","1","0.373486500233412","0.376116700004786","0.351682600099593","1","1","1","1","1","1","1","1","1"
"260001","img/object_images/scarf01.jpg","img/object_images/mail_box02.jpg","img/object_images/clip04.jpg","1","1","1","1","1","1","0.351682600099593","0.373486500233412","0.292829100042582","1","1","1","1","1","1","1","1","1"
"260001","img/object_images/clip04.jpg","img/object_images/scarf01.jpg","img/object_images/shoes12.jpg","1","1","1","1","1","1","0.292829100042582","0.351682600099593","0.317345600109547","1","1","1","1","1","1","1","1","1"
"260001","img/object_images/shoes12.jpg","img/object_images/clip04.jpg","img/object_images/tool06.jpg","1","1","1","1","1","0","0.317345600109547","0.292829100042582","0.365241900319234","1","1","1","1","1","1","1","1","1"
"260001","img/object_images/tool06.jpg","img/object_images/shoes12.jpg","img/object_images/pitcher09.jpg","1","1","1","0","1","1","0.365241900319234","0.317345600109547","0.330889000091702","1","1","1","1","1","1","1","1","1"
"260001","img/object_images/pitcher09.jpg","img/object_images/tool06.jpg","img/object_images/book02.jpg","1","1","1","1","0","1","0.330889000091702","0.365241900319234","0.336249500280246","1","1","1","1","1","1","1","1","1"
"260001","img/object_images/book02.jpg","img/object_images/pitcher09.jpg","img/object_images/blender01.jpg","1","1","0","1","1","0","0.336249500280246","0.330889000091702","0.255922800162807","1","1","1","1","1","1","1","1","1"
"260001","img/object_images/blender01.jpg","img/object_images/book02.jpg","img/object_images/chair06.jpg","0","1","0","0","1","0","0.255922800162807","0.336249500280246","0.45374790020287","1","1","1","1","1","1","1","1","1"
"260001","img/object_images/chair06.jpg","img/object_images/blender01.jpg","img/object_images/Violin01.jpg","0","0","1","0","0","0","0.45374790020287","0.255922800162807","0.412226600106806","1","1","1","1","1","1","1","1","1"
"260001","img/object_images/Violin01.jpg","img/object_images/chair06.jpg","img/object_images/egg_slicer01.jpg","1","0","1","0","0","1","0.412226600106806","0.45374790020287","0.408633000217378","1","1","1","1","1","1","1","1","1"
"260001","img/object_images/egg_slicer01.jpg","img/object_images/Violin01.jpg","img/object_images/chain01.jpg","1","1","1","1","0","0","0.408633000217378","0.412226600106806","0.336856000125408","1","1","1","1","1","1","1","1","1"
"260001","img/object_images/chain01.jpg","img/object_images/egg_slicer01.jpg","img/object_images/airfryer02.jpg","1","1","1","0","1","1","0.336856000125408","0.408633000217378","0.319841700140387","1","1","1","1","1","1","1","1","1"
"260001","img/object_images/airfryer02.jpg","img/object_images/chain01.jpg","img/object_images/computer_mouse01.jpg","1","1","1","1","0","1","0.319841700140387","0.336856000125408","0.371493900194764","1","1","1","1","1","1","1","1","1"
"260001","img/object_images/computer_mouse01.jpg","img/object_images/airfryer02.jpg","img/object_images/bag_pipes01.jpg","1","1","1","1","1","1","0.371493900194764","0.319841700140387","0.332119500031695","1","1","1","1","1","1","1","1","1"
"260001","img/object_images/bag_pipes01.jpg","img/object_images/computer_mouse01.jpg","img/object_images/fork02.jpg","1","1","1","1","1","0","0.332119500031695","0.371493900194764","0.394387500127778","1","1","1","1","1","1","1","1","1"
"260001","img/object_images/fork02.jpg","img/object_images/bag_pipes01.jpg","img/object_images/toy01.jpg","1","1","1","0","1","1","0.394387500127778","0.332119500031695","0.346281300066039","1","1","1","1","1","1","1","1","1"
"260001","img/object_images/toy01.jpg","img/object_images/fork02.jpg","img/object_images/box03.jpg","1","1","1","1","0","0","0.346281300066039","0.394387500127778","0.485343700274825","1","1","1","1","1","1","1","1","1"
"260001","img/object_images/box03.jpg","img/object_images/toy01.jpg","img/object_images/bell03.jpg","1","1","1","0","1","0","0.485343700274825","0.346281300066039","0.392377600073814","1","1","1","1","1","1","1","1","1"
"260001","img/object_images/bell03.jpg","img/object_images/box03.jpg","img/object_images/toothbrush01.jpg","1","1","0","0","0","0","0.392377600073814","0.485343700274825","0.345852000173181","1","1","1","1","1","1","1","1","1"
"260001","img/object_images/toothbrush01.jpg","img/object_images/bell03.jpg","img/object_images/hair_brush01.jpg","0","1","1","0","0","1","0.345852000173181","0.392377600073814","0.826628900133073","1","1","1","1","1","1","1","1","1"
"260001","img/object_images/hair_brush01.jpg","img/object_images/toothbrush01.jpg","img/object_images/floss02.jpg","1","0","0","1","0","1","0.826628900133073","0.345852000173181","0.416289600078017","1","1","1","1","1","1","1","1","1"
"260001","img/object_images/floss02.jpg","img/object_images/hair_brush01.jpg","img/object_images/video_game03.jpg","0","1","1","1","1","1","0.416289600078017","0.826628900133073","0.498978100251406","1","1","1","1","1","1","1","1","1"
"260001","img/object_images/video_game03.jpg","img/object_images/floss02.jpg","img/object_images/tripod01.jpg","1","0","1","1","1","1","0.498978100251406","0.416289600078017","0.421146100154147","1","1","1","1","1","1","1","1","1"
"260001","img/object_images/tripod01.jpg","img/object_images/video_game03.jpg","img/object_images/computer_mouse02.jpg","1","1","1","1","1","0","0.421146100154147","0.498978100251406","0.43256020010449","1","1","1","1","1","1","1","1","1"
"260001","img/object_images/computer_mouse02.jpg","img/object_images/tripod01.jpg","img/object_images/soap03.jpg","1","1","0","0","1","0","0.43256020010449","0.421146100154147","0.428957999916747","1","1","1","1","1","1","1","1","1"
"260001","img/object_images/soap03.jpg","img/object_images/computer_mouse02.jpg","img/object_images/rock02.jpg","0","1","1","0","0","0","0.428957999916747","0.43256020010449","0.371481500100344","1","1","1","1","1","1","1","1","1"
"260001","img/object_images/rock02.jpg","img/object_images/soap03.jpg",NA,"1","0",NA,"0","0",NA,"0.371481500100344","0.428957999916747",NA,"1","1",NA,"1","1",NA,"1","1",NA
"260001","img/object_images/jewel02.jpg",NA,"img/object_images/belt03.jpg","0",NA,"1","0",NA,"0","0.696626200107858",NA,"0.473788600182161","1",NA,"1","1",NA,"1","1",NA,"1"
"260001","img/object_images/belt03.jpg","img/object_images/jewel02.jpg","img/object_images/helmet03.jpg","1","0","1","0","0","1","0.473788600182161","0.696626200107858","0.462440800154582","1","1","1","1","1","1","1","1","1"
"260001","img/object_images/helmet03.jpg","img/object_images/belt03.jpg","img/object_images/bookmark01.jpg","1","1","1","1","0","0","0.462440800154582","0.473788600182161","0.418522499967366","1","1","1","1","1","1","1","1","1"
"260001","img/object_images/bookmark01.jpg","img/object_images/helmet03.jpg","img/object_images/water_gun01.jpg","1","1","1","0","1","1","0.418522499967366","0.462440800154582","0.430167300160974","1","1","1","1","1","1","1","1","1"
"260001","img/object_images/water_gun01.jpg","img/object_images/bookmark01.jpg","img/object_images/lock03.jpg","1","1","1","1","0","1","0.430167300160974","0.418522499967366","0.322677900083363","1","1","1","1","1","1","1","1","1"
"260001","img/object_images/lock03.jpg","img/object_images/water_gun01.jpg","img/object_images/dice01.jpg","1","1","1","1","1","0","0.322677900083363","0.430167300160974","0.442484100116417","1","1","1","1","1","1","1","1","1"
"260001","img/object_images/dice01.jpg","img/object_images/lock03.jpg","img/object_images/Eyeliner01.jpg","1","1","1","0","1","1","0.442484100116417","0.322677900083363","0.39093070011586","1","1","1","1","1","1","1","1","1"
"260001","img/object_images/Eyeliner01.jpg","img/object_images/dice01.jpg","img/object_images/bottle06.jpg","1","1","1","1","0","0","0.39093070011586","0.442484100116417","0.399477800121531","1","1","1","1","1","1","1","1","1"
"260001","img/object_images/bottle06.jpg","img/object_images/Eyeliner01.jpg","img/object_images/bucket01.jpg","1","1","1","0","1","1","0.399477800121531","0.39093070011586","0.285361600108445","1","1","1","1","1","1","1","1","1"
"260001","img/object_images/bucket01.jpg","img/object_images/bottle06.jpg","img/object_images/frame01.jpg","1","1","1","1","0","1","0.285361600108445","0.399477800121531","0.346005900064483","1","1","1","1","1","1","1","1","1"
"260001","img/object_images/frame01.jpg","img/object_images/bucket01.jpg","img/object_images/piano03.jpg","1","1","1","1","1","0","0.346005900064483","0.285361600108445","0.338152799988165","1","1","1","1","1","1","1","1","1"
"260001","img/object_images/piano03.jpg","img/object_images/frame01.jpg","img/object_images/ToolBag01.jpg","1","1","0","0","1","0","0.338152799988165","0.346005900064483","0.245326100150123","1","1","1","1","1","1","1","1","1"
"260001","img/object_images/ToolBag01.jpg","img/object_images/piano03.jpg","img/object_images/note_book02.jpg","0","1","1","0","0","0","0.245326100150123","0.338152799988165","0.310898000141606","1","1","1","1","1","1","1","1","1"
"260001","img/object_images/note_book02.jpg","img/object_images/ToolBag01.jpg","img/object_images/joystick03.jpg","1","0","0","0","0","1","0.310898000141606","0.245326100150123","0.246639500139281","1","1","1","1","1","1","1","1","1"
"260001","img/object_images/joystick03.jpg","img/object_images/note_book02.jpg","img/object_images/TreeSlice01.jpg","0","1","1","1","0","1","0.246639500139281","0.310898000141606","0.34229510021396","1","1","1","1","1","1","1","1","1"
"260001","img/object_images/TreeSlice01.jpg","img/object_images/joystick03.jpg","img/object_images/origami01.jpg","1","0","0","1","1","1","0.34229510021396","0.246639500139281","0.343926799949259","1","1","1","1","1","1","1","1","1"
"260001","img/object_images/origami01.jpg","img/object_images/TreeSlice01.jpg","img/object_images/scale02.jpg","0","1","1","1","1","0","0.343926799949259","0.34229510021396","0.36997380014509","1","1","1","1","1","1","1","1","1"
"260001","img/object_images/scale02.jpg","img/object_images/origami01.jpg","img/object_images/nut_cracker01.jpg","1","0","1","0","1","1","0.36997380014509","0.343926799949259","0.482534800190479","1","1","1","1","1","1","1","1","1"
"260001","img/object_images/nut_cracker01.jpg","img/object_images/scale02.jpg","img/object_images/trumpet01.jpg","1","1","1","1","0","0","0.482534800190479","0.36997380014509","0.489898100029677","1","1","1","1","1","1","1","1","1"
"260001","img/object_images/trumpet01.jpg","img/object_images/nut_cracker01.jpg","img/object_images/yoga_mat01.jpg","1","1","1","0","1","0","0.489898100029677","0.482534800190479","0.35353590012528","1","1","1","1","1","1","1","1","1"
"260001","img/object_images/yoga_mat01.jpg","img/object_images/trumpet01.jpg","img/object_images/usb03.jpg","1","1","1","0","0","0","0.35353590012528","0.489898100029677","0.493696500081569","1","1","1","1","1","1","1","1","1"
"260001","img/object_images/usb03.jpg","img/object_images/yoga_mat01.jpg","img/object_images/pitcher07.jpg","1","1","1","0","0","1","0.493696500081569","0.35353590012528","0.452467900002375","1","1","1","1","1","1","1","1","1"
"260001","img/object_images/pitcher07.jpg","img/object_images/usb03.jpg","img/object_images/Shoes05.jpg","1","1","1","1","0","0","0.452467900002375","0.493696500081569","0.476705000270158","1","1","1","1","1","1","1","1","1"
"260001","img/object_images/Shoes05.jpg","img/object_images/pitcher07.jpg","img/object_images/badminton01.jpg","1","1","1","0","1","1","0.476705000270158","0.452467900002375","0.286689599975944","1","1","1","1","1","1","1","1","1"
"260001","img/object_images/badminton01.jpg","img/object_images/Shoes05.jpg","img/object_images/egg_basket01.jpg","1","1","1","1","0","1","0.286689599975944","0.476705000270158","0.389656300190836","1","1","1","1","1","1","1","1","1"
"260001","img/object_images/egg_basket01.jpg","img/object_images/badminton01.jpg","img/object_images/phone04.jpg","1","1","1","1","1","1","0.389656300190836","0.286689599975944","0.430199100170285","1","1","1","1","1","1","1","1","1"
"260001","img/object_images/phone04.jpg","img/object_images/egg_basket01.jpg","img/object_images/headset02.jpg","1","1","0","1","1","0","0.430199100170285","0.389656300190836","0.387820100178942","1","1","1","1","1","1","1","1","2"
"260001","img/object_images/headset02.jpg","img/object_images/phone04.jpg","img/object_images/fan01.jpg","0","1","1","0","1","0","0.387820100178942","0.430199100170285","0.427034300053492","1","1","1","1","1","1","2","1","1"
"260001","img/object_images/fan01.jpg","img/object_images/headset02.jpg","img/object_images/Safe01.jpg","1","0","1","0","0","1","0.427034300053492","0.387820100178942","0.412610500119627","1","1","1","1","1","1","1","2","1"
"260001","img/object_images/Safe01.jpg","img/object_images/fan01.jpg","img/object_images/tennis_racket01.jpg","1","1","1","1","0","1","0.412610500119627","0.427034300053492","0.444359200075269","1","1","1","1","1","1","1","1","1"
"260001","img/object_images/tennis_racket01.jpg","img/object_images/Safe01.jpg","img/object_images/shovel01.jpg","1","1","1","1","1","0","0.444359200075269","0.412610500119627","0.482244899962097","1","1","1","1","1","1","1","1","1"
"260001","img/object_images/shovel01.jpg","img/object_images/tennis_racket01.jpg",NA,"1","1",NA,"0","1",NA,"0.482244899962097","0.444359200075269",NA,"1","1",NA,"1","1",NA,"1","1",NA
"260001","img/object_images/knife01.jpg",NA,"img/object_images/hat09.jpg","1",NA,"1","1",NA,"0","0.829630499938503",NA,"0.637975099962205","1",NA,"1","1",NA,"1","1",NA,"1"
"260001","img/object_images/hat09.jpg","img/object_images/knife01.jpg","img/object_images/socks01.jpg","1","1","1","0","1","1","0.637975099962205","0.829630499938503","0.417435200186446","1","1","1","1","1","1","1","1","1"
"260001","img/object_images/socks01.jpg","img/object_images/hat09.jpg","img/object_images/lemon_squeezer01.jpg","1","1","1","1","0","1","0.417435200186446","0.637975099962205","0.327773099998012","1","1","1","1","1","1","1","1","1"
"260001","img/object_images/lemon_squeezer01.jpg","img/object_images/socks01.jpg","img/object_images/cup01.jpg","1","1","1","1","1","0","0.327773099998012","0.417435200186446","0.414754900150001","1","1","1","1","1","1","1","1","1"
"260001","img/object_images/cup01.jpg","img/object_images/lemon_squeezer01.jpg","img/object_images/Candle_Holder01.jpg","1","1","0","0","1","0","0.414754900150001","0.327773099998012","0.349592600250617","1","1","1","1","1","1","1","1","1"
"260001","img/object_images/Candle_Holder01.jpg","img/object_images/cup01.jpg","img/object_images/spray_can01.jpg","0","1","0","0","0","0","0.349592600250617","0.414754900150001","0.337276500184089","1","1","1","1","1","1","1","1","1"
"260001","img/object_images/spray_can01.jpg","img/object_images/Candle_Holder01.jpg","img/object_images/pan03.jpg","0","0","1","0","0","1","0.337276500184089","0.349592600250617","0.513369900174439","1","1","1","1","1","1","1","1","1"
"260001","img/object_images/pan03.jpg","img/object_images/spray_can01.jpg","img/object_images/sign02.jpg","1","0","1","1","0","0","0.513369900174439","0.337276500184089","0.408221600111574","1","1","1","1","1","1","1","1","1"
"260001","img/object_images/sign02.jpg","img/object_images/pan03.jpg","img/object_images/pen06.jpg","1","1","1","0","1","0","0.408221600111574","0.513369900174439","0.456852000206709","1","1","1","1","1","1","1","1","1"
"260001","img/object_images/pen06.jpg","img/object_images/sign02.jpg","img/object_images/perfume01.jpg","1","1","0","0","0","0","0.456852000206709","0.408221600111574","0.432337499922141","1","1","1","1","1","1","1","1","2"
"260001","img/object_images/perfume01.jpg","img/object_images/pen06.jpg","img/object_images/glasses03.jpg","0","1","0","0","0","0","0.432337499922141","0.456852000206709","0.324288200121373","1","1","1","1","1","1","2","1","1"
"260001","img/object_images/glasses03.jpg","img/object_images/perfume01.jpg","img/object_images/floss01.jpg","0","0","1","0","0","1","0.324288200121373","0.432337499922141","0.537268799962476","1","1","1","1","1","1","1","2","1"
"260001","img/object_images/floss01.jpg","img/object_images/glasses03.jpg","img/object_images/video_game02.jpg","1","0","1","1","0","1","0.537268799962476","0.324288200121373","0.527712400071323","1","1","1","1","1","1","1","1","1"
"260001","img/object_images/video_game02.jpg","img/object_images/floss01.jpg","img/object_images/board01.jpg","1","1","1","1","1","1","0.527712400071323","0.537268799962476","0.516981500200927","1","1","1","1","1","1","1","1","1"
"260001","img/object_images/board01.jpg","img/object_images/video_game02.jpg","img/object_images/tool13.jpg","1","1","1","1","1","1","0.516981500200927","0.527712400071323","0.406393500044942","1","1","1","1","1","1","1","1","1"
"260001","img/object_images/tool13.jpg","img/object_images/board01.jpg","img/object_images/bow_tie03.jpg","1","1","1","1","1","1","0.406393500044942","0.516981500200927","0.550050100078806","1","1","1","1","1","1","1","1","1"
"260001","img/object_images/bow_tie03.jpg","img/object_images/tool13.jpg","img/object_images/vase02.jpg","1","1","0","1","1","1","0.550050100078806","0.406393500044942","0.371201500063762","1","1","1","1","1","1","1","1","1"
"260001","img/object_images/vase02.jpg","img/object_images/bow_tie03.jpg","img/object_images/office_supplies01.jpg","0","1","0","1","1","1","0.371201500063762","0.550050100078806","0.367128500016406","1","1","1","1","1","1","1","1","1"
"260001","img/object_images/office_supplies01.jpg","img/object_images/vase02.jpg","img/object_images/clipboard01.jpg","0","0","1","1","1","1","0.367128500016406","0.371201500063762","0.432809100020677","1","1","1","1","1","1","1","1","1"
"260001","img/object_images/clipboard01.jpg","img/object_images/office_supplies01.jpg","img/object_images/tool20.jpg","1","0","1","1","1","0","0.432809100020677","0.367128500016406","0.416588400024921","1","1","1","1","1","1","1","1","1"
"260001","img/object_images/tool20.jpg","img/object_images/clipboard01.jpg","img/object_images/bag04.jpg","1","1","0","0","1","0","0.416588400024921","0.432809100020677","0.389382000081241","1","1","1","1","1","1","1","1","1"
"260001","img/object_images/bag04.jpg","img/object_images/tool20.jpg","img/object_images/sink_filter01 (1).jpg","0","1","1","0","0","0","0.389382000081241","0.416588400024921","0.494887900073081","1","1","1","1","1","1","1","1","1"
"260001","img/object_images/sink_filter01 (1).jpg","img/object_images/bag04.jpg","img/object_images/candle02.jpg","1","0","1","0","0","0","0.494887900073081","0.389382000081241","0.452117800246924","1","1","1","1","1","1","1","1","1"
"260001","img/object_images/candle02.jpg","img/object_images/sink_filter01 (1).jpg","img/object_images/ruler02.jpg","1","1","0","0","0","1","0.452117800246924","0.494887900073081","0.394571900134906","1","1","1","1","1","1","1","1","1"
"260001","img/object_images/ruler02.jpg","img/object_images/candle02.jpg","img/object_images/hat13.jpg","0","1","1","1","0","1","0.394571900134906","0.452117800246924","0.418737400090322","1","1","1","1","1","1","1","1","1"
"260001","img/object_images/hat13.jpg","img/object_images/ruler02.jpg","img/object_images/Confetti 01.jpg","1","0","1","1","1","0","0.418737400090322","0.394571900134906","0.3382874999661","1","1","1","1","1","1","1","1","1"
"260001","img/object_images/Confetti 01.jpg","img/object_images/hat13.jpg","img/object_images/duster01.jpg","1","1","1","0","1","0","0.3382874999661","0.418737400090322","0.40400639991276","1","1","1","1","1","1","1","1","1"
"260001","img/object_images/duster01.jpg","img/object_images/Confetti 01.jpg","img/object_images/hammer02.jpg","1","1","1","0","0","0","0.40400639991276","0.3382874999661","0.511853800155222","1","1","1","1","1","1","1","1","1"
"260001","img/object_images/hammer02.jpg","img/object_images/duster01.jpg","img/object_images/camera05.jpg","1","1","1","0","0","0","0.511853800155222","0.40400639991276","0.449753700057045","1","1","1","1","1","1","1","1","1"
"260001","img/object_images/camera05.jpg","img/object_images/hammer02.jpg","img/object_images/razor02.jpg","1","1","1","0","0","1","0.449753700057045","0.511853800155222","0.545776000246406","1","1","1","1","1","1","1","1","1"
"260001","img/object_images/razor02.jpg","img/object_images/camera05.jpg","img/object_images/dust_pan01.jpg","1","1","1","1","0","1","0.545776000246406","0.449753700057045","0.41826460021548","1","1","1","1","1","1","1","1","1"
"260001","img/object_images/dust_pan01.jpg","img/object_images/razor02.jpg",NA,"1","1",NA,"1","1",NA,"0.41826460021548","0.545776000246406",NA,"1","1",NA,"1","1",NA,"1","1",NA
"260001","img/object_images/jacket03.jpg",NA,"img/object_images/wallet02.jpg","1",NA,"1","0",NA,"1","0.848364500096068",NA,"0.504111500224099","1",NA,"1","1",NA,"1","1",NA,"1"
"260001","img/object_images/wallet02.jpg","img/object_images/jacket03.jpg","img/object_images/funnel01.jpg","1","1","0","1","0","0","0.504111500224099","0.848364500096068","0.30667950026691","1","1","1","1","1","1","1","1","1"
"260001","img/object_images/funnel01.jpg","img/object_images/wallet02.jpg","img/object_images/camera07.jpg","0","1","1","0","1","1","0.30667950026691","0.504111500224099","0.454377600224689","1","1","1","1","1","1","1","1","1"
"260001","img/object_images/camera07.jpg","img/object_images/funnel01.jpg","img/object_images/gift_box02.jpg","1","0","1","1","0","1","0.454377600224689","0.30667950026691","0.39539200020954","1","1","1","1","1","1","1","1","1"
"260001","img/object_images/gift_box02.jpg","img/object_images/camera07.jpg","img/object_images/Screws01.jpg","1","1","1","1","1","1","0.39539200020954","0.454377600224689","0.431825299980119","1","1","1","1","1","1","1","1","1"
"260001","img/object_images/Screws01.jpg","img/object_images/gift_box02.jpg","img/object_images/dresser04.jpg","1","1","1","1","1","0","0.431825299980119","0.39539200020954","0.440949100069702","1","1","1","1","1","1","1","1","1"
"260001","img/object_images/dresser04.jpg","img/object_images/Screws01.jpg","img/object_images/pitcher02.jpg","1","1","1","0","1","1","0.440949100069702","0.431825299980119","0.439995300024748","1","1","1","1","1","1","1","1","1"
"260001","img/object_images/pitcher02.jpg","img/object_images/dresser04.jpg","img/object_images/paper_cup01.jpg","1","1","1","1","0","0","0.439995300024748","0.440949100069702","0.564021200174466","1","1","1","1","1","1","1","1","1"
"260001","img/object_images/paper_cup01.jpg","img/object_images/pitcher02.jpg","img/object_images/jewelry01.jpg","1","1","1","0","1","1","0.564021200174466","0.439995300024748","0.511759100016207","1","1","1","1","1","1","1","1","1"
"260001","img/object_images/jewelry01.jpg","img/object_images/paper_cup01.jpg","img/object_images/gift_box03.jpg","1","1","1","1","0","0","0.511759100016207","0.564021200174466","0.545681799994782","1","1","1","1","1","1","1","1","1"
"260001","img/object_images/gift_box03.jpg","img/object_images/jewelry01.jpg","img/object_images/fork03.jpg","1","1","1","0","1","1","0.545681799994782","0.511759100016207","0.447904100175947","1","1","1","1","1","1","1","1","1"
"260001","img/object_images/fork03.jpg","img/object_images/gift_box03.jpg","img/object_images/couch03.jpg","1","1","1","1","0","0","0.447904100175947","0.545681799994782","0.419078200124204","1","1","1","1","1","1","1","1","1"
"260001","img/object_images/couch03.jpg","img/object_images/fork03.jpg","img/object_images/socks02.jpg","1","1","0","0","1","0","0.419078200124204","0.447904100175947","0.293939800234511","1","1","1","1","1","1","1","1","1"
"260001","img/object_images/socks02.jpg","img/object_images/couch03.jpg","img/object_images/ironing_table01.jpg","0","1","1","0","0","0","0.293939800234511","0.419078200124204","0.397694600047544","1","1","1","1","1","1","1","1","1"
"260001","img/object_images/ironing_table01.jpg","img/object_images/socks02.jpg","img/object_images/vga_port 01.jpg","1","0","1","0","0","0","0.397694600047544","0.293939800234511","0.48480650014244","1","1","1","1","1","1","1","1","1"
"260001","img/object_images/vga_port 01.jpg","img/object_images/ironing_table01.jpg","img/object_images/handkerchief01.jpg","1","1","1","0","0","0","0.48480650014244","0.397694600047544","0.553553899982944","1","1","1","1","1","1","1","1","1"
"260001","img/object_images/handkerchief01.jpg","img/object_images/vga_port 01.jpg","img/object_images/measuring_tape02.jpg","1","1","1","0","0","1","0.553553899982944","0.48480650014244","0.460059400182217","1","1","1","1","1","1","1","1","1"
"260001","img/object_images/measuring_tape02.jpg","img/object_images/handkerchief01.jpg","img/object_images/balloon01.jpg","1","1","1","1","0","0","0.460059400182217","0.553553899982944","0.491606499999762","1","1","1","1","1","1","1","1","1"
"260001","img/object_images/balloon01.jpg","img/object_images/measuring_tape02.jpg","img/object_images/bath_tub01.jpg","1","1","1","0","1","0","0.491606499999762","0.460059400182217","0.426156400004402","1","1","1","1","1","1","1","1","1"
"260001","img/object_images/bath_tub01.jpg","img/object_images/balloon01.jpg","img/object_images/bow_tie01.jpg","1","1","1","0","0","0","0.426156400004402","0.491606499999762","0.421829300001264","1","1","1","1","1","1","1","1","1"
"260001","img/object_images/bow_tie01.jpg","img/object_images/bath_tub01.jpg","img/object_images/sleeping_bag01.jpg","1","1","1","0","0","0","0.421829300001264","0.426156400004402","0.407708400161937","1","1","1","1","1","1","1","1","1"
"260001","img/object_images/sleeping_bag01.jpg","img/object_images/bow_tie01.jpg","img/object_images/Witchhat01.jpg","1","1","1","0","0","1","0.407708400161937","0.421829300001264","0.477633300004527","1","1","1","1","1","1","1","1","1"
"260001","img/object_images/Witchhat01.jpg","img/object_images/sleeping_bag01.jpg","img/object_images/lawn_mower01.jpg","1","1","1","1","0","1","0.477633300004527","0.407708400161937","0.418951800093055","1","1","1","1","1","1","1","1","1"
"260001","img/object_images/lawn_mower01.jpg","img/object_images/Witchhat01.jpg","img/object_images/coloring_pencil01.jpg","1","1","0","1","1","1","0.418951800093055","0.477633300004527","0.317225000122562","1","1","1","1","1","1","1","1","1"
"260001","img/object_images/coloring_pencil01.jpg","img/object_images/lawn_mower01.jpg","img/object_images/bow_tie02.jpg","0","1","1","1","1","0","0.317225000122562","0.418951800093055","0.320849900133908","1","1","1","1","1","1","1","1","1"
"260001","img/object_images/bow_tie02.jpg","img/object_images/coloring_pencil01.jpg","img/object_images/lock04.jpg","1","0","1","0","1","1","0.320849900133908","0.317225000122562","0.343758200062439","1","1","1","1","1","1","1","1","1"
"260001","img/object_images/lock04.jpg","img/object_images/bow_tie02.jpg","img/object_images/grater01.jpg","1","1","1","1","0","1","0.343758200062439","0.320849900133908","0.37218220019713","1","1","1","1","1","1","1","1","1"
"260001","img/object_images/grater01.jpg","img/object_images/lock04.jpg","img/object_images/hammer01.jpg","1","1","1","1","1","0","0.37218220019713","0.343758200062439","0.446569999912754","1","1","1","1","1","1","1","1","1"
"260001","img/object_images/hammer01.jpg","img/object_images/grater01.jpg","img/object_images/clip02.jpg","1","1","1","0","1","1","0.446569999912754","0.37218220019713","0.44021170004271","1","1","1","1","1","1","1","1","1"
"260001","img/object_images/clip02.jpg","img/object_images/hammer01.jpg","img/object_images/gift_box01.jpg","1","1","1","1","0","1","0.44021170004271","0.446569999912754","0.376108900178224","1","1","1","1","1","1","1","1","1"
"260001","img/object_images/gift_box01.jpg","img/object_images/clip02.jpg","img/object_images/golf_ball03.jpg","1","1","1","1","1","1","0.376108900178224","0.44021170004271","0.408292300067842","1","1","1","1","1","1","1","1","1"
"260001","img/object_images/golf_ball03.jpg","img/object_images/gift_box01.jpg",NA,"1","1",NA,"1","1",NA,"0.408292300067842","0.376108900178224",NA,"1","1",NA,"1","1",NA,"1","1",NA
"260001","img/object_images/microphone03.jpg",NA,"img/object_images/backpack03.jpg","1",NA,"1","1",NA,"1","0.484469400253147",NA,"0.429881700081751","1",NA,"1","1",NA,"1","1",NA,"1"
"260001","img/object_images/backpack03.jpg","img/object_images/microphone03.jpg","img/object_images/bucket02.jpg","1","1","1","1","1","1","0.429881700081751","0.484469400253147","0.332538600079715","1","1","1","1","1","1","1","1","1"
"260001","img/object_images/bucket02.jpg","img/object_images/backpack03.jpg","img/object_images/surf_board01.jpg","1","1","1","1","1","1","0.332538600079715","0.429881700081751","0.456813600147143","1","1","1","1","1","1","1","1","1"
"260001","img/object_images/surf_board01.jpg","img/object_images/bucket02.jpg","img/object_images/chess_piece01.jpg","1","1","1","1","1","0","0.456813600147143","0.332538600079715","0.410878000315279","1","1","1","1","1","1","1","1","1"
"260001","img/object_images/chess_piece01.jpg","img/object_images/surf_board01.jpg","img/object_images/ball02.jpg","1","1","1","0","1","1","0.410878000315279","0.456813600147143","0.394703600089997","1","1","1","1","1","1","1","1","1"
"260001","img/object_images/ball02.jpg","img/object_images/chess_piece01.jpg","img/object_images/stove01.jpg","1","1","1","1","0","0","0.394703600089997","0.410878000315279","0.432126400060952","1","1","1","1","1","1","1","1","1"
"260001","img/object_images/stove01.jpg","img/object_images/ball02.jpg","img/object_images/laptop03.jpg","1","1","1","0","1","1","0.432126400060952","0.394703600089997","0.440422799903899","1","1","1","1","1","1","1","1","1"
"260001","img/object_images/laptop03.jpg","img/object_images/stove01.jpg","img/object_images/robe01.jpg","1","1","1","1","0","1","0.440422799903899","0.432126400060952","0.467815699987113","1","1","1","1","1","1","1","1","1"
"260001","img/object_images/robe01.jpg","img/object_images/laptop03.jpg","img/object_images/trash_can03.jpg","1","1","1","1","1","1","0.467815699987113","0.440422799903899","0.403521000174806","1","1","1","1","1","1","1","1","1"
"260001","img/object_images/trash_can03.jpg","img/object_images/robe01.jpg","img/object_images/hair_dryer01.jpg","1","1","1","1","1","0","0.403521000174806","0.467815699987113","0.377253800164908","1","1","1","1","1","1","1","1","1"
"260001","img/object_images/hair_dryer01.jpg","img/object_images/trash_can03.jpg","img/object_images/jewel03.jpg","1","1","1","0","1","1","0.377253800164908","0.403521000174806","0.322695299983025","1","1","1","1","1","1","1","1","1"
"260001","img/object_images/jewel03.jpg","img/object_images/hair_dryer01.jpg","img/object_images/toy05.jpg","1","1","0","1","0","0","0.322695299983025","0.377253800164908","0.356123300036415","1","1","1","1","1","1","1","1","1"
"260001","img/object_images/toy05.jpg","img/object_images/jewel03.jpg","img/object_images/helmet02.jpg","0","1","1","0","1","0","0.356123300036415","0.322695299983025","0.255767800146714","1","1","1","1","1","1","1","1","1"
"260001","img/object_images/helmet02.jpg","img/object_images/toy05.jpg","img/object_images/shoes08.jpg","1","0","0","0","0","1","0.255767800146714","0.356123300036415","0.33437280007638","1","1","1","1","1","1","1","1","1"
"260001","img/object_images/shoes08.jpg","img/object_images/helmet02.jpg","img/object_images/fan04.jpg","0","1","1","1","0","0","0.33437280007638","0.255767800146714","0.640449300175533","1","1","1","1","1","1","1","1","1"
"260001","img/object_images/fan04.jpg","img/object_images/shoes08.jpg","img/object_images/lock01.jpg","1","0","1","0","1","0","0.640449300175533","0.33437280007638","0.331090000225231","1","1","1","1","1","1","1","1","1"
"260001","img/object_images/lock01.jpg","img/object_images/fan04.jpg","img/object_images/towels01.jpg","1","1","0","0","0","0","0.331090000225231","0.640449300175533","0.381082100095227","1","1","1","1","1","1","1","1","1"
"260001","img/object_images/towels01.jpg","img/object_images/lock01.jpg","img/object_images/accardion01.jpg","0","1","1","0","0","1","0.381082100095227","0.331090000225231","0.379905499983579","1","1","1","1","1","1","1","1","1"
"260001","img/object_images/accardion01.jpg","img/object_images/towels01.jpg","img/object_images/umbrella01.jpg","1","0","1","1","0","0","0.379905499983579","0.381082100095227","0.492758800042793","1","1","1","1","1","1","1","1","1"
"260001","img/object_images/umbrella01.jpg","img/object_images/accardion01.jpg","img/object_images/gift_box05.jpg","1","1","1","0","1","0","0.492758800042793","0.379905499983579","0.267644100124016","1","1","1","1","1","1","1","1","1"
"260001","img/object_images/gift_box05.jpg","img/object_images/umbrella01.jpg","img/object_images/vase01.jpg","1","1","1","0","0","0","0.267644100124016","0.492758800042793","0.372176400152966","1","1","1","1","1","1","1","1","1"
"260001","img/object_images/vase01.jpg","img/object_images/gift_box05.jpg","img/object_images/laptop01.jpg","1","1","0","0","0","0","0.372176400152966","0.267644100124016","0.367651500040665","1","1","1","1","1","1","1","1","1"
"260001","img/object_images/laptop01.jpg","img/object_images/vase01.jpg","img/object_images/pitcher05.jpg","0","1","1","0","0","0","0.367651500040665","0.372176400152966","0.37560940021649","1","1","1","1","1","1","1","1","1"
"260001","img/object_images/pitcher05.jpg","img/object_images/laptop01.jpg","img/object_images/Vest02.jpg","1","0","1","0","0","0","0.37560940021649","0.367651500040665","0.390557200182229","1","1","1","1","1","1","1","1","1"
"260001","img/object_images/Vest02.jpg","img/object_images/pitcher05.jpg","img/object_images/hair_brush02.jpg","1","1","1","0","0","0","0.390557200182229","0.37560940021649","0.371233199955896","1","1","1","1","1","1","1","1","1"
"260001","img/object_images/hair_brush02.jpg","img/object_images/Vest02.jpg","img/object_images/calculator01.jpg","1","1","1","0","0","1","0.371233199955896","0.390557200182229","0.539215099997818","1","1","1","1","1","1","1","1","1"
"260001","img/object_images/calculator01.jpg","img/object_images/hair_brush02.jpg","img/object_images/combs01.jpg","1","1","0","1","0","1","0.539215099997818","0.371233199955896","0.586916400119662","1","1","1","1","1","1","1","1","1"
"260001","img/object_images/combs01.jpg","img/object_images/calculator01.jpg","img/object_images/spatula02.jpg","0","1","1","1","1","1","0.586916400119662","0.539215099997818","0.450888500083238","1","1","1","1","1","1","1","1","1"
"260001","img/object_images/spatula02.jpg","img/object_images/combs01.jpg","img/object_images/chair02.jpg","1","0","1","1","1","1","0.450888500083238","0.586916400119662","0.281062700087205","1","1","1","1","1","1","1","1","1"
"260001","img/object_images/chair02.jpg","img/object_images/spatula02.jpg","img/object_images/trash_can05.jpg","1","1","1","1","1","1","0.281062700087205","0.450888500083238","0.406316600041464","1","1","1","1","1","1","1","1","1"
"260001","img/object_images/trash_can05.jpg","img/object_images/chair02.jpg","img/object_images/Lint_Roller02.jpg","1","1","0","1","1","0","0.406316600041464","0.281062700087205","0.256147499894723","1","1","1","1","1","1","1","1","1"
"260001","img/object_images/Lint_Roller02.jpg","img/object_images/trash_can05.jpg",NA,"0","1",NA,"0","1",NA,"0.256147499894723","0.406316600041464",NA,"1","1",NA,"1","1",NA,"1","1",NA
"260001","img/object_images/paint_brush04.jpg",NA,"img/object_images/tennis_racket02.jpg","0",NA,"0","0",NA,"1","0.452857600292191",NA,"0.374193400144577","1",NA,"1","1",NA,"1","1",NA,"2"
"260001","img/object_images/tennis_racket02.jpg","img/object_images/paint_brush04.jpg","img/object_images/book03.jpg","0","0","1","1","0","1","0.374193400144577","0.452857600292191","0.334397800266743","1","1","1","1","1","1","2","1","1"
"260001","img/object_images/book03.jpg","img/object_images/tennis_racket02.jpg","img/object_images/pen03.jpg","1","0","0","1","1","0","0.334397800266743","0.374193400144577","0.290842500049621","1","1","1","1","1","1","1","2","1"
"260001","img/object_images/pen03.jpg","img/object_images/book03.jpg","img/object_images/cellphone01.jpg","0","1","1","0","1","1","0.290842500049621","0.334397800266743","0.227046900196001","1","1","1","1","1","1","1","1","1"
"260001","img/object_images/cellphone01.jpg","img/object_images/pen03.jpg","img/object_images/lid01.jpg","1","0","1","1","0","1","0.227046900196001","0.290842500049621","0.333730900194496","1","1","1","1","1","1","1","1","1"
"260001","img/object_images/lid01.jpg","img/object_images/cellphone01.jpg","img/object_images/knife04.jpg","1","1","0","1","1","1","0.333730900194496","0.227046900196001","0.358847400173545","1","1","1","1","1","1","1","1","1"
"260001","img/object_images/knife04.jpg","img/object_images/lid01.jpg","img/object_images/floppy_disk03.jpg","0","1","0","1","1","1","0.358847400173545","0.333730900194496","0.34402950014919","1","1","1","1","1","1","1","1","1"
"260001","img/object_images/floppy_disk03.jpg","img/object_images/knife04.jpg","img/object_images/crutches02.jpg","0","0","1","1","1","0","0.34402950014919","0.358847400173545","0.460381200071424","1","1","1","1","1","1","1","1","1"
"260001","img/object_images/crutches02.jpg","img/object_images/floppy_disk03.jpg","img/object_images/clip03.jpg","1","0","1","0","1","0","0.460381200071424","0.34402950014919","0.368985600303859","1","1","1","1","1","1","1","1","1"
"260001","img/object_images/clip03.jpg","img/object_images/crutches02.jpg","img/object_images/compass01.jpg","1","1","1","0","0","1","0.368985600303859","0.460381200071424","0.389710400020704","1","1","1","1","1","1","1","1","1"
"260001","img/object_images/compass01.jpg","img/object_images/clip03.jpg","img/object_images/note_book01.jpg","1","1","0","1","0","0","0.389710400020704","0.368985600303859","0.374736900208518","1","1","1","1","1","1","1","1","1"
"260001","img/object_images/note_book01.jpg","img/object_images/compass01.jpg","img/object_images/hammer03.jpg","0","1","1","0","1","1","0.374736900208518","0.389710400020704","0.353948100004345","1","1","1","1","1","1","1","1","1"
"260001","img/object_images/hammer03.jpg","img/object_images/note_book01.jpg","img/object_images/tv02.jpg","1","0","0","1","0","0","0.353948100004345","0.374736900208518","0.34369710017927","1","1","1","1","1","1","1","1","1"
"260001","img/object_images/tv02.jpg","img/object_images/hammer03.jpg","img/object_images/floppy_disk02.jpg","0","1","0","0","1","0","0.34369710017927","0.353948100004345","0.318332500057295","1","1","1","1","1","1","1","1","1"
"260001","img/object_images/floppy_disk02.jpg","img/object_images/tv02.jpg","img/object_images/Oven01.jpg","0","0","0","0","0","1","0.318332500057295","0.34369710017927","0.452034800080582","1","1","1","1","1","1","1","1","1"
"260001","img/object_images/Oven01.jpg","img/object_images/floppy_disk02.jpg","img/object_images/chess_piece02.jpg","0","0","1","1","0","1","0.452034800080582","0.318332500057295","0.409250299911946","1","1","1","1","1","1","1","1","1"
"260001","img/object_images/chess_piece02.jpg","img/object_images/Oven01.jpg","img/object_images/microscope01.jpg","1","0","1","1","1","0","0.409250299911946","0.452034800080582","0.287859100149944","1","1","1","1","1","1","1","1","1"
"260001","img/object_images/microscope01.jpg","img/object_images/chess_piece02.jpg","img/object_images/Staples01.jpg","1","1","1","0","1","1","0.287859100149944","0.409250299911946","0.523455300135538","1","1","1","1","1","1","1","1","1"
"260001","img/object_images/Staples01.jpg","img/object_images/microscope01.jpg","img/object_images/retainer01.jpg","1","1","1","1","0","0","0.523455300135538","0.287859100149944","0.337695700116456","1","1","1","1","1","1","1","1","1"
"260001","img/object_images/retainer01.jpg","img/object_images/Staples01.jpg","img/object_images/bottle01.jpg","1","1","1","0","1","0","0.337695700116456","0.523455300135538","0.580072000157088","1","1","1","1","1","1","1","1","1"
"260001","img/object_images/bottle01.jpg","img/object_images/retainer01.jpg","img/object_images/bell02.jpg","1","1","1","0","0","0","0.580072000157088","0.337695700116456","0.344202700071037","1","1","1","1","1","1","1","1","1"
"260001","img/object_images/bell02.jpg","img/object_images/bottle01.jpg","img/object_images/Thermometer01.jpg","1","1","0","0","0","0","0.344202700071037","0.580072000157088","0.3408361999318","1","1","1","1","1","1","1","1","1"
"260001","img/object_images/Thermometer01.jpg","img/object_images/bell02.jpg","img/object_images/pitcher01.jpg","0","1","1","0","0","0","0.3408361999318","0.344202700071037","0.454046900151298","1","1","1","1","1","1","1","1","1"
"260001","img/object_images/pitcher01.jpg","img/object_images/Thermometer01.jpg","img/object_images/knit05.jpg","1","0","1","0","0","1","0.454046900151298","0.3408361999318","0.603508500149474","1","1","1","1","1","1","1","1","1"
"260001","img/object_images/knit05.jpg","img/object_images/pitcher01.jpg","img/object_images/pillows01.jpg","1","1","1","1","0","1","0.603508500149474","0.454046900151298","0.504423400154337","1","1","1","1","1","1","1","1","1"
"260001","img/object_images/pillows01.jpg","img/object_images/knit05.jpg","img/object_images/wire02.jpg","1","1","1","1","1","1","0.504423400154337","0.603508500149474","0.382975000189617","1","1","1","1","1","1","1","1","1"
"260001","img/object_images/wire02.jpg","img/object_images/pillows01.jpg","img/object_images/chair05.jpg","1","1","1","1","1","0","0.382975000189617","0.504423400154337","0.32313680020161","1","1","1","1","1","1","1","1","1"
"260001","img/object_images/chair05.jpg","img/object_images/wire02.jpg","img/object_images/ear_bud01.jpg","1","1","1","0","1","1","0.32313680020161","0.382975000189617","0.364901300054044","1","1","1","1","1","1","1","1","1"
"260001","img/object_images/ear_bud01.jpg","img/object_images/chair05.jpg","img/object_images/usb02.jpg","1","1","1","1","0","0","0.364901300054044","0.32313680020161","0.535211200127378","1","1","1","1","1","1","1","1","1"
"260001","img/object_images/usb02.jpg","img/object_images/ear_bud01.jpg","img/object_images/motorcycle01.jpg","1","1","1","0","1","1","0.535211200127378","0.364901300054044","0.316200100118294","1","1","1","1","1","1","1","1","1"
"260001","img/object_images/motorcycle01.jpg","img/object_images/usb02.jpg","img/object_images/clock02.jpg","1","1","1","1","0","0","0.316200100118294","0.535211200127378","0.390774700092152","1","1","1","1","1","1","1","1","1"
"260001","img/object_images/clock02.jpg","img/object_images/motorcycle01.jpg",NA,"1","1",NA,"0","1",NA,"0.390774700092152","0.316200100118294",NA,"1","1",NA,"1","1",NA,"1","1",NA
"260001","img/object_images/remover01.jpg",NA,"img/object_images/Statue01.jpg","0",NA,"1","1",NA,"1","0.857710200129077",NA,"0.496941800229251","1",NA,"1","1",NA,"1","1",NA,"1"
"260001","img/object_images/Statue01.jpg","img/object_images/remover01.jpg","img/object_images/flashlight03.jpg","1","0","1","1","1","0","0.496941800229251","0.857710200129077","0.412432400044054","1","1","1","1","1","1","1","1","1"
"260001","img/object_images/flashlight03.jpg","img/object_images/Statue01.jpg","img/object_images/camera03.jpg","1","1","0","0","1","0","0.412432400044054","0.496941800229251","0.321212000213563","1","1","1","1","1","1","1","1","1"
"260001","img/object_images/camera03.jpg","img/object_images/flashlight03.jpg","img/object_images/curtain02.jpg","0","1","1","0","0","0","0.321212000213563","0.412432400044054","0.432316800113767","1","1","1","1","1","1","1","1","1"
"260001","img/object_images/curtain02.jpg","img/object_images/camera03.jpg","img/object_images/backpack01.jpg","1","0","1","0","0","0","0.432316800113767","0.321212000213563","0.46697170031257","1","1","1","1","1","1","1","1","1"
"260001","img/object_images/backpack01.jpg","img/object_images/curtain02.jpg","img/object_images/basket04.jpg","1","1","1","0","0","1","0.46697170031257","0.432316800113767","0.406879700254649","1","1","1","1","1","1","1","1","1"
"260001","img/object_images/basket04.jpg","img/object_images/backpack01.jpg","img/object_images/video_game01.jpg","1","1","1","1","0","1","0.406879700254649","0.46697170031257","0.32567030005157","1","1","1","1","1","1","1","1","1"
"260001","img/object_images/video_game01.jpg","img/object_images/basket04.jpg","img/object_images/shower_head01.jpg","1","1","1","1","1","1","0.32567030005157","0.406879700254649","0.449115100083873","1","1","1","1","1","1","1","1","1"
"260001","img/object_images/shower_head01.jpg","img/object_images/video_game01.jpg","img/object_images/kite01.jpg","1","1","0","1","1","1","0.449115100083873","0.32567030005157","0.384241900173947","1","1","1","1","1","1","1","1","1"
"260001","img/object_images/kite01.jpg","img/object_images/shower_head01.jpg","img/object_images/sponge03.jpg","0","1","0","1","1","1","0.384241900173947","0.449115100083873","0.339216600172222","1","1","1","1","1","1","1","1","1"
"260001","img/object_images/sponge03.jpg","img/object_images/kite01.jpg","img/object_images/dresser03.jpg","0","0","1","1","1","0","0.339216600172222","0.384241900173947","0.553002499975264","1","1","1","1","1","1","1","1","1"
"260001","img/object_images/dresser03.jpg","img/object_images/sponge03.jpg","img/object_images/hoverboard01.jpg","1","0","1","0","1","0","0.553002499975264","0.339216600172222","0.361704699927941","1","1","1","1","1","1","1","1","1"
"260001","img/object_images/hoverboard01.jpg","img/object_images/dresser03.jpg","img/object_images/toy08.jpg","1","1","1","0","0","0","0.361704699927941","0.553002499975264","0.401143600000069","1","1","1","1","1","1","1","1","1"
"260001","img/object_images/toy08.jpg","img/object_images/hoverboard01.jpg","img/object_images/bottle07.jpg","1","1","1","0","0","1","0.401143600000069","0.361704699927941","0.373095800168812","1","1","1","1","1","1","1","1","1"
"260001","img/object_images/bottle07.jpg","img/object_images/toy08.jpg","img/object_images/hand_grip_exerciser01.jpg","1","1","1","1","0","0","0.373095800168812","0.401143600000069","0.338590300176293","1","1","1","1","1","1","1","1","1"
"260001","img/object_images/hand_grip_exerciser01.jpg","img/object_images/bottle07.jpg","img/object_images/keyboard02.jpg","1","1","1","0","1","1","0.338590300176293","0.373095800168812","0.389758500270545","1","1","1","1","1","1","1","1","1"
"260001","img/object_images/keyboard02.jpg","img/object_images/hand_grip_exerciser01.jpg","img/object_images/paper_cup02.jpg","1","1","1","1","0","1","0.389758500270545","0.338590300176293","0.448839600197971","1","1","1","1","1","1","1","1","1"
"260001","img/object_images/paper_cup02.jpg","img/object_images/keyboard02.jpg","img/object_images/matches02.jpg","1","1","1","1","1","0","0.448839600197971","0.389758500270545","0.408381900051609","1","1","1","1","1","1","1","1","1"
"260001","img/object_images/matches02.jpg","img/object_images/paper_cup02.jpg","img/object_images/blender02.jpg","1","1","1","0","1","1","0.408381900051609","0.448839600197971","0.415463700192049","1","1","1","1","1","1","1","1","1"
"260001","img/object_images/blender02.jpg","img/object_images/matches02.jpg","img/object_images/knife02.jpg","1","1","1","1","0","0","0.415463700192049","0.408381900051609","0.505785800283775","1","1","1","1","1","1","1","1","1"
"260001","img/object_images/knife02.jpg","img/object_images/blender02.jpg","img/object_images/car01.jpg","1","1","1","0","1","1","0.505785800283775","0.415463700192049","0.377454900182784","1","1","1","1","1","1","1","1","1"
"260001","img/object_images/car01.jpg","img/object_images/knife02.jpg","img/object_images/phone02.jpg","1","1","1","1","0","1","0.377454900182784","0.505785800283775","0.332667599897832","1","1","1","1","1","1","1","1","1"
"260001","img/object_images/phone02.jpg","img/object_images/car01.jpg","img/object_images/jacket04.jpg","1","1","0","1","1","0","0.332667599897832","0.377454900182784","0.393953799968585","1","1","1","1","1","1","1","1","2"
"260001","img/object_images/jacket04.jpg","img/object_images/phone02.jpg","img/object_images/knit03.jpg","0","1","1","0","1","1","0.393953799968585","0.332667599897832","0.417884000111371","1","1","1","1","1","1","2","1","1"
"260001","img/object_images/knit03.jpg","img/object_images/jacket04.jpg","img/object_images/gloves02.jpg","1","0","1","1","0","0","0.417884000111371","0.393953799968585","0.417049400275573","1","1","1","1","1","1","1","2","1"
"260001","img/object_images/gloves02.jpg","img/object_images/knit03.jpg","img/object_images/knit04.jpg","1","1","1","0","1","1","0.417049400275573","0.417884000111371","0.480068700155243","1","1","1","1","1","1","1","1","1"
"260001","img/object_images/knit04.jpg","img/object_images/gloves02.jpg","img/object_images/mail_box01.jpg","1","1","1","1","0","0","0.480068700155243","0.417049400275573","0.419396999990568","1","1","1","1","1","1","1","1","1"
"260001","img/object_images/mail_box01.jpg","img/object_images/knit04.jpg","img/object_images/boat04.jpg","1","1","0","0","1","0","0.419396999990568","0.480068700155243","0.330413100076839","1","1","1","1","1","1","1","1","1"
"260001","img/object_images/boat04.jpg","img/object_images/mail_box01.jpg","img/object_images/remote_controller01.jpg","0","1","1","0","0","1","0.330413100076839","0.419396999990568","0.470573400147259","1","1","1","1","1","1","1","1","1"
"260001","img/object_images/remote_controller01.jpg","img/object_images/boat04.jpg","img/object_images/stereo02.jpg","1","0","1","1","0","0","0.470573400147259","0.330413100076839","0.473403600044549","1","1","1","1","1","1","1","1","1"
"260001","img/object_images/stereo02.jpg","img/object_images/remote_controller01.jpg","img/object_images/tool18.jpg","1","1","1","0","1","0","0.473403600044549","0.470573400147259","0.433193700155243","1","1","1","1","1","1","1","1","1"
"260001","img/object_images/tool18.jpg","img/object_images/stereo02.jpg",NA,"1","1",NA,"0","0",NA,"0.433193700155243","0.473403600044549",NA,"1","1",NA,"1","1",NA,"1","1",NA
"260001","img/object_images/hair_clips01.jpg",NA,"img/object_images/TrashCan02.jpg","1",NA,"1","1",NA,"1","0.714571800082922",NA,"0.509697700152174","1",NA,"1","1",NA,"1","1",NA,"1"
"260001","img/object_images/TrashCan02.jpg","img/object_images/hair_clips01.jpg","img/object_images/cup03.jpg","1","1","1","1","1","1","0.509697700152174","0.714571800082922","0.640899500111118","1","1","1","1","1","1","1","1","1"
"260001","img/object_images/cup03.jpg","img/object_images/TrashCan02.jpg","img/object_images/projector01.jpg","1","1","1","1","1","0","0.640899500111118","0.509697700152174","0.441262500127778","1","1","1","1","1","1","1","1","1"
"260001","img/object_images/projector01.jpg","img/object_images/cup03.jpg","img/object_images/ring03.jpg","1","1","1","0","1","1","0.441262500127778","0.640899500111118","0.358724600169808","1","1","1","1","1","1","1","1","1"
"260001","img/object_images/ring03.jpg","img/object_images/projector01.jpg","img/object_images/jewelry09.jpg","1","1","1","1","0","1","0.358724600169808","0.441262500127778","0.409844200126827","1","1","1","1","1","1","1","1","1"
"260001","img/object_images/jewelry09.jpg","img/object_images/ring03.jpg","img/object_images/bicycle_lock01.jpg","1","1","1","1","1","0","0.409844200126827","0.358724600169808","0.462354800198227","1","1","1","1","1","1","1","1","1"
"260001","img/object_images/bicycle_lock01.jpg","img/object_images/jewelry09.jpg","img/object_images/purse01.jpg","1","1","1","0","1","1","0.462354800198227","0.409844200126827","0.44705650024116","1","1","1","1","1","1","1","1","1"
"260001","img/object_images/purse01.jpg","img/object_images/bicycle_lock01.jpg","img/object_images/cellphone02.jpg","1","1","1","1","0","1","0.44705650024116","0.462354800198227","0.360493200132623","1","1","1","1","1","1","1","1","1"
"260001","img/object_images/cellphone02.jpg","img/object_images/purse01.jpg","img/object_images/gift_box04.jpg","1","1","1","1","1","0","0.360493200132623","0.44705650024116","0.357614800101146","1","1","1","1","1","1","1","1","1"
"260001","img/object_images/gift_box04.jpg","img/object_images/cellphone02.jpg","img/object_images/basket02.jpg","1","1","1","0","1","0","0.357614800101146","0.360493200132623","0.576516000088304","1","1","1","1","1","1","1","1","1"
"260001","img/object_images/basket02.jpg","img/object_images/gift_box04.jpg","img/object_images/tool08.jpg","1","1","1","0","0","0","0.576516000088304","0.357614800101146","0.473404800053686","1","1","1","1","1","1","1","1","1"
"260001","img/object_images/tool08.jpg","img/object_images/basket02.jpg","img/object_images/lighter01.jpg","1","1","1","0","0","1","0.473404800053686","0.576516000088304","0.326576499966905","1","1","1","1","1","1","1","1","1"
"260001","img/object_images/lighter01.jpg","img/object_images/tool08.jpg","img/object_images/yo_yo01.jpg","1","1","1","1","0","0","0.326576499966905","0.473404800053686","0.431660300120711","1","1","1","1","1","1","1","1","1"
"260001","img/object_images/yo_yo01.jpg","img/object_images/lighter01.jpg","img/object_images/glasses06.jpg","1","1","0","0","1","1","0.431660300120711","0.326576499966905","0.386133400257677","1","1","1","1","1","1","1","1","1"
"260001","img/object_images/glasses06.jpg","img/object_images/yo_yo01.jpg","img/object_images/glasses07.jpg","0","1","1","1","0","1","0.386133400257677","0.431660300120711","0.335058300290257","1","1","1","1","1","1","1","1","1"
"260001","img/object_images/glasses07.jpg","img/object_images/glasses06.jpg","img/object_images/exfoliater_brush01.jpg","1","0","1","1","1","0","0.335058300290257","0.386133400257677","0.401925400132313","1","1","1","1","1","1","1","1","1"
"260001","img/object_images/exfoliater_brush01.jpg","img/object_images/glasses07.jpg","img/object_images/Pottery01.jpg","1","1","1","0","1","0","0.401925400132313","0.335058300290257","0.47070510010235","1","1","1","1","1","1","1","1","1"
"260001","img/object_images/Pottery01.jpg","img/object_images/exfoliater_brush01.jpg","img/object_images/Kitchen_Towel.jpg","1","1","1","0","0","0","0.47070510010235","0.401925400132313","0.650075600249693","1","1","1","1","1","1","1","1","1"
"260001","img/object_images/Kitchen_Towel.jpg","img/object_images/Pottery01.jpg","img/object_images/Traffic Sign 01.jpg","1","1","0","0","0","0","0.650075600249693","0.47070510010235","0.365596400108188","1","1","1","1","1","1","1","1","1"
"260001","img/object_images/Traffic Sign 01.jpg","img/object_images/Kitchen_Towel.jpg","img/object_images/handcuffs01.jpg","0","1","1","0","0","0","0.365596400108188","0.650075600249693","0.449242600006983","1","1","1","1","1","1","1","1","1"
"260001","img/object_images/handcuffs01.jpg","img/object_images/Traffic Sign 01.jpg","img/object_images/faucet01.jpg","1","0","1","0","0","0","0.449242600006983","0.365596400108188","0.38098410028033","1","1","1","1","1","1","1","1","1"
"260001","img/object_images/faucet01.jpg","img/object_images/handcuffs01.jpg","img/object_images/tool07.jpg","1","1","1","0","0","0","0.38098410028033","0.449242600006983","0.501060500042513","1","1","1","1","1","1","1","1","1"
"260001","img/object_images/tool07.jpg","img/object_images/faucet01.jpg","img/object_images/tray01.jpg","1","1","1","0","0","1","0.501060500042513","0.38098410028033","0.385632300050929","1","1","1","1","1","1","1","1","1"
"260001","img/object_images/tray01.jpg","img/object_images/tool07.jpg","img/object_images/blanket01.jpg","1","1","1","1","0","1","0.385632300050929","0.501060500042513","0.428156899986789","1","1","1","1","1","1","1","1","1"
"260001","img/object_images/blanket01.jpg","img/object_images/tray01.jpg","img/object_images/book01.jpg","1","1","1","1","1","1","0.428156899986789","0.385632300050929","0.381144199986011","1","1","1","1","1","1","1","1","1"
"260001","img/object_images/book01.jpg","img/object_images/blanket01.jpg","img/object_images/hole_puncher01.jpg","1","1","0","1","1","1","0.381144199986011","0.428156899986789","0.445603300118819","1","1","1","1","1","1","1","1","1"
"260001","img/object_images/hole_puncher01.jpg","img/object_images/book01.jpg","img/object_images/Sprayer01.jpg","0","1","1","1","1","0","0.445603300118819","0.381144199986011","0.429984700167552","1","1","1","1","1","1","1","1","1"
"260001","img/object_images/Sprayer01.jpg","img/object_images/hole_puncher01.jpg","img/object_images/colander01.jpg","1","0","1","0","1","0","0.429984700167552","0.445603300118819","0.416011499939486","1","1","1","1","1","1","1","1","1"
"260001","img/object_images/colander01.jpg","img/object_images/Sprayer01.jpg","img/object_images/fire_extinguisher01.jpg","1","1","1","0","0","0","0.416011499939486","0.429984700167552","0.417173800291494","1","1","1","1","1","1","1","1","1"
"260001","img/object_images/fire_extinguisher01.jpg","img/object_images/colander01.jpg","img/object_images/speaker01.jpg","1","1","1","0","0","1","0.417173800291494","0.416011499939486","0.350473999977112","1","1","1","1","1","1","1","1","1"
"260001","img/object_images/speaker01.jpg","img/object_images/fire_extinguisher01.jpg","img/object_images/pan01.jpg","1","1","1","1","0","1","0.350473999977112","0.417173800291494","0.386687000282109","1","1","1","1","1","1","1","1","1"
"260001","img/object_images/pan01.jpg","img/object_images/speaker01.jpg",NA,"1","1",NA,"1","1",NA,"0.386687000282109","0.350473999977112",NA,"1","1",NA,"1","1",NA,"1","1",NA
"260001","img/object_images/hat06.jpg",NA,"img/object_images/tool19.jpg","0",NA,"1","0",NA,"1","0.387739700032398",NA,"0.395839600125328","1",NA,"1","1",NA,"1","1",NA,"1"
"260001","img/object_images/tool19.jpg","img/object_images/hat06.jpg","img/object_images/bottle10.jpg","1","0","1","1","0","1","0.395839600125328","0.387739700032398","0.425701300147921","1","1","1","1","1","1","1","1","1"
"260001","img/object_images/bottle10.jpg","img/object_images/tool19.jpg","img/object_images/wagon_cart03.jpg","1","1","1","1","1","1","0.425701300147921","0.395839600125328","0.430713000008836","1","1","1","1","1","1","1","1","1"
"260001","img/object_images/wagon_cart03.jpg","img/object_images/bottle10.jpg","img/object_images/fan02.jpg","1","1","0","1","1","0","0.430713000008836","0.425701300147921","0.470548200188205","1","1","1","1","1","1","1","1","2"
"260001","img/object_images/fan02.jpg","img/object_images/wagon_cart03.jpg","img/object_images/bottle02.jpg","0","1","1","0","1","1","0.470548200188205","0.430713000008836","0.465232900111005","1","1","1","1","1","1","2","1","1"
"260001","img/object_images/bottle02.jpg","img/object_images/fan02.jpg","img/object_images/dog_leash01.jpg","1","0","1","1","0","0","0.465232900111005","0.470548200188205","0.658336700173095","1","1","1","1","1","1","1","2","1"
"260001","img/object_images/dog_leash01.jpg","img/object_images/bottle02.jpg","img/object_images/bicycle01.jpg","1","1","1","0","1","1","0.658336700173095","0.465232900111005","0.433673800202087","1","1","1","1","1","1","1","1","1"
"260001","img/object_images/bicycle01.jpg","img/object_images/dog_leash01.jpg","img/object_images/pen05.jpg","1","1","0","1","0","0","0.433673800202087","0.658336700173095","0.305925800232217","1","1","1","1","1","1","1","1","1"
"260001","img/object_images/pen05.jpg","img/object_images/bicycle01.jpg","img/object_images/flask01.jpg","0","1","1","0","1","0","0.305925800232217","0.433673800202087","0.42914510006085","1","1","1","1","1","1","1","1","1"
"260001","img/object_images/flask01.jpg","img/object_images/pen05.jpg","img/object_images/helmet04.jpg","1","0","1","0","0","1","0.42914510006085","0.305925800232217","0.383408300112933","1","1","1","1","1","1","1","1","1"
"260001","img/object_images/helmet04.jpg","img/object_images/flask01.jpg","img/object_images/water_scooter01.jpg","1","1","1","1","0","1","0.383408300112933","0.42914510006085","0.413641500286758","1","1","1","1","1","1","1","1","1"
"260001","img/object_images/water_scooter01.jpg","img/object_images/helmet04.jpg","img/object_images/perfume02.jpg","1","1","1","1","1","0","0.413641500286758","0.383408300112933","0.428567599970847","1","1","1","1","1","1","1","1","1"
"260001","img/object_images/perfume02.jpg","img/object_images/water_scooter01.jpg","img/object_images/toilet_paper_dispenser01.jpg","1","1","1","0","1","1","0.428567599970847","0.413641500286758","0.370011500315741","1","1","1","1","1","1","1","1","1"
"260001","img/object_images/toilet_paper_dispenser01.jpg","img/object_images/perfume02.jpg","img/object_images/cellphone03.jpg","1","1","1","1","0","0","0.370011500315741","0.428567599970847","0.547035800060257","1","1","1","1","1","1","1","1","1"
"260001","img/object_images/cellphone03.jpg","img/object_images/toilet_paper_dispenser01.jpg","img/object_images/purse04.jpg","1","1","1","0","1","1","0.547035800060257","0.370011500315741","0.479578000260517","1","1","1","1","1","1","1","1","1"
"260001","img/object_images/purse04.jpg","img/object_images/cellphone03.jpg","img/object_images/shoes07.jpg","1","1","1","1","0","0","0.479578000260517","0.547035800060257","0.424032100243494","1","1","1","1","1","1","1","1","1"
"260001","img/object_images/shoes07.jpg","img/object_images/purse04.jpg","img/object_images/hot_air_balloon02.jpg","1","1","0","0","1","0","0.424032100243494","0.479578000260517","0.366118400124833","1","1","1","1","1","1","1","1","1"
"260001","img/object_images/hot_air_balloon02.jpg","img/object_images/shoes07.jpg","img/object_images/bottle09.jpg","0","1","1","0","0","0","0.366118400124833","0.424032100243494","0.420834999997169","1","1","1","1","1","1","1","1","1"
"260001","img/object_images/bottle09.jpg","img/object_images/hot_air_balloon02.jpg","img/object_images/piggy_bank01.jpg","1","0","1","0","0","1","0.420834999997169","0.366118400124833","0.430008500115946","1","1","1","1","1","1","1","1","1"
"260001","img/object_images/piggy_bank01.jpg","img/object_images/bottle09.jpg","img/object_images/coloring_pencil02.jpg","1","1","1","1","0","0","0.430008500115946","0.420834999997169","0.482325799996033","1","1","1","1","1","1","1","1","1"
"260001","img/object_images/coloring_pencil02.jpg","img/object_images/piggy_bank01.jpg","img/object_images/toaster01.jpg","1","1","1","0","1","1","0.482325799996033","0.430008500115946","0.419749499997124","1","1","1","1","1","1","1","1","1"
"260001","img/object_images/toaster01.jpg","img/object_images/coloring_pencil02.jpg","img/object_images/chair03.jpg","1","1","0","1","0","0","0.419749499997124","0.482325799996033","0.432345000095666","1","1","1","1","1","1","1","1","1"
"260001","img/object_images/chair03.jpg","img/object_images/toaster01.jpg","img/object_images/tie02.jpg","0","1","1","0","1","0","0.432345000095666","0.419749499997124","0.510191000066698","1","1","1","1","1","1","1","1","1"
"260001","img/object_images/tie02.jpg","img/object_images/chair03.jpg","img/object_images/audio_port01.jpg","1","0","1","0","0","1","0.510191000066698","0.432345000095666","0.33664370002225","1","1","1","1","1","1","1","1","1"
"260001","img/object_images/audio_port01.jpg","img/object_images/tie02.jpg","img/object_images/boat02.jpg","1","1","1","1","0","1","0.33664370002225","0.510191000066698","0.425415199948475","1","1","1","1","1","1","1","1","1"
"260001","img/object_images/boat02.jpg","img/object_images/audio_port01.jpg","img/object_images/WoodBox01.jpg","1","1","1","1","1","0","0.425415199948475","0.33664370002225","0.502075500087813","1","1","1","1","1","1","1","1","1"
"260001","img/object_images/WoodBox01.jpg","img/object_images/boat02.jpg","img/object_images/camera_lens01.jpg","1","1","1","0","1","1","0.502075500087813","0.425415199948475","0.31792030017823","1","1","1","1","1","1","1","1","1"
"260001","img/object_images/camera_lens01.jpg","img/object_images/WoodBox01.jpg","img/object_images/boat_toy10.jpg","1","1","1","1","0","0","0.31792030017823","0.502075500087813","0.428945300169289","1","1","1","1","1","1","1","1","1"
"260001","img/object_images/boat_toy10.jpg","img/object_images/camera_lens01.jpg","img/object_images/scoreboard01.jpg","1","1","0","0","1","1","0.428945300169289","0.31792030017823","0.320946900174022","1","1","1","1","1","1","1","1","1"
"260001","img/object_images/scoreboard01.jpg","img/object_images/boat_toy10.jpg","img/object_images/knit01.jpg","0","1","1","1","0","0","0.320946900174022","0.428945300169289","0.483097100164741","1","1","1","1","1","1","1","1","1"
"260001","img/object_images/knit01.jpg","img/object_images/scoreboard01.jpg","img/object_images/bean_bag02.jpg","1","0","1","0","1","1","0.483097100164741","0.320946900174022","0.509608800057322","1","1","1","1","1","1","1","1","1"
"260001","img/object_images/bean_bag02.jpg","img/object_images/knit01.jpg",NA,"1","1",NA,"1","0",NA,"0.509608800057322","0.483097100164741",NA,"1","1",NA,"1","1",NA,"1","1",NA
"260001","img/object_images/lamp01.jpg",NA,"img/object_images/toy_train02.jpg","1",NA,"1","1",NA,"1","0.571648200042546",NA,"0.331835700199008","1",NA,"1","1",NA,"1","1",NA,"1"
"260001","img/object_images/toy_train02.jpg","img/object_images/lamp01.jpg","img/object_images/container01.jpg","1","1","1","1","1","0","0.331835700199008","0.571648200042546","0.377470700070262","1","1","1","1","1","1","1","1","1"
"260001","img/object_images/container01.jpg","img/object_images/toy_train02.jpg","img/object_images/ironing_table02.jpg","1","1","1","0","1","0","0.377470700070262","0.331835700199008","0.348765300121158","1","1","1","1","1","1","1","1","1"
"260001","img/object_images/ironing_table02.jpg","img/object_images/container01.jpg","img/object_images/drone02.jpg","1","1","0","0","0","0","0.348765300121158","0.377470700070262","0.30638900003396","1","1","1","1","1","1","1","1","1"
"260001","img/object_images/drone02.jpg","img/object_images/ironing_table02.jpg","img/object_images/bottle12.jpg","0","1","0","0","0","1","0.30638900003396","0.348765300121158","0.348060200223699","1","1","1","1","1","1","1","1","1"
"260001","img/object_images/bottle12.jpg","img/object_images/drone02.jpg","img/object_images/guitar01.jpg","0","0","1","1","0","1","0.348060200223699","0.30638900003396","0.344591500237584","1","1","1","1","1","1","1","1","1"
"260001","img/object_images/guitar01.jpg","img/object_images/bottle12.jpg","img/object_images/gloves05.jpg","1","0","1","1","1","1","0.344591500237584","0.348060200223699","0.395057400222868","1","1","1","1","1","1","1","1","1"
"260001","img/object_images/gloves05.jpg","img/object_images/guitar01.jpg","img/object_images/tie01.jpg","1","1","0","1","1","0","0.395057400222868","0.344591500237584","0.362843299983069","1","1","1","1","1","1","1","1","1"
"260001","img/object_images/tie01.jpg","img/object_images/gloves05.jpg","img/object_images/brief_case01.jpg","0","1","1","0","1","0","0.362843299983069","0.395057400222868","0.465011300286278","1","1","1","1","1","1","1","1","1"
"260001","img/object_images/brief_case01.jpg","img/object_images/tie01.jpg","img/object_images/chair01.jpg","1","0","1","0","0","0","0.465011300286278","0.362843299983069","0.535502500133589","1","1","1","1","1","1","1","1","1"
"260001","img/object_images/chair01.jpg","img/object_images/brief_case01.jpg","img/object_images/pot01.jpg","1","1","1","0","0","0","0.535502500133589","0.465011300286278","0.40988970012404","1","1","1","1","1","1","1","1","1"
"260001","img/object_images/pot01.jpg","img/object_images/chair01.jpg","img/object_images/Recycling01.jpg","1","1","1","0","0","1","0.40988970012404","0.535502500133589","0.360602300148457","1","1","1","1","1","1","1","1","1"
"260001","img/object_images/Recycling01.jpg","img/object_images/pot01.jpg","img/object_images/video_game06.jpg","1","1","1","1","0","0","0.360602300148457","0.40988970012404","0.367256700294092","1","1","1","1","1","1","1","1","1"
"260001","img/object_images/video_game06.jpg","img/object_images/Recycling01.jpg","img/object_images/lantern01.jpg","1","1","1","0","1","1","0.367256700294092","0.360602300148457","0.588502200087532","1","1","1","1","1","1","1","1","1"
"260001","img/object_images/lantern01.jpg","img/object_images/video_game06.jpg","img/object_images/car02.jpg","1","1","0","1","0","0","0.588502200087532","0.367256700294092","0.392075700219721","1","1","1","1","1","1","1","1","1"
"260001","img/object_images/car02.jpg","img/object_images/lantern01.jpg","img/object_images/soap01.jpg","0","1","1","0","1","0","0.392075700219721","0.588502200087532","0.530068000080064","1","1","1","1","1","1","1","1","1"
"260001","img/object_images/soap01.jpg","img/object_images/car02.jpg","img/object_images/razor03.jpg","1","0","1","0","0","0","0.530068000080064","0.392075700219721","0.492716300068423","1","1","1","1","1","1","1","1","1"
"260001","img/object_images/razor03.jpg","img/object_images/soap01.jpg","img/object_images/hat02.jpg","1","1","1","0","0","0","0.492716300068423","0.530068000080064","0.424376599956304","1","1","1","1","1","1","1","1","1"
"260001","img/object_images/hat02.jpg","img/object_images/razor03.jpg","img/object_images/Woopie01.jpg","1","1","1","0","0","1","0.424376599956304","0.492716300068423","0.385525899939239","1","1","1","1","1","1","1","1","1"
"260001","img/object_images/Woopie01.jpg","img/object_images/hat02.jpg","img/object_images/Wisk01.jpg","1","1","1","1","0","1","0.385525899939239","0.424376599956304","0.423132099909708","1","1","1","1","1","1","1","1","1"
"260001","img/object_images/Wisk01.jpg","img/object_images/Woopie01.jpg","img/object_images/toilet_paper01.jpg","1","1","1","1","1","1","0.423132099909708","0.385525899939239","0.336992800235748","1","1","1","1","1","1","1","1","1"
"260001","img/object_images/toilet_paper01.jpg","img/object_images/Wisk01.jpg","img/object_images/pitcher03.jpg","1","1","1","1","1","1","0.336992800235748","0.423132099909708","0.380003600148484","1","1","1","1","1","1","1","1","1"
"260001","img/object_images/pitcher03.jpg","img/object_images/toilet_paper01.jpg","img/object_images/airfryer01.jpg","1","1","0","1","1","0","0.380003600148484","0.336992800235748","0.399482700042427","1","1","1","1","1","1","1","1","1"
"260001","img/object_images/airfryer01.jpg","img/object_images/pitcher03.jpg","img/object_images/cochlear_implant01.jpg","0","1","1","0","1","0","0.399482700042427","0.380003600148484","0.45838260021992","1","1","1","1","1","1","1","1","1"
"260001","img/object_images/cochlear_implant01.jpg","img/object_images/airfryer01.jpg","img/object_images/couch04.jpg","1","0","1","0","0","1","0.45838260021992","0.399482700042427","0.408777700038627","1","1","1","1","1","1","1","1","1"
"260001","img/object_images/couch04.jpg","img/object_images/cochlear_implant01.jpg","img/object_images/decorative02.jpg","1","1","1","1","0","0","0.408777700038627","0.45838260021992","0.466479200171307","1","1","1","1","1","1","1","1","1"
"260001","img/object_images/decorative02.jpg","img/object_images/couch04.jpg","img/object_images/basketball_hoop02.jpg","1","1","1","0","1","0","0.466479200171307","0.408777700038627","0.422890100162476","1","1","1","1","1","1","1","1","1"
"260001","img/object_images/basketball_hoop02.jpg","img/object_images/decorative02.jpg","img/object_images/ball01.jpg","1","1","1","0","0","1","0.422890100162476","0.466479200171307","0.40089870011434","1","1","1","1","1","1","1","1","1"
"260001","img/object_images/ball01.jpg","img/object_images/basketball_hoop02.jpg","img/object_images/broom01.jpg","1","1","0","1","0","1","0.40089870011434","0.422890100162476","0.398071100004017","1","1","1","1","1","1","1","1","2"
"260001","img/object_images/broom01.jpg","img/object_images/ball01.jpg","img/object_images/helmet05.jpg","0","1","1","1","1","1","0.398071100004017","0.40089870011434","0.450680000009015","1","1","1","1","1","1","2","1","1"
"260001","img/object_images/helmet05.jpg","img/object_images/broom01.jpg","img/object_images/brief_case02.jpg","1","0","1","1","1","1","0.450680000009015","0.398071100004017","0.39040490030311","1","1","1","1","1","1","1","2","1"
"260001","img/object_images/brief_case02.jpg","img/object_images/helmet05.jpg",NA,"1","1",NA,"1","1",NA,"0.39040490030311","0.450680000009015",NA,"1","1",NA,"1","1",NA,"1","1",NA
