"participant_id","current_trial_object","pre_trial_object","post_trial_object","current_trial_accuracy","pre_trial_accuracy","post_trial_accuracy","current_trial_congruency","pre_trial_congruency","post_trial_congruency","current_trial_rt","pre_trial_rt","post_trial_rt","current_trial_responded","pre_trial_responded","post_trial_responded","current_trial_legitResponse","pre_trial_legitResponse","post_trial_legitResponse","current_trial_resp_nums","pre_trial_resp_nums","post_trial_resp_nums"
"260033","img/object_images/fan05.jpg",NA,"img/object_images/binoculars03.jpg","1",NA,"1","0",NA,"1","0.711981899992679",NA,"0.726900199995725","1",NA,"1","1",NA,"1","1",NA,"1"
"260033","img/object_images/binoculars03.jpg","img/object_images/fan05.jpg","img/object_images/belt01.jpg","1","1","1","1","0","0","0.726900199995725","0.711981899992679","0.586694600002375","1","1","1","1","1","1","1","1","1"
"260033","img/object_images/belt01.jpg","img/object_images/binoculars03.jpg","img/object_images/bag06.jpg","1","1","1","0","1","1","0.586694600002375","0.726900199995725","0.503825799998594","1","1","1","1","1","1","1","1","1"
"260033","img/object_images/bag06.jpg","img/object_images/belt01.jpg","img/object_images/screwdriver01.jpg","1","1","1","1","0","0","0.503825799998594","0.586694600002375","0.500747699989006","1","1","1","1","1","1","1","1","1"
"260033","img/object_images/screwdriver01.jpg","img/object_images/bag06.jpg","img/object_images/ice_tray03.jpg","1","1","1","0","1","1","0.500747699989006","0.503825799998594","0.642547999988892","1","1","1","1","1","1","1","1","1"
"260033","img/object_images/ice_tray03.jpg","img/object_images/screwdriver01.jpg","img/object_images/key02.jpg","1","1","1","1","0","1","0.642547999988892","0.500747699989006","0.621409100000164","1","1","1","1","1","1","1","1","1"
"260033","img/object_images/key02.jpg","img/object_images/ice_tray03.jpg","img/object_images/chair04.jpg","1","1","1","1","1","1","0.621409100000164","0.642547999988892","0.555953999995836","1","1","1","1","1","1","1","1","1"
"260033","img/object_images/chair04.jpg","img/object_images/key02.jpg","img/object_images/shower_head03.jpg","1","1","1","1","1","1","0.555953999995836","0.621409100000164","0.664865300001111","1","1","1","1","1","1","1","1","1"
"260033","img/object_images/shower_head03.jpg","img/object_images/chair04.jpg","img/object_images/WitchHat02.jpg","1","1","1","1","1","1","0.664865300001111","0.555953999995836","0.540052600001218","1","1","1","1","1","1","1","1","1"
"260033","img/object_images/WitchHat02.jpg","img/object_images/shower_head03.jpg","img/object_images/jewel01.jpg","1","1","1","1","1","0","0.540052600001218","0.664865300001111","0.567262900003698","1","1","1","1","1","1","1","1","1"
"260033","img/object_images/jewel01.jpg","img/object_images/WitchHat02.jpg","img/object_images/satellite01.jpg","1","1","1","0","1","0","0.567262900003698","0.540052600001218","0.465376599997398","1","1","1","1","1","1","1","1","1"
"260033","img/object_images/satellite01.jpg","img/object_images/jewel01.jpg","img/object_images/tool11.jpg","1","1","1","0","0","1","0.465376599997398","0.567262900003698","0.645634499989683","1","1","1","1","1","1","1","1","1"
"260033","img/object_images/tool11.jpg","img/object_images/satellite01.jpg","img/object_images/razor01.jpg","1","1","1","1","0","0","0.645634499989683","0.465376599997398","0.522322200005874","1","1","1","1","1","1","1","1","1"
"260033","img/object_images/razor01.jpg","img/object_images/tool11.jpg","img/object_images/MeasuringCup01.jpg","1","1","1","0","1","1","0.522322200005874","0.645634499989683","0.454016200004844","1","1","1","1","1","1","1","1","1"
"260033","img/object_images/MeasuringCup01.jpg","img/object_images/razor01.jpg","img/object_images/ribbon01.jpg","1","1","1","1","0","0","0.454016200004844","0.522322200005874","0.497535000002244","1","1","1","1","1","1","1","1","1"
"260033","img/object_images/ribbon01.jpg","img/object_images/MeasuringCup01.jpg","img/object_images/toaster02.jpg","1","1","1","0","1","1","0.497535000002244","0.454016200004844","0.56040609999036","1","1","1","1","1","1","1","1","1"
"260033","img/object_images/toaster02.jpg","img/object_images/ribbon01.jpg","img/object_images/hair_brush05.jpg","1","1","1","1","0","1","0.56040609999036","0.497535000002244","0.564881599988439","1","1","1","1","1","1","1","1","1"
"260033","img/object_images/hair_brush05.jpg","img/object_images/toaster02.jpg","img/object_images/mask01.jpg","1","1","1","1","1","0","0.564881599988439","0.56040609999036","0.529009399993811","1","1","1","1","1","1","1","1","1"
"260033","img/object_images/mask01.jpg","img/object_images/hair_brush05.jpg","img/object_images/shoes10.jpg","1","1","1","0","1","0","0.529009399993811","0.564881599988439","0.571433300006902","1","1","1","1","1","1","1","1","1"
"260033","img/object_images/shoes10.jpg","img/object_images/mask01.jpg","img/object_images/rock03.jpg","1","1","1","0","0","0","0.571433300006902","0.529009399993811","0.453304599999683","1","1","1","1","1","1","1","1","1"
"260033","img/object_images/rock03.jpg","img/object_images/shoes10.jpg","img/object_images/slinky_toy01.jpg","1","1","1","0","0","1","0.453304599999683","0.571433300006902","0.496617500000866","1","1","1","1","1","1","1","1","1"
"260033","img/object_images/slinky_toy01.jpg","img/object_images/rock03.jpg","img/object_images/cutting_board01.jpg","1","1","1","1","0","1","0.496617500000866","0.453304599999683","0.449803499999689","1","1","1","1","1","1","1","1","1"
"260033","img/object_images/cutting_board01.jpg","img/object_images/slinky_toy01.jpg","img/object_images/cards01.jpg","1","1","1","1","1","0","0.449803499999689","0.496617500000866","0.516147499991348","1","1","1","1","1","1","1","1","1"
"260033","img/object_images/cards01.jpg","img/object_images/cutting_board01.jpg","img/object_images/ladle02.jpg","1","1","1","0","1","0","0.516147499991348","0.449803499999689","0.51856690000568","1","1","1","1","1","1","1","1","1"
"260033","img/object_images/ladle02.jpg","img/object_images/cards01.jpg","img/object_images/jewelry07.jpg","1","1","1","0","0","1","0.51856690000568","0.516147499991348","0.444224099992425","1","1","1","1","1","1","1","1","1"
"260033","img/object_images/jewelry07.jpg","img/object_images/ladle02.jpg","img/object_images/tv01.jpg","1","1","1","1","0","0","0.444224099992425","0.51856690000568","0.507984600000782","1","1","1","1","1","1","1","1","1"
"260033","img/object_images/tv01.jpg","img/object_images/jewelry07.jpg","img/object_images/lemon_squeezer02.jpg","1","1","1","0","1","1","0.507984600000782","0.444224099992425","0.476469799992628","1","1","1","1","1","1","1","1","1"
"260033","img/object_images/lemon_squeezer02.jpg","img/object_images/tv01.jpg","img/object_images/yarn02.jpg","1","1","1","1","0","0","0.476469799992628","0.507984600000782","0.521074000003864","1","1","1","1","1","1","1","1","1"
"260033","img/object_images/yarn02.jpg","img/object_images/lemon_squeezer02.jpg","img/object_images/car03.jpg","1","1","1","0","1","0","0.521074000003864","0.476469799992628","0.498529899996356","1","1","1","1","1","1","1","1","1"
"260033","img/object_images/car03.jpg","img/object_images/yarn02.jpg","img/object_images/car04.jpg","1","1","1","0","0","0","0.498529899996356","0.521074000003864","0.49911940000311","1","1","1","1","1","1","1","1","1"
"260033","img/object_images/car04.jpg","img/object_images/car03.jpg","img/object_images/dress03.jpg","1","1","1","0","0","1","0.49911940000311","0.498529899996356","0.505731099998229","1","1","1","1","1","1","1","1","1"
"260033","img/object_images/dress03.jpg","img/object_images/car04.jpg",NA,"1","1",NA,"1","0",NA,"0.505731099998229","0.49911940000311",NA,"1","1",NA,"1","1",NA,"1","1",NA
"260033","img/object_images/book02.jpg",NA,"img/object_images/soap03.jpg","1",NA,"1","1",NA,"0","0.482804800005397",NA,"0.631086299996241","1",NA,"1","1",NA,"1","2",NA,"1"
"260033","img/object_images/soap03.jpg","img/object_images/book02.jpg","img/object_images/pen01.jpg","1","1","1","0","1","0","0.631086299996241","0.482804800005397","0.342870299995411","1","1","1","1","1","1","1","2","1"
"260033","img/object_images/pen01.jpg","img/object_images/soap03.jpg","img/object_images/toy01.jpg","1","1","1","0","0","1","0.342870299995411","0.631086299996241","0.419528099999297","1","1","1","1","1","1","1","1","1"
"260033","img/object_images/toy01.jpg","img/object_images/pen01.jpg","img/object_images/Violin01.jpg","1","1","1","1","0","0","0.419528099999297","0.342870299995411","0.441983400000027","1","1","1","1","1","1","1","1","1"
"260033","img/object_images/Violin01.jpg","img/object_images/toy01.jpg","img/object_images/floss02.jpg","1","1","1","0","1","1","0.441983400000027","0.419528099999297","0.435680800001137","1","1","1","1","1","1","1","1","1"
"260033","img/object_images/floss02.jpg","img/object_images/Violin01.jpg","img/object_images/tripod01.jpg","1","1","1","1","0","1","0.435680800001137","0.441983400000027","0.27302549999149","1","1","1","1","1","1","1","1","1"
"260033","img/object_images/tripod01.jpg","img/object_images/floss02.jpg","img/object_images/scarf01.jpg","1","1","1","1","1","1","0.27302549999149","0.435680800001137","0.434189899999183","1","1","1","1","1","1","1","1","1"
"260033","img/object_images/scarf01.jpg","img/object_images/tripod01.jpg","img/object_images/hair_brush01.jpg","1","1","1","1","1","1","0.434189899999183","0.27302549999149","0.363292299996829","1","1","1","1","1","1","1","1","1"
"260033","img/object_images/hair_brush01.jpg","img/object_images/scarf01.jpg","img/object_images/mail_box02.jpg","1","1","1","1","1","1","0.363292299996829","0.434189899999183","0.44898089999333","1","1","1","1","1","1","1","1","1"
"260033","img/object_images/mail_box02.jpg","img/object_images/hair_brush01.jpg","img/object_images/shoes12.jpg","1","1","1","1","1","1","0.44898089999333","0.363292299996829","0.390011399998912","1","1","1","1","1","1","1","1","1"
"260033","img/object_images/shoes12.jpg","img/object_images/mail_box02.jpg","img/object_images/fork02.jpg","1","1","1","1","1","0","0.390011399998912","0.44898089999333","0.360239899993758","1","1","1","1","1","1","1","1","1"
"260033","img/object_images/fork02.jpg","img/object_images/shoes12.jpg","img/object_images/rock02.jpg","1","1","1","0","1","0","0.360239899993758","0.390011399998912","0.340759700004128","1","1","1","1","1","1","1","1","1"
"260033","img/object_images/rock02.jpg","img/object_images/fork02.jpg","img/object_images/tool06.jpg","1","1","1","0","0","0","0.340759700004128","0.360239899993758","0.507324699996389","1","1","1","1","1","1","1","1","1"
"260033","img/object_images/tool06.jpg","img/object_images/rock02.jpg","img/object_images/Trowel01.jpg","1","1","1","0","0","0","0.507324699996389","0.340759700004128","0.477954200003296","1","1","1","1","1","1","1","1","1"
"260033","img/object_images/Trowel01.jpg","img/object_images/tool06.jpg","img/object_images/bell03.jpg","1","1","1","0","0","0","0.477954200003296","0.507324699996389","0.569905900003505","1","1","1","1","1","1","1","1","1"
"260033","img/object_images/bell03.jpg","img/object_images/Trowel01.jpg","img/object_images/bag_pipes01.jpg","1","1","1","0","0","1","0.569905900003505","0.477954200003296","0.40314429999853","1","1","1","1","1","1","1","1","1"
"260033","img/object_images/bag_pipes01.jpg","img/object_images/bell03.jpg","img/object_images/box03.jpg","1","1","1","1","0","0","0.40314429999853","0.569905900003505","0.4936091999989","1","1","1","1","1","1","1","1","1"
"260033","img/object_images/box03.jpg","img/object_images/bag_pipes01.jpg","img/object_images/couch01.jpg","1","1","1","0","1","0","0.4936091999989","0.40314429999853","0.398066399997333","1","1","1","1","1","1","1","1","1"
"260033","img/object_images/couch01.jpg","img/object_images/box03.jpg","img/object_images/clip04.jpg","1","1","1","0","0","1","0.398066399997333","0.4936091999989","0.322447099999408","1","1","1","1","1","1","1","1","1"
"260033","img/object_images/clip04.jpg","img/object_images/couch01.jpg","img/object_images/drone01.jpg","1","1","1","1","0","1","0.322447099999408","0.398066399997333","0.418938199989498","1","1","1","1","1","1","1","1","1"
"260033","img/object_images/drone01.jpg","img/object_images/clip04.jpg","img/object_images/pitcher09.jpg","1","1","1","1","1","1","0.418938199989498","0.322447099999408","0.468748600003892","1","1","1","1","1","1","1","1","1"
"260033","img/object_images/pitcher09.jpg","img/object_images/drone01.jpg","img/object_images/video_game03.jpg","1","1","1","1","1","1","0.468748600003892","0.418938199989498","0.381088000009186","1","1","1","1","1","1","1","1","1"
"260033","img/object_images/video_game03.jpg","img/object_images/pitcher09.jpg","img/object_images/blender01.jpg","1","1","1","1","1","0","0.381088000009186","0.468748600003892","0.36372599999595","1","1","1","1","1","1","1","1","1"
"260033","img/object_images/blender01.jpg","img/object_images/video_game03.jpg","img/object_images/computer_mouse01.jpg","1","1","0","0","1","1","0.36372599999595","0.381088000009186","0.324256299994886","1","1","1","1","1","1","1","1","1"
"260033","img/object_images/computer_mouse01.jpg","img/object_images/blender01.jpg","img/object_images/chain01.jpg","0","1","1","1","0","0","0.324256299994886","0.36372599999595","0.481534999998985","1","1","1","1","1","1","1","1","1"
"260033","img/object_images/chain01.jpg","img/object_images/computer_mouse01.jpg","img/object_images/computer_mouse02.jpg","1","0","1","0","1","0","0.481534999998985","0.324256299994886","0.470370900002308","1","1","1","1","1","1","1","1","1"
"260033","img/object_images/computer_mouse02.jpg","img/object_images/chain01.jpg","img/object_images/toothbrush01.jpg","1","1","1","0","0","0","0.470370900002308","0.481534999998985","0.450602400000207","1","1","1","1","1","1","1","1","1"
"260033","img/object_images/toothbrush01.jpg","img/object_images/computer_mouse02.jpg","img/object_images/skate_board01.jpg","1","1","1","0","0","0","0.450602400000207","0.470370900002308","0.373526499999571","1","1","1","1","1","1","1","1","1"
"260033","img/object_images/skate_board01.jpg","img/object_images/toothbrush01.jpg","img/object_images/egg_slicer01.jpg","1","1","1","0","0","1","0.373526499999571","0.450602400000207","0.374529100008658","1","1","1","1","1","1","1","1","1"
"260033","img/object_images/egg_slicer01.jpg","img/object_images/skate_board01.jpg","img/object_images/chair06.jpg","1","1","1","1","0","0","0.374529100008658","0.373526499999571","0.526611799999955","1","1","1","1","1","1","1","1","1"
"260033","img/object_images/chair06.jpg","img/object_images/egg_slicer01.jpg","img/object_images/airfryer02.jpg","1","1","0","0","1","1","0.526611799999955","0.374529100008658","0.574677399999928","1","1","1","1","1","1","1","1","1"
"260033","img/object_images/airfryer02.jpg","img/object_images/chair06.jpg",NA,"0","1",NA,"1","0",NA,"0.574677399999928","0.526611799999955",NA,"1","1",NA,"1","1",NA,"1","1",NA
"260033","img/object_images/lighter01.jpg",NA,"img/object_images/tray01.jpg","1",NA,"1","1",NA,"1","0.472799700000905",NA,"0.4209669999982","1",NA,"1","1",NA,"1","1",NA,"1"
"260033","img/object_images/tray01.jpg","img/object_images/lighter01.jpg","img/object_images/tool07.jpg","1","1","1","1","1","0","0.4209669999982","0.472799700000905","0.415846199990483","1","1","1","1","1","1","1","1","1"
"260033","img/object_images/tool07.jpg","img/object_images/tray01.jpg","img/object_images/hair_clips01.jpg","1","1","1","0","1","1","0.415846199990483","0.4209669999982","0.409629000001587","1","1","1","1","1","1","1","1","1"
"260033","img/object_images/hair_clips01.jpg","img/object_images/tool07.jpg","img/object_images/jewelry09.jpg","1","1","1","1","0","1","0.409629000001587","0.415846199990483","0.333427200006554","1","1","1","1","1","1","1","1","1"
"260033","img/object_images/jewelry09.jpg","img/object_images/hair_clips01.jpg","img/object_images/Pottery01.jpg","1","1","1","1","1","0","0.333427200006554","0.409629000001587","0.464850399992429","1","1","1","1","1","1","1","1","1"
"260033","img/object_images/Pottery01.jpg","img/object_images/jewelry09.jpg","img/object_images/Traffic Sign 01.jpg","1","1","1","0","1","0","0.464850399992429","0.333427200006554","0.518991399992956","1","1","1","1","1","1","1","1","1"
"260033","img/object_images/Traffic Sign 01.jpg","img/object_images/Pottery01.jpg","img/object_images/yo_yo01.jpg","1","1","1","0","0","0","0.518991399992956","0.464850399992429","0.401635500005796","1","1","1","1","1","1","1","1","1"
"260033","img/object_images/yo_yo01.jpg","img/object_images/Traffic Sign 01.jpg","img/object_images/exfoliater_brush01.jpg","1","1","1","0","0","0","0.401635500005796","0.518991399992956","0.425455000004149","1","1","1","1","1","1","1","1","1"
"260033","img/object_images/exfoliater_brush01.jpg","img/object_images/yo_yo01.jpg","img/object_images/gift_box04.jpg","1","1","0","0","0","0","0.425455000004149","0.401635500005796","0.335634999995818","1","1","1","1","1","1","1","1","1"
"260033","img/object_images/gift_box04.jpg","img/object_images/exfoliater_brush01.jpg","img/object_images/ring03.jpg","0","1","1","0","0","1","0.335634999995818","0.425455000004149","0.414604799996596","1","1","1","1","1","1","1","1","1"
"260033","img/object_images/ring03.jpg","img/object_images/gift_box04.jpg","img/object_images/speaker01.jpg","1","0","1","1","0","1","0.414604799996596","0.335634999995818","0.352761800008011","1","1","1","1","1","1","1","1","1"
"260033","img/object_images/speaker01.jpg","img/object_images/ring03.jpg","img/object_images/cellphone02.jpg","1","1","1","1","1","1","0.352761800008011","0.414604799996596","0.484245799991186","1","1","1","1","1","1","1","1","1"
"260033","img/object_images/cellphone02.jpg","img/object_images/speaker01.jpg","img/object_images/glasses07.jpg","1","1","1","1","1","1","0.484245799991186","0.352761800008011","0.471817899990128","1","1","1","1","1","1","1","1","1"
"260033","img/object_images/glasses07.jpg","img/object_images/cellphone02.jpg","img/object_images/glasses06.jpg","1","1","1","1","1","1","0.471817899990128","0.484245799991186","0.41105830000015","1","1","1","1","1","1","1","1","1"
"260033","img/object_images/glasses06.jpg","img/object_images/glasses07.jpg","img/object_images/cup03.jpg","1","1","1","1","1","1","0.41105830000015","0.471817899990128","0.395752500000526","1","1","1","1","1","1","1","1","1"
"260033","img/object_images/cup03.jpg","img/object_images/glasses06.jpg","img/object_images/hole_puncher01.jpg","1","1","1","1","1","1","0.395752500000526","0.41105830000015","0.359484999993583","1","1","1","1","1","1","1","1","1"
"260033","img/object_images/hole_puncher01.jpg","img/object_images/cup03.jpg","img/object_images/projector01.jpg","1","1","1","1","1","0","0.359484999993583","0.395752500000526","0.387881699993159","1","1","1","1","1","1","1","1","1"
"260033","img/object_images/projector01.jpg","img/object_images/hole_puncher01.jpg","img/object_images/tool08.jpg","1","1","1","0","1","0","0.387881699993159","0.359484999993583","0.344478400002117","1","1","1","1","1","1","1","1","1"
"260033","img/object_images/tool08.jpg","img/object_images/projector01.jpg","img/object_images/fire_extinguisher01.jpg","1","1","1","0","0","0","0.344478400002117","0.387881699993159","0.404031099998974","1","1","1","1","1","1","1","1","1"
"260033","img/object_images/fire_extinguisher01.jpg","img/object_images/tool08.jpg","img/object_images/TrashCan02.jpg","1","1","1","0","0","1","0.404031099998974","0.344478400002117","0.377268099997309","1","1","1","1","1","1","1","1","1"
"260033","img/object_images/TrashCan02.jpg","img/object_images/fire_extinguisher01.jpg","img/object_images/blanket01.jpg","1","1","1","1","0","1","0.377268099997309","0.404031099998974","0.372178799996618","1","1","1","1","1","1","1","1","1"
"260033","img/object_images/blanket01.jpg","img/object_images/TrashCan02.jpg","img/object_images/colander01.jpg","1","1","1","1","1","0","0.372178799996618","0.377268099997309","0.419663899985608","1","1","1","1","1","1","1","1","1"
"260033","img/object_images/colander01.jpg","img/object_images/blanket01.jpg","img/object_images/bicycle_lock01.jpg","1","1","1","0","1","0","0.419663899985608","0.372178799996618","0.403009500005282","1","1","1","1","1","1","1","1","1"
"260033","img/object_images/bicycle_lock01.jpg","img/object_images/colander01.jpg","img/object_images/purse01.jpg","1","1","1","0","0","1","0.403009500005282","0.419663899985608","0.371642699989025","1","1","1","1","1","1","1","1","1"
"260033","img/object_images/purse01.jpg","img/object_images/bicycle_lock01.jpg","img/object_images/basket02.jpg","1","1","1","1","0","0","0.371642699989025","0.403009500005282","0.417727399995783","1","1","1","1","1","1","1","1","1"
"260033","img/object_images/basket02.jpg","img/object_images/purse01.jpg","img/object_images/handcuffs01.jpg","1","1","1","0","1","0","0.417727399995783","0.371642699989025","0.391607400000794","1","1","1","1","1","1","1","1","1"
"260033","img/object_images/handcuffs01.jpg","img/object_images/basket02.jpg","img/object_images/Sprayer01.jpg","1","1","1","0","0","0","0.391607400000794","0.417727399995783","0.39898379999795","1","1","1","1","1","1","1","1","1"
"260033","img/object_images/Sprayer01.jpg","img/object_images/handcuffs01.jpg","img/object_images/faucet01.jpg","1","1","1","0","0","0","0.39898379999795","0.391607400000794","0.370079999993322","1","1","1","1","1","1","1","1","1"
"260033","img/object_images/faucet01.jpg","img/object_images/Sprayer01.jpg","img/object_images/pan01.jpg","1","1","1","0","0","1","0.370079999993322","0.39898379999795","0.388506400006008","1","1","1","1","1","1","1","1","1"
"260033","img/object_images/pan01.jpg","img/object_images/faucet01.jpg","img/object_images/Kitchen_Towel.jpg","1","1","1","1","0","0","0.388506400006008","0.370079999993322","0.435727299991413","1","1","1","1","1","1","1","1","1"
"260033","img/object_images/Kitchen_Towel.jpg","img/object_images/pan01.jpg","img/object_images/book01.jpg","1","1","1","0","1","1","0.435727299991413","0.388506400006008","0.421187699990696","1","1","1","1","1","1","1","1","1"
"260033","img/object_images/book01.jpg","img/object_images/Kitchen_Towel.jpg",NA,"1","1",NA,"1","0",NA,"0.421187699990696","0.435727299991413",NA,"1","1",NA,"1","1",NA,"1","1",NA
"260033","img/object_images/lock03.jpg",NA,"img/object_images/nut_cracker01.jpg","1",NA,"1","1",NA,"1","0.539900399991893",NA,"0.480833900001017","1",NA,"1","1",NA,"1","1",NA,"1"
"260033","img/object_images/nut_cracker01.jpg","img/object_images/lock03.jpg","img/object_images/Shoes05.jpg","1","1","1","1","1","0","0.480833900001017","0.539900399991893","0.409274899997399","1","1","1","1","1","1","1","1","1"
"260033","img/object_images/Shoes05.jpg","img/object_images/nut_cracker01.jpg","img/object_images/ToolBag01.jpg","1","1","1","0","1","0","0.409274899997399","0.480833900001017","0.44120249999105","1","1","1","1","1","1","1","1","1"
"260033","img/object_images/ToolBag01.jpg","img/object_images/Shoes05.jpg","img/object_images/bookmark01.jpg","1","1","0","0","0","0","0.44120249999105","0.409274899997399","0.365586899992195","1","1","1","1","1","1","1","1","1"
"260033","img/object_images/bookmark01.jpg","img/object_images/ToolBag01.jpg","img/object_images/bucket01.jpg","0","1","1","0","0","1","0.365586899992195","0.44120249999105","0.449682299993583","1","1","1","1","1","1","1","1","1"
"260033","img/object_images/bucket01.jpg","img/object_images/bookmark01.jpg","img/object_images/note_book02.jpg","1","0","1","1","0","0","0.449682299993583","0.365586899992195","0.442034699997748","1","1","1","1","1","1","1","1","1"
"260033","img/object_images/note_book02.jpg","img/object_images/bucket01.jpg","img/object_images/headset02.jpg","1","1","1","0","1","0","0.442034699997748","0.449682299993583","0.386680700001307","1","1","1","1","1","1","1","1","1"
"260033","img/object_images/headset02.jpg","img/object_images/note_book02.jpg","img/object_images/trumpet01.jpg","1","1","1","0","0","0","0.386680700001307","0.442034699997748","0.422484799986705","1","1","1","1","1","1","1","1","1"
"260033","img/object_images/trumpet01.jpg","img/object_images/headset02.jpg","img/object_images/bottle06.jpg","1","1","1","0","0","0","0.422484799986705","0.386680700001307","0.524022099998547","1","1","1","1","1","1","1","1","1"
"260033","img/object_images/bottle06.jpg","img/object_images/trumpet01.jpg","img/object_images/jewel02.jpg","1","1","1","0","0","0","0.524022099998547","0.422484799986705","0.447080700003426","1","1","1","1","1","1","1","1","1"
"260033","img/object_images/jewel02.jpg","img/object_images/bottle06.jpg","img/object_images/origami01.jpg","1","1","1","0","0","1","0.447080700003426","0.524022099998547","0.386050600005547","1","1","1","1","1","1","1","1","1"
"260033","img/object_images/origami01.jpg","img/object_images/jewel02.jpg","img/object_images/piano03.jpg","1","1","1","1","0","0","0.386050600005547","0.447080700003426","0.451457799994387","1","1","1","1","1","1","1","1","1"
"260033","img/object_images/piano03.jpg","img/object_images/origami01.jpg","img/object_images/egg_basket01.jpg","1","1","1","0","1","1","0.451457799994387","0.386050600005547","0.362980100006098","1","1","1","1","1","1","1","1","1"
"260033","img/object_images/egg_basket01.jpg","img/object_images/piano03.jpg","img/object_images/badminton01.jpg","1","1","1","1","0","1","0.362980100006098","0.451457799994387","0.361888200000976","1","1","1","1","1","1","1","1","1"
"260033","img/object_images/badminton01.jpg","img/object_images/egg_basket01.jpg","img/object_images/usb03.jpg","1","1","1","1","1","0","0.361888200000976","0.362980100006098","0.389248899999075","1","1","1","1","1","1","1","1","1"
"260033","img/object_images/usb03.jpg","img/object_images/badminton01.jpg","img/object_images/dice01.jpg","1","1","0","0","1","0","0.389248899999075","0.361888200000976","0.341622599997208","1","1","1","1","1","1","1","1","1"
"260033","img/object_images/dice01.jpg","img/object_images/usb03.jpg","img/object_images/phone04.jpg","0","1","1","0","0","1","0.341622599997208","0.389248899999075","0.414627199992537","1","1","1","1","1","1","1","1","1"
"260033","img/object_images/phone04.jpg","img/object_images/dice01.jpg","img/object_images/shovel01.jpg","1","0","1","1","0","0","0.414627199992537","0.341622599997208","0.392593099997612","1","1","1","1","1","1","1","1","1"
"260033","img/object_images/shovel01.jpg","img/object_images/phone04.jpg","img/object_images/helmet03.jpg","1","1","1","0","1","1","0.392593099997612","0.414627199992537","0.386684599987348","1","1","1","1","1","1","1","1","1"
"260033","img/object_images/helmet03.jpg","img/object_images/shovel01.jpg","img/object_images/scale02.jpg","1","1","1","1","0","0","0.386684599987348","0.392593099997612","0.410080100002233","1","1","1","1","1","1","1","1","1"
"260033","img/object_images/scale02.jpg","img/object_images/helmet03.jpg","img/object_images/joystick03.jpg","1","1","1","0","1","1","0.410080100002233","0.386684599987348","0.392682999998215","1","1","1","1","1","1","1","1","1"
"260033","img/object_images/joystick03.jpg","img/object_images/scale02.jpg","img/object_images/belt03.jpg","1","1","1","1","0","0","0.392682999998215","0.410080100002233","0.360660600010306","1","1","1","1","1","1","1","1","1"
"260033","img/object_images/belt03.jpg","img/object_images/joystick03.jpg","img/object_images/water_gun01.jpg","1","1","1","0","1","1","0.360660600010306","0.392682999998215","0.407114299989189","1","1","1","1","1","1","1","1","1"
"260033","img/object_images/water_gun01.jpg","img/object_images/belt03.jpg","img/object_images/tennis_racket01.jpg","1","1","1","1","0","1","0.407114299989189","0.360660600010306","0.39967389999947","1","1","1","1","1","1","1","1","1"
"260033","img/object_images/tennis_racket01.jpg","img/object_images/water_gun01.jpg","img/object_images/Eyeliner01.jpg","1","1","1","1","1","1","0.39967389999947","0.407114299989189","0.404132999989088","1","1","1","1","1","1","1","1","1"
"260033","img/object_images/Eyeliner01.jpg","img/object_images/tennis_racket01.jpg","img/object_images/frame01.jpg","1","1","1","1","1","1","0.404132999989088","0.39967389999947","0.449720800010255","1","1","1","1","1","1","1","1","1"
"260033","img/object_images/frame01.jpg","img/object_images/Eyeliner01.jpg","img/object_images/Safe01.jpg","1","1","1","1","1","1","0.449720800010255","0.404132999989088","0.417929099989124","1","1","1","1","1","1","1","1","1"
"260033","img/object_images/Safe01.jpg","img/object_images/frame01.jpg","img/object_images/TreeSlice01.jpg","1","1","1","1","1","1","0.417929099989124","0.449720800010255","0.34578399999009","1","1","1","1","1","1","1","1","1"
"260033","img/object_images/TreeSlice01.jpg","img/object_images/Safe01.jpg","img/object_images/yoga_mat01.jpg","1","1","1","1","1","0","0.34578399999009","0.417929099989124","0.428170600003796","1","1","1","1","1","1","1","1","1"
"260033","img/object_images/yoga_mat01.jpg","img/object_images/TreeSlice01.jpg","img/object_images/pitcher07.jpg","1","1","1","0","1","1","0.428170600003796","0.34578399999009","0.387166699991212","1","1","1","1","1","1","1","1","1"
"260033","img/object_images/pitcher07.jpg","img/object_images/yoga_mat01.jpg","img/object_images/fan01.jpg","1","1","1","1","0","0","0.387166699991212","0.428170600003796","0.350846999994246","1","1","1","1","1","1","1","1","1"
"260033","img/object_images/fan01.jpg","img/object_images/pitcher07.jpg",NA,"1","1",NA,"0","1",NA,"0.350846999994246","0.387166699991212",NA,"1","1",NA,"1","1",NA,"1","1",NA
"260033","img/object_images/stereo02.jpg",NA,"img/object_images/hand_grip_exerciser01.jpg","1",NA,"1","0",NA,"0","0.463997700004256",NA,"0.423754499992356","1",NA,"1","1",NA,"1","1",NA,"1"
"260033","img/object_images/hand_grip_exerciser01.jpg","img/object_images/stereo02.jpg","img/object_images/boat04.jpg","1","1","0","0","0","0","0.423754499992356","0.463997700004256","0.460014000011142","1","1","1","1","1","1","1","1","1"
"260033","img/object_images/boat04.jpg","img/object_images/hand_grip_exerciser01.jpg","img/object_images/video_game01.jpg","0","1","0","0","0","1","0.460014000011142","0.423754499992356","0.588701000000583","1","1","1","1","1","1","1","1","1"
"260033","img/object_images/video_game01.jpg","img/object_images/boat04.jpg","img/object_images/phone02.jpg","0","0","0","1","0","1","0.588701000000583","0.460014000011142","0.39438899999368","1","1","1","1","1","1","1","1","1"
"260033","img/object_images/phone02.jpg","img/object_images/video_game01.jpg","img/object_images/hoverboard01.jpg","0","0","1","1","1","0","0.39438899999368","0.588701000000583","0.520639900001697","1","1","1","1","1","1","1","1","1"
"260033","img/object_images/hoverboard01.jpg","img/object_images/phone02.jpg","img/object_images/remover01.jpg","1","0","1","0","1","1","0.520639900001697","0.39438899999368","0.550020199996652","1","1","1","1","1","1","1","1","1"
"260033","img/object_images/remover01.jpg","img/object_images/hoverboard01.jpg","img/object_images/bottle07.jpg","1","1","1","1","0","1","0.550020199996652","0.520639900001697","0.475274899989017","1","1","1","1","1","1","1","1","1"
"260033","img/object_images/bottle07.jpg","img/object_images/remover01.jpg","img/object_images/keyboard02.jpg","1","1","1","1","1","1","0.475274899989017","0.550020199996652","0.329598800002714","1","1","1","1","1","1","1","1","1"
"260033","img/object_images/keyboard02.jpg","img/object_images/bottle07.jpg","img/object_images/camera03.jpg","1","1","1","1","1","0","0.329598800002714","0.475274899989017","0.441749399993569","1","1","1","1","1","1","1","1","1"
"260033","img/object_images/camera03.jpg","img/object_images/keyboard02.jpg","img/object_images/knife02.jpg","1","1","1","0","1","0","0.441749399993569","0.329598800002714","0.670824499989976","1","1","1","1","1","1","1","1","1"
"260033","img/object_images/knife02.jpg","img/object_images/camera03.jpg","img/object_images/tool18.jpg","1","1","1","0","0","0","0.670824499989976","0.441749399993569","0.452429600001778","1","1","1","1","1","1","1","1","1"
"260033","img/object_images/tool18.jpg","img/object_images/knife02.jpg","img/object_images/curtain02.jpg","1","1","1","0","0","0","0.452429600001778","0.670824499989976","0.589303599990672","1","1","1","1","1","1","1","1","1"
"260033","img/object_images/curtain02.jpg","img/object_images/tool18.jpg","img/object_images/flashlight03.jpg","1","1","1","0","0","0","0.589303599990672","0.452429600001778","0.397512099996675","1","1","1","1","1","1","1","1","1"
"260033","img/object_images/flashlight03.jpg","img/object_images/curtain02.jpg","img/object_images/toy08.jpg","1","1","1","0","0","0","0.397512099996675","0.589303599990672","0.451932800002396","1","1","1","1","1","1","1","1","1"
"260033","img/object_images/toy08.jpg","img/object_images/flashlight03.jpg","img/object_images/car01.jpg","1","1","1","0","0","1","0.451932800002396","0.397512099996675","0.340583400000469","1","1","1","1","1","1","1","1","1"
"260033","img/object_images/car01.jpg","img/object_images/toy08.jpg","img/object_images/jacket04.jpg","1","1","1","1","0","0","0.340583400000469","0.451932800002396","0.346983299998101","1","1","1","1","1","1","1","1","1"
"260033","img/object_images/jacket04.jpg","img/object_images/car01.jpg","img/object_images/Statue01.jpg","1","1","1","0","1","1","0.346983299998101","0.340583400000469","0.382078399998136","1","1","1","1","1","1","1","1","1"
"260033","img/object_images/Statue01.jpg","img/object_images/jacket04.jpg","img/object_images/knit03.jpg","1","1","1","1","0","1","0.382078399998136","0.346983299998101","0.378576699993573","1","1","1","1","1","1","1","1","1"
"260033","img/object_images/knit03.jpg","img/object_images/Statue01.jpg","img/object_images/mail_box01.jpg","1","1","1","1","1","0","0.378576699993573","0.382078399998136","0.410898799993447","1","1","1","1","1","1","1","1","1"
"260033","img/object_images/mail_box01.jpg","img/object_images/knit03.jpg","img/object_images/blender02.jpg","1","1","1","0","1","1","0.410898799993447","0.378576699993573","0.388112000000547","1","1","1","1","1","1","1","1","1"
"260033","img/object_images/blender02.jpg","img/object_images/mail_box01.jpg","img/object_images/dresser03.jpg","1","1","1","1","0","0","0.388112000000547","0.410898799993447","0.636723400006304","1","1","1","1","1","1","1","1","1"
"260033","img/object_images/dresser03.jpg","img/object_images/blender02.jpg","img/object_images/matches02.jpg","1","1","1","0","1","0","0.636723400006304","0.388112000000547","0.411275399994338","1","1","1","1","1","1","1","1","1"
"260033","img/object_images/matches02.jpg","img/object_images/dresser03.jpg","img/object_images/backpack01.jpg","1","1","1","0","0","0","0.411275399994338","0.636723400006304","0.386563599997316","1","1","1","1","1","1","1","1","1"
"260033","img/object_images/backpack01.jpg","img/object_images/matches02.jpg","img/object_images/kite01.jpg","1","1","1","0","0","1","0.386563599997316","0.411275399994338","0.391394299993408","1","1","1","1","1","1","1","1","1"
"260033","img/object_images/kite01.jpg","img/object_images/backpack01.jpg","img/object_images/shower_head01.jpg","1","1","0","1","0","1","0.391394299993408","0.386563599997316","0.403479699991294","1","1","1","1","1","1","1","1","2"
"260033","img/object_images/shower_head01.jpg","img/object_images/kite01.jpg","img/object_images/paper_cup02.jpg","0","1","1","1","1","1","0.403479699991294","0.391394299993408","0.40709870000137","1","1","1","1","1","1","2","1","1"
"260033","img/object_images/paper_cup02.jpg","img/object_images/shower_head01.jpg","img/object_images/remote_controller01.jpg","1","0","1","1","1","1","0.40709870000137","0.403479699991294","0.459754099996644","1","1","1","1","1","1","1","2","1"
"260033","img/object_images/remote_controller01.jpg","img/object_images/paper_cup02.jpg","img/object_images/knit04.jpg","1","1","1","1","1","1","0.459754099996644","0.40709870000137","0.364039699998102","1","1","1","1","1","1","1","1","1"
"260033","img/object_images/knit04.jpg","img/object_images/remote_controller01.jpg","img/object_images/basket04.jpg","1","1","1","1","1","1","0.364039699998102","0.459754099996644","0.392592399992282","1","1","1","1","1","1","1","1","1"
"260033","img/object_images/basket04.jpg","img/object_images/knit04.jpg","img/object_images/gloves02.jpg","1","1","0","1","1","0","0.392592399992282","0.364039699998102","0.448729599986109","1","1","1","1","1","1","1","1","1"
"260033","img/object_images/gloves02.jpg","img/object_images/basket04.jpg","img/object_images/sponge03.jpg","0","1","1","0","1","1","0.448729599986109","0.392592399992282","0.386429500009399","1","1","1","1","1","1","1","1","1"
"260033","img/object_images/sponge03.jpg","img/object_images/gloves02.jpg",NA,"1","0",NA,"1","0",NA,"0.386429500009399","0.448729599986109",NA,"1","1",NA,"1","1",NA,"1","1",NA
"260033","img/object_images/watch01.jpg",NA,"img/object_images/bow01.jpg","1",NA,"1","0",NA,"1","0.630684999996447",NA,"0.491864199997508","1",NA,"1","1",NA,"1","1",NA,"1"
"260033","img/object_images/bow01.jpg","img/object_images/watch01.jpg","img/object_images/toy03.jpg","1","1","1","1","0","1","0.491864199997508","0.630684999996447","0.38518440000189","1","1","1","1","1","1","1","1","1"
"260033","img/object_images/toy03.jpg","img/object_images/bow01.jpg","img/object_images/dart01.jpg","1","1","1","1","1","0","0.38518440000189","0.491864199997508","0.421322599999257","1","1","1","1","1","1","1","1","1"
"260033","img/object_images/dart01.jpg","img/object_images/toy03.jpg","img/object_images/video_game07.jpg","1","1","1","0","1","1","0.421322599999257","0.38518440000189","0.391550499989535","1","1","1","1","1","1","1","1","1"
"260033","img/object_images/video_game07.jpg","img/object_images/dart01.jpg","img/object_images/MetalWire01.jpg","1","1","1","1","0","0","0.391550499989535","0.421322599999257","0.416261699996539","1","1","1","1","1","1","1","1","1"
"260033","img/object_images/MetalWire01.jpg","img/object_images/video_game07.jpg","img/object_images/bottle05.jpg","1","1","1","0","1","0","0.416261699996539","0.391550499989535","0.40651399998751","1","1","1","1","1","1","1","1","1"
"260033","img/object_images/bottle05.jpg","img/object_images/MetalWire01.jpg","img/object_images/fridge03.jpg","1","1","1","0","0","0","0.40651399998751","0.416261699996539","0.352178499990259","1","1","1","1","1","1","1","1","1"
"260033","img/object_images/fridge03.jpg","img/object_images/bottle05.jpg","img/object_images/helmet01.jpg","1","1","1","0","0","0","0.352178499990259","0.40651399998751","0.417599499996868","1","1","1","1","1","1","1","1","1"
"260033","img/object_images/helmet01.jpg","img/object_images/fridge03.jpg","img/object_images/shovel03.jpg","1","1","1","0","0","1","0.417599499996868","0.352178499990259","0.329755699989619","1","1","1","1","1","1","1","1","1"
"260033","img/object_images/shovel03.jpg","img/object_images/helmet01.jpg","img/object_images/gauze01.jpg","1","1","1","1","0","0","0.329755699989619","0.417599499996868","0.573984100003145","1","1","1","1","1","1","1","1","1"
"260033","img/object_images/gauze01.jpg","img/object_images/shovel03.jpg","img/object_images/pot01 (1).jpg","1","1","1","0","1","0","0.573984100003145","0.329755699989619","0.438840499991784","1","1","1","1","1","1","1","1","1"
"260033","img/object_images/pot01 (1).jpg","img/object_images/gauze01.jpg","img/object_images/outlet01.jpg","1","1","1","0","0","0","0.438840499991784","0.573984100003145","0.409692799992626","1","1","1","1","1","1","1","1","1"
"260033","img/object_images/outlet01.jpg","img/object_images/pot01 (1).jpg","img/object_images/towel02.jpg","1","1","1","0","0","1","0.409692799992626","0.438840499991784","0.412095000006957","1","1","1","1","1","1","1","1","1"
"260033","img/object_images/towel02.jpg","img/object_images/outlet01.jpg","img/object_images/jewel04.jpg","1","1","0","1","0","0","0.412095000006957","0.409692799992626","0.377983500002301","1","1","1","1","1","1","1","1","2"
"260033","img/object_images/jewel04.jpg","img/object_images/towel02.jpg","img/object_images/crown02.jpg","0","1","1","0","1","1","0.377983500002301","0.412095000006957","0.409586800000397","1","1","1","1","1","1","2","1","1"
"260033","img/object_images/crown02.jpg","img/object_images/jewel04.jpg","img/object_images/Stool01.jpg","1","0","1","1","0","0","0.409586800000397","0.377983500002301","0.511956800008193","1","1","1","1","1","1","1","2","1"
"260033","img/object_images/Stool01.jpg","img/object_images/crown02.jpg","img/object_images/bird_house02.jpg","1","1","1","0","1","1","0.511956800008193","0.409586800000397","0.458604600004037","1","1","1","1","1","1","1","1","1"
"260033","img/object_images/bird_house02.jpg","img/object_images/Stool01.jpg","img/object_images/sink01.jpg","1","1","1","1","0","0","0.458604600004037","0.511956800008193","0.521835999999894","1","1","1","1","1","1","1","1","1"
"260033","img/object_images/sink01.jpg","img/object_images/bird_house02.jpg","img/object_images/toy04.jpg","1","1","1","0","1","0","0.521835999999894","0.458604600004037","0.444446599998628","1","1","1","1","1","1","1","1","1"
"260033","img/object_images/toy04.jpg","img/object_images/sink01.jpg","img/object_images/guitar02.jpg","1","1","1","0","0","0","0.444446599998628","0.521835999999894","0.475710300001083","1","1","1","1","1","1","1","1","1"
"260033","img/object_images/guitar02.jpg","img/object_images/toy04.jpg","img/object_images/frisbee01.jpg","1","1","1","0","0","1","0.475710300001083","0.444446599998628","0.424832499993499","1","1","1","1","1","1","1","1","1"
"260033","img/object_images/frisbee01.jpg","img/object_images/guitar02.jpg","img/object_images/mirror01.jpg","1","1","1","1","0","1","0.424832499993499","0.475710300001083","0.543275299991365","1","1","1","1","1","1","1","1","1"
"260033","img/object_images/mirror01.jpg","img/object_images/frisbee01.jpg","img/object_images/tool09.jpg","1","1","1","1","1","1","0.543275299991365","0.424832499993499","0.466357700002845","1","1","1","1","1","1","1","1","1"
"260033","img/object_images/tool09.jpg","img/object_images/mirror01.jpg","img/object_images/acoustic_capo01.jpg","1","1","1","1","1","1","0.466357700002845","0.543275299991365","0.425978800005396","1","1","1","1","1","1","1","1","1"
"260033","img/object_images/acoustic_capo01.jpg","img/object_images/tool09.jpg","img/object_images/judge_gavel01.jpg","1","1","1","1","1","1","0.425978800005396","0.466357700002845","0.513990299994475","1","1","1","1","1","1","1","1","1"
"260033","img/object_images/judge_gavel01.jpg","img/object_images/acoustic_capo01.jpg","img/object_images/Tin01.jpg","1","1","1","1","1","1","0.513990299994475","0.425978800005396","0.405874200005201","1","1","1","1","1","1","1","1","1"
"260033","img/object_images/Tin01.jpg","img/object_images/judge_gavel01.jpg","img/object_images/tool02.jpg","1","1","1","1","1","1","0.405874200005201","0.513990299994475","0.388924500002759","1","1","1","1","1","1","1","1","1"
"260033","img/object_images/tool02.jpg","img/object_images/Tin01.jpg","img/object_images/stapler.jpg","1","1","1","1","1","1","0.388924500002759","0.405874200005201","0.417377699995995","1","1","1","1","1","1","1","1","1"
"260033","img/object_images/stapler.jpg","img/object_images/tool02.jpg","img/object_images/ornament01.jpg","1","1","1","1","1","1","0.417377699995995","0.388924500002759","0.396635400000378","1","1","1","1","1","1","1","1","1"
"260033","img/object_images/ornament01.jpg","img/object_images/stapler.jpg","img/object_images/Vacuum01.jpg","1","1","1","1","1","0","0.396635400000378","0.417377699995995","0.476402000000235","1","1","1","1","1","1","1","1","1"
"260033","img/object_images/Vacuum01.jpg","img/object_images/ornament01.jpg","img/object_images/Ring02.jpg","1","1","1","0","1","0","0.476402000000235","0.396635400000378","0.444882700001472","1","1","1","1","1","1","1","1","1"
"260033","img/object_images/Ring02.jpg","img/object_images/Vacuum01.jpg",NA,"1","1",NA,"0","0",NA,"0.444882700001472","0.476402000000235",NA,"1","1",NA,"1","1",NA,"1","1",NA
"260033","img/object_images/pan03.jpg",NA,"img/object_images/perfume01.jpg","1",NA,"0","1",NA,"0","0.487921599997208",NA,"0.425990100004128","1",NA,"1","1",NA,"1","1",NA,"1"
"260033","img/object_images/perfume01.jpg","img/object_images/pan03.jpg","img/object_images/hat09.jpg","0","1","1","0","1","0","0.425990100004128","0.487921599997208","0.472802599993884","1","1","1","1","1","1","1","1","1"
"260033","img/object_images/hat09.jpg","img/object_images/perfume01.jpg","img/object_images/hat13.jpg","1","0","1","0","0","1","0.472802599993884","0.425990100004128","0.361848200001987","1","1","1","1","1","1","1","1","1"
"260033","img/object_images/hat13.jpg","img/object_images/hat09.jpg","img/object_images/Candle_Holder01.jpg","1","1","1","1","0","0","0.361848200001987","0.472802599993884","0.433593800000381","1","1","1","1","1","1","1","1","1"
"260033","img/object_images/Candle_Holder01.jpg","img/object_images/hat13.jpg","img/object_images/video_game02.jpg","1","1","1","0","1","1","0.433593800000381","0.361848200001987","0.446858899988001","1","1","1","1","1","1","1","1","1"
"260033","img/object_images/video_game02.jpg","img/object_images/Candle_Holder01.jpg","img/object_images/hammer02.jpg","1","1","0","1","0","0","0.446858899988001","0.433593800000381","0.438941400003387","1","1","1","1","1","1","1","1","1"
"260033","img/object_images/hammer02.jpg","img/object_images/video_game02.jpg","img/object_images/duster01.jpg","0","1","1","0","1","0","0.438941400003387","0.446858899988001","0.448401799993007","1","1","1","1","1","1","1","1","1"
"260033","img/object_images/duster01.jpg","img/object_images/hammer02.jpg","img/object_images/floss01.jpg","1","0","1","0","0","1","0.448401799993007","0.438941400003387","0.505979699999443","1","1","1","1","1","1","1","1","1"
"260033","img/object_images/floss01.jpg","img/object_images/duster01.jpg","img/object_images/board01.jpg","1","1","1","1","0","1","0.505979699999443","0.448401799993007","0.45242899999721","1","1","1","1","1","1","1","1","1"
"260033","img/object_images/board01.jpg","img/object_images/floss01.jpg","img/object_images/ruler02.jpg","1","1","1","1","1","1","0.45242899999721","0.505979699999443","0.321681999994325","1","1","1","1","1","1","1","1","1"
"260033","img/object_images/ruler02.jpg","img/object_images/board01.jpg","img/object_images/razor02.jpg","1","1","1","1","1","1","0.321681999994325","0.45242899999721","0.417942300002323","1","1","1","1","1","1","1","1","1"
"260033","img/object_images/razor02.jpg","img/object_images/ruler02.jpg","img/object_images/spray_can01.jpg","1","1","1","1","1","0","0.417942300002323","0.321681999994325","0.44603449999704","1","1","1","1","1","1","1","1","1"
"260033","img/object_images/spray_can01.jpg","img/object_images/razor02.jpg","img/object_images/tool20.jpg","1","1","1","0","1","0","0.44603449999704","0.417942300002323","0.374174699987634","1","1","1","1","1","1","1","1","1"
"260033","img/object_images/tool20.jpg","img/object_images/spray_can01.jpg","img/object_images/dust_pan01.jpg","1","1","1","0","0","1","0.374174699987634","0.44603449999704","0.379132900008699","1","1","1","1","1","1","1","1","1"
"260033","img/object_images/dust_pan01.jpg","img/object_images/tool20.jpg","img/object_images/office_supplies01.jpg","1","1","1","1","0","1","0.379132900008699","0.374174699987634","0.345376900004339","1","1","1","1","1","1","1","1","1"
"260033","img/object_images/office_supplies01.jpg","img/object_images/dust_pan01.jpg","img/object_images/Confetti 01.jpg","1","1","1","1","1","0","0.345376900004339","0.379132900008699","0.410604000004241","1","1","1","1","1","1","1","1","1"
"260033","img/object_images/Confetti 01.jpg","img/object_images/office_supplies01.jpg","img/object_images/lemon_squeezer01.jpg","1","1","1","0","1","1","0.410604000004241","0.345376900004339","0.433119199995417","1","1","1","1","1","1","1","1","1"
"260033","img/object_images/lemon_squeezer01.jpg","img/object_images/Confetti 01.jpg","img/object_images/cup01.jpg","1","1","0","1","0","0","0.433119199995417","0.410604000004241","0.44135950000782","1","1","1","1","1","1","1","1","1"
"260033","img/object_images/cup01.jpg","img/object_images/lemon_squeezer01.jpg","img/object_images/sink_filter01 (1).jpg","0","1","1","0","1","0","0.44135950000782","0.433119199995417","0.461664599992218","1","1","1","1","1","1","1","1","1"
"260033","img/object_images/sink_filter01 (1).jpg","img/object_images/cup01.jpg","img/object_images/tool13.jpg","1","0","1","0","0","1","0.461664599992218","0.44135950000782","0.376947600001586","1","1","1","1","1","1","1","1","1"
"260033","img/object_images/tool13.jpg","img/object_images/sink_filter01 (1).jpg","img/object_images/vase02.jpg","1","1","1","1","0","1","0.376947600001586","0.461664599992218","0.408379600004992","1","1","1","1","1","1","1","1","1"
"260033","img/object_images/vase02.jpg","img/object_images/tool13.jpg","img/object_images/glasses03.jpg","1","1","1","1","1","0","0.408379600004992","0.376947600001586","0.322784000003594","1","1","1","1","1","1","1","1","2"
"260033","img/object_images/glasses03.jpg","img/object_images/vase02.jpg","img/object_images/candle02.jpg","1","1","1","0","1","0","0.322784000003594","0.408379600004992","0.398596799990628","1","1","1","1","1","1","2","1","1"
"260033","img/object_images/candle02.jpg","img/object_images/glasses03.jpg","img/object_images/sign02.jpg","1","1","1","0","0","0","0.398596799990628","0.322784000003594","0.399714799990761","1","1","1","1","1","1","1","2","1"
"260033","img/object_images/sign02.jpg","img/object_images/candle02.jpg","img/object_images/bow_tie03.jpg","1","1","1","0","0","1","0.399714799990761","0.398596799990628","0.389683999994304","1","1","1","1","1","1","1","1","1"
"260033","img/object_images/bow_tie03.jpg","img/object_images/sign02.jpg","img/object_images/knife01.jpg","1","1","1","1","0","1","0.389683999994304","0.399714799990761","0.393754099990474","1","1","1","1","1","1","1","1","1"
"260033","img/object_images/knife01.jpg","img/object_images/bow_tie03.jpg","img/object_images/camera05.jpg","1","1","1","1","1","0","0.393754099990474","0.389683999994304","0.513830600000801","1","1","1","1","1","1","1","1","1"
"260033","img/object_images/camera05.jpg","img/object_images/knife01.jpg","img/object_images/pen06.jpg","1","1","0","0","1","0","0.513830600000801","0.393754099990474","0.340346600001794","1","1","1","1","1","1","1","1","1"
"260033","img/object_images/pen06.jpg","img/object_images/camera05.jpg","img/object_images/bag04.jpg","0","1","1","0","0","0","0.340346600001794","0.513830600000801","0.490051100001438","1","1","1","1","1","1","1","1","1"
"260033","img/object_images/bag04.jpg","img/object_images/pen06.jpg","img/object_images/clipboard01.jpg","1","0","1","0","0","1","0.490051100001438","0.340346600001794","0.360981199992239","1","1","1","1","1","1","1","1","1"
"260033","img/object_images/clipboard01.jpg","img/object_images/bag04.jpg","img/object_images/socks01.jpg","1","1","1","1","0","1","0.360981199992239","0.490051100001438","0.370601800008444","1","1","1","1","1","1","1","1","1"
"260033","img/object_images/socks01.jpg","img/object_images/clipboard01.jpg",NA,"1","1",NA,"1","1",NA,"0.370601800008444","0.360981199992239",NA,"1","1",NA,"1","1",NA,"1","1",NA
"260033","img/object_images/cellphone03.jpg",NA,"img/object_images/bottle02.jpg","1",NA,"1","0",NA,"1","0.468110100002377",NA,"0.492500099993776","1",NA,"1","1",NA,"1","1",NA,"1"
"260033","img/object_images/bottle02.jpg","img/object_images/cellphone03.jpg","img/object_images/tie02.jpg","1","1","1","1","0","0","0.492500099993776","0.468110100002377","0.400227799997083","1","1","1","1","1","1","1","1","1"
"260033","img/object_images/tie02.jpg","img/object_images/bottle02.jpg","img/object_images/bottle10.jpg","1","1","1","0","1","1","0.400227799997083","0.492500099993776","0.32974300000933","1","1","1","1","1","1","1","1","1"
"260033","img/object_images/bottle10.jpg","img/object_images/tie02.jpg","img/object_images/water_scooter01.jpg","1","1","1","1","0","1","0.32974300000933","0.400227799997083","0.334805799997412","1","1","1","1","1","1","1","1","1"
"260033","img/object_images/water_scooter01.jpg","img/object_images/bottle10.jpg","img/object_images/fan02.jpg","1","1","0","1","1","0","0.334805799997412","0.32974300000933","0.38002470000356","1","1","1","1","1","1","1","1","1"
"260033","img/object_images/fan02.jpg","img/object_images/water_scooter01.jpg","img/object_images/toilet_paper_dispenser01.jpg","0","1","1","0","1","1","0.38002470000356","0.334805799997412","0.464449699997203","1","1","1","1","1","1","1","1","1"
"260033","img/object_images/toilet_paper_dispenser01.jpg","img/object_images/fan02.jpg","img/object_images/shoes07.jpg","1","0","1","1","0","0","0.464449699997203","0.38002470000356","0.374181599996518","1","1","1","1","1","1","1","1","1"
"260033","img/object_images/shoes07.jpg","img/object_images/toilet_paper_dispenser01.jpg","img/object_images/toaster01.jpg","1","1","1","0","1","1","0.374181599996518","0.464449699997203","0.337162799987709","1","1","1","1","1","1","1","1","1"
"260033","img/object_images/toaster01.jpg","img/object_images/shoes07.jpg","img/object_images/purse04.jpg","1","1","1","1","0","1","0.337162799987709","0.374181599996518","0.425250799991773","1","1","1","1","1","1","1","1","1"
"260033","img/object_images/purse04.jpg","img/object_images/toaster01.jpg","img/object_images/coloring_pencil02.jpg","1","1","1","1","1","0","0.425250799991773","0.337162799987709","0.395117799998843","1","1","1","1","1","1","1","1","1"
"260033","img/object_images/coloring_pencil02.jpg","img/object_images/purse04.jpg","img/object_images/tool19.jpg","1","1","1","0","1","1","0.395117799998843","0.425250799991773","0.612594200007152","1","1","1","1","1","1","1","1","1"
"260033","img/object_images/tool19.jpg","img/object_images/coloring_pencil02.jpg","img/object_images/bicycle01.jpg","1","1","1","1","0","1","0.612594200007152","0.395117799998843","0.344348800004809","1","1","1","1","1","1","1","1","1"
"260033","img/object_images/bicycle01.jpg","img/object_images/tool19.jpg","img/object_images/bottle09.jpg","1","1","1","1","1","0","0.344348800004809","0.612594200007152","0.408975099999225","1","1","1","1","1","1","1","1","1"
"260033","img/object_images/bottle09.jpg","img/object_images/bicycle01.jpg","img/object_images/piggy_bank01.jpg","1","1","1","0","1","1","0.408975099999225","0.344348800004809","0.361106700001983","1","1","1","1","1","1","1","1","1"
"260033","img/object_images/piggy_bank01.jpg","img/object_images/bottle09.jpg","img/object_images/chair03.jpg","1","1","1","1","0","0","0.361106700001983","0.408975099999225","0.317974999998114","1","1","1","1","1","1","1","1","1"
"260033","img/object_images/chair03.jpg","img/object_images/piggy_bank01.jpg","img/object_images/hot_air_balloon02.jpg","1","1","0","0","1","0","0.317974999998114","0.361106700001983","0.387758899989421","1","1","1","1","1","1","1","1","1"
"260033","img/object_images/hot_air_balloon02.jpg","img/object_images/chair03.jpg","img/object_images/WoodBox01.jpg","0","1","1","0","0","0","0.387758899989421","0.317974999998114","0.395767900001374","1","1","1","1","1","1","1","1","1"
"260033","img/object_images/WoodBox01.jpg","img/object_images/hot_air_balloon02.jpg","img/object_images/audio_port01.jpg","1","0","1","0","0","1","0.395767900001374","0.387758899989421","0.369823799992446","1","1","1","1","1","1","1","1","1"
"260033","img/object_images/audio_port01.jpg","img/object_images/WoodBox01.jpg","img/object_images/helmet04.jpg","1","1","1","1","0","1","0.369823799992446","0.395767900001374","0.470342899992829","1","1","1","1","1","1","1","1","1"
"260033","img/object_images/helmet04.jpg","img/object_images/audio_port01.jpg","img/object_images/hat06.jpg","1","1","1","1","1","0","0.470342899992829","0.369823799992446","0.397250599999097","1","1","1","1","1","1","1","1","1"
"260033","img/object_images/hat06.jpg","img/object_images/helmet04.jpg","img/object_images/boat_toy10.jpg","1","1","1","0","1","0","0.397250599999097","0.470342899992829","0.402338200001395","1","1","1","1","1","1","1","1","1"
"260033","img/object_images/boat_toy10.jpg","img/object_images/hat06.jpg","img/object_images/perfume02.jpg","1","1","1","0","0","0","0.402338200001395","0.397250599999097","0.344836600008421","1","1","1","1","1","1","1","1","1"
"260033","img/object_images/perfume02.jpg","img/object_images/boat_toy10.jpg","img/object_images/boat02.jpg","1","1","1","0","0","1","0.344836600008421","0.402338200001395","0.331838099999004","1","1","1","1","1","1","1","1","1"
"260033","img/object_images/boat02.jpg","img/object_images/perfume02.jpg","img/object_images/bean_bag02.jpg","1","1","0","1","0","1","0.331838099999004","0.344836600008421","0.374180099999649","1","1","1","1","1","1","1","1","2"
"260033","img/object_images/bean_bag02.jpg","img/object_images/boat02.jpg","img/object_images/wagon_cart03.jpg","0","1","1","1","1","1","0.374180099999649","0.331838099999004","0.334603000010247","1","1","1","1","1","1","2","1","1"
"260033","img/object_images/wagon_cart03.jpg","img/object_images/bean_bag02.jpg","img/object_images/pen05.jpg","1","0","0","1","1","0","0.334603000010247","0.374180099999649","0.415005100003327","1","1","1","1","1","1","1","2","2"
"260033","img/object_images/pen05.jpg","img/object_images/wagon_cart03.jpg","img/object_images/camera_lens01.jpg","0","1","0","0","1","1","0.415005100003327","0.334603000010247","0.380756400001701","1","1","1","1","1","1","2","1","1"
"260033","img/object_images/camera_lens01.jpg","img/object_images/pen05.jpg","img/object_images/dog_leash01.jpg","0","0","1","1","0","0","0.380756400001701","0.415005100003327","0.414895900001284","1","1","1","1","1","1","1","2","1"
"260033","img/object_images/dog_leash01.jpg","img/object_images/camera_lens01.jpg","img/object_images/scoreboard01.jpg","1","0","1","0","1","1","0.414895900001284","0.380756400001701","0.316982799995458","1","1","1","1","1","1","1","1","1"
"260033","img/object_images/scoreboard01.jpg","img/object_images/dog_leash01.jpg","img/object_images/flask01.jpg","1","1","1","1","0","0","0.316982799995458","0.414895900001284","0.399601800003438","1","1","1","1","1","1","1","1","1"
"260033","img/object_images/flask01.jpg","img/object_images/scoreboard01.jpg","img/object_images/knit01.jpg","1","1","0","0","1","0","0.399601800003438","0.316982799995458","0.308254699993995","1","1","1","1","1","1","1","1","2"
"260033","img/object_images/knit01.jpg","img/object_images/flask01.jpg",NA,"0","1",NA,"0","0",NA,"0.308254699993995","0.399601800003438",NA,"1","1",NA,"1","1",NA,"2","1",NA
"260033","img/object_images/bell02.jpg",NA,"img/object_images/crutches02.jpg","1",NA,"0","0",NA,"0","0.635183700011112",NA,"0.391351700003725","1",NA,"1","1",NA,"1","1",NA,"1"
"260033","img/object_images/crutches02.jpg","img/object_images/bell02.jpg","img/object_images/lid01.jpg","0","1","1","0","0","1","0.391351700003725","0.635183700011112","0.462980899988906","1","1","1","1","1","1","1","1","1"
"260033","img/object_images/lid01.jpg","img/object_images/crutches02.jpg","img/object_images/floppy_disk03.jpg","1","0","1","1","0","1","0.462980899988906","0.391351700003725","0.413775499997428","1","1","1","1","1","1","1","1","1"
"260033","img/object_images/floppy_disk03.jpg","img/object_images/lid01.jpg","img/object_images/microscope01.jpg","1","1","1","1","1","0","0.413775499997428","0.462980899988906","0.426695099988137","1","1","1","1","1","1","1","1","1"
"260033","img/object_images/microscope01.jpg","img/object_images/floppy_disk03.jpg","img/object_images/book03.jpg","1","1","1","0","1","1","0.426695099988137","0.413775499997428","0.347128699999303","1","1","1","1","1","1","1","1","1"
"260033","img/object_images/book03.jpg","img/object_images/microscope01.jpg","img/object_images/chess_piece02.jpg","1","1","1","1","0","1","0.347128699999303","0.426695099988137","0.490208299990627","1","1","1","1","1","1","1","1","1"
"260033","img/object_images/chess_piece02.jpg","img/object_images/book03.jpg","img/object_images/usb02.jpg","1","1","1","1","1","0","0.490208299990627","0.347128699999303","0.293751799996244","1","1","1","1","1","1","1","1","1"
"260033","img/object_images/usb02.jpg","img/object_images/chess_piece02.jpg","img/object_images/tennis_racket02.jpg","1","1","1","0","1","1","0.293751799996244","0.490208299990627","0.293928599989158","1","1","1","1","1","1","1","1","1"
"260033","img/object_images/tennis_racket02.jpg","img/object_images/usb02.jpg","img/object_images/tv02.jpg","1","1","1","1","0","0","0.293928599989158","0.293751799996244","0.338664299997617","1","1","1","1","1","1","1","1","1"
"260033","img/object_images/tv02.jpg","img/object_images/tennis_racket02.jpg","img/object_images/pen03.jpg","1","1","1","0","1","0","0.338664299997617","0.293928599989158","0.338225799991051","1","1","1","1","1","1","1","1","1"
"260033","img/object_images/pen03.jpg","img/object_images/tv02.jpg","img/object_images/wire02.jpg","1","1","1","0","0","1","0.338225799991051","0.338664299997617","0.51810960000148","1","1","1","1","1","1","1","1","1"
"260033","img/object_images/wire02.jpg","img/object_images/pen03.jpg","img/object_images/hammer03.jpg","1","1","1","1","0","1","0.51810960000148","0.338225799991051","0.475917899995693","1","1","1","1","1","1","1","1","1"
"260033","img/object_images/hammer03.jpg","img/object_images/wire02.jpg","img/object_images/compass01.jpg","1","1","1","1","1","1","0.475917899995693","0.51810960000148","0.381317399995169","1","1","1","1","1","1","1","1","1"
"260033","img/object_images/compass01.jpg","img/object_images/hammer03.jpg","img/object_images/motorcycle01.jpg","1","1","1","1","1","1","0.381317399995169","0.475917899995693","0.356349499998032","1","1","1","1","1","1","1","1","1"
"260033","img/object_images/motorcycle01.jpg","img/object_images/compass01.jpg","img/object_images/Oven01.jpg","1","1","1","1","1","1","0.356349499998032","0.381317399995169","0.335915999996359","1","1","1","1","1","1","1","1","1"
"260033","img/object_images/Oven01.jpg","img/object_images/motorcycle01.jpg","img/object_images/retainer01.jpg","1","1","0","1","1","0","0.335915999996359","0.356349499998032","0.378123600006802","1","1","1","1","1","1","1","1","1"
"260033","img/object_images/retainer01.jpg","img/object_images/Oven01.jpg","img/object_images/pillows01.jpg","0","1","1","0","1","1","0.378123600006802","0.335915999996359","0.410210799993365","1","1","1","1","1","1","1","1","1"
"260033","img/object_images/pillows01.jpg","img/object_images/retainer01.jpg","img/object_images/paint_brush04.jpg","1","0","1","1","0","0","0.410210799993365","0.378123600006802","0.409470500002499","1","1","1","1","1","1","1","1","1"
"260033","img/object_images/paint_brush04.jpg","img/object_images/pillows01.jpg","img/object_images/chair05.jpg","1","1","1","0","1","0","0.409470500002499","0.410210799993365","0.389914200000931","1","1","1","1","1","1","1","1","1"
"260033","img/object_images/chair05.jpg","img/object_images/paint_brush04.jpg","img/object_images/clock02.jpg","1","1","0","0","0","0","0.389914200000931","0.409470500002499","0.35594530000526","1","1","1","1","1","1","1","1","1"
"260033","img/object_images/clock02.jpg","img/object_images/chair05.jpg","img/object_images/pitcher01.jpg","0","1","0","0","0","0","0.35594530000526","0.389914200000931","0.538251000005403","1","1","1","1","1","1","1","1","1"
"260033","img/object_images/pitcher01.jpg","img/object_images/clock02.jpg","img/object_images/cellphone01.jpg","0","0","1","0","0","1","0.538251000005403","0.35594530000526","0.632454599995981","1","1","1","1","1","1","1","1","1"
"260033","img/object_images/cellphone01.jpg","img/object_images/pitcher01.jpg","img/object_images/Staples01.jpg","1","0","1","1","0","1","0.632454599995981","0.538251000005403","0.34314140000788","1","1","1","1","1","1","1","1","1"
"260033","img/object_images/Staples01.jpg","img/object_images/cellphone01.jpg","img/object_images/bottle01.jpg","1","1","1","1","1","0","0.34314140000788","0.632454599995981","0.440295300009893","1","1","1","1","1","1","1","1","1"
"260033","img/object_images/bottle01.jpg","img/object_images/Staples01.jpg","img/object_images/Thermometer01.jpg","1","1","1","0","1","0","0.440295300009893","0.34314140000788","0.39961909998965","1","1","1","1","1","1","1","1","1"
"260033","img/object_images/Thermometer01.jpg","img/object_images/bottle01.jpg","img/object_images/clip03.jpg","1","1","1","0","0","0","0.39961909998965","0.440295300009893","0.418272599999909","1","1","1","1","1","1","1","1","1"
"260033","img/object_images/clip03.jpg","img/object_images/Thermometer01.jpg","img/object_images/knit05.jpg","1","1","1","0","0","1","0.418272599999909","0.39961909998965","0.423589900005027","1","1","1","1","1","1","1","1","1"
"260033","img/object_images/knit05.jpg","img/object_images/clip03.jpg","img/object_images/ear_bud01.jpg","1","1","1","1","0","1","0.423589900005027","0.418272599999909","0.393876499991165","1","1","1","1","1","1","1","1","1"
"260033","img/object_images/ear_bud01.jpg","img/object_images/knit05.jpg","img/object_images/note_book01.jpg","1","1","1","1","1","0","0.393876499991165","0.423589900005027","0.496910099987872","1","1","1","1","1","1","1","1","1"
"260033","img/object_images/note_book01.jpg","img/object_images/ear_bud01.jpg","img/object_images/knife04.jpg","1","1","1","0","1","1","0.496910099987872","0.393876499991165","0.373447200006922","1","1","1","1","1","1","1","1","1"
"260033","img/object_images/knife04.jpg","img/object_images/note_book01.jpg","img/object_images/floppy_disk02.jpg","1","1","1","1","0","0","0.373447200006922","0.496910099987872","0.401818500002264","1","1","1","1","1","1","1","1","1"
"260033","img/object_images/floppy_disk02.jpg","img/object_images/knife04.jpg",NA,"1","1",NA,"0","1",NA,"0.401818500002264","0.373447200006922",NA,"1","1",NA,"1","1",NA,"1","1",NA
"260033","img/object_images/bottle12.jpg",NA,"img/object_images/helmet05.jpg","1",NA,"1","1",NA,"1","0.46545979999064",NA,"0.369615100004012","1",NA,"1","1",NA,"1","1",NA,"1"
"260033","img/object_images/helmet05.jpg","img/object_images/bottle12.jpg","img/object_images/broom01.jpg","1","1","1","1","1","1","0.369615100004012","0.46545979999064","0.425699199986411","1","1","1","1","1","1","1","1","1"
"260033","img/object_images/broom01.jpg","img/object_images/helmet05.jpg","img/object_images/video_game06.jpg","1","1","0","1","1","0","0.425699199986411","0.369615100004012","0.337414399997215","1","1","1","1","1","1","1","1","1"
"260033","img/object_images/video_game06.jpg","img/object_images/broom01.jpg","img/object_images/airfryer01.jpg","0","1","1","0","1","0","0.337414399997215","0.425699199986411","0.459946600007243","1","1","1","1","1","1","1","1","1"
"260033","img/object_images/airfryer01.jpg","img/object_images/video_game06.jpg","img/object_images/decorative02.jpg","1","0","1","0","0","0","0.459946600007243","0.337414399997215","0.45122440000705","1","1","1","1","1","1","1","1","1"
"260033","img/object_images/decorative02.jpg","img/object_images/airfryer01.jpg","img/object_images/lamp01.jpg","1","1","1","0","0","1","0.45122440000705","0.459946600007243","0.435877899988554","1","1","1","1","1","1","1","1","1"
"260033","img/object_images/lamp01.jpg","img/object_images/decorative02.jpg","img/object_images/toilet_paper01.jpg","1","1","1","1","0","1","0.435877899988554","0.45122440000705","0.357222200007527","1","1","1","1","1","1","1","1","1"
"260033","img/object_images/toilet_paper01.jpg","img/object_images/lamp01.jpg","img/object_images/ball01.jpg","1","1","1","1","1","1","0.357222200007527","0.435877899988554","0.356623700005002","1","1","1","1","1","1","1","1","1"
"260033","img/object_images/ball01.jpg","img/object_images/toilet_paper01.jpg","img/object_images/Wisk01.jpg","1","1","1","1","1","1","0.356623700005002","0.357222200007527","0.369217200001003","1","1","1","1","1","1","1","1","1"
"260033","img/object_images/Wisk01.jpg","img/object_images/ball01.jpg","img/object_images/cochlear_implant01.jpg","1","1","1","1","1","0","0.369217200001003","0.356623700005002","0.39956049999455","1","1","1","1","1","1","1","1","1"
"260033","img/object_images/cochlear_implant01.jpg","img/object_images/Wisk01.jpg","img/object_images/container01.jpg","1","1","1","0","1","0","0.39956049999455","0.369217200001003","0.582292699997197","1","1","1","1","1","1","1","1","1"
"260033","img/object_images/container01.jpg","img/object_images/cochlear_implant01.jpg","img/object_images/drone02.jpg","1","1","1","0","0","0","0.582292699997197","0.39956049999455","0.530453699990176","1","1","1","1","1","1","1","1","1"
"260033","img/object_images/drone02.jpg","img/object_images/container01.jpg","img/object_images/hat02.jpg","1","1","0","0","0","0","0.530453699990176","0.582292699997197","0.383990599992103","1","1","1","1","1","1","1","1","2"
"260033","img/object_images/hat02.jpg","img/object_images/drone02.jpg","img/object_images/chair01.jpg","0","1","1","0","0","0","0.383990599992103","0.530453699990176","0.627314500001376","1","1","1","1","1","1","2","1","1"
"260033","img/object_images/chair01.jpg","img/object_images/hat02.jpg","img/object_images/brief_case02.jpg","1","0","1","0","0","1","0.627314500001376","0.383990599992103","0.337874200005899","1","1","1","1","1","1","1","2","1"
"260033","img/object_images/brief_case02.jpg","img/object_images/chair01.jpg","img/object_images/ironing_table02.jpg","1","1","1","1","0","0","0.337874200005899","0.627314500001376","0.426371199995629","1","1","1","1","1","1","1","1","1"
"260033","img/object_images/ironing_table02.jpg","img/object_images/brief_case02.jpg","img/object_images/Woopie01.jpg","1","1","1","0","1","1","0.426371199995629","0.337874200005899","0.378917200010619","1","1","1","1","1","1","1","1","1"
"260033","img/object_images/Woopie01.jpg","img/object_images/ironing_table02.jpg","img/object_images/guitar01.jpg","1","1","1","1","0","1","0.378917200010619","0.426371199995629","0.415736399998423","1","1","1","1","1","1","1","1","1"
"260033","img/object_images/guitar01.jpg","img/object_images/Woopie01.jpg","img/object_images/car02.jpg","1","1","1","1","1","0","0.415736399998423","0.378917200010619","0.444831100001466","1","1","1","1","1","1","1","1","1"
"260033","img/object_images/car02.jpg","img/object_images/guitar01.jpg","img/object_images/toy_train02.jpg","1","1","1","0","1","1","0.444831100001466","0.415736399998423","0.314515199992456","1","1","1","1","1","1","1","1","1"
"260033","img/object_images/toy_train02.jpg","img/object_images/car02.jpg","img/object_images/Recycling01.jpg","1","1","1","1","0","1","0.314515199992456","0.444831100001466","0.351839399998426","1","1","1","1","1","1","1","1","1"
"260033","img/object_images/Recycling01.jpg","img/object_images/toy_train02.jpg","img/object_images/couch04.jpg","1","1","1","1","1","1","0.351839399998426","0.314515199992456","0.351851800005534","1","1","1","1","1","1","1","1","1"
"260033","img/object_images/couch04.jpg","img/object_images/Recycling01.jpg","img/object_images/basketball_hoop02.jpg","1","1","1","1","1","0","0.351851800005534","0.351839399998426","0.426032300005318","1","1","1","1","1","1","1","1","1"
"260033","img/object_images/basketball_hoop02.jpg","img/object_images/couch04.jpg","img/object_images/tie01.jpg","1","1","1","0","1","0","0.426032300005318","0.351851800005534","0.413031399992178","1","1","1","1","1","1","1","1","1"
"260033","img/object_images/tie01.jpg","img/object_images/basketball_hoop02.jpg","img/object_images/soap01.jpg","1","1","1","0","0","0","0.413031399992178","0.426032300005318","0.409316299992497","1","1","1","1","1","1","1","1","1"
"260033","img/object_images/soap01.jpg","img/object_images/tie01.jpg","img/object_images/razor03.jpg","1","1","0","0","0","0","0.409316299992497","0.413031399992178","0.317066200004774","1","1","1","1","1","1","1","1","1"
"260033","img/object_images/razor03.jpg","img/object_images/soap01.jpg","img/object_images/gloves05.jpg","0","1","1","0","0","1","0.317066200004774","0.409316299992497","0.408343400005833","1","1","1","1","1","1","1","1","1"
"260033","img/object_images/gloves05.jpg","img/object_images/razor03.jpg","img/object_images/brief_case01.jpg","1","0","1","1","0","0","0.408343400005833","0.317066200004774","0.423625199997332","1","1","1","1","1","1","1","1","1"
"260033","img/object_images/brief_case01.jpg","img/object_images/gloves05.jpg","img/object_images/lantern01.jpg","1","1","1","0","1","1","0.423625199997332","0.408343400005833","0.395865500002401","1","1","1","1","1","1","1","1","1"
"260033","img/object_images/lantern01.jpg","img/object_images/brief_case01.jpg","img/object_images/pot01.jpg","1","1","1","1","0","0","0.395865500002401","0.423625199997332","0.40530569999828","1","1","1","1","1","1","1","1","1"
"260033","img/object_images/pot01.jpg","img/object_images/lantern01.jpg","img/object_images/pitcher03.jpg","1","1","1","0","1","1","0.40530569999828","0.395865500002401","0.344770700001391","1","1","1","1","1","1","1","1","1"
"260033","img/object_images/pitcher03.jpg","img/object_images/pot01.jpg",NA,"1","1",NA,"1","0",NA,"0.344770700001391","0.40530569999828",NA,"1","1",NA,"1","1",NA,"1","1",NA
"260033","img/object_images/backpack03.jpg",NA,"img/object_images/toy05.jpg","1",NA,"0","1",NA,"0","0.455301099995268",NA,"0.456621999997879","1",NA,"1","1",NA,"1","1",NA,"2"
"260033","img/object_images/toy05.jpg","img/object_images/backpack03.jpg","img/object_images/jewel03.jpg","0","1","1","0","1","1","0.456621999997879","0.455301099995268","0.349152799986769","1","1","1","1","1","1","2","1","1"
"260033","img/object_images/jewel03.jpg","img/object_images/toy05.jpg","img/object_images/hair_brush02.jpg","1","0","1","1","0","0","0.349152799986769","0.456621999997879","0.37256580000394","1","1","1","1","1","1","1","2","1"
"260033","img/object_images/hair_brush02.jpg","img/object_images/jewel03.jpg","img/object_images/laptop03.jpg","1","1","1","0","1","1","0.37256580000394","0.349152799986769","0.375435699999798","1","1","1","1","1","1","1","1","1"
"260033","img/object_images/laptop03.jpg","img/object_images/hair_brush02.jpg","img/object_images/laptop01.jpg","1","1","1","1","0","0","0.375435699999798","0.37256580000394","0.366896000006818","1","1","1","1","1","1","1","1","1"
"260033","img/object_images/laptop01.jpg","img/object_images/laptop03.jpg","img/object_images/Lint_Roller02.jpg","1","1","1","0","1","0","0.366896000006818","0.375435699999798","0.521063099993626","1","1","1","1","1","1","1","1","1"
"260033","img/object_images/Lint_Roller02.jpg","img/object_images/laptop01.jpg","img/object_images/bucket02.jpg","1","1","0","0","0","1","0.521063099993626","0.366896000006818","0.427801399986492","1","1","1","1","1","1","1","1","1"
"260033","img/object_images/bucket02.jpg","img/object_images/Lint_Roller02.jpg","img/object_images/fan04.jpg","0","1","1","1","0","0","0.427801399986492","0.521063099993626","0.508905399998184","1","1","1","1","1","1","1","1","1"
"260033","img/object_images/fan04.jpg","img/object_images/bucket02.jpg","img/object_images/microphone03.jpg","1","0","1","0","1","1","0.508905399998184","0.427801399986492","0.365584399987711","1","1","1","1","1","1","1","1","1"
"260033","img/object_images/microphone03.jpg","img/object_images/fan04.jpg","img/object_images/pitcher05.jpg","1","1","1","1","0","0","0.365584399987711","0.508905399998184","0.47731780000322","1","1","1","1","1","1","1","1","1"
"260033","img/object_images/pitcher05.jpg","img/object_images/microphone03.jpg","img/object_images/umbrella01.jpg","1","1","1","0","1","0","0.47731780000322","0.365584399987711","0.496784899994964","1","1","1","1","1","1","1","1","1"
"260033","img/object_images/umbrella01.jpg","img/object_images/pitcher05.jpg","img/object_images/chair02.jpg","1","1","1","0","0","1","0.496784899994964","0.47731780000322","0.368694899996626","1","1","1","1","1","1","1","1","1"
"260033","img/object_images/chair02.jpg","img/object_images/umbrella01.jpg","img/object_images/gift_box05.jpg","1","1","1","1","0","0","0.368694899996626","0.496784899994964","0.390102500008652","1","1","1","1","1","1","1","1","1"
"260033","img/object_images/gift_box05.jpg","img/object_images/chair02.jpg","img/object_images/trash_can03.jpg","1","1","1","0","1","1","0.390102500008652","0.368694899996626","0.389867500009132","1","1","1","1","1","1","1","1","1"
"260033","img/object_images/trash_can03.jpg","img/object_images/gift_box05.jpg","img/object_images/helmet02.jpg","1","1","1","1","0","0","0.389867500009132","0.390102500008652","0.460404600002221","1","1","1","1","1","1","1","1","1"
"260033","img/object_images/helmet02.jpg","img/object_images/trash_can03.jpg","img/object_images/combs01.jpg","1","1","1","0","1","1","0.460404600002221","0.389867500009132","0.308863300000667","1","1","1","1","1","1","1","1","1"
"260033","img/object_images/combs01.jpg","img/object_images/helmet02.jpg","img/object_images/hair_dryer01.jpg","1","1","1","1","0","0","0.308863300000667","0.460404600002221","0.381811099985498","1","1","1","1","1","1","1","1","1"
"260033","img/object_images/hair_dryer01.jpg","img/object_images/combs01.jpg","img/object_images/accardion01.jpg","1","1","1","0","1","1","0.381811099985498","0.308863300000667","0.36277720000362","1","1","1","1","1","1","1","1","1"
"260033","img/object_images/accardion01.jpg","img/object_images/hair_dryer01.jpg","img/object_images/spatula02.jpg","1","1","1","1","0","1","0.36277720000362","0.381811099985498","0.308318199997302","1","1","1","1","1","1","1","1","1"
"260033","img/object_images/spatula02.jpg","img/object_images/accardion01.jpg","img/object_images/stove01.jpg","1","1","1","1","1","0","0.308318199997302","0.36277720000362","0.336882100004004","1","1","1","1","1","1","1","1","1"
"260033","img/object_images/stove01.jpg","img/object_images/spatula02.jpg","img/object_images/vase01.jpg","1","1","1","0","1","0","0.336882100004004","0.308318199997302","0.408901600007084","1","1","1","1","1","1","1","1","1"
"260033","img/object_images/vase01.jpg","img/object_images/stove01.jpg","img/object_images/chess_piece01.jpg","1","1","1","0","0","0","0.408901600007084","0.336882100004004","0.361747999995714","1","1","1","1","1","1","1","1","1"
"260033","img/object_images/chess_piece01.jpg","img/object_images/vase01.jpg","img/object_images/ball02.jpg","1","1","1","0","0","1","0.361747999995714","0.408901600007084","0.411232200000086","1","1","1","1","1","1","1","1","1"
"260033","img/object_images/ball02.jpg","img/object_images/chess_piece01.jpg","img/object_images/towels01.jpg","1","1","1","1","0","0","0.411232200000086","0.361747999995714","0.400660999992397","1","1","1","1","1","1","1","1","1"
"260033","img/object_images/towels01.jpg","img/object_images/ball02.jpg","img/object_images/robe01.jpg","1","1","1","0","1","1","0.400660999992397","0.411232200000086","0.465456299993093","1","1","1","1","1","1","1","1","1"
"260033","img/object_images/robe01.jpg","img/object_images/towels01.jpg","img/object_images/Vest02.jpg","1","1","1","1","0","0","0.465456299993093","0.400660999992397","0.468662300001597","1","1","1","1","1","1","1","1","1"
"260033","img/object_images/Vest02.jpg","img/object_images/robe01.jpg","img/object_images/surf_board01.jpg","1","1","1","0","1","1","0.468662300001597","0.465456299993093","0.348192599994945","1","1","1","1","1","1","1","1","1"
"260033","img/object_images/surf_board01.jpg","img/object_images/Vest02.jpg","img/object_images/calculator01.jpg","1","1","1","1","0","1","0.348192599994945","0.468662300001597","0.396844700007932","1","1","1","1","1","1","1","1","1"
"260033","img/object_images/calculator01.jpg","img/object_images/surf_board01.jpg","img/object_images/lock01.jpg","1","1","1","1","1","0","0.396844700007932","0.348192599994945","0.431548299995484","1","1","1","1","1","1","1","1","1"
"260033","img/object_images/lock01.jpg","img/object_images/calculator01.jpg","img/object_images/shoes08.jpg","1","1","1","0","1","1","0.431548299995484","0.396844700007932","0.37849339999957","1","1","1","1","1","1","1","1","1"
"260033","img/object_images/shoes08.jpg","img/object_images/lock01.jpg","img/object_images/trash_can05.jpg","1","1","1","1","0","1","0.37849339999957","0.431548299995484","0.377898600010667","1","1","1","1","1","1","1","1","1"
"260033","img/object_images/trash_can05.jpg","img/object_images/shoes08.jpg",NA,"1","1",NA,"1","1",NA,"0.377898600010667","0.37849339999957",NA,"1","1",NA,"1","1",NA,"1","1",NA
"260033","img/object_images/gift_box03.jpg",NA,"img/object_images/Screws01.jpg","1",NA,"1","0",NA,"1","0.556323199998587",NA,"0.492705800003023","1",NA,"1","1",NA,"1","1",NA,"1"
"260033","img/object_images/Screws01.jpg","img/object_images/gift_box03.jpg","img/object_images/camera07.jpg","1","1","1","1","0","1","0.492705800003023","0.556323199998587","0.49870720000763","1","1","1","1","1","1","1","1","1"
"260033","img/object_images/camera07.jpg","img/object_images/Screws01.jpg","img/object_images/couch03.jpg","1","1","1","1","1","0","0.49870720000763","0.492705800003023","0.43527339999855","1","1","1","1","1","1","1","1","1"
"260033","img/object_images/couch03.jpg","img/object_images/camera07.jpg","img/object_images/golf_ball03.jpg","1","1","1","0","1","1","0.43527339999855","0.49870720000763","0.428523599985056","1","1","1","1","1","1","1","1","1"
"260033","img/object_images/golf_ball03.jpg","img/object_images/couch03.jpg","img/object_images/hammer01.jpg","1","1","0","1","0","0","0.428523599985056","0.43527339999855","0.546974800003227","1","1","1","1","1","1","1","1","2"
"260033","img/object_images/hammer01.jpg","img/object_images/golf_ball03.jpg","img/object_images/lock04.jpg","0","1","1","0","1","1","0.546974800003227","0.428523599985056","0.38272280000092","1","1","1","1","1","1","2","1","1"
"260033","img/object_images/lock04.jpg","img/object_images/hammer01.jpg","img/object_images/jewelry01.jpg","1","0","1","1","0","1","0.38272280000092","0.546974800003227","0.342051700004959","1","1","1","1","1","1","1","2","1"
"260033","img/object_images/jewelry01.jpg","img/object_images/lock04.jpg","img/object_images/fork03.jpg","1","1","1","1","1","1","0.342051700004959","0.38272280000092","0.344706399991992","1","1","1","1","1","1","1","1","1"
"260033","img/object_images/fork03.jpg","img/object_images/jewelry01.jpg","img/object_images/bath_tub01.jpg","1","1","1","1","1","0","0.344706399991992","0.342051700004959","0.358961599995382","1","1","1","1","1","1","1","1","1"
"260033","img/object_images/bath_tub01.jpg","img/object_images/fork03.jpg","img/object_images/handkerchief01.jpg","1","1","1","0","1","0","0.358961599995382","0.344706399991992","0.437621499993838","1","1","1","1","1","1","1","1","1"
"260033","img/object_images/handkerchief01.jpg","img/object_images/bath_tub01.jpg","img/object_images/balloon01.jpg","1","1","1","0","0","0","0.437621499993838","0.358961599995382","0.545015499999863","1","1","1","1","1","1","1","1","1"
"260033","img/object_images/balloon01.jpg","img/object_images/handkerchief01.jpg","img/object_images/gift_box02.jpg","1","1","1","0","0","1","0.545015499999863","0.437621499993838","0.391613799991319","1","1","1","1","1","1","1","1","1"
"260033","img/object_images/gift_box02.jpg","img/object_images/balloon01.jpg","img/object_images/measuring_tape02.jpg","1","1","1","1","0","1","0.391613799991319","0.545015499999863","0.369574999989709","1","1","1","1","1","1","1","1","1"
"260033","img/object_images/measuring_tape02.jpg","img/object_images/gift_box02.jpg","img/object_images/funnel01.jpg","1","1","1","1","1","0","0.369574999989709","0.391613799991319","0.454954900007579","1","1","1","1","1","1","1","1","1"
"260033","img/object_images/funnel01.jpg","img/object_images/measuring_tape02.jpg","img/object_images/Witchhat01.jpg","1","1","1","0","1","1","0.454954900007579","0.369574999989709","0.350438699999359","1","1","1","1","1","1","1","1","1"
"260033","img/object_images/Witchhat01.jpg","img/object_images/funnel01.jpg","img/object_images/pitcher02.jpg","1","1","1","1","0","1","0.350438699999359","0.454954900007579","0.45032249999349","1","1","1","1","1","1","1","1","1"
"260033","img/object_images/pitcher02.jpg","img/object_images/Witchhat01.jpg","img/object_images/gift_box01.jpg","1","1","1","1","1","1","0.45032249999349","0.350438699999359","0.429910599996219","1","1","1","1","1","1","1","1","1"
"260033","img/object_images/gift_box01.jpg","img/object_images/pitcher02.jpg","img/object_images/grater01.jpg","1","1","1","1","1","1","0.429910599996219","0.45032249999349","0.373504799994407","1","1","1","1","1","1","1","1","1"
"260033","img/object_images/grater01.jpg","img/object_images/gift_box01.jpg","img/object_images/bow_tie02.jpg","1","1","1","1","1","0","0.373504799994407","0.429910599996219","0.429331599996658","1","1","1","1","1","1","1","1","1"
"260033","img/object_images/bow_tie02.jpg","img/object_images/grater01.jpg","img/object_images/wallet02.jpg","1","1","1","0","1","1","0.429331599996658","0.373504799994407","0.388414500004728","1","1","1","1","1","1","1","1","1"
"260033","img/object_images/wallet02.jpg","img/object_images/bow_tie02.jpg","img/object_images/ironing_table01.jpg","1","1","0","1","0","0","0.388414500004728","0.429331599996658","0.384930599990184","1","1","1","1","1","1","1","1","1"
"260033","img/object_images/ironing_table01.jpg","img/object_images/wallet02.jpg","img/object_images/bow_tie01.jpg","0","1","1","0","1","0","0.384930599990184","0.388414500004728","0.528571600007126","1","1","1","1","1","1","1","1","1"
"260033","img/object_images/bow_tie01.jpg","img/object_images/ironing_table01.jpg","img/object_images/coloring_pencil01.jpg","1","0","1","0","0","1","0.528571600007126","0.384930599990184","0.381193299996084","1","1","1","1","1","1","1","1","1"
"260033","img/object_images/coloring_pencil01.jpg","img/object_images/bow_tie01.jpg","img/object_images/dresser04.jpg","1","1","1","1","0","0","0.381193299996084","0.528571600007126","0.446281399999862","1","1","1","1","1","1","1","1","1"
"260033","img/object_images/dresser04.jpg","img/object_images/coloring_pencil01.jpg","img/object_images/clip02.jpg","1","1","1","0","1","1","0.446281399999862","0.381193299996084","0.375032299998566","1","1","1","1","1","1","1","1","1"
"260033","img/object_images/clip02.jpg","img/object_images/dresser04.jpg","img/object_images/paper_cup01.jpg","1","1","1","1","0","0","0.375032299998566","0.446281399999862","0.399268499997561","1","1","1","1","1","1","1","1","1"
"260033","img/object_images/paper_cup01.jpg","img/object_images/clip02.jpg","img/object_images/socks02.jpg","1","1","1","0","1","0","0.399268499997561","0.375032299998566","0.399386000004597","1","1","1","1","1","1","1","1","1"
"260033","img/object_images/socks02.jpg","img/object_images/paper_cup01.jpg","img/object_images/vga_port 01.jpg","1","1","1","0","0","0","0.399386000004597","0.399268499997561","0.430800000001909","1","1","1","1","1","1","1","1","1"
"260033","img/object_images/vga_port 01.jpg","img/object_images/socks02.jpg","img/object_images/sleeping_bag01.jpg","1","1","1","0","0","0","0.430800000001909","0.399386000004597","0.570063799998024","1","1","1","1","1","1","1","1","1"
"260033","img/object_images/sleeping_bag01.jpg","img/object_images/vga_port 01.jpg","img/object_images/jacket03.jpg","1","1","1","0","0","0","0.570063799998024","0.430800000001909","0.469602700002724","1","1","1","1","1","1","1","1","1"
"260033","img/object_images/jacket03.jpg","img/object_images/sleeping_bag01.jpg","img/object_images/lawn_mower01.jpg","1","1","1","0","0","1","0.469602700002724","0.570063799998024","0.432786699995631","1","1","1","1","1","1","1","1","1"
"260033","img/object_images/lawn_mower01.jpg","img/object_images/jacket03.jpg",NA,"1","1",NA,"1","0",NA,"0.432786699995631","0.469602700002724",NA,"1","1",NA,"1","1",NA,"1","1",NA
