"participant_id","current_trial_object","pre_trial_object","post_trial_object","current_trial_accuracy","pre_trial_accuracy","post_trial_accuracy","current_trial_congruency","pre_trial_congruency","post_trial_congruency","current_trial_rt","pre_trial_rt","post_trial_rt","current_trial_responded","pre_trial_responded","post_trial_responded","current_trial_legitResponse","pre_trial_legitResponse","post_trial_legitResponse","current_trial_resp_nums","pre_trial_resp_nums","post_trial_resp_nums"
"260050","img/object_images/jewel04.jpg",NA,"img/object_images/Vacuum01.jpg","1",NA,"1","0",NA,"0","0.596088300459087",NA,"0.544068300165236","1",NA,"1","1",NA,"1","1",NA,"1"
"260050","img/object_images/Vacuum01.jpg","img/object_images/jewel04.jpg","img/object_images/tool09.jpg","1","1","1","0","0","1","0.544068300165236","0.596088300459087","0.484406100586057","1","1","1","1","1","1","1","1","1"
"260050","img/object_images/tool09.jpg","img/object_images/Vacuum01.jpg","img/object_images/frisbee01.jpg","1","1","1","1","0","1","0.484406100586057","0.544068300165236","0.49700350034982","1","1","1","1","1","1","1","1","1"
"260050","img/object_images/frisbee01.jpg","img/object_images/tool09.jpg","img/object_images/video_game07.jpg","1","1","1","1","1","1","0.49700350034982","0.484406100586057","0.556646700482816","1","1","1","1","1","1","1","1","1"
"260050","img/object_images/video_game07.jpg","img/object_images/frisbee01.jpg","img/object_images/gauze01.jpg","1","1","0","1","1","0","0.556646700482816","0.49700350034982","0.489527200348675","1","1","1","1","1","1","1","1","1"
"260050","img/object_images/gauze01.jpg","img/object_images/video_game07.jpg","img/object_images/fridge03.jpg","0","1","1","0","1","0","0.489527200348675","0.556646700482816","0.763004100415856","1","1","1","1","1","1","1","1","1"
"260050","img/object_images/fridge03.jpg","img/object_images/gauze01.jpg","img/object_images/ornament01.jpg","1","0","1","0","0","1","0.763004100415856","0.489527200348675","0.473353300709277","1","1","1","1","1","1","1","1","1"
"260050","img/object_images/ornament01.jpg","img/object_images/fridge03.jpg","img/object_images/toy03.jpg","1","1","1","1","0","1","0.473353300709277","0.763004100415856","0.518500400241464","1","1","1","1","1","1","1","1","1"
"260050","img/object_images/toy03.jpg","img/object_images/ornament01.jpg","img/object_images/judge_gavel01.jpg","1","1","1","1","1","1","0.518500400241464","0.473353300709277","0.584607100579888","1","1","1","1","1","1","1","1","1"
"260050","img/object_images/judge_gavel01.jpg","img/object_images/toy03.jpg","img/object_images/crown02.jpg","1","1","1","1","1","1","0.584607100579888","0.518500400241464","0.588261800352484","1","1","1","1","1","1","1","1","1"
"260050","img/object_images/crown02.jpg","img/object_images/judge_gavel01.jpg","img/object_images/bird_house02.jpg","1","1","1","1","1","1","0.588261800352484","0.584607100579888","0.567473700270057","1","1","1","1","1","1","1","1","1"
"260050","img/object_images/bird_house02.jpg","img/object_images/crown02.jpg","img/object_images/sink01.jpg","1","1","0","1","1","0","0.567473700270057","0.588261800352484","0.429045000579208","1","1","1","1","1","1","1","1","1"
"260050","img/object_images/sink01.jpg","img/object_images/bird_house02.jpg","img/object_images/bottle05.jpg","0","1","1","0","1","0","0.429045000579208","0.567473700270057","0.648659000173211","1","1","1","1","1","1","1","1","1"
"260050","img/object_images/bottle05.jpg","img/object_images/sink01.jpg","img/object_images/Stool01.jpg","1","0","1","0","0","0","0.648659000173211","0.429045000579208","0.584179100580513","1","1","1","1","1","1","1","1","1"
"260050","img/object_images/Stool01.jpg","img/object_images/bottle05.jpg","img/object_images/stapler.jpg","1","1","1","0","0","1","0.584179100580513","0.648659000173211","0.634561200626194","1","1","1","1","1","1","1","1","1"
"260050","img/object_images/stapler.jpg","img/object_images/Stool01.jpg","img/object_images/outlet01.jpg","1","1","1","1","0","0","0.634561200626194","0.584179100580513","0.583170500118285","1","1","1","1","1","1","1","1","1"
"260050","img/object_images/outlet01.jpg","img/object_images/stapler.jpg","img/object_images/MetalWire01.jpg","1","1","1","0","1","0","0.583170500118285","0.634561200626194","0.494316700380296","1","1","1","1","1","1","1","1","1"
"260050","img/object_images/MetalWire01.jpg","img/object_images/outlet01.jpg","img/object_images/pot01 (1).jpg","1","1","1","0","0","0","0.494316700380296","0.583170500118285","0.419191000517458","1","1","1","1","1","1","1","1","1"
"260050","img/object_images/pot01 (1).jpg","img/object_images/MetalWire01.jpg","img/object_images/Ring02.jpg","1","1","1","0","0","0","0.419191000517458","0.494316700380296","0.501725200563669","1","1","1","1","1","1","1","1","1"
"260050","img/object_images/Ring02.jpg","img/object_images/pot01 (1).jpg","img/object_images/toy04.jpg","1","1","1","0","0","0","0.501725200563669","0.419191000517458","0.584959600120783","1","1","1","1","1","1","1","1","1"
"260050","img/object_images/toy04.jpg","img/object_images/Ring02.jpg","img/object_images/guitar02.jpg","1","1","1","0","0","0","0.584959600120783","0.501725200563669","0.643596200272441","1","1","1","1","1","1","1","1","1"
"260050","img/object_images/guitar02.jpg","img/object_images/toy04.jpg","img/object_images/acoustic_capo01.jpg","1","1","1","0","0","1","0.643596200272441","0.584959600120783","0.611050799954683","1","1","1","1","1","1","1","1","1"
"260050","img/object_images/acoustic_capo01.jpg","img/object_images/guitar02.jpg","img/object_images/Tin01.jpg","1","1","1","1","0","1","0.611050799954683","0.643596200272441","0.484367900062352","1","1","1","1","1","1","1","1","1"
"260050","img/object_images/Tin01.jpg","img/object_images/acoustic_capo01.jpg","img/object_images/shovel03.jpg","1","1","1","1","1","1","0.484367900062352","0.611050799954683","0.519565500319004","1","1","1","1","1","1","1","1","1"
"260050","img/object_images/shovel03.jpg","img/object_images/Tin01.jpg","img/object_images/watch01.jpg","1","1","1","1","1","0","0.519565500319004","0.484367900062352","0.498145300429314","1","1","1","1","1","1","1","1","1"
"260050","img/object_images/watch01.jpg","img/object_images/shovel03.jpg","img/object_images/dart01.jpg","1","1","1","0","1","0","0.498145300429314","0.519565500319004","0.555736900307238","1","1","1","1","1","1","1","1","1"
"260050","img/object_images/dart01.jpg","img/object_images/watch01.jpg","img/object_images/mirror01.jpg","1","1","1","0","0","1","0.555736900307238","0.498145300429314","0.478875600267202","1","1","1","1","1","1","1","1","1"
"260050","img/object_images/mirror01.jpg","img/object_images/dart01.jpg","img/object_images/tool02.jpg","1","1","1","1","0","1","0.478875600267202","0.555736900307238","0.526596000418067","1","1","1","1","1","1","1","1","1"
"260050","img/object_images/tool02.jpg","img/object_images/mirror01.jpg","img/object_images/bow01.jpg","1","1","1","1","1","1","0.526596000418067","0.478875600267202","0.501061799935997","1","1","1","1","1","1","1","1","1"
"260050","img/object_images/bow01.jpg","img/object_images/tool02.jpg","img/object_images/helmet01.jpg","1","1","1","1","1","0","0.501061799935997","0.526596000418067","0.744477699976414","1","1","1","1","1","1","1","1","1"
"260050","img/object_images/helmet01.jpg","img/object_images/bow01.jpg","img/object_images/towel02.jpg","1","1","1","0","1","1","0.744477699976414","0.501061799935997","0.572697100229561","1","1","1","1","1","1","1","1","1"
"260050","img/object_images/towel02.jpg","img/object_images/helmet01.jpg",NA,"1","1",NA,"1","0",NA,"0.572697100229561","0.744477699976414",NA,"1","1",NA,"1","1",NA,"1","1",NA
"260050","img/object_images/jewelry07.jpg",NA,"img/object_images/ice_tray03.jpg","1",NA,"1","1",NA,"1","0.381883800029755",NA,"0.491789200343192","1",NA,"1","1",NA,"1","1",NA,"1"
"260050","img/object_images/ice_tray03.jpg","img/object_images/jewelry07.jpg","img/object_images/lemon_squeezer02.jpg","1","1","1","1","1","1","0.491789200343192","0.381883800029755","0.39338740054518","1","1","1","1","1","1","1","1","1"
"260050","img/object_images/lemon_squeezer02.jpg","img/object_images/ice_tray03.jpg","img/object_images/ribbon01.jpg","1","1","0","1","1","0","0.39338740054518","0.491789200343192","0.394134600181133","1","1","1","1","1","1","1","1","2"
"260050","img/object_images/ribbon01.jpg","img/object_images/lemon_squeezer02.jpg","img/object_images/jewel01.jpg","0","1","1","0","1","0","0.394134600181133","0.39338740054518","0.421936500351876","1","1","1","1","1","1","2","1","1"
"260050","img/object_images/jewel01.jpg","img/object_images/ribbon01.jpg","img/object_images/razor01.jpg","1","0","1","0","0","0","0.421936500351876","0.394134600181133","0.588790300302207","1","1","1","1","1","1","1","2","1"
"260050","img/object_images/razor01.jpg","img/object_images/jewel01.jpg","img/object_images/car03.jpg","1","1","1","0","0","0","0.588790300302207","0.421936500351876","0.444908500183374","1","1","1","1","1","1","1","1","1"
"260050","img/object_images/car03.jpg","img/object_images/razor01.jpg","img/object_images/screwdriver01.jpg","1","1","1","0","0","0","0.444908500183374","0.588790300302207","0.461359200067818","1","1","1","1","1","1","1","1","1"
"260050","img/object_images/screwdriver01.jpg","img/object_images/car03.jpg","img/object_images/chair04.jpg","1","1","1","0","0","1","0.461359200067818","0.444908500183374","0.454136500135064","1","1","1","1","1","1","1","1","1"
"260050","img/object_images/chair04.jpg","img/object_images/screwdriver01.jpg","img/object_images/car04.jpg","1","1","1","1","0","0","0.454136500135064","0.461359200067818","0.509067200124264","1","1","1","1","1","1","1","1","1"
"260050","img/object_images/car04.jpg","img/object_images/chair04.jpg","img/object_images/MeasuringCup01.jpg","1","1","1","0","1","1","0.509067200124264","0.454136500135064","0.478068900294602","1","1","1","1","1","1","1","1","1"
"260050","img/object_images/MeasuringCup01.jpg","img/object_images/car04.jpg","img/object_images/fan05.jpg","1","1","1","1","0","0","0.478068900294602","0.509067200124264","0.421165900304914","1","1","1","1","1","1","1","1","1"
"260050","img/object_images/fan05.jpg","img/object_images/MeasuringCup01.jpg","img/object_images/shower_head03.jpg","1","1","1","0","1","1","0.421165900304914","0.478068900294602","0.48446090053767","1","1","1","1","1","1","1","1","1"
"260050","img/object_images/shower_head03.jpg","img/object_images/fan05.jpg","img/object_images/key02.jpg","1","1","1","1","0","1","0.48446090053767","0.421165900304914","0.420785800553858","1","1","1","1","1","1","1","1","1"
"260050","img/object_images/key02.jpg","img/object_images/shower_head03.jpg","img/object_images/rock03.jpg","1","1","1","1","1","0","0.420785800553858","0.48446090053767","0.468239400070161","1","1","1","1","1","1","1","1","1"
"260050","img/object_images/rock03.jpg","img/object_images/key02.jpg","img/object_images/cutting_board01.jpg","1","1","0","0","1","1","0.468239400070161","0.420785800553858","0.470623400062323","1","1","1","1","1","1","1","1","1"
"260050","img/object_images/cutting_board01.jpg","img/object_images/rock03.jpg","img/object_images/toaster02.jpg","0","1","1","1","0","1","0.470623400062323","0.468239400070161","0.679446400143206","1","1","1","1","1","1","1","1","1"
"260050","img/object_images/toaster02.jpg","img/object_images/cutting_board01.jpg","img/object_images/cards01.jpg","1","0","1","1","1","0","0.679446400143206","0.470623400062323","0.482645499985665","1","1","1","1","1","1","1","1","1"
"260050","img/object_images/cards01.jpg","img/object_images/toaster02.jpg","img/object_images/dress03.jpg","1","1","1","0","1","1","0.482645499985665","0.679446400143206","0.405488500371575","1","1","1","1","1","1","1","1","1"
"260050","img/object_images/dress03.jpg","img/object_images/cards01.jpg","img/object_images/binoculars03.jpg","1","1","1","1","0","1","0.405488500371575","0.482645499985665","0.540539600420743","1","1","1","1","1","1","1","1","1"
"260050","img/object_images/binoculars03.jpg","img/object_images/dress03.jpg","img/object_images/shoes10.jpg","1","1","1","1","1","0","0.540539600420743","0.405488500371575","0.521974100265652","1","1","1","1","1","1","1","1","1"
"260050","img/object_images/shoes10.jpg","img/object_images/binoculars03.jpg","img/object_images/belt01.jpg","1","1","1","0","1","0","0.521974100265652","0.540539600420743","0.508710100315511","1","1","1","1","1","1","1","1","1"
"260050","img/object_images/belt01.jpg","img/object_images/shoes10.jpg","img/object_images/hair_brush05.jpg","1","1","1","0","0","1","0.508710100315511","0.521974100265652","0.436134200077504","1","1","1","1","1","1","1","1","1"
"260050","img/object_images/hair_brush05.jpg","img/object_images/belt01.jpg","img/object_images/slinky_toy01.jpg","1","1","1","1","0","1","0.436134200077504","0.508710100315511","0.612624200526625","1","1","1","1","1","1","1","1","1"
"260050","img/object_images/slinky_toy01.jpg","img/object_images/hair_brush05.jpg","img/object_images/tool11.jpg","1","1","1","1","1","1","0.612624200526625","0.436134200077504","0.424240400549024","1","1","1","1","1","1","1","1","1"
"260050","img/object_images/tool11.jpg","img/object_images/slinky_toy01.jpg","img/object_images/WitchHat02.jpg","1","1","1","1","1","1","0.424240400549024","0.612624200526625","0.388400500640273","1","1","1","1","1","1","1","1","1"
"260050","img/object_images/WitchHat02.jpg","img/object_images/tool11.jpg","img/object_images/mask01.jpg","1","1","0","1","1","0","0.388400500640273","0.424240400549024","0.40420910064131","1","1","1","1","1","1","1","1","1"
"260050","img/object_images/mask01.jpg","img/object_images/WitchHat02.jpg","img/object_images/yarn02.jpg","0","1","1","0","1","0","0.40420910064131","0.388400500640273","0.578830800019205","1","1","1","1","1","1","1","1","1"
"260050","img/object_images/yarn02.jpg","img/object_images/mask01.jpg","img/object_images/ladle02.jpg","1","0","1","0","0","0","0.578830800019205","0.40420910064131","0.528680800460279","1","1","1","1","1","1","1","1","1"
"260050","img/object_images/ladle02.jpg","img/object_images/yarn02.jpg","img/object_images/bag06.jpg","1","1","1","0","0","1","0.528680800460279","0.578830800019205","0.506001800298691","1","1","1","1","1","1","1","1","1"
"260050","img/object_images/bag06.jpg","img/object_images/ladle02.jpg","img/object_images/satellite01.jpg","1","1","1","1","0","0","0.506001800298691","0.528680800460279","0.488144100178033","1","1","1","1","1","1","1","1","1"
"260050","img/object_images/satellite01.jpg","img/object_images/bag06.jpg","img/object_images/tv01.jpg","1","1","1","0","1","0","0.488144100178033","0.506001800298691","0.504219599999487","1","1","1","1","1","1","1","1","1"
"260050","img/object_images/tv01.jpg","img/object_images/satellite01.jpg",NA,"1","1",NA,"0","0",NA,"0.504219599999487","0.488144100178033",NA,"1","1",NA,"1","1",NA,"1","1",NA
"260050","img/object_images/knife02.jpg",NA,"img/object_images/knit03.jpg","1",NA,"0","0",NA,"1","0.516613700427115",NA,"0.391165200155228","1",NA,"1","1",NA,"1","1",NA,"2"
"260050","img/object_images/knit03.jpg","img/object_images/knife02.jpg","img/object_images/boat04.jpg","0","1","0","1","0","0","0.391165200155228","0.516613700427115","0.413368500303477","1","1","1","1","1","1","2","1","2"
"260050","img/object_images/boat04.jpg","img/object_images/knit03.jpg","img/object_images/toy08.jpg","0","0","1","0","1","0","0.413368500303477","0.391165200155228","0.508361900690943","1","1","1","1","1","1","2","2","1"
"260050","img/object_images/toy08.jpg","img/object_images/boat04.jpg","img/object_images/Statue01.jpg","1","0","1","0","0","1","0.508361900690943","0.413368500303477","0.476393000222743","1","1","1","1","1","1","1","2","1"
"260050","img/object_images/Statue01.jpg","img/object_images/toy08.jpg","img/object_images/jacket04.jpg","1","1","1","1","0","0","0.476393000222743","0.508361900690943","0.368946500122547","1","1","1","1","1","1","1","1","1"
"260050","img/object_images/jacket04.jpg","img/object_images/Statue01.jpg","img/object_images/keyboard02.jpg","1","1","1","0","1","1","0.368946500122547","0.476393000222743","0.384472700301558","1","1","1","1","1","1","1","1","1"
"260050","img/object_images/keyboard02.jpg","img/object_images/jacket04.jpg","img/object_images/video_game01.jpg","1","1","1","1","0","1","0.384472700301558","0.368946500122547","0.458973600529134","1","1","1","1","1","1","1","1","1"
"260050","img/object_images/video_game01.jpg","img/object_images/keyboard02.jpg","img/object_images/paper_cup02.jpg","1","1","1","1","1","1","0.458973600529134","0.384472700301558","0.365754600148648","1","1","1","1","1","1","1","1","1"
"260050","img/object_images/paper_cup02.jpg","img/object_images/video_game01.jpg","img/object_images/blender02.jpg","1","1","1","1","1","1","0.365754600148648","0.458973600529134","0.447163200005889","1","1","1","1","1","1","1","1","1"
"260050","img/object_images/blender02.jpg","img/object_images/paper_cup02.jpg","img/object_images/backpack01.jpg","1","1","1","1","1","0","0.447163200005889","0.365754600148648","0.538151900283992","1","1","1","1","1","1","1","1","1"
"260050","img/object_images/backpack01.jpg","img/object_images/blender02.jpg","img/object_images/bottle07.jpg","1","1","1","0","1","1","0.538151900283992","0.447163200005889","0.39942970033735","1","1","1","1","1","1","1","1","1"
"260050","img/object_images/bottle07.jpg","img/object_images/backpack01.jpg","img/object_images/shower_head01.jpg","1","1","1","1","0","1","0.39942970033735","0.538151900283992","0.348950300365686","1","1","1","1","1","1","1","1","1"
"260050","img/object_images/shower_head01.jpg","img/object_images/bottle07.jpg","img/object_images/mail_box01.jpg","1","1","1","1","1","0","0.348950300365686","0.39942970033735","0.479441600386053","1","1","1","1","1","1","1","1","1"
"260050","img/object_images/mail_box01.jpg","img/object_images/shower_head01.jpg","img/object_images/tool18.jpg","1","1","1","0","1","0","0.479441600386053","0.348950300365686","0.402515700552612","1","1","1","1","1","1","1","1","1"
"260050","img/object_images/tool18.jpg","img/object_images/mail_box01.jpg","img/object_images/kite01.jpg","1","1","1","0","0","1","0.402515700552612","0.479441600386053","0.409351500682533","1","1","1","1","1","1","1","1","1"
"260050","img/object_images/kite01.jpg","img/object_images/tool18.jpg","img/object_images/matches02.jpg","1","1","0","1","0","0","0.409351500682533","0.402515700552612","0.426213200669736","1","1","1","1","1","1","1","1","1"
"260050","img/object_images/matches02.jpg","img/object_images/kite01.jpg","img/object_images/flashlight03.jpg","0","1","1","0","1","0","0.426213200669736","0.409351500682533","0.437189400196075","1","1","1","1","1","1","1","1","1"
"260050","img/object_images/flashlight03.jpg","img/object_images/matches02.jpg","img/object_images/hoverboard01.jpg","1","0","1","0","0","0","0.437189400196075","0.426213200669736","0.483880600426346","1","1","1","1","1","1","1","1","1"
"260050","img/object_images/hoverboard01.jpg","img/object_images/flashlight03.jpg","img/object_images/phone02.jpg","1","1","1","0","0","1","0.483880600426346","0.437189400196075","0.397529700305313","1","1","1","1","1","1","1","1","1"
"260050","img/object_images/phone02.jpg","img/object_images/hoverboard01.jpg","img/object_images/camera03.jpg","1","1","1","1","0","0","0.397529700305313","0.483880600426346","0.470995200332254","1","1","1","1","1","1","1","1","1"
"260050","img/object_images/camera03.jpg","img/object_images/phone02.jpg","img/object_images/remover01.jpg","1","1","1","0","1","1","0.470995200332254","0.397529700305313","0.497271500062198","1","1","1","1","1","1","1","1","1"
"260050","img/object_images/remover01.jpg","img/object_images/camera03.jpg","img/object_images/curtain02.jpg","1","1","1","1","0","0","0.497271500062198","0.470995200332254","0.451253500301391","1","1","1","1","1","1","1","1","1"
"260050","img/object_images/curtain02.jpg","img/object_images/remover01.jpg","img/object_images/dresser03.jpg","1","1","1","0","1","0","0.451253500301391","0.497271500062198","0.481428100727498","1","1","1","1","1","1","1","1","1"
"260050","img/object_images/dresser03.jpg","img/object_images/curtain02.jpg","img/object_images/remote_controller01.jpg","1","1","1","0","0","1","0.481428100727498","0.451253500301391","0.398534200154245","1","1","1","1","1","1","1","1","1"
"260050","img/object_images/remote_controller01.jpg","img/object_images/dresser03.jpg","img/object_images/knit04.jpg","1","1","1","1","0","1","0.398534200154245","0.481428100727498","0.413878400344402","1","1","1","1","1","1","1","1","1"
"260050","img/object_images/knit04.jpg","img/object_images/remote_controller01.jpg","img/object_images/gloves02.jpg","1","1","1","1","1","0","0.413878400344402","0.398534200154245","0.474634900223464","1","1","1","1","1","1","1","1","1"
"260050","img/object_images/gloves02.jpg","img/object_images/knit04.jpg","img/object_images/stereo02.jpg","1","1","1","0","1","0","0.474634900223464","0.413878400344402","0.451774599961936","1","1","1","1","1","1","1","1","1"
"260050","img/object_images/stereo02.jpg","img/object_images/gloves02.jpg","img/object_images/car01.jpg","1","1","1","0","0","1","0.451774599961936","0.474634900223464","0.507412300445139","1","1","1","1","1","1","1","1","1"
"260050","img/object_images/car01.jpg","img/object_images/stereo02.jpg","img/object_images/basket04.jpg","1","1","1","1","0","1","0.507412300445139","0.451774599961936","0.445256400387734","1","1","1","1","1","1","1","1","1"
"260050","img/object_images/basket04.jpg","img/object_images/car01.jpg","img/object_images/hand_grip_exerciser01.jpg","1","1","1","1","1","0","0.445256400387734","0.507412300445139","0.529638700652868","1","1","1","1","1","1","1","1","1"
"260050","img/object_images/hand_grip_exerciser01.jpg","img/object_images/basket04.jpg","img/object_images/sponge03.jpg","1","1","1","0","1","1","0.529638700652868","0.445256400387734","0.407951700501144","1","1","1","1","1","1","1","1","1"
"260050","img/object_images/sponge03.jpg","img/object_images/hand_grip_exerciser01.jpg",NA,"1","1",NA,"1","0",NA,"0.407951700501144","0.529638700652868",NA,"1","1",NA,"1","1",NA,"1","1",NA
"260050","img/object_images/handcuffs01.jpg",NA,"img/object_images/Sprayer01.jpg","1",NA,"1","0",NA,"0","0.440094300545752",NA,"0.526693200226873","1",NA,"1","1",NA,"1","1",NA,"1"
"260050","img/object_images/Sprayer01.jpg","img/object_images/handcuffs01.jpg","img/object_images/projector01.jpg","1","1","0","0","0","0","0.526693200226873","0.440094300545752","0.414251600392163","1","1","1","1","1","1","1","1","2"
"260050","img/object_images/projector01.jpg","img/object_images/Sprayer01.jpg","img/object_images/book01.jpg","0","1","1","0","0","1","0.414251600392163","0.526693200226873","0.410030700732023","1","1","1","1","1","1","2","1","1"
"260050","img/object_images/book01.jpg","img/object_images/projector01.jpg","img/object_images/speaker01.jpg","1","0","0","1","0","1","0.410030700732023","0.414251600392163","0.42781320028007","1","1","1","1","1","1","1","2","1"
"260050","img/object_images/speaker01.jpg","img/object_images/book01.jpg","img/object_images/hair_clips01.jpg","0","1","1","1","1","1","0.42781320028007","0.410030700732023","0.447537500411272","1","1","1","1","1","1","1","1","1"
"260050","img/object_images/hair_clips01.jpg","img/object_images/speaker01.jpg","img/object_images/Traffic Sign 01.jpg","1","0","0","1","1","0","0.447537500411272","0.42781320028007","0.407722900155932","1","1","1","1","1","1","1","1","1"
"260050","img/object_images/Traffic Sign 01.jpg","img/object_images/hair_clips01.jpg","img/object_images/tray01.jpg","0","1","1","0","1","1","0.407722900155932","0.447537500411272","0.515297900419682","1","1","1","1","1","1","1","1","1"
"260050","img/object_images/tray01.jpg","img/object_images/Traffic Sign 01.jpg","img/object_images/exfoliater_brush01.jpg","1","0","1","1","0","0","0.515297900419682","0.407722900155932","0.442951500415802","1","1","1","1","1","1","1","1","1"
"260050","img/object_images/exfoliater_brush01.jpg","img/object_images/tray01.jpg","img/object_images/tool08.jpg","1","1","1","0","1","0","0.442951500415802","0.515297900419682","0.449080000631511","1","1","1","1","1","1","1","1","1"
"260050","img/object_images/tool08.jpg","img/object_images/exfoliater_brush01.jpg","img/object_images/colander01.jpg","1","1","0","0","0","0","0.449080000631511","0.442951500415802","0.38985830033198","1","1","1","1","1","1","1","1","1"
"260050","img/object_images/colander01.jpg","img/object_images/tool08.jpg","img/object_images/glasses06.jpg","0","1","1","0","0","1","0.38985830033198","0.449080000631511","0.425549700390548","1","1","1","1","1","1","1","1","1"
"260050","img/object_images/glasses06.jpg","img/object_images/colander01.jpg","img/object_images/cellphone02.jpg","1","0","1","1","0","1","0.425549700390548","0.38985830033198","0.385673500131816","1","1","1","1","1","1","1","1","1"
"260050","img/object_images/cellphone02.jpg","img/object_images/glasses06.jpg","img/object_images/cup03.jpg","1","1","1","1","1","1","0.385673500131816","0.425549700390548","0.349596000276506","1","1","1","1","1","1","1","1","1"
"260050","img/object_images/cup03.jpg","img/object_images/cellphone02.jpg","img/object_images/pan01.jpg","1","1","0","1","1","1","0.349596000276506","0.385673500131816","0.40838220063597","1","1","1","1","1","1","1","1","1"
"260050","img/object_images/pan01.jpg","img/object_images/cup03.jpg","img/object_images/yo_yo01.jpg","0","1","1","1","1","0","0.40838220063597","0.349596000276506","0.389472700189799","1","1","1","1","1","1","1","1","1"
"260050","img/object_images/yo_yo01.jpg","img/object_images/pan01.jpg","img/object_images/tool07.jpg","1","0","1","0","1","0","0.389472700189799","0.40838220063597","0.460259000770748","1","1","1","1","1","1","1","1","1"
"260050","img/object_images/tool07.jpg","img/object_images/yo_yo01.jpg","img/object_images/jewelry09.jpg","1","1","1","0","0","1","0.460259000770748","0.389472700189799","0.501648200210184","1","1","1","1","1","1","1","1","1"
"260050","img/object_images/jewelry09.jpg","img/object_images/tool07.jpg","img/object_images/blanket01.jpg","1","1","1","1","0","1","0.501648200210184","0.460259000770748","0.466381700243801","1","1","1","1","1","1","1","1","1"
"260050","img/object_images/blanket01.jpg","img/object_images/jewelry09.jpg","img/object_images/bicycle_lock01.jpg","1","1","1","1","1","0","0.466381700243801","0.501648200210184","0.564153000246733","1","1","1","1","1","1","1","1","1"
"260050","img/object_images/bicycle_lock01.jpg","img/object_images/blanket01.jpg","img/object_images/fire_extinguisher01.jpg","1","1","1","0","1","0","0.564153000246733","0.466381700243801","0.373881800100207","1","1","1","1","1","1","1","1","1"
"260050","img/object_images/fire_extinguisher01.jpg","img/object_images/bicycle_lock01.jpg","img/object_images/faucet01.jpg","1","1","1","0","0","0","0.373881800100207","0.564153000246733","0.477165100164711","1","1","1","1","1","1","1","1","1"
"260050","img/object_images/faucet01.jpg","img/object_images/fire_extinguisher01.jpg","img/object_images/glasses07.jpg","1","1","1","0","0","1","0.477165100164711","0.373881800100207","0.474020000547171","1","1","1","1","1","1","1","1","1"
"260050","img/object_images/glasses07.jpg","img/object_images/faucet01.jpg","img/object_images/TrashCan02.jpg","1","1","1","1","0","1","0.474020000547171","0.477165100164711","0.411104999948293","1","1","1","1","1","1","1","1","1"
"260050","img/object_images/TrashCan02.jpg","img/object_images/glasses07.jpg","img/object_images/Kitchen_Towel.jpg","1","1","1","1","1","0","0.411104999948293","0.474020000547171","0.427263900171965","1","1","1","1","1","1","1","1","1"
"260050","img/object_images/Kitchen_Towel.jpg","img/object_images/TrashCan02.jpg","img/object_images/hole_puncher01.jpg","1","1","0","0","1","1","0.427263900171965","0.411104999948293","0.390993800479919","1","1","1","1","1","1","1","1","1"
"260050","img/object_images/hole_puncher01.jpg","img/object_images/Kitchen_Towel.jpg","img/object_images/basket02.jpg","0","1","1","1","0","0","0.390993800479919","0.427263900171965","0.518347700126469","1","1","1","1","1","1","1","1","1"
"260050","img/object_images/basket02.jpg","img/object_images/hole_puncher01.jpg","img/object_images/purse01.jpg","1","0","1","0","1","1","0.518347700126469","0.390993800479919","0.397286100778729","1","1","1","1","1","1","1","1","1"
"260050","img/object_images/purse01.jpg","img/object_images/basket02.jpg","img/object_images/ring03.jpg","1","1","1","1","0","1","0.397286100778729","0.518347700126469","0.471351100597531","1","1","1","1","1","1","1","1","1"
"260050","img/object_images/ring03.jpg","img/object_images/purse01.jpg","img/object_images/gift_box04.jpg","1","1","1","1","1","0","0.471351100597531","0.397286100778729","0.405975900124758","1","1","1","1","1","1","1","1","1"
"260050","img/object_images/gift_box04.jpg","img/object_images/ring03.jpg","img/object_images/lighter01.jpg","1","1","1","0","1","1","0.405975900124758","0.471351100597531","0.420133900362998","1","1","1","1","1","1","1","1","1"
"260050","img/object_images/lighter01.jpg","img/object_images/gift_box04.jpg","img/object_images/Pottery01.jpg","1","1","1","1","0","0","0.420133900362998","0.405975900124758","0.4483558004722","1","1","1","1","1","1","1","1","1"
"260050","img/object_images/Pottery01.jpg","img/object_images/lighter01.jpg",NA,"1","1",NA,"0","1",NA,"0.4483558004722","0.420133900362998",NA,"1","1",NA,"1","1",NA,"1","1",NA
"260050","img/object_images/helmet04.jpg",NA,"img/object_images/tool19.jpg","1",NA,"1","1",NA,"1","0.515774100087583",NA,"0.370883700437844","1",NA,"1","1",NA,"1","1",NA,"1"
"260050","img/object_images/tool19.jpg","img/object_images/helmet04.jpg","img/object_images/wagon_cart03.jpg","1","1","1","1","1","1","0.370883700437844","0.515774100087583","0.406498699914664","1","1","1","1","1","1","1","1","1"
"260050","img/object_images/wagon_cart03.jpg","img/object_images/tool19.jpg","img/object_images/pen05.jpg","1","1","1","1","1","0","0.406498699914664","0.370883700437844","0.54219220019877","1","1","1","1","1","1","1","1","1"
"260050","img/object_images/pen05.jpg","img/object_images/wagon_cart03.jpg","img/object_images/coloring_pencil02.jpg","1","1","1","0","1","0","0.54219220019877","0.406498699914664","0.443691700231284","1","1","1","1","1","1","1","1","1"
"260050","img/object_images/coloring_pencil02.jpg","img/object_images/pen05.jpg","img/object_images/bottle02.jpg","1","1","1","0","0","1","0.443691700231284","0.54219220019877","0.37791720032692","1","1","1","1","1","1","1","1","1"
"260050","img/object_images/bottle02.jpg","img/object_images/coloring_pencil02.jpg","img/object_images/perfume02.jpg","1","1","1","1","0","0","0.37791720032692","0.443691700231284","0.416714300401509","1","1","1","1","1","1","1","1","1"
"260050","img/object_images/perfume02.jpg","img/object_images/bottle02.jpg","img/object_images/scoreboard01.jpg","1","1","1","0","1","1","0.416714300401509","0.37791720032692","0.397296100389212","1","1","1","1","1","1","1","1","1"
"260050","img/object_images/scoreboard01.jpg","img/object_images/perfume02.jpg","img/object_images/bean_bag02.jpg","1","1","1","1","0","1","0.397296100389212","0.416714300401509","0.390899800695479","1","1","1","1","1","1","1","1","1"
"260050","img/object_images/bean_bag02.jpg","img/object_images/scoreboard01.jpg","img/object_images/audio_port01.jpg","1","1","1","1","1","1","0.390899800695479","0.397296100389212","0.394950800575316","1","1","1","1","1","1","1","1","1"
"260050","img/object_images/audio_port01.jpg","img/object_images/bean_bag02.jpg","img/object_images/flask01.jpg","1","1","0","1","1","0","0.394950800575316","0.390899800695479","0.384375500492752","1","1","1","1","1","1","1","1","1"
"260050","img/object_images/flask01.jpg","img/object_images/audio_port01.jpg","img/object_images/hot_air_balloon02.jpg","0","1","1","0","1","0","0.384375500492752","0.394950800575316","0.474449300207198","1","1","1","1","1","1","1","1","1"
"260050","img/object_images/hot_air_balloon02.jpg","img/object_images/flask01.jpg","img/object_images/boat_toy10.jpg","1","0","0","0","0","0","0.474449300207198","0.384375500492752","0.385547900106758","1","1","1","1","1","1","1","1","1"
"260050","img/object_images/boat_toy10.jpg","img/object_images/hot_air_balloon02.jpg","img/object_images/shoes07.jpg","0","1","1","0","0","0","0.385547900106758","0.474449300207198","0.45148660056293","1","1","1","1","1","1","1","1","1"
"260050","img/object_images/shoes07.jpg","img/object_images/boat_toy10.jpg","img/object_images/chair03.jpg","1","0","1","0","0","0","0.45148660056293","0.385547900106758","0.459078900050372","1","1","1","1","1","1","1","1","1"
"260050","img/object_images/chair03.jpg","img/object_images/shoes07.jpg","img/object_images/camera_lens01.jpg","1","1","1","0","0","1","0.459078900050372","0.45148660056293","0.37727630045265","1","1","1","1","1","1","1","1","1"
"260050","img/object_images/camera_lens01.jpg","img/object_images/chair03.jpg","img/object_images/bicycle01.jpg","1","1","1","1","0","1","0.37727630045265","0.459078900050372","0.387682900298387","1","1","1","1","1","1","1","1","1"
"260050","img/object_images/bicycle01.jpg","img/object_images/camera_lens01.jpg","img/object_images/boat02.jpg","1","1","1","1","1","1","0.387682900298387","0.37727630045265","0.34498710045591","1","1","1","1","1","1","1","1","1"
"260050","img/object_images/boat02.jpg","img/object_images/bicycle01.jpg","img/object_images/tie02.jpg","1","1","1","1","1","0","0.34498710045591","0.387682900298387","0.411129300482571","1","1","1","1","1","1","1","1","1"
"260050","img/object_images/tie02.jpg","img/object_images/boat02.jpg","img/object_images/water_scooter01.jpg","1","1","1","0","1","1","0.411129300482571","0.34498710045591","0.461475000251085","1","1","1","1","1","1","1","1","1"
"260050","img/object_images/water_scooter01.jpg","img/object_images/tie02.jpg","img/object_images/purse04.jpg","1","1","1","1","0","1","0.461475000251085","0.411129300482571","0.357917000539601","1","1","1","1","1","1","1","1","1"
"260050","img/object_images/purse04.jpg","img/object_images/water_scooter01.jpg","img/object_images/piggy_bank01.jpg","1","1","1","1","1","1","0.357917000539601","0.461475000251085","0.51884730020538","1","1","1","1","1","1","1","1","1"
"260050","img/object_images/piggy_bank01.jpg","img/object_images/purse04.jpg","img/object_images/knit01.jpg","1","1","1","1","1","0","0.51884730020538","0.357917000539601","0.35375800030306","1","1","1","1","1","1","1","1","1"
"260050","img/object_images/knit01.jpg","img/object_images/piggy_bank01.jpg","img/object_images/toaster01.jpg","1","1","1","0","1","1","0.35375800030306","0.51884730020538","0.432257200125605","1","1","1","1","1","1","1","1","1"
"260050","img/object_images/toaster01.jpg","img/object_images/knit01.jpg","img/object_images/bottle10.jpg","1","1","1","1","0","1","0.432257200125605","0.35375800030306","0.43055779999122","1","1","1","1","1","1","1","1","1"
"260050","img/object_images/bottle10.jpg","img/object_images/toaster01.jpg","img/object_images/cellphone03.jpg","1","1","0","1","1","0","0.43055779999122","0.432257200125605","0.388990200124681","1","1","1","1","1","1","1","1","2"
"260050","img/object_images/cellphone03.jpg","img/object_images/bottle10.jpg","img/object_images/hat06.jpg","0","1","1","0","1","0","0.388990200124681","0.43055779999122","0.392536700237542","1","1","1","1","1","1","2","1","1"
"260050","img/object_images/hat06.jpg","img/object_images/cellphone03.jpg","img/object_images/bottle09.jpg","1","0","1","0","0","0","0.392536700237542","0.388990200124681","0.571561800781637","1","1","1","1","1","1","1","2","1"
"260050","img/object_images/bottle09.jpg","img/object_images/hat06.jpg","img/object_images/dog_leash01.jpg","1","1","1","0","0","0","0.571561800781637","0.392536700237542","0.475866300053895","1","1","1","1","1","1","1","1","1"
"260050","img/object_images/dog_leash01.jpg","img/object_images/bottle09.jpg","img/object_images/toilet_paper_dispenser01.jpg","1","1","1","0","0","1","0.475866300053895","0.571561800781637","0.45455630030483","1","1","1","1","1","1","1","1","1"
"260050","img/object_images/toilet_paper_dispenser01.jpg","img/object_images/dog_leash01.jpg","img/object_images/fan02.jpg","1","1","1","1","0","0","0.45455630030483","0.475866300053895","0.510618300642818","1","1","1","1","1","1","1","1","1"
"260050","img/object_images/fan02.jpg","img/object_images/toilet_paper_dispenser01.jpg","img/object_images/WoodBox01.jpg","1","1","1","0","1","0","0.510618300642818","0.45455630030483","0.568651700392365","1","1","1","1","1","1","1","1","1"
"260050","img/object_images/WoodBox01.jpg","img/object_images/fan02.jpg",NA,"1","1",NA,"0","0",NA,"0.568651700392365","0.510618300642818",NA,"1","1",NA,"1","1",NA,"1","1",NA
"260050","img/object_images/piano03.jpg",NA,"img/object_images/bookmark01.jpg","1",NA,"1","0",NA,"0","0.498087500222027",NA,"0.498289100360125","1",NA,"1","1",NA,"1","1",NA,"1"
"260050","img/object_images/bookmark01.jpg","img/object_images/piano03.jpg","img/object_images/Eyeliner01.jpg","1","1","1","0","0","1","0.498289100360125","0.498087500222027","0.386138800531626","1","1","1","1","1","1","1","1","1"
"260050","img/object_images/Eyeliner01.jpg","img/object_images/bookmark01.jpg","img/object_images/ToolBag01.jpg","1","1","0","1","0","0","0.386138800531626","0.498289100360125","0.3470365004614","1","1","1","1","1","1","1","1","1"
"260050","img/object_images/ToolBag01.jpg","img/object_images/Eyeliner01.jpg","img/object_images/badminton01.jpg","0","1","1","0","1","1","0.3470365004614","0.386138800531626","0.456799200270325","1","1","1","1","1","1","1","1","1"
"260050","img/object_images/badminton01.jpg","img/object_images/ToolBag01.jpg","img/object_images/scale02.jpg","1","0","1","1","0","0","0.456799200270325","0.3470365004614","0.471038300544024","1","1","1","1","1","1","1","1","1"
"260050","img/object_images/scale02.jpg","img/object_images/badminton01.jpg","img/object_images/jewel02.jpg","1","1","0","0","1","0","0.471038300544024","0.456799200270325","0.447584200184792","1","1","1","1","1","1","1","1","1"
"260050","img/object_images/jewel02.jpg","img/object_images/scale02.jpg","img/object_images/nut_cracker01.jpg","0","1","1","0","0","1","0.447584200184792","0.471038300544024","0.565017000306398","1","1","1","1","1","1","1","1","1"
"260050","img/object_images/nut_cracker01.jpg","img/object_images/jewel02.jpg","img/object_images/egg_basket01.jpg","1","0","1","1","0","1","0.565017000306398","0.447584200184792","0.442916700150818","1","1","1","1","1","1","1","1","1"
"260050","img/object_images/egg_basket01.jpg","img/object_images/nut_cracker01.jpg","img/object_images/bottle06.jpg","1","1","1","1","1","0","0.442916700150818","0.565017000306398","0.455421200487763","1","1","1","1","1","1","1","1","1"
"260050","img/object_images/bottle06.jpg","img/object_images/egg_basket01.jpg","img/object_images/pitcher07.jpg","1","1","1","0","1","1","0.455421200487763","0.442916700150818","0.377425900194794","1","1","1","1","1","1","1","1","1"
"260050","img/object_images/pitcher07.jpg","img/object_images/bottle06.jpg","img/object_images/joystick03.jpg","1","1","1","1","0","1","0.377425900194794","0.455421200487763","0.38461730023846","1","1","1","1","1","1","1","1","1"
"260050","img/object_images/joystick03.jpg","img/object_images/pitcher07.jpg","img/object_images/TreeSlice01.jpg","1","1","1","1","1","1","0.38461730023846","0.377425900194794","0.389293600339442","1","1","1","1","1","1","1","1","1"
"260050","img/object_images/TreeSlice01.jpg","img/object_images/joystick03.jpg","img/object_images/bucket01.jpg","1","1","1","1","1","1","0.389293600339442","0.38461730023846","0.368136800359935","1","1","1","1","1","1","1","1","1"
"260050","img/object_images/bucket01.jpg","img/object_images/TreeSlice01.jpg","img/object_images/water_gun01.jpg","1","1","1","1","1","1","0.368136800359935","0.389293600339442","0.410361500456929","1","1","1","1","1","1","1","1","1"
"260050","img/object_images/water_gun01.jpg","img/object_images/bucket01.jpg","img/object_images/headset02.jpg","1","1","1","1","1","0","0.410361500456929","0.368136800359935","0.479570500086993","1","1","1","1","1","1","1","1","1"
"260050","img/object_images/headset02.jpg","img/object_images/water_gun01.jpg","img/object_images/Safe01.jpg","1","1","1","0","1","1","0.479570500086993","0.410361500456929","0.338176200166345","1","1","1","1","1","1","1","1","1"
"260050","img/object_images/Safe01.jpg","img/object_images/headset02.jpg","img/object_images/yoga_mat01.jpg","1","1","1","1","0","0","0.338176200166345","0.479570500086993","0.445163100026548","1","1","1","1","1","1","1","1","1"
"260050","img/object_images/yoga_mat01.jpg","img/object_images/Safe01.jpg","img/object_images/Shoes05.jpg","1","1","1","0","1","0","0.445163100026548","0.338176200166345","0.451512900181115","1","1","1","1","1","1","1","1","1"
"260050","img/object_images/Shoes05.jpg","img/object_images/yoga_mat01.jpg","img/object_images/belt03.jpg","1","1","0","0","0","0","0.451512900181115","0.445163100026548","0.317453500349075","1","1","1","1","1","1","1","1","1"
"260050","img/object_images/belt03.jpg","img/object_images/Shoes05.jpg","img/object_images/lock03.jpg","0","1","1","0","0","1","0.317453500349075","0.451512900181115","0.377466100268066","1","1","1","1","1","1","1","1","1"
"260050","img/object_images/lock03.jpg","img/object_images/belt03.jpg","img/object_images/phone04.jpg","1","0","1","1","0","1","0.377466100268066","0.317453500349075","0.412940900307149","1","1","1","1","1","1","1","1","1"
"260050","img/object_images/phone04.jpg","img/object_images/lock03.jpg","img/object_images/shovel01.jpg","1","1","1","1","1","0","0.412940900307149","0.377466100268066","0.371237400453538","1","1","1","1","1","1","1","1","1"
"260050","img/object_images/shovel01.jpg","img/object_images/phone04.jpg","img/object_images/dice01.jpg","1","1","1","0","1","0","0.371237400453538","0.412940900307149","0.398435800336301","1","1","1","1","1","1","1","1","1"
"260050","img/object_images/dice01.jpg","img/object_images/shovel01.jpg","img/object_images/trumpet01.jpg","1","1","1","0","0","0","0.398435800336301","0.371237400453538","0.381870600394905","1","1","1","1","1","1","1","1","1"
"260050","img/object_images/trumpet01.jpg","img/object_images/dice01.jpg","img/object_images/fan01.jpg","1","1","1","0","0","0","0.381870600394905","0.398435800336301","0.443726500496268","1","1","1","1","1","1","1","1","1"
"260050","img/object_images/fan01.jpg","img/object_images/trumpet01.jpg","img/object_images/frame01.jpg","1","1","1","0","0","1","0.443726500496268","0.381870600394905","0.399748800322413","1","1","1","1","1","1","1","1","1"
"260050","img/object_images/frame01.jpg","img/object_images/fan01.jpg","img/object_images/usb03.jpg","1","1","0","1","0","0","0.399748800322413","0.443726500496268","0.361019500531256","1","1","1","1","1","1","1","1","1"
"260050","img/object_images/usb03.jpg","img/object_images/frame01.jpg","img/object_images/origami01.jpg","0","1","1","0","1","1","0.361019500531256","0.399748800322413","0.352004300337285","1","1","1","1","1","1","1","1","1"
"260050","img/object_images/origami01.jpg","img/object_images/usb03.jpg","img/object_images/tennis_racket01.jpg","1","0","1","1","0","1","0.352004300337285","0.361019500531256","0.323231000453234","1","1","1","1","1","1","1","1","1"
"260050","img/object_images/tennis_racket01.jpg","img/object_images/origami01.jpg","img/object_images/note_book02.jpg","1","1","0","1","1","0","0.323231000453234","0.352004300337285","0.367777400650084","1","1","1","1","1","1","1","1","1"
"260050","img/object_images/note_book02.jpg","img/object_images/tennis_racket01.jpg","img/object_images/helmet03.jpg","0","1","1","0","1","1","0.367777400650084","0.323231000453234","0.456268900074065","1","1","1","1","1","1","1","1","1"
"260050","img/object_images/helmet03.jpg","img/object_images/note_book02.jpg",NA,"1","0",NA,"1","0",NA,"0.456268900074065","0.367777400650084",NA,"1","1",NA,"1","1",NA,"1","1",NA
"260050","img/object_images/Lint_Roller02.jpg",NA,"img/object_images/combs01.jpg","1",NA,"1","0",NA,"1","0.502578700426966",NA,"0.413263900671154","1",NA,"1","1",NA,"1","1",NA,"1"
"260050","img/object_images/combs01.jpg","img/object_images/Lint_Roller02.jpg","img/object_images/spatula02.jpg","1","1","1","1","0","1","0.413263900671154","0.502578700426966","0.399634200613946","1","1","1","1","1","1","1","1","1"
"260050","img/object_images/spatula02.jpg","img/object_images/combs01.jpg","img/object_images/stove01.jpg","1","1","0","1","1","0","0.399634200613946","0.413263900671154","0.346576800104231","1","1","1","1","1","1","1","1","1"
"260050","img/object_images/stove01.jpg","img/object_images/spatula02.jpg","img/object_images/gift_box05.jpg","0","1","1","0","1","0","0.346576800104231","0.399634200613946","0.36464220052585","1","1","1","1","1","1","1","1","1"
"260050","img/object_images/gift_box05.jpg","img/object_images/stove01.jpg","img/object_images/bucket02.jpg","1","0","1","0","0","1","0.36464220052585","0.346576800104231","0.356680900324136","1","1","1","1","1","1","1","1","1"
"260050","img/object_images/bucket02.jpg","img/object_images/gift_box05.jpg","img/object_images/robe01.jpg","1","1","1","1","0","1","0.356680900324136","0.36464220052585","0.388295200187713","1","1","1","1","1","1","1","1","1"
"260050","img/object_images/robe01.jpg","img/object_images/bucket02.jpg","img/object_images/chair02.jpg","1","1","0","1","1","1","0.388295200187713","0.356680900324136","0.385007600765675","1","1","1","1","1","1","1","1","1"
"260050","img/object_images/chair02.jpg","img/object_images/robe01.jpg","img/object_images/hair_brush02.jpg","0","1","1","1","1","0","0.385007600765675","0.388295200187713","0.520055300090462","1","1","1","1","1","1","1","1","1"
"260050","img/object_images/hair_brush02.jpg","img/object_images/chair02.jpg","img/object_images/hair_dryer01.jpg","1","0","1","0","1","0","0.520055300090462","0.385007600765675","0.555831800214946","1","1","1","1","1","1","1","1","1"
"260050","img/object_images/hair_dryer01.jpg","img/object_images/hair_brush02.jpg","img/object_images/laptop03.jpg","1","1","1","0","0","1","0.555831800214946","0.520055300090462","0.434271400328726","1","1","1","1","1","1","1","1","1"
"260050","img/object_images/laptop03.jpg","img/object_images/hair_dryer01.jpg","img/object_images/fan04.jpg","1","1","1","1","0","0","0.434271400328726","0.555831800214946","0.347923900466412","1","1","1","1","1","1","1","1","1"
"260050","img/object_images/fan04.jpg","img/object_images/laptop03.jpg","img/object_images/accardion01.jpg","1","1","1","0","1","1","0.347923900466412","0.434271400328726","0.384225400164723","1","1","1","1","1","1","1","1","1"
"260050","img/object_images/accardion01.jpg","img/object_images/fan04.jpg","img/object_images/chess_piece01.jpg","1","1","1","1","0","0","0.384225400164723","0.347923900466412","0.452778000384569","1","1","1","1","1","1","1","1","1"
"260050","img/object_images/chess_piece01.jpg","img/object_images/accardion01.jpg","img/object_images/calculator01.jpg","1","1","1","0","1","1","0.452778000384569","0.384225400164723","0.380271900445223","1","1","1","1","1","1","1","1","1"
"260050","img/object_images/calculator01.jpg","img/object_images/chess_piece01.jpg","img/object_images/Vest02.jpg","1","1","1","1","0","0","0.380271900445223","0.452778000384569","0.451308300253004","1","1","1","1","1","1","1","1","1"
"260050","img/object_images/Vest02.jpg","img/object_images/calculator01.jpg","img/object_images/pitcher05.jpg","1","1","1","0","1","0","0.451308300253004","0.380271900445223","0.403788100462407","1","1","1","1","1","1","1","1","1"
"260050","img/object_images/pitcher05.jpg","img/object_images/Vest02.jpg","img/object_images/backpack03.jpg","1","1","1","0","0","1","0.403788100462407","0.451308300253004","0.393312000203878","1","1","1","1","1","1","1","1","1"
"260050","img/object_images/backpack03.jpg","img/object_images/pitcher05.jpg","img/object_images/shoes08.jpg","1","1","0","1","0","1","0.393312000203878","0.403788100462407","0.390640900004655","1","1","1","1","1","1","1","1","2"
"260050","img/object_images/shoes08.jpg","img/object_images/backpack03.jpg","img/object_images/umbrella01.jpg","0","1","0","1","1","0","0.390640900004655","0.393312000203878","0.421880600508303","1","1","1","1","1","1","2","1","1"
"260050","img/object_images/umbrella01.jpg","img/object_images/shoes08.jpg","img/object_images/surf_board01.jpg","0","0","1","0","1","1","0.421880600508303","0.390640900004655","0.461827200371772","1","1","1","1","1","1","1","2","1"
"260050","img/object_images/surf_board01.jpg","img/object_images/umbrella01.jpg","img/object_images/microphone03.jpg","1","0","1","1","0","1","0.461827200371772","0.421880600508303","0.496531400363892","1","1","1","1","1","1","1","1","1"
"260050","img/object_images/microphone03.jpg","img/object_images/surf_board01.jpg","img/object_images/toy05.jpg","1","1","0","1","1","0","0.496531400363892","0.461827200371772","0.404733900446445","1","1","1","1","1","1","1","1","1"
"260050","img/object_images/toy05.jpg","img/object_images/microphone03.jpg","img/object_images/vase01.jpg","0","1","1","0","1","0","0.404733900446445","0.496531400363892","0.430640800390392","1","1","1","1","1","1","1","1","1"
"260050","img/object_images/vase01.jpg","img/object_images/toy05.jpg","img/object_images/lock01.jpg","1","0","1","0","0","0","0.430640800390392","0.404733900446445","0.409970200620592","1","1","1","1","1","1","1","1","1"
"260050","img/object_images/lock01.jpg","img/object_images/vase01.jpg","img/object_images/trash_can03.jpg","1","1","1","0","0","1","0.409970200620592","0.430640800390392","0.424742300529033","1","1","1","1","1","1","1","1","1"
"260050","img/object_images/trash_can03.jpg","img/object_images/lock01.jpg","img/object_images/towels01.jpg","1","1","0","1","0","0","0.424742300529033","0.409970200620592","0.459007600322366","1","1","1","1","1","1","1","1","2"
"260050","img/object_images/towels01.jpg","img/object_images/trash_can03.jpg","img/object_images/ball02.jpg","0","1","1","0","1","1","0.459007600322366","0.424742300529033","0.456195300444961","1","1","1","1","1","1","2","1","1"
"260050","img/object_images/ball02.jpg","img/object_images/towels01.jpg","img/object_images/helmet02.jpg","1","0","1","1","0","0","0.456195300444961","0.459007600322366","0.417746100574732","1","1","1","1","1","1","1","2","1"
"260050","img/object_images/helmet02.jpg","img/object_images/ball02.jpg","img/object_images/jewel03.jpg","1","1","1","0","1","1","0.417746100574732","0.456195300444961","0.382525800261647","1","1","1","1","1","1","1","1","1"
"260050","img/object_images/jewel03.jpg","img/object_images/helmet02.jpg","img/object_images/trash_can05.jpg","1","1","1","1","0","1","0.382525800261647","0.417746100574732","0.385949500370771","1","1","1","1","1","1","1","1","1"
"260050","img/object_images/trash_can05.jpg","img/object_images/jewel03.jpg","img/object_images/laptop01.jpg","1","1","1","1","1","0","0.385949500370771","0.382525800261647","0.339860000181943","1","1","1","1","1","1","1","1","1"
"260050","img/object_images/laptop01.jpg","img/object_images/trash_can05.jpg",NA,"1","1",NA,"0","1",NA,"0.339860000181943","0.385949500370771",NA,"1","1",NA,"1","1",NA,"1","1",NA
"260050","img/object_images/sink_filter01 (1).jpg",NA,"img/object_images/dust_pan01.jpg","1",NA,"1","0",NA,"1","0.417061800137162",NA,"0.425830000080168","1",NA,"1","1",NA,"1","1",NA,"1"
"260050","img/object_images/dust_pan01.jpg","img/object_images/sink_filter01 (1).jpg","img/object_images/bag04.jpg","1","1","1","1","0","0","0.425830000080168","0.417061800137162","0.35761160030961","1","1","1","1","1","1","1","1","1"
"260050","img/object_images/bag04.jpg","img/object_images/dust_pan01.jpg","img/object_images/pen06.jpg","1","1","1","0","1","0","0.35761160030961","0.425830000080168","0.359784100670367","1","1","1","1","1","1","1","1","1"
"260050","img/object_images/pen06.jpg","img/object_images/bag04.jpg","img/object_images/floss01.jpg","1","1","1","0","0","1","0.359784100670367","0.35761160030961","0.382053900044411","1","1","1","1","1","1","1","1","1"
"260050","img/object_images/floss01.jpg","img/object_images/pen06.jpg","img/object_images/hat13.jpg","1","1","0","1","0","1","0.382053900044411","0.359784100670367","0.327450700569898","1","1","1","1","1","1","1","1","1"
"260050","img/object_images/hat13.jpg","img/object_images/floss01.jpg","img/object_images/knife01.jpg","0","1","1","1","1","1","0.327450700569898","0.382053900044411","0.436072800308466","1","1","1","1","1","1","1","1","1"
"260050","img/object_images/knife01.jpg","img/object_images/hat13.jpg","img/object_images/sign02.jpg","1","0","1","1","1","0","0.436072800308466","0.327450700569898","0.405311400536448","1","1","1","1","1","1","1","1","1"
"260050","img/object_images/sign02.jpg","img/object_images/knife01.jpg","img/object_images/glasses03.jpg","1","1","1","0","1","0","0.405311400536448","0.436072800308466","0.387887000571936","1","1","1","1","1","1","1","1","1"
"260050","img/object_images/glasses03.jpg","img/object_images/sign02.jpg","img/object_images/video_game02.jpg","1","1","1","0","0","1","0.387887000571936","0.405311400536448","0.517685200553387","1","1","1","1","1","1","1","1","1"
"260050","img/object_images/video_game02.jpg","img/object_images/glasses03.jpg","img/object_images/cup01.jpg","1","1","1","1","0","0","0.517685200553387","0.387887000571936","0.47149860067293","1","1","1","1","1","1","1","1","1"
"260050","img/object_images/cup01.jpg","img/object_images/video_game02.jpg","img/object_images/perfume01.jpg","1","1","1","0","1","0","0.47149860067293","0.517685200553387","0.443982100579888","1","1","1","1","1","1","1","1","1"
"260050","img/object_images/perfume01.jpg","img/object_images/cup01.jpg","img/object_images/ruler02.jpg","1","1","1","0","0","1","0.443982100579888","0.47149860067293","0.410971300210804","1","1","1","1","1","1","1","1","1"
"260050","img/object_images/ruler02.jpg","img/object_images/perfume01.jpg","img/object_images/razor02.jpg","1","1","1","1","0","1","0.410971300210804","0.443982100579888","0.399550000205636","1","1","1","1","1","1","1","1","1"
"260050","img/object_images/razor02.jpg","img/object_images/ruler02.jpg","img/object_images/hammer02.jpg","1","1","1","1","1","0","0.399550000205636","0.410971300210804","0.404963400680572","1","1","1","1","1","1","1","1","1"
"260050","img/object_images/hammer02.jpg","img/object_images/razor02.jpg","img/object_images/board01.jpg","1","1","1","0","1","1","0.404963400680572","0.399550000205636","0.41474370053038","1","1","1","1","1","1","1","1","1"
"260050","img/object_images/board01.jpg","img/object_images/hammer02.jpg","img/object_images/office_supplies01.jpg","1","1","1","1","0","1","0.41474370053038","0.404963400680572","0.36644330015406","1","1","1","1","1","1","1","1","1"
"260050","img/object_images/office_supplies01.jpg","img/object_images/board01.jpg","img/object_images/Candle_Holder01.jpg","1","1","0","1","1","0","0.36644330015406","0.41474370053038","0.353660000022501","1","1","1","1","1","1","1","1","1"
"260050","img/object_images/Candle_Holder01.jpg","img/object_images/office_supplies01.jpg","img/object_images/tool20.jpg","0","1","1","0","1","0","0.353660000022501","0.36644330015406","0.432187200058252","1","1","1","1","1","1","1","1","1"
"260050","img/object_images/tool20.jpg","img/object_images/Candle_Holder01.jpg","img/object_images/hat09.jpg","1","0","1","0","0","0","0.432187200058252","0.353660000022501","0.610889400355518","1","1","1","1","1","1","1","1","1"
"260050","img/object_images/hat09.jpg","img/object_images/tool20.jpg","img/object_images/duster01.jpg","1","1","1","0","0","0","0.610889400355518","0.432187200058252","0.447495800442994","1","1","1","1","1","1","1","1","1"
"260050","img/object_images/duster01.jpg","img/object_images/hat09.jpg","img/object_images/tool13.jpg","1","1","1","0","0","1","0.447495800442994","0.610889400355518","0.354948700405657","1","1","1","1","1","1","1","1","1"
"260050","img/object_images/tool13.jpg","img/object_images/duster01.jpg","img/object_images/spray_can01.jpg","1","1","1","1","0","0","0.354948700405657","0.447495800442994","0.419088600203395","1","1","1","1","1","1","1","1","1"
"260050","img/object_images/spray_can01.jpg","img/object_images/tool13.jpg","img/object_images/camera05.jpg","1","1","0","0","1","0","0.419088600203395","0.354948700405657","0.348051500506699","1","1","1","1","1","1","1","1","1"
"260050","img/object_images/camera05.jpg","img/object_images/spray_can01.jpg","img/object_images/Confetti 01.jpg","0","1","1","0","0","0","0.348051500506699","0.419088600203395","0.451460100244731","1","1","1","1","1","1","1","1","1"
"260050","img/object_images/Confetti 01.jpg","img/object_images/camera05.jpg","img/object_images/clipboard01.jpg","1","0","1","0","0","1","0.451460100244731","0.348051500506699","0.416005200240761","1","1","1","1","1","1","1","1","1"
"260050","img/object_images/clipboard01.jpg","img/object_images/Confetti 01.jpg","img/object_images/lemon_squeezer01.jpg","1","1","1","1","0","1","0.416005200240761","0.451460100244731","0.416638400405645","1","1","1","1","1","1","1","1","1"
"260050","img/object_images/lemon_squeezer01.jpg","img/object_images/clipboard01.jpg","img/object_images/socks01.jpg","1","1","1","1","1","1","0.416638400405645","0.416005200240761","0.423493999987841","1","1","1","1","1","1","1","1","1"
"260050","img/object_images/socks01.jpg","img/object_images/lemon_squeezer01.jpg","img/object_images/candle02.jpg","1","1","0","1","1","0","0.423493999987841","0.416638400405645","0.393328200560063","1","1","1","1","1","1","1","1","1"
"260050","img/object_images/candle02.jpg","img/object_images/socks01.jpg","img/object_images/pan03.jpg","0","1","1","0","1","1","0.393328200560063","0.423493999987841","0.432112000416964","1","1","1","1","1","1","1","1","1"
"260050","img/object_images/pan03.jpg","img/object_images/candle02.jpg","img/object_images/vase02.jpg","1","0","1","1","0","1","0.432112000416964","0.393328200560063","0.354482000228018","1","1","1","1","1","1","1","1","1"
"260050","img/object_images/vase02.jpg","img/object_images/pan03.jpg","img/object_images/bow_tie03.jpg","1","1","1","1","1","1","0.354482000228018","0.432112000416964","0.35127260023728","1","1","1","1","1","1","1","1","1"
"260050","img/object_images/bow_tie03.jpg","img/object_images/vase02.jpg",NA,"1","1",NA,"1","1",NA,"0.35127260023728","0.354482000228018",NA,"1","1",NA,"1","1",NA,"1","1",NA
"260050","img/object_images/hammer01.jpg",NA,"img/object_images/couch03.jpg","1",NA,"1","0",NA,"0","0.452516200486571",NA,"0.397150500211865","1",NA,"1","1",NA,"1","1",NA,"1"
"260050","img/object_images/couch03.jpg","img/object_images/hammer01.jpg","img/object_images/pitcher02.jpg","1","1","1","0","0","1","0.397150500211865","0.452516200486571","0.363685800228268","1","1","1","1","1","1","1","1","1"
"260050","img/object_images/pitcher02.jpg","img/object_images/couch03.jpg","img/object_images/gift_box02.jpg","1","1","1","1","0","1","0.363685800228268","0.397150500211865","0.390552500262856","1","1","1","1","1","1","1","1","1"
"260050","img/object_images/gift_box02.jpg","img/object_images/pitcher02.jpg","img/object_images/measuring_tape02.jpg","1","1","1","1","1","1","0.390552500262856","0.363685800228268","0.4357915003784","1","1","1","1","1","1","1","1","1"
"260050","img/object_images/measuring_tape02.jpg","img/object_images/gift_box02.jpg","img/object_images/coloring_pencil01.jpg","1","1","1","1","1","1","0.4357915003784","0.390552500262856","0.39843190042302","1","1","1","1","1","1","1","1","1"
"260050","img/object_images/coloring_pencil01.jpg","img/object_images/measuring_tape02.jpg","img/object_images/handkerchief01.jpg","1","1","0","1","1","0","0.39843190042302","0.4357915003784","0.38067280035466","1","1","1","1","1","1","1","1","1"
"260050","img/object_images/handkerchief01.jpg","img/object_images/coloring_pencil01.jpg","img/object_images/bow_tie01.jpg","0","1","0","0","1","0","0.38067280035466","0.39843190042302","0.417928000446409","1","1","1","1","1","1","1","1","1"
"260050","img/object_images/bow_tie01.jpg","img/object_images/handkerchief01.jpg","img/object_images/jacket03.jpg","0","0","1","0","0","0","0.417928000446409","0.38067280035466","0.4033458000049","1","1","1","1","1","1","1","1","1"
"260050","img/object_images/jacket03.jpg","img/object_images/bow_tie01.jpg","img/object_images/jewelry01.jpg","1","0","1","0","0","1","0.4033458000049","0.417928000446409","0.3681928999722","1","1","1","1","1","1","1","1","1"
"260050","img/object_images/jewelry01.jpg","img/object_images/jacket03.jpg","img/object_images/fork03.jpg","1","1","1","1","0","1","0.3681928999722","0.4033458000049","0.43525980040431","1","1","1","1","1","1","1","1","1"
"260050","img/object_images/fork03.jpg","img/object_images/jewelry01.jpg","img/object_images/Screws01.jpg","1","1","1","1","1","1","0.43525980040431","0.3681928999722","0.420454100705683","1","1","1","1","1","1","1","1","1"
"260050","img/object_images/Screws01.jpg","img/object_images/fork03.jpg","img/object_images/camera07.jpg","1","1","1","1","1","1","0.420454100705683","0.43525980040431","0.421545100398362","1","1","1","1","1","1","1","1","1"
"260050","img/object_images/camera07.jpg","img/object_images/Screws01.jpg","img/object_images/grater01.jpg","1","1","1","1","1","1","0.421545100398362","0.420454100705683","0.368958200328052","1","1","1","1","1","1","1","1","1"
"260050","img/object_images/grater01.jpg","img/object_images/camera07.jpg","img/object_images/socks02.jpg","1","1","0","1","1","0","0.368958200328052","0.421545100398362","0.42180860042572","1","1","1","1","1","1","1","1","1"
"260050","img/object_images/socks02.jpg","img/object_images/grater01.jpg","img/object_images/lawn_mower01.jpg","0","1","1","0","1","1","0.42180860042572","0.368958200328052","0.44682539999485","1","1","1","1","1","1","1","1","1"
"260050","img/object_images/lawn_mower01.jpg","img/object_images/socks02.jpg","img/object_images/Witchhat01.jpg","1","0","1","1","0","1","0.44682539999485","0.42180860042572","0.447066900320351","1","1","1","1","1","1","1","1","1"
"260050","img/object_images/Witchhat01.jpg","img/object_images/lawn_mower01.jpg","img/object_images/ironing_table01.jpg","1","1","0","1","1","0","0.447066900320351","0.44682539999485","0.428821400273591","1","1","1","1","1","1","1","1","1"
"260050","img/object_images/ironing_table01.jpg","img/object_images/Witchhat01.jpg","img/object_images/paper_cup01.jpg","0","1","1","0","1","0","0.428821400273591","0.447066900320351","0.437009800691158","1","1","1","1","1","1","1","1","1"
"260050","img/object_images/paper_cup01.jpg","img/object_images/ironing_table01.jpg","img/object_images/gift_box01.jpg","1","0","1","0","0","1","0.437009800691158","0.428821400273591","0.359074600506574","1","1","1","1","1","1","1","1","1"
"260050","img/object_images/gift_box01.jpg","img/object_images/paper_cup01.jpg","img/object_images/bow_tie02.jpg","1","1","1","1","0","0","0.359074600506574","0.437009800691158","0.435335700400174","1","1","1","1","1","1","1","1","1"
"260050","img/object_images/bow_tie02.jpg","img/object_images/gift_box01.jpg","img/object_images/golf_ball03.jpg","1","1","1","0","1","1","0.435335700400174","0.359074600506574","0.397592700086534","1","1","1","1","1","1","1","1","1"
"260050","img/object_images/golf_ball03.jpg","img/object_images/bow_tie02.jpg","img/object_images/dresser04.jpg","1","1","1","1","0","0","0.397592700086534","0.435335700400174","0.457012200728059","1","1","1","1","1","1","1","1","1"
"260050","img/object_images/dresser04.jpg","img/object_images/golf_ball03.jpg","img/object_images/sleeping_bag01.jpg","1","1","0","0","1","0","0.457012200728059","0.397592700086534","0.343559600412846","1","1","1","1","1","1","1","1","1"
"260050","img/object_images/sleeping_bag01.jpg","img/object_images/dresser04.jpg","img/object_images/gift_box03.jpg","0","1","1","0","0","0","0.343559600412846","0.457012200728059","0.374438700266182","1","1","1","1","1","1","1","1","1"
"260050","img/object_images/gift_box03.jpg","img/object_images/sleeping_bag01.jpg","img/object_images/lock04.jpg","1","0","1","0","0","1","0.374438700266182","0.343559600412846","0.376740300562233","1","1","1","1","1","1","1","1","1"
"260050","img/object_images/lock04.jpg","img/object_images/gift_box03.jpg","img/object_images/funnel01.jpg","1","1","0","1","0","0","0.376740300562233","0.374438700266182","0.370431700255722","1","1","1","1","1","1","1","1","1"
"260050","img/object_images/funnel01.jpg","img/object_images/lock04.jpg","img/object_images/bath_tub01.jpg","0","1","1","0","1","0","0.370431700255722","0.376740300562233","0.5442472002469","1","1","1","1","1","1","1","1","1"
"260050","img/object_images/bath_tub01.jpg","img/object_images/funnel01.jpg","img/object_images/clip02.jpg","1","0","0","0","0","1","0.5442472002469","0.370431700255722","0.458349100314081","1","1","1","1","1","1","1","1","2"
"260050","img/object_images/clip02.jpg","img/object_images/bath_tub01.jpg","img/object_images/vga_port 01.jpg","0","1","1","1","0","0","0.458349100314081","0.5442472002469","0.492008900735527","1","1","1","1","1","1","2","1","1"
"260050","img/object_images/vga_port 01.jpg","img/object_images/clip02.jpg","img/object_images/wallet02.jpg","1","0","1","0","1","1","0.492008900735527","0.458349100314081","0.382519200444221","1","1","1","1","1","1","1","2","1"
"260050","img/object_images/wallet02.jpg","img/object_images/vga_port 01.jpg","img/object_images/balloon01.jpg","1","1","1","1","0","0","0.382519200444221","0.492008900735527","0.353186400141567","1","1","1","1","1","1","1","1","1"
"260050","img/object_images/balloon01.jpg","img/object_images/wallet02.jpg",NA,"1","1",NA,"0","1",NA,"0.353186400141567","0.382519200444221",NA,"1","1",NA,"1","1",NA,"1","1",NA
"260050","img/object_images/tv02.jpg",NA,"img/object_images/floppy_disk02.jpg","0",NA,"1","0",NA,"0","0.357432400342077",NA,"0.453640500083566","1",NA,"1","1",NA,"1","1",NA,"1"
"260050","img/object_images/floppy_disk02.jpg","img/object_images/tv02.jpg","img/object_images/hammer03.jpg","1","0","1","0","0","1","0.453640500083566","0.357432400342077","0.395202800631523","1","1","1","1","1","1","1","1","1"
"260050","img/object_images/hammer03.jpg","img/object_images/floppy_disk02.jpg","img/object_images/pitcher01.jpg","1","1","1","1","0","0","0.395202800631523","0.453640500083566","0.4453210006468","1","1","1","1","1","1","1","1","1"
"260050","img/object_images/pitcher01.jpg","img/object_images/hammer03.jpg","img/object_images/crutches02.jpg","1","1","1","0","1","0","0.4453210006468","0.395202800631523","0.415395000483841","1","1","1","1","1","1","1","1","1"
"260050","img/object_images/crutches02.jpg","img/object_images/pitcher01.jpg","img/object_images/pillows01.jpg","1","1","1","0","0","1","0.415395000483841","0.4453210006468","0.367119300179183","1","1","1","1","1","1","1","1","1"
"260050","img/object_images/pillows01.jpg","img/object_images/crutches02.jpg","img/object_images/tennis_racket02.jpg","1","1","1","1","0","1","0.367119300179183","0.415395000483841","0.443660099990666","1","1","1","1","1","1","1","1","1"
"260050","img/object_images/tennis_racket02.jpg","img/object_images/pillows01.jpg","img/object_images/clock02.jpg","1","1","0","1","1","0","0.443660099990666","0.367119300179183","0.419074000325054","1","1","1","1","1","1","1","1","2"
"260050","img/object_images/clock02.jpg","img/object_images/tennis_racket02.jpg","img/object_images/ear_bud01.jpg","0","1","1","0","1","1","0.419074000325054","0.443660099990666","0.39445330016315","1","1","1","1","1","1","2","1","1"
"260050","img/object_images/ear_bud01.jpg","img/object_images/clock02.jpg","img/object_images/floppy_disk03.jpg","1","0","1","1","0","1","0.39445330016315","0.419074000325054","0.430697200354189","1","1","1","1","1","1","1","2","1"
"260050","img/object_images/floppy_disk03.jpg","img/object_images/ear_bud01.jpg","img/object_images/retainer01.jpg","1","1","1","1","1","0","0.430697200354189","0.39445330016315","0.407182500697672","1","1","1","1","1","1","1","1","1"
"260050","img/object_images/retainer01.jpg","img/object_images/floppy_disk03.jpg","img/object_images/chess_piece02.jpg","1","1","1","0","1","1","0.407182500697672","0.430697200354189","0.412444400135428","1","1","1","1","1","1","1","1","1"
"260050","img/object_images/chess_piece02.jpg","img/object_images/retainer01.jpg","img/object_images/cellphone01.jpg","1","1","1","1","0","1","0.412444400135428","0.407182500697672","0.444746600463986","1","1","1","1","1","1","1","1","1"
"260050","img/object_images/cellphone01.jpg","img/object_images/chess_piece02.jpg","img/object_images/Thermometer01.jpg","1","1","1","1","1","0","0.444746600463986","0.412444400135428","0.433420000597835","1","1","1","1","1","1","1","1","1"
"260050","img/object_images/Thermometer01.jpg","img/object_images/cellphone01.jpg","img/object_images/note_book01.jpg","1","1","1","0","1","0","0.433420000597835","0.444746600463986","0.425695600453764","1","1","1","1","1","1","1","1","1"
"260050","img/object_images/note_book01.jpg","img/object_images/Thermometer01.jpg","img/object_images/motorcycle01.jpg","1","1","1","0","0","1","0.425695600453764","0.433420000597835","0.380450300406665","1","1","1","1","1","1","1","1","1"
"260050","img/object_images/motorcycle01.jpg","img/object_images/note_book01.jpg","img/object_images/chair05.jpg","1","1","1","1","0","0","0.380450300406665","0.425695600453764","0.377792600076646","1","1","1","1","1","1","1","1","1"
"260050","img/object_images/chair05.jpg","img/object_images/motorcycle01.jpg","img/object_images/paint_brush04.jpg","1","1","1","0","1","0","0.377792600076646","0.380450300406665","0.371600800193846","1","1","1","1","1","1","1","1","1"
"260050","img/object_images/paint_brush04.jpg","img/object_images/chair05.jpg","img/object_images/clip03.jpg","1","1","1","0","0","0","0.371600800193846","0.377792600076646","0.528165500611067","1","1","1","1","1","1","1","1","1"
"260050","img/object_images/clip03.jpg","img/object_images/paint_brush04.jpg","img/object_images/knit05.jpg","1","1","1","0","0","1","0.528165500611067","0.371600800193846","0.406638600397855","1","1","1","1","1","1","1","1","1"
"260050","img/object_images/knit05.jpg","img/object_images/clip03.jpg","img/object_images/knife04.jpg","1","1","1","1","0","1","0.406638600397855","0.528165500611067","0.391009900253266","1","1","1","1","1","1","1","1","1"
"260050","img/object_images/knife04.jpg","img/object_images/knit05.jpg","img/object_images/Staples01.jpg","1","1","1","1","1","1","0.391009900253266","0.406638600397855","0.338702800218016","1","1","1","1","1","1","1","1","1"
"260050","img/object_images/Staples01.jpg","img/object_images/knife04.jpg","img/object_images/book03.jpg","1","1","1","1","1","1","0.338702800218016","0.391009900253266","0.378987000789493","1","1","1","1","1","1","1","1","1"
"260050","img/object_images/book03.jpg","img/object_images/Staples01.jpg","img/object_images/wire02.jpg","1","1","1","1","1","1","0.378987000789493","0.338702800218016","0.475550600327551","1","1","1","1","1","1","1","1","2"
"260050","img/object_images/wire02.jpg","img/object_images/book03.jpg","img/object_images/pen03.jpg","1","1","1","1","1","0","0.475550600327551","0.378987000789493","0.488186200149357","1","1","1","1","1","1","2","1","1"
"260050","img/object_images/pen03.jpg","img/object_images/wire02.jpg","img/object_images/usb02.jpg","1","1","1","0","1","0","0.488186200149357","0.475550600327551","0.437529399991035","1","1","1","1","1","1","1","2","1"
"260050","img/object_images/usb02.jpg","img/object_images/pen03.jpg","img/object_images/microscope01.jpg","1","1","0","0","0","0","0.437529399991035","0.488186200149357","0.401454200502485","1","1","1","1","1","1","1","1","1"
"260050","img/object_images/microscope01.jpg","img/object_images/usb02.jpg","img/object_images/lid01.jpg","0","1","1","0","0","1","0.401454200502485","0.437529399991035","0.382081000134349","1","1","1","1","1","1","1","1","1"
"260050","img/object_images/lid01.jpg","img/object_images/microscope01.jpg","img/object_images/bell02.jpg","1","0","1","1","0","0","0.382081000134349","0.401454200502485","0.386007600463927","1","1","1","1","1","1","1","1","1"
"260050","img/object_images/bell02.jpg","img/object_images/lid01.jpg","img/object_images/compass01.jpg","1","1","1","0","1","1","0.386007600463927","0.382081000134349","0.398914900608361","1","1","1","1","1","1","1","1","1"
"260050","img/object_images/compass01.jpg","img/object_images/bell02.jpg","img/object_images/bottle01.jpg","1","1","1","1","0","0","0.398914900608361","0.386007600463927","0.486095400061458","1","1","1","1","1","1","1","1","1"
"260050","img/object_images/bottle01.jpg","img/object_images/compass01.jpg","img/object_images/Oven01.jpg","1","1","1","0","1","1","0.486095400061458","0.398914900608361","0.405776400119066","1","1","1","1","1","1","1","1","1"
"260050","img/object_images/Oven01.jpg","img/object_images/bottle01.jpg",NA,"1","1",NA,"1","0",NA,"0.405776400119066","0.486095400061458",NA,"1","1",NA,"1","1",NA,"1","1",NA
"260050","img/object_images/couch01.jpg",NA,"img/object_images/pen01.jpg","0",NA,"1","0",NA,"0","0.364749800413847",NA,"0.413896800018847","1",NA,"1","1",NA,"1","1",NA,"1"
"260050","img/object_images/pen01.jpg","img/object_images/couch01.jpg","img/object_images/clip04.jpg","1","0","1","0","0","1","0.413896800018847","0.364749800413847","0.408103500492871","1","1","1","1","1","1","1","1","1"
"260050","img/object_images/clip04.jpg","img/object_images/pen01.jpg","img/object_images/toy01.jpg","1","1","1","1","0","1","0.408103500492871","0.413896800018847","0.351072100456804","1","1","1","1","1","1","1","1","1"
"260050","img/object_images/toy01.jpg","img/object_images/clip04.jpg","img/object_images/soap03.jpg","1","1","1","1","1","0","0.351072100456804","0.408103500492871","0.358429400250316","1","1","1","1","1","1","1","1","1"
"260050","img/object_images/soap03.jpg","img/object_images/toy01.jpg","img/object_images/video_game03.jpg","1","1","1","0","1","1","0.358429400250316","0.351072100456804","0.377737900242209","1","1","1","1","1","1","1","1","1"
"260050","img/object_images/video_game03.jpg","img/object_images/soap03.jpg","img/object_images/pitcher09.jpg","1","1","1","1","0","1","0.377737900242209","0.358429400250316","0.360074100550264","1","1","1","1","1","1","1","1","1"
"260050","img/object_images/pitcher09.jpg","img/object_images/video_game03.jpg","img/object_images/computer_mouse01.jpg","1","1","1","1","1","1","0.360074100550264","0.377737900242209","0.381286300253123","1","1","1","1","1","1","1","1","1"
"260050","img/object_images/computer_mouse01.jpg","img/object_images/pitcher09.jpg","img/object_images/toothbrush01.jpg","1","1","0","1","1","0","0.381286300253123","0.360074100550264","0.351652500219643","1","1","1","1","1","1","1","1","1"
"260050","img/object_images/toothbrush01.jpg","img/object_images/computer_mouse01.jpg","img/object_images/chain01.jpg","0","1","1","0","1","0","0.351652500219643","0.381286300253123","0.505481700412929","1","1","1","1","1","1","1","1","1"
"260050","img/object_images/chain01.jpg","img/object_images/toothbrush01.jpg","img/object_images/Violin01.jpg","1","0","1","0","0","0","0.505481700412929","0.351652500219643","0.464368800166994","1","1","1","1","1","1","1","1","1"
"260050","img/object_images/Violin01.jpg","img/object_images/chain01.jpg","img/object_images/fork02.jpg","1","1","1","0","0","0","0.464368800166994","0.505481700412929","0.421128200367093","1","1","1","1","1","1","1","1","1"
"260050","img/object_images/fork02.jpg","img/object_images/Violin01.jpg","img/object_images/mail_box02.jpg","1","1","1","0","0","1","0.421128200367093","0.464368800166994","0.379954100586474","1","1","1","1","1","1","1","1","1"
"260050","img/object_images/mail_box02.jpg","img/object_images/fork02.jpg","img/object_images/Trowel01.jpg","1","1","1","1","0","0","0.379954100586474","0.421128200367093","0.444763700477779","1","1","1","1","1","1","1","1","1"
"260050","img/object_images/Trowel01.jpg","img/object_images/mail_box02.jpg","img/object_images/rock02.jpg","1","1","1","0","1","0","0.444763700477779","0.379954100586474","0.46889330027625","1","1","1","1","1","1","1","1","1"
"260050","img/object_images/rock02.jpg","img/object_images/Trowel01.jpg","img/object_images/box03.jpg","1","1","1","0","0","0","0.46889330027625","0.444763700477779","0.397597800474614","1","1","1","1","1","1","1","1","2"
"260050","img/object_images/box03.jpg","img/object_images/rock02.jpg","img/object_images/blender01.jpg","1","1","0","0","0","0","0.397597800474614","0.46889330027625","0.422502300236374","1","1","1","1","1","1","2","1","1"
"260050","img/object_images/blender01.jpg","img/object_images/box03.jpg","img/object_images/drone01.jpg","0","1","1","0","0","1","0.422502300236374","0.397597800474614","0.483508300036192","1","1","1","1","1","1","1","2","1"
"260050","img/object_images/drone01.jpg","img/object_images/blender01.jpg","img/object_images/book02.jpg","1","0","1","1","0","1","0.483508300036192","0.422502300236374","0.409763900563121","1","1","1","1","1","1","1","1","1"
"260050","img/object_images/book02.jpg","img/object_images/drone01.jpg","img/object_images/scarf01.jpg","1","1","1","1","1","1","0.409763900563121","0.483508300036192","0.444713000673801","1","1","1","1","1","1","1","1","1"
"260050","img/object_images/scarf01.jpg","img/object_images/book02.jpg","img/object_images/shoes12.jpg","1","1","1","1","1","1","0.444713000673801","0.409763900563121","0.507000000216067","1","1","1","1","1","1","1","1","1"
"260050","img/object_images/shoes12.jpg","img/object_images/scarf01.jpg","img/object_images/tripod01.jpg","1","1","1","1","1","1","0.507000000216067","0.444713000673801","0.424882899969816","1","1","1","1","1","1","1","1","1"
"260050","img/object_images/tripod01.jpg","img/object_images/shoes12.jpg","img/object_images/tool06.jpg","1","1","1","1","1","0","0.424882899969816","0.507000000216067","0.469974900130183","1","1","1","1","1","1","1","1","1"
"260050","img/object_images/tool06.jpg","img/object_images/tripod01.jpg","img/object_images/computer_mouse02.jpg","1","1","1","0","1","0","0.469974900130183","0.424882899969816","0.410712000448257","1","1","1","1","1","1","1","1","1"
"260050","img/object_images/computer_mouse02.jpg","img/object_images/tool06.jpg","img/object_images/chair06.jpg","1","1","0","0","0","0","0.410712000448257","0.469974900130183","0.368025800213218","1","1","1","1","1","1","1","1","1"
"260050","img/object_images/chair06.jpg","img/object_images/computer_mouse02.jpg","img/object_images/airfryer02.jpg","0","1","1","0","0","1","0.368025800213218","0.410712000448257","0.454240100458264","1","1","1","1","1","1","1","1","1"
"260050","img/object_images/airfryer02.jpg","img/object_images/chair06.jpg","img/object_images/bell03.jpg","1","0","1","1","0","0","0.454240100458264","0.368025800213218","0.494172600097954","1","1","1","1","1","1","1","1","1"
"260050","img/object_images/bell03.jpg","img/object_images/airfryer02.jpg","img/object_images/egg_slicer01.jpg","1","1","1","0","1","1","0.494172600097954","0.454240100458264","0.391449400689453","1","1","1","1","1","1","1","1","1"
"260050","img/object_images/egg_slicer01.jpg","img/object_images/bell03.jpg","img/object_images/skate_board01.jpg","1","1","1","1","0","0","0.391449400689453","0.494172600097954","0.460214400198311","1","1","1","1","1","1","1","1","1"
"260050","img/object_images/skate_board01.jpg","img/object_images/egg_slicer01.jpg","img/object_images/bag_pipes01.jpg","1","1","1","0","1","1","0.460214400198311","0.391449400689453","0.458527600392699","1","1","1","1","1","1","1","1","1"
"260050","img/object_images/bag_pipes01.jpg","img/object_images/skate_board01.jpg","img/object_images/floss02.jpg","1","1","1","1","0","1","0.458527600392699","0.460214400198311","0.457697200123221","1","1","1","1","1","1","1","1","1"
"260050","img/object_images/floss02.jpg","img/object_images/bag_pipes01.jpg","img/object_images/hair_brush01.jpg","1","1","1","1","1","1","0.457697200123221","0.458527600392699","0.400797000620514","1","1","1","1","1","1","1","1","1"
"260050","img/object_images/hair_brush01.jpg","img/object_images/floss02.jpg",NA,"1","1",NA,"1","1",NA,"0.400797000620514","0.457697200123221",NA,"1","1",NA,"1","1",NA,"1","1",NA
"260050","img/object_images/toy_train02.jpg",NA,"img/object_images/car02.jpg","1",NA,"0","1",NA,"0","0.428953100461513",NA,"0.375993099994958","1",NA,"1","1",NA,"1","1",NA,"1"
"260050","img/object_images/car02.jpg","img/object_images/toy_train02.jpg","img/object_images/basketball_hoop02.jpg","0","1","1","0","1","0","0.375993099994958","0.428953100461513","0.455789800733328","1","1","1","1","1","1","1","1","1"
"260050","img/object_images/basketball_hoop02.jpg","img/object_images/car02.jpg","img/object_images/cochlear_implant01.jpg","1","0","1","0","0","0","0.455789800733328","0.375993099994958","0.392470300197601","1","1","1","1","1","1","1","1","1"
"260050","img/object_images/cochlear_implant01.jpg","img/object_images/basketball_hoop02.jpg","img/object_images/broom01.jpg","1","1","1","0","0","1","0.392470300197601","0.455789800733328","0.355263600125909","1","1","1","1","1","1","1","1","1"
"260050","img/object_images/broom01.jpg","img/object_images/cochlear_implant01.jpg","img/object_images/video_game06.jpg","1","1","0","1","0","0","0.355263600125909","0.392470300197601","0.38058300036937","1","1","1","1","1","1","1","1","1"
"260050","img/object_images/video_game06.jpg","img/object_images/broom01.jpg","img/object_images/container01.jpg","0","1","1","0","1","0","0.38058300036937","0.355263600125909","0.421901500318199","1","1","1","1","1","1","1","1","1"
"260050","img/object_images/container01.jpg","img/object_images/video_game06.jpg","img/object_images/lantern01.jpg","1","0","1","0","0","1","0.421901500318199","0.38058300036937","0.390930800233036","1","1","1","1","1","1","1","1","1"
"260050","img/object_images/lantern01.jpg","img/object_images/container01.jpg","img/object_images/guitar01.jpg","1","1","1","1","0","1","0.390930800233036","0.421901500318199","0.415474900510162","1","1","1","1","1","1","1","1","1"
"260050","img/object_images/guitar01.jpg","img/object_images/lantern01.jpg","img/object_images/Recycling01.jpg","1","1","1","1","1","1","0.415474900510162","0.390930800233036","0.439665100071579","1","1","1","1","1","1","1","1","1"
"260050","img/object_images/Recycling01.jpg","img/object_images/guitar01.jpg","img/object_images/brief_case02.jpg","1","1","1","1","1","1","0.439665100071579","0.415474900510162","0.411323200445622","1","1","1","1","1","1","1","1","1"
"260050","img/object_images/brief_case02.jpg","img/object_images/Recycling01.jpg","img/object_images/Woopie01.jpg","1","1","1","1","1","1","0.411323200445622","0.439665100071579","0.517154100351036","1","1","1","1","1","1","1","1","1"
"260050","img/object_images/Woopie01.jpg","img/object_images/brief_case02.jpg","img/object_images/toilet_paper01.jpg","1","1","1","1","1","1","0.517154100351036","0.411323200445622","0.413874800316989","1","1","1","1","1","1","1","1","1"
"260050","img/object_images/toilet_paper01.jpg","img/object_images/Woopie01.jpg","img/object_images/couch04.jpg","1","1","1","1","1","1","0.413874800316989","0.517154100351036","0.393292400520295","1","1","1","1","1","1","1","1","1"
"260050","img/object_images/couch04.jpg","img/object_images/toilet_paper01.jpg","img/object_images/helmet05.jpg","1","1","1","1","1","1","0.393292400520295","0.413874800316989","0.47365970024839","1","1","1","1","1","1","1","1","1"
"260050","img/object_images/helmet05.jpg","img/object_images/couch04.jpg","img/object_images/drone02.jpg","1","1","0","1","1","0","0.47365970024839","0.393292400520295","0.403997000306845","1","1","1","1","1","1","1","1","1"
"260050","img/object_images/drone02.jpg","img/object_images/helmet05.jpg","img/object_images/decorative02.jpg","0","1","1","0","1","0","0.403997000306845","0.47365970024839","0.459122200030833","1","1","1","1","1","1","1","1","1"
"260050","img/object_images/decorative02.jpg","img/object_images/drone02.jpg","img/object_images/razor03.jpg","1","0","1","0","0","0","0.459122200030833","0.403997000306845","0.488050700165331","1","1","1","1","1","1","1","1","1"
"260050","img/object_images/razor03.jpg","img/object_images/decorative02.jpg","img/object_images/chair01.jpg","1","1","1","0","0","0","0.488050700165331","0.459122200030833","0.465744900517166","1","1","1","1","1","1","1","1","1"
"260050","img/object_images/chair01.jpg","img/object_images/razor03.jpg","img/object_images/hat02.jpg","1","1","1","0","0","0","0.465744900517166","0.488050700165331","0.407771700527519","1","1","1","1","1","1","1","1","1"
"260050","img/object_images/hat02.jpg","img/object_images/chair01.jpg","img/object_images/Wisk01.jpg","1","1","1","0","0","1","0.407771700527519","0.465744900517166","0.445846000220627","1","1","1","1","1","1","1","1","1"
"260050","img/object_images/Wisk01.jpg","img/object_images/hat02.jpg","img/object_images/tie01.jpg","1","1","0","1","0","0","0.445846000220627","0.407771700527519","0.356105700600892","1","1","1","1","1","1","1","1","1"
"260050","img/object_images/tie01.jpg","img/object_images/Wisk01.jpg","img/object_images/pitcher03.jpg","0","1","1","0","1","1","0.356105700600892","0.445846000220627","0.40528910048306","1","1","1","1","1","1","1","1","1"
"260050","img/object_images/pitcher03.jpg","img/object_images/tie01.jpg","img/object_images/soap01.jpg","1","0","1","1","0","0","0.40528910048306","0.356105700600892","0.420777400024235","1","1","1","1","1","1","1","1","1"
"260050","img/object_images/soap01.jpg","img/object_images/pitcher03.jpg","img/object_images/gloves05.jpg","1","1","1","0","1","1","0.420777400024235","0.40528910048306","0.394912500400096","1","1","1","1","1","1","1","1","1"
"260050","img/object_images/gloves05.jpg","img/object_images/soap01.jpg","img/object_images/airfryer01.jpg","1","1","1","1","0","0","0.394912500400096","0.420777400024235","0.391177000012249","1","1","1","1","1","1","1","1","1"
"260050","img/object_images/airfryer01.jpg","img/object_images/gloves05.jpg","img/object_images/ball01.jpg","1","1","1","0","1","1","0.391177000012249","0.394912500400096","0.417074100580066","1","1","1","1","1","1","1","1","1"
"260050","img/object_images/ball01.jpg","img/object_images/airfryer01.jpg","img/object_images/brief_case01.jpg","1","1","1","1","0","0","0.417074100580066","0.391177000012249","0.368888100609183","1","1","1","1","1","1","1","1","1"
"260050","img/object_images/brief_case01.jpg","img/object_images/ball01.jpg","img/object_images/pot01.jpg","1","1","0","0","1","0","0.368888100609183","0.417074100580066","0.413854000624269","1","1","1","1","1","1","1","1","2"
"260050","img/object_images/pot01.jpg","img/object_images/brief_case01.jpg","img/object_images/ironing_table02.jpg","0","1","1","0","0","0","0.413854000624269","0.368888100609183","0.406510600354522","1","1","1","1","1","1","2","1","1"
"260050","img/object_images/ironing_table02.jpg","img/object_images/pot01.jpg","img/object_images/lamp01.jpg","1","0","1","0","0","1","0.406510600354522","0.413854000624269","0.341340800281614","1","1","1","1","1","1","1","2","1"
"260050","img/object_images/lamp01.jpg","img/object_images/ironing_table02.jpg","img/object_images/bottle12.jpg","1","1","0","1","0","1","0.341340800281614","0.406510600354522","0.332280900329351","1","1","1","1","1","1","1","1","1"
"260050","img/object_images/bottle12.jpg","img/object_images/lamp01.jpg",NA,"0","1",NA,"1","1",NA,"0.332280900329351","0.341340800281614",NA,"1","1",NA,"1","1",NA,"1","1",NA
