"participant_id","current_trial_object","pre_trial_object","post_trial_object","current_trial_accuracy","pre_trial_accuracy","post_trial_accuracy","current_trial_congruency","pre_trial_congruency","post_trial_congruency","current_trial_rt","pre_trial_rt","post_trial_rt","current_trial_responded","pre_trial_responded","post_trial_responded","current_trial_legitResponse","pre_trial_legitResponse","post_trial_legitResponse","current_trial_resp_nums","pre_trial_resp_nums","post_trial_resp_nums"
"260013","img/object_images/vase01.jpg",NA,"img/object_images/trash_can05.jpg","1",NA,"1","0",NA,"1","0.498929599998519",NA,"0.447349900001427","1",NA,"1","1",NA,"1","1",NA,"1"
"260013","img/object_images/trash_can05.jpg","img/object_images/vase01.jpg","img/object_images/chess_piece01.jpg","1","1","1","1","0","0","0.447349900001427","0.498929599998519","0.467447000002721","1","1","1","1","1","1","1","1","1"
"260013","img/object_images/chess_piece01.jpg","img/object_images/trash_can05.jpg","img/object_images/accardion01.jpg","1","1","1","0","1","1","0.467447000002721","0.447349900001427","0.450797099998454","1","1","1","1","1","1","1","1","1"
"260013","img/object_images/accardion01.jpg","img/object_images/chess_piece01.jpg","img/object_images/bucket02.jpg","1","1","1","1","0","1","0.450797099998454","0.467447000002721","0.448016100010136","1","1","1","1","1","1","1","1","1"
"260013","img/object_images/bucket02.jpg","img/object_images/accardion01.jpg","img/object_images/lock01.jpg","1","1","0","1","1","0","0.448016100010136","0.450797099998454","0.418633399996907","1","1","1","1","1","1","1","1","2"
"260013","img/object_images/lock01.jpg","img/object_images/bucket02.jpg","img/object_images/shoes08.jpg","0","1","1","0","1","1","0.418633399996907","0.448016100010136","0.520176500023808","1","1","1","1","1","1","2","1","1"
"260013","img/object_images/shoes08.jpg","img/object_images/lock01.jpg","img/object_images/jewel03.jpg","1","0","1","1","0","1","0.520176500023808","0.418633399996907","0.48190969999996","1","1","1","1","1","1","1","2","1"
"260013","img/object_images/jewel03.jpg","img/object_images/shoes08.jpg","img/object_images/trash_can03.jpg","1","1","1","1","1","1","0.48190969999996","0.520176500023808","0.45404260000214","1","1","1","1","1","1","1","1","1"
"260013","img/object_images/trash_can03.jpg","img/object_images/jewel03.jpg","img/object_images/Lint_Roller02.jpg","1","1","1","1","1","0","0.45404260000214","0.48190969999996","0.504394299990963","1","1","1","1","1","1","1","1","1"
"260013","img/object_images/Lint_Roller02.jpg","img/object_images/trash_can03.jpg","img/object_images/surf_board01.jpg","1","1","1","0","1","1","0.504394299990963","0.45404260000214","0.479001400002744","1","1","1","1","1","1","1","1","1"
"260013","img/object_images/surf_board01.jpg","img/object_images/Lint_Roller02.jpg","img/object_images/toy05.jpg","1","1","1","1","0","0","0.479001400002744","0.504394299990963","0.498848999995971","1","1","1","1","1","1","1","1","1"
"260013","img/object_images/toy05.jpg","img/object_images/surf_board01.jpg","img/object_images/fan04.jpg","1","1","1","0","1","0","0.498848999995971","0.479001400002744","0.479049000015948","1","1","1","1","1","1","1","1","1"
"260013","img/object_images/fan04.jpg","img/object_images/toy05.jpg","img/object_images/stove01.jpg","1","1","1","0","0","0","0.479049000015948","0.498848999995971","0.576988000015263","1","1","1","1","1","1","1","1","1"
"260013","img/object_images/stove01.jpg","img/object_images/fan04.jpg","img/object_images/backpack03.jpg","1","1","1","0","0","1","0.576988000015263","0.479049000015948","0.445103200006997","1","1","1","1","1","1","1","1","1"
"260013","img/object_images/backpack03.jpg","img/object_images/stove01.jpg","img/object_images/calculator01.jpg","1","1","1","1","0","1","0.445103200006997","0.576988000015263","0.448496199998772","1","1","1","1","1","1","1","1","1"
"260013","img/object_images/calculator01.jpg","img/object_images/backpack03.jpg","img/object_images/helmet02.jpg","1","1","1","1","1","0","0.448496199998772","0.445103200006997","0.426317000004929","1","1","1","1","1","1","1","1","1"
"260013","img/object_images/helmet02.jpg","img/object_images/calculator01.jpg","img/object_images/ball02.jpg","1","1","1","0","1","1","0.426317000004929","0.448496199998772","0.50674219999928","1","1","1","1","1","1","1","1","1"
"260013","img/object_images/ball02.jpg","img/object_images/helmet02.jpg","img/object_images/hair_dryer01.jpg","1","1","1","1","0","0","0.50674219999928","0.426317000004929","0.596766699978616","1","1","1","1","1","1","1","1","1"
"260013","img/object_images/hair_dryer01.jpg","img/object_images/ball02.jpg","img/object_images/towels01.jpg","1","1","1","0","1","0","0.596766699978616","0.50674219999928","0.582932799996343","1","1","1","1","1","1","1","1","1"
"260013","img/object_images/towels01.jpg","img/object_images/hair_dryer01.jpg","img/object_images/robe01.jpg","1","1","1","0","0","1","0.582932799996343","0.596766699978616","0.458916000003228","1","1","1","1","1","1","1","1","1"
"260013","img/object_images/robe01.jpg","img/object_images/towels01.jpg","img/object_images/chair02.jpg","1","1","1","1","0","1","0.458916000003228","0.582932799996343","0.465820899989922","1","1","1","1","1","1","1","1","1"
"260013","img/object_images/chair02.jpg","img/object_images/robe01.jpg","img/object_images/spatula02.jpg","1","1","1","1","1","1","0.465820899989922","0.458916000003228","0.436331799981417","1","1","1","1","1","1","1","1","1"
"260013","img/object_images/spatula02.jpg","img/object_images/chair02.jpg","img/object_images/laptop01.jpg","1","1","1","1","1","0","0.436331799981417","0.465820899989922","0.49952260000282","1","1","1","1","1","1","1","1","1"
"260013","img/object_images/laptop01.jpg","img/object_images/spatula02.jpg","img/object_images/gift_box05.jpg","1","1","1","0","1","0","0.49952260000282","0.436331799981417","0.46091009999509","1","1","1","1","1","1","1","1","1"
"260013","img/object_images/gift_box05.jpg","img/object_images/laptop01.jpg","img/object_images/laptop03.jpg","1","1","1","0","0","1","0.46091009999509","0.49952260000282","0.410512200003723","1","1","1","1","1","1","1","1","1"
"260013","img/object_images/laptop03.jpg","img/object_images/gift_box05.jpg","img/object_images/combs01.jpg","1","1","1","1","0","1","0.410512200003723","0.46091009999509","0.443883200001437","1","1","1","1","1","1","1","1","1"
"260013","img/object_images/combs01.jpg","img/object_images/laptop03.jpg","img/object_images/umbrella01.jpg","1","1","1","1","1","0","0.443883200001437","0.410512200003723","0.474224300007336","1","1","1","1","1","1","1","1","1"
"260013","img/object_images/umbrella01.jpg","img/object_images/combs01.jpg","img/object_images/pitcher05.jpg","1","1","1","0","1","0","0.474224300007336","0.443883200001437","0.452166800008854","1","1","1","1","1","1","1","1","1"
"260013","img/object_images/pitcher05.jpg","img/object_images/umbrella01.jpg","img/object_images/Vest02.jpg","1","1","1","0","0","0","0.452166800008854","0.474224300007336","0.399298900010763","1","1","1","1","1","1","1","1","1"
"260013","img/object_images/Vest02.jpg","img/object_images/pitcher05.jpg","img/object_images/hair_brush02.jpg","1","1","1","0","0","0","0.399298900010763","0.452166800008854","0.505561600002693","1","1","1","1","1","1","1","1","1"
"260013","img/object_images/hair_brush02.jpg","img/object_images/Vest02.jpg","img/object_images/microphone03.jpg","1","1","1","0","0","1","0.505561600002693","0.399298900010763","0.410331599996425","1","1","1","1","1","1","1","1","1"
"260013","img/object_images/microphone03.jpg","img/object_images/hair_brush02.jpg",NA,"1","1",NA,"1","0",NA,"0.410331599996425","0.505561600002693",NA,"1","1",NA,"1","1",NA,"1","1",NA
"260013","img/object_images/MeasuringCup01.jpg",NA,"img/object_images/cutting_board01.jpg","1",NA,"1","1",NA,"1","0.379054199991515",NA,"0.341169699997408","1",NA,"1","1",NA,"1","1",NA,"1"
"260013","img/object_images/cutting_board01.jpg","img/object_images/MeasuringCup01.jpg","img/object_images/bag06.jpg","1","1","1","1","1","1","0.341169699997408","0.379054199991515","0.459418700018432","1","1","1","1","1","1","1","1","1"
"260013","img/object_images/bag06.jpg","img/object_images/cutting_board01.jpg","img/object_images/binoculars03.jpg","1","1","0","1","1","1","0.459418700018432","0.341169699997408","0.310469899995951","1","1","1","1","1","1","1","1","2"
"260013","img/object_images/binoculars03.jpg","img/object_images/bag06.jpg","img/object_images/car04.jpg","0","1","1","1","1","0","0.310469899995951","0.459418700018432","0.483215500018559","1","1","1","1","1","1","2","1","1"
"260013","img/object_images/car04.jpg","img/object_images/binoculars03.jpg","img/object_images/fan05.jpg","1","0","1","0","1","0","0.483215500018559","0.310469899995951","0.433459099993342","1","1","1","1","1","1","1","2","1"
"260013","img/object_images/fan05.jpg","img/object_images/car04.jpg","img/object_images/lemon_squeezer02.jpg","1","1","1","0","0","1","0.433459099993342","0.483215500018559","0.444590800005244","1","1","1","1","1","1","1","1","1"
"260013","img/object_images/lemon_squeezer02.jpg","img/object_images/fan05.jpg","img/object_images/mask01.jpg","1","1","1","1","0","0","0.444590800005244","0.433459099993342","0.358131399989361","1","1","1","1","1","1","1","1","1"
"260013","img/object_images/mask01.jpg","img/object_images/lemon_squeezer02.jpg","img/object_images/ribbon01.jpg","1","1","1","0","1","0","0.358131399989361","0.444590800005244","0.509422899980564","1","1","1","1","1","1","1","1","1"
"260013","img/object_images/ribbon01.jpg","img/object_images/mask01.jpg","img/object_images/tool11.jpg","1","1","1","0","0","1","0.509422899980564","0.358131399989361","0.410802900005365","1","1","1","1","1","1","1","1","1"
"260013","img/object_images/tool11.jpg","img/object_images/ribbon01.jpg","img/object_images/screwdriver01.jpg","1","1","1","1","0","0","0.410802900005365","0.509422899980564","0.357493299990892","1","1","1","1","1","1","1","1","1"
"260013","img/object_images/screwdriver01.jpg","img/object_images/tool11.jpg","img/object_images/jewelry07.jpg","1","1","1","0","1","1","0.357493299990892","0.410802900005365","0.406467599997995","1","1","1","1","1","1","1","1","1"
"260013","img/object_images/jewelry07.jpg","img/object_images/screwdriver01.jpg","img/object_images/belt01.jpg","1","1","1","1","0","0","0.406467599997995","0.357493299990892","0.560412399994675","1","1","1","1","1","1","1","1","1"
"260013","img/object_images/belt01.jpg","img/object_images/jewelry07.jpg","img/object_images/hair_brush05.jpg","1","1","1","0","1","1","0.560412399994675","0.406467599997995","0.432135999988532","1","1","1","1","1","1","1","1","1"
"260013","img/object_images/hair_brush05.jpg","img/object_images/belt01.jpg","img/object_images/ice_tray03.jpg","1","1","1","1","0","1","0.432135999988532","0.560412399994675","0.402972300013062","1","1","1","1","1","1","1","1","1"
"260013","img/object_images/ice_tray03.jpg","img/object_images/hair_brush05.jpg","img/object_images/cards01.jpg","1","1","1","1","1","0","0.402972300013062","0.432135999988532","0.499651500023902","1","1","1","1","1","1","1","1","1"
"260013","img/object_images/cards01.jpg","img/object_images/ice_tray03.jpg","img/object_images/yarn02.jpg","1","1","1","0","1","0","0.499651500023902","0.402972300013062","0.48019510001177","1","1","1","1","1","1","1","1","1"
"260013","img/object_images/yarn02.jpg","img/object_images/cards01.jpg","img/object_images/jewel01.jpg","1","1","1","0","0","0","0.48019510001177","0.499651500023902","0.460916400013957","1","1","1","1","1","1","1","1","1"
"260013","img/object_images/jewel01.jpg","img/object_images/yarn02.jpg","img/object_images/ladle02.jpg","1","1","1","0","0","0","0.460916400013957","0.48019510001177","0.437117499997839","1","1","1","1","1","1","1","1","1"
"260013","img/object_images/ladle02.jpg","img/object_images/jewel01.jpg","img/object_images/satellite01.jpg","1","1","1","0","0","0","0.437117499997839","0.460916400013957","0.391856000002008","1","1","1","1","1","1","1","1","1"
"260013","img/object_images/satellite01.jpg","img/object_images/ladle02.jpg","img/object_images/car03.jpg","1","1","1","0","0","0","0.391856000002008","0.437117499997839","0.524865999992471","1","1","1","1","1","1","1","1","1"
"260013","img/object_images/car03.jpg","img/object_images/satellite01.jpg","img/object_images/tv01.jpg","1","1","1","0","0","0","0.524865999992471","0.391856000002008","0.426652699999977","1","1","1","1","1","1","1","1","1"
"260013","img/object_images/tv01.jpg","img/object_images/car03.jpg","img/object_images/razor01.jpg","1","1","1","0","0","0","0.426652699999977","0.524865999992471","0.468895500001963","1","1","1","1","1","1","1","1","1"
"260013","img/object_images/razor01.jpg","img/object_images/tv01.jpg","img/object_images/key02.jpg","1","1","1","0","0","1","0.468895500001963","0.426652699999977","0.428420799988089","1","1","1","1","1","1","1","1","1"
"260013","img/object_images/key02.jpg","img/object_images/razor01.jpg","img/object_images/WitchHat02.jpg","1","1","1","1","0","1","0.428420799988089","0.468895500001963","0.421561600000132","1","1","1","1","1","1","1","1","1"
"260013","img/object_images/WitchHat02.jpg","img/object_images/key02.jpg","img/object_images/shower_head03.jpg","1","1","1","1","1","1","0.421561600000132","0.428420799988089","0.404246299993247","1","1","1","1","1","1","1","1","1"
"260013","img/object_images/shower_head03.jpg","img/object_images/WitchHat02.jpg","img/object_images/shoes10.jpg","1","1","0","1","1","0","0.404246299993247","0.421561600000132","0.420531799987657","1","1","1","1","1","1","1","1","3"
"260013","img/object_images/shoes10.jpg","img/object_images/shower_head03.jpg","img/object_images/toaster02.jpg","0","1","1","0","1","1","0.420531799987657","0.404246299993247","0.393774899974232","1","1","1","1","1","1","3","1","1"
"260013","img/object_images/toaster02.jpg","img/object_images/shoes10.jpg","img/object_images/slinky_toy01.jpg","1","0","1","1","0","1","0.393774899974232","0.420531799987657","0.437759899999946","1","1","1","1","1","1","1","3","1"
"260013","img/object_images/slinky_toy01.jpg","img/object_images/toaster02.jpg","img/object_images/chair04.jpg","1","1","1","1","1","1","0.437759899999946","0.393774899974232","0.452470500022173","1","1","1","1","1","1","1","1","1"
"260013","img/object_images/chair04.jpg","img/object_images/slinky_toy01.jpg","img/object_images/dress03.jpg","1","1","1","1","1","1","0.452470500022173","0.437759899999946","0.460556700010784","1","1","1","1","1","1","1","1","1"
"260013","img/object_images/dress03.jpg","img/object_images/chair04.jpg","img/object_images/rock03.jpg","1","1","1","1","1","0","0.460556700010784","0.452470500022173","0.433514899981674","1","1","1","1","1","1","1","1","1"
"260013","img/object_images/rock03.jpg","img/object_images/dress03.jpg",NA,"1","1",NA,"0","1",NA,"0.433514899981674","0.460556700010784",NA,"1","1",NA,"1","1",NA,"1","1",NA
"260013","img/object_images/razor03.jpg",NA,"img/object_images/pot01.jpg","1",NA,"1","0",NA,"0","0.414343299984466",NA,"0.416798799997196","1",NA,"1","1",NA,"1","1",NA,"1"
"260013","img/object_images/pot01.jpg","img/object_images/razor03.jpg","img/object_images/car02.jpg","1","1","1","0","0","0","0.416798799997196","0.414343299984466","0.412719200015999","1","1","1","1","1","1","1","1","1"
"260013","img/object_images/car02.jpg","img/object_images/pot01.jpg","img/object_images/lantern01.jpg","1","1","1","0","0","1","0.412719200015999","0.416798799997196","0.429628500016406","1","1","1","1","1","1","1","1","1"
"260013","img/object_images/lantern01.jpg","img/object_images/car02.jpg","img/object_images/Wisk01.jpg","1","1","1","1","0","1","0.429628500016406","0.412719200015999","0.378595599991968","1","1","1","1","1","1","1","1","2"
"260013","img/object_images/Wisk01.jpg","img/object_images/lantern01.jpg","img/object_images/soap01.jpg","1","1","1","1","1","0","0.378595599991968","0.429628500016406","0.398806600016542","1","1","1","1","1","1","2","1","1"
"260013","img/object_images/soap01.jpg","img/object_images/Wisk01.jpg","img/object_images/helmet05.jpg","1","1","1","0","1","1","0.398806600016542","0.378595599991968","0.325117000000319","1","1","1","1","1","1","1","2","1"
"260013","img/object_images/helmet05.jpg","img/object_images/soap01.jpg","img/object_images/gloves05.jpg","1","1","1","1","0","1","0.325117000000319","0.398806600016542","0.39385220000986","1","1","1","1","1","1","1","1","1"
"260013","img/object_images/gloves05.jpg","img/object_images/helmet05.jpg","img/object_images/chair01.jpg","1","1","1","1","1","0","0.39385220000986","0.325117000000319","0.367082899989327","1","1","1","1","1","1","1","1","1"
"260013","img/object_images/chair01.jpg","img/object_images/gloves05.jpg","img/object_images/toy_train02.jpg","1","1","1","0","1","1","0.367082899989327","0.39385220000986","0.369488500000443","1","1","1","1","1","1","1","1","1"
"260013","img/object_images/toy_train02.jpg","img/object_images/chair01.jpg","img/object_images/cochlear_implant01.jpg","1","1","1","1","0","0","0.369488500000443","0.367082899989327","0.46442579998984","1","1","1","1","1","1","1","1","1"
"260013","img/object_images/cochlear_implant01.jpg","img/object_images/toy_train02.jpg","img/object_images/guitar01.jpg","1","1","1","0","1","1","0.46442579998984","0.369488500000443","0.355451100011123","1","1","1","1","1","1","1","1","1"
"260013","img/object_images/guitar01.jpg","img/object_images/cochlear_implant01.jpg","img/object_images/brief_case02.jpg","1","1","1","1","0","1","0.355451100011123","0.46442579998984","0.387195300019812","1","1","1","1","1","1","1","1","1"
"260013","img/object_images/brief_case02.jpg","img/object_images/guitar01.jpg","img/object_images/bottle12.jpg","1","1","1","1","1","1","0.387195300019812","0.355451100011123","0.417283100017812","1","1","1","1","1","1","1","1","1"
"260013","img/object_images/bottle12.jpg","img/object_images/brief_case02.jpg","img/object_images/airfryer01.jpg","1","1","0","1","1","0","0.417283100017812","0.387195300019812","0.319871800020337","1","1","1","1","1","1","1","1","2"
"260013","img/object_images/airfryer01.jpg","img/object_images/bottle12.jpg","img/object_images/couch04.jpg","0","1","1","0","1","1","0.319871800020337","0.417283100017812","0.39827060000971","1","1","1","1","1","1","2","1","1"
"260013","img/object_images/couch04.jpg","img/object_images/airfryer01.jpg","img/object_images/ironing_table02.jpg","1","0","1","1","0","0","0.39827060000971","0.319871800020337","0.468890000018291","1","1","1","1","1","1","1","2","1"
"260013","img/object_images/ironing_table02.jpg","img/object_images/couch04.jpg","img/object_images/ball01.jpg","1","1","1","0","1","1","0.468890000018291","0.39827060000971","0.376917300018249","1","1","1","1","1","1","1","1","1"
"260013","img/object_images/ball01.jpg","img/object_images/ironing_table02.jpg","img/object_images/decorative02.jpg","1","1","1","1","0","0","0.376917300018249","0.468890000018291","0.407824900001287","1","1","1","1","1","1","1","1","1"
"260013","img/object_images/decorative02.jpg","img/object_images/ball01.jpg","img/object_images/basketball_hoop02.jpg","1","1","1","0","1","0","0.407824900001287","0.376917300018249","0.433687600016128","1","1","1","1","1","1","1","1","1"
"260013","img/object_images/basketball_hoop02.jpg","img/object_images/decorative02.jpg","img/object_images/drone02.jpg","1","1","1","0","0","0","0.433687600016128","0.407824900001287","0.394104799983324","1","1","1","1","1","1","1","1","1"
"260013","img/object_images/drone02.jpg","img/object_images/basketball_hoop02.jpg","img/object_images/container01.jpg","1","1","1","0","0","0","0.394104799983324","0.433687600016128","0.452434200007701","1","1","1","1","1","1","1","1","1"
"260013","img/object_images/container01.jpg","img/object_images/drone02.jpg","img/object_images/Woopie01.jpg","1","1","1","0","0","1","0.452434200007701","0.394104799983324","0.393112600024324","1","1","1","1","1","1","1","1","1"
"260013","img/object_images/Woopie01.jpg","img/object_images/container01.jpg","img/object_images/tie01.jpg","1","1","0","1","0","0","0.393112600024324","0.452434200007701","0.409512599988375","1","1","1","1","1","1","1","1","2"
"260013","img/object_images/tie01.jpg","img/object_images/Woopie01.jpg","img/object_images/hat02.jpg","0","1","1","0","1","0","0.409512599988375","0.393112600024324","0.475363000005018","1","1","1","1","1","1","2","1","1"
"260013","img/object_images/hat02.jpg","img/object_images/tie01.jpg","img/object_images/video_game06.jpg","1","0","0","0","0","0","0.475363000005018","0.409512599988375","0.430452900007367","1","1","1","1","1","1","1","2","2"
"260013","img/object_images/video_game06.jpg","img/object_images/hat02.jpg","img/object_images/lamp01.jpg","0","1","1","0","0","1","0.430452900007367","0.475363000005018","0.431333400018048","1","1","1","1","1","1","2","1","1"
"260013","img/object_images/lamp01.jpg","img/object_images/video_game06.jpg","img/object_images/toilet_paper01.jpg","1","0","1","1","0","1","0.431333400018048","0.430452900007367","0.366736900003161","1","1","1","1","1","1","1","2","1"
"260013","img/object_images/toilet_paper01.jpg","img/object_images/lamp01.jpg","img/object_images/brief_case01.jpg","1","1","1","1","1","0","0.366736900003161","0.431333400018048","0.415561300003901","1","1","1","1","1","1","1","1","1"
"260013","img/object_images/brief_case01.jpg","img/object_images/toilet_paper01.jpg","img/object_images/pitcher03.jpg","1","1","1","0","1","1","0.415561300003901","0.366736900003161","0.423308400000678","1","1","1","1","1","1","1","1","1"
"260013","img/object_images/pitcher03.jpg","img/object_images/brief_case01.jpg","img/object_images/Recycling01.jpg","1","1","1","1","0","1","0.423308400000678","0.415561300003901","0.381848100019852","1","1","1","1","1","1","1","1","1"
"260013","img/object_images/Recycling01.jpg","img/object_images/pitcher03.jpg","img/object_images/broom01.jpg","1","1","1","1","1","1","0.381848100019852","0.423308400000678","0.395139500004007","1","1","1","1","1","1","1","1","1"
"260013","img/object_images/broom01.jpg","img/object_images/Recycling01.jpg",NA,"1","1",NA,"1","1",NA,"0.395139500004007","0.381848100019852",NA,"1","1",NA,"1","1",NA,"1","1",NA
"260013","img/object_images/knife01.jpg",NA,"img/object_images/ruler02.jpg","1",NA,"1","1",NA,"1","0.470037000020966",NA,"0.459072300000116","1",NA,"1","1",NA,"1","5",NA,"4"
"260013","img/object_images/ruler02.jpg","img/object_images/knife01.jpg","img/object_images/tool13.jpg","1","1","1","1","1","1","0.459072300000116","0.470037000020966","0.411420999997063","1","1","1","1","1","1","4","5","2"
"260013","img/object_images/tool13.jpg","img/object_images/ruler02.jpg","img/object_images/candle02.jpg","1","1","0","1","1","0","0.411420999997063","0.459072300000116","0.524126400006935","1","1","1","1","1","1","2","4","5"
"260013","img/object_images/candle02.jpg","img/object_images/tool13.jpg","img/object_images/video_game02.jpg","0","1","1","0","1","1","0.524126400006935","0.411420999997063","0.48642510001082","1","1","1","1","1","1","5","2","4"
"260013","img/object_images/video_game02.jpg","img/object_images/candle02.jpg","img/object_images/clipboard01.jpg","1","0","1","1","0","1","0.48642510001082","0.524126400006935","0.509427099983441","1","1","1","1","1","1","4","5","4"
"260013","img/object_images/clipboard01.jpg","img/object_images/video_game02.jpg","img/object_images/bow_tie03.jpg","1","1","1","1","1","1","0.509427099983441","0.48642510001082","0.473497300001327","1","1","1","1","1","1","4","4","3"
"260013","img/object_images/bow_tie03.jpg","img/object_images/clipboard01.jpg","img/object_images/duster01.jpg","1","1","0","1","1","0","0.473497300001327","0.509427099983441","0.403819899976952","1","1","1","1","1","1","3","4","5"
"260013","img/object_images/duster01.jpg","img/object_images/bow_tie03.jpg","img/object_images/perfume01.jpg","0","1","0","0","1","0","0.403819899976952","0.473497300001327","0.369367100007366","1","1","1","1","1","1","5","3","4"
"260013","img/object_images/perfume01.jpg","img/object_images/duster01.jpg","img/object_images/spray_can01.jpg","0","0","1","0","0","0","0.369367100007366","0.403819899976952","0.508821600000374","1","1","1","1","1","1","4","5","2"
"260013","img/object_images/spray_can01.jpg","img/object_images/perfume01.jpg","img/object_images/lemon_squeezer01.jpg","1","0","1","0","0","1","0.508821600000374","0.369367100007366","0.47428100000252","1","1","1","1","1","1","2","4","2"
"260013","img/object_images/lemon_squeezer01.jpg","img/object_images/spray_can01.jpg","img/object_images/tool20.jpg","1","1","1","1","0","0","0.47428100000252","0.508821600000374","0.459610300022177","1","1","1","1","1","1","2","2","2"
"260013","img/object_images/tool20.jpg","img/object_images/lemon_squeezer01.jpg","img/object_images/razor02.jpg","1","1","1","0","1","1","0.459610300022177","0.47428100000252","0.438327300013043","1","1","1","1","1","1","2","2","2"
"260013","img/object_images/razor02.jpg","img/object_images/tool20.jpg","img/object_images/dust_pan01.jpg","1","1","1","1","0","1","0.438327300013043","0.459610300022177","0.430629300011788","1","1","1","1","1","1","2","2","2"
"260013","img/object_images/dust_pan01.jpg","img/object_images/razor02.jpg","img/object_images/hat13.jpg","1","1","1","1","1","1","0.430629300011788","0.438327300013043","0.386608800006798","1","1","1","1","1","1","2","2","4"
"260013","img/object_images/hat13.jpg","img/object_images/dust_pan01.jpg","img/object_images/cup01.jpg","1","1","1","1","1","0","0.386608800006798","0.430629300011788","0.402886199997738","1","1","1","1","1","1","4","2","2"
"260013","img/object_images/cup01.jpg","img/object_images/hat13.jpg","img/object_images/office_supplies01.jpg","1","1","1","0","1","1","0.402886199997738","0.386608800006798","0.539370100013912","1","1","1","1","1","1","2","4","2"
"260013","img/object_images/office_supplies01.jpg","img/object_images/cup01.jpg","img/object_images/sink_filter01 (1).jpg","1","1","0","1","0","0","0.539370100013912","0.402886199997738","0.519322400010424","1","1","1","1","1","1","2","2","3"
"260013","img/object_images/sink_filter01 (1).jpg","img/object_images/office_supplies01.jpg","img/object_images/sign02.jpg","0","1","1","0","1","0","0.519322400010424","0.539370100013912","0.432882299995981","1","1","1","1","1","1","3","2","2"
"260013","img/object_images/sign02.jpg","img/object_images/sink_filter01 (1).jpg","img/object_images/pen06.jpg","1","0","1","0","0","0","0.432882299995981","0.519322400010424","0.449801000009756","1","1","1","1","1","1","2","3","3"
"260013","img/object_images/pen06.jpg","img/object_images/sign02.jpg","img/object_images/hat09.jpg","1","1","1","0","0","0","0.449801000009756","0.432882299995981","0.464466100005666","1","1","1","1","1","1","3","2","3"
"260013","img/object_images/hat09.jpg","img/object_images/pen06.jpg","img/object_images/Confetti 01.jpg","1","1","1","0","0","0","0.464466100005666","0.449801000009756","0.406331400008639","1","1","1","1","1","1","3","3","3"
"260013","img/object_images/Confetti 01.jpg","img/object_images/hat09.jpg","img/object_images/bag04.jpg","1","1","0","0","0","0","0.406331400008639","0.464466100005666","0.302897599991411","1","1","1","1","1","1","3","3","4"
"260013","img/object_images/bag04.jpg","img/object_images/Confetti 01.jpg","img/object_images/camera05.jpg","0","1","1","0","0","0","0.302897599991411","0.406331400008639","0.477969800005667","1","1","1","1","1","1","4","3","2"
"260013","img/object_images/camera05.jpg","img/object_images/bag04.jpg","img/object_images/pan03.jpg","1","0","1","0","0","1","0.477969800005667","0.302897599991411","0.423268899990944","1","1","1","1","1","1","2","4","2"
"260013","img/object_images/pan03.jpg","img/object_images/camera05.jpg","img/object_images/floss01.jpg","1","1","1","1","0","1","0.423268899990944","0.477969800005667","0.480045000003884","1","1","1","1","1","1","2","2","3"
"260013","img/object_images/floss01.jpg","img/object_images/pan03.jpg","img/object_images/vase02.jpg","1","1","1","1","1","1","0.480045000003884","0.423268899990944","0.464623200008646","1","1","1","1","1","1","3","2","3"
"260013","img/object_images/vase02.jpg","img/object_images/floss01.jpg","img/object_images/Candle_Holder01.jpg","1","1","1","1","1","0","0.464623200008646","0.480045000003884","0.476374099991517","1","1","1","1","1","1","3","3","3"
"260013","img/object_images/Candle_Holder01.jpg","img/object_images/vase02.jpg","img/object_images/hammer02.jpg","1","1","1","0","1","0","0.476374099991517","0.464623200008646","0.473985299991909","1","1","1","1","1","1","3","3","3"
"260013","img/object_images/hammer02.jpg","img/object_images/Candle_Holder01.jpg","img/object_images/board01.jpg","1","1","1","0","0","1","0.473985299991909","0.476374099991517","0.412535499985097","1","1","1","1","1","1","3","3","3"
"260013","img/object_images/board01.jpg","img/object_images/hammer02.jpg","img/object_images/socks01.jpg","1","1","1","1","0","1","0.412535499985097","0.473985299991909","0.568457000015769","1","1","1","1","1","1","3","3","3"
"260013","img/object_images/socks01.jpg","img/object_images/board01.jpg","img/object_images/glasses03.jpg","1","1","1","1","1","0","0.568457000015769","0.412535499985097","0.449874999991152","1","1","1","1","1","1","3","3","3"
"260013","img/object_images/glasses03.jpg","img/object_images/socks01.jpg",NA,"1","1",NA,"0","1",NA,"0.449874999991152","0.568457000015769",NA,"1","1",NA,"1","1",NA,"3","3",NA
"260013","img/object_images/origami01.jpg",NA,"img/object_images/headset02.jpg","0",NA,"0","1",NA,"0",NA,NA,NA,"0",NA,"0","0",NA,"0","0",NA,"0"
"260013","img/object_images/headset02.jpg","img/object_images/origami01.jpg","img/object_images/jewel02.jpg","0","0","0","0","1","0",NA,NA,NA,"0","0","0","0","0","0","0","0","0"
"260013","img/object_images/jewel02.jpg","img/object_images/headset02.jpg","img/object_images/note_book02.jpg","0","0","1","0","0","0",NA,NA,"0.378310000000056","0","0","1","0","0","1","0","0","1"
"260013","img/object_images/note_book02.jpg","img/object_images/jewel02.jpg","img/object_images/piano03.jpg","1","0","1","0","0","0","0.378310000000056",NA,"0.544145199994091","1","0","1","1","0","1","1","0","1"
"260013","img/object_images/piano03.jpg","img/object_images/note_book02.jpg","img/object_images/water_gun01.jpg","1","1","0","0","0","1","0.544145199994091","0.378310000000056",NA,"1","1","0","1","1","0","1","1","0"
"260013","img/object_images/water_gun01.jpg","img/object_images/piano03.jpg","img/object_images/frame01.jpg","0","1","1","1","0","1",NA,"0.544145199994091","0.42159719998017","0","1","1","0","1","1","0","1","1"
"260013","img/object_images/frame01.jpg","img/object_images/water_gun01.jpg","img/object_images/pitcher07.jpg","1","0","1","1","1","1","0.42159719998017",NA,"0.414946200005943","1","0","1","1","0","1","1","0","1"
"260013","img/object_images/pitcher07.jpg","img/object_images/frame01.jpg","img/object_images/helmet03.jpg","1","1","0","1","1","1","0.414946200005943","0.42159719998017",NA,"1","1","0","1","1","0","1","1","0"
"260013","img/object_images/helmet03.jpg","img/object_images/pitcher07.jpg","img/object_images/tennis_racket01.jpg","0","1","1","1","1","1",NA,"0.414946200005943","0.365070800005924","0","1","1","0","1","1","0","1","1"
"260013","img/object_images/tennis_racket01.jpg","img/object_images/helmet03.jpg","img/object_images/trumpet01.jpg","1","0","0","1","1","0","0.365070800005924",NA,NA,"1","0","0","1","0","0","1","0","0"
"260013","img/object_images/trumpet01.jpg","img/object_images/tennis_racket01.jpg","img/object_images/yoga_mat01.jpg","0","1","0","0","1","0",NA,"0.365070800005924",NA,"0","1","0","0","1","0","0","1","0"
"260013","img/object_images/yoga_mat01.jpg","img/object_images/trumpet01.jpg","img/object_images/bookmark01.jpg","0","0","1","0","0","0",NA,NA,"0.639876000001095","0","0","1","0","0","1","0","0","1"
"260013","img/object_images/bookmark01.jpg","img/object_images/yoga_mat01.jpg","img/object_images/TreeSlice01.jpg","1","0","0","0","0","1","0.639876000001095",NA,NA,"1","0","0","1","0","0","1","0","0"
"260013","img/object_images/TreeSlice01.jpg","img/object_images/bookmark01.jpg","img/object_images/Shoes05.jpg","0","1","0","1","0","0",NA,"0.639876000001095",NA,"0","1","0","0","1","0","0","1","0"
"260013","img/object_images/Shoes05.jpg","img/object_images/TreeSlice01.jpg","img/object_images/phone04.jpg","0","0","1","0","1","1",NA,NA,"0.386646600003587","0","0","1","0","0","1","0","0","1"
"260013","img/object_images/phone04.jpg","img/object_images/Shoes05.jpg","img/object_images/ToolBag01.jpg","1","0","1","1","0","0","0.386646600003587",NA,"0.455485400016187","1","0","1","1","0","1","1","0","1"
"260013","img/object_images/ToolBag01.jpg","img/object_images/phone04.jpg","img/object_images/shovel01.jpg","1","1","0","0","1","0","0.455485400016187","0.386646600003587",NA,"1","1","0","1","1","0","1","1","0"
"260013","img/object_images/shovel01.jpg","img/object_images/ToolBag01.jpg","img/object_images/bottle06.jpg","0","1","1","0","0","0",NA,"0.455485400016187","0.424067500018282","0","1","1","0","1","1","0","1","1"
"260013","img/object_images/bottle06.jpg","img/object_images/shovel01.jpg","img/object_images/egg_basket01.jpg","1","0","0","0","0","1","0.424067500018282",NA,NA,"1","0","0","1","0","0","1","0","0"
"260013","img/object_images/egg_basket01.jpg","img/object_images/bottle06.jpg","img/object_images/bucket01.jpg","0","1","1","1","0","1",NA,"0.424067500018282","0.328280299989274","0","1","1","0","1","1","0","1","1"
"260013","img/object_images/bucket01.jpg","img/object_images/egg_basket01.jpg","img/object_images/joystick03.jpg","1","0","0","1","1","1","0.328280299989274",NA,NA,"1","0","0","1","0","0","1","0","0"
"260013","img/object_images/joystick03.jpg","img/object_images/bucket01.jpg","img/object_images/usb03.jpg","0","1","1","1","1","0",NA,"0.328280299989274","0.2944778999954","0","1","1","0","1","1","0","1","1"
"260013","img/object_images/usb03.jpg","img/object_images/joystick03.jpg","img/object_images/badminton01.jpg","1","0","0","0","1","1","0.2944778999954",NA,NA,"1","0","0","1","0","0","1","0","0"
"260013","img/object_images/badminton01.jpg","img/object_images/usb03.jpg","img/object_images/lock03.jpg","0","1","1","1","0","1",NA,"0.2944778999954","0.316498599975603","0","1","1","0","1","1","0","1","1"
"260013","img/object_images/lock03.jpg","img/object_images/badminton01.jpg","img/object_images/belt03.jpg","1","0","1","1","1","0","0.316498599975603",NA,"0.386948200000916","1","0","1","1","0","1","1","0","1"
"260013","img/object_images/belt03.jpg","img/object_images/lock03.jpg","img/object_images/nut_cracker01.jpg","1","1","1","0","1","1","0.386948200000916","0.316498599975603","0.426192899991293","1","1","1","1","1","1","1","1","1"
"260013","img/object_images/nut_cracker01.jpg","img/object_images/belt03.jpg","img/object_images/fan01.jpg","1","1","0","1","0","0","0.426192899991293","0.386948200000916","0.345760600001086","1","1","1","1","1","1","1","1","2"
"260013","img/object_images/fan01.jpg","img/object_images/nut_cracker01.jpg","img/object_images/dice01.jpg","0","1","1","0","1","0","0.345760600001086","0.426192899991293","0.431390200013993","1","1","1","1","1","1","2","1","1"
"260013","img/object_images/dice01.jpg","img/object_images/fan01.jpg","img/object_images/Eyeliner01.jpg","1","0","1","0","0","1","0.431390200013993","0.345760600001086","0.38835300001665","1","1","1","1","1","1","1","2","1"
"260013","img/object_images/Eyeliner01.jpg","img/object_images/dice01.jpg","img/object_images/scale02.jpg","1","1","1","1","0","0","0.38835300001665","0.431390200013993","0.458562100015115","1","1","1","1","1","1","1","1","1"
"260013","img/object_images/scale02.jpg","img/object_images/Eyeliner01.jpg","img/object_images/Safe01.jpg","1","1","1","0","1","1","0.458562100015115","0.38835300001665","0.37542100000428","1","1","1","1","1","1","1","1","1"
"260013","img/object_images/Safe01.jpg","img/object_images/scale02.jpg",NA,"1","1",NA,"1","0",NA,"0.37542100000428","0.458562100015115",NA,"1","1",NA,"1","1",NA,"1","1",NA
"260013","img/object_images/clock02.jpg",NA,"img/object_images/ear_bud01.jpg","1",NA,"1","0",NA,"1","0.403936399990926",NA,"0.36915549999685","1",NA,"1","1",NA,"1","1",NA,"1"
"260013","img/object_images/ear_bud01.jpg","img/object_images/clock02.jpg","img/object_images/tennis_racket02.jpg","1","1","1","1","0","1","0.36915549999685","0.403936399990926","0.335314199997811","1","1","1","1","1","1","1","1","1"
"260013","img/object_images/tennis_racket02.jpg","img/object_images/ear_bud01.jpg","img/object_images/knife04.jpg","1","1","1","1","1","1","0.335314199997811","0.36915549999685","0.379306100017857","1","1","1","1","1","1","1","1","1"
"260013","img/object_images/knife04.jpg","img/object_images/tennis_racket02.jpg","img/object_images/clip03.jpg","1","1","1","1","1","0","0.379306100017857","0.335314199997811","0.385467800020706","1","1","1","1","1","1","1","1","1"
"260013","img/object_images/clip03.jpg","img/object_images/knife04.jpg","img/object_images/note_book01.jpg","1","1","0","0","1","0","0.385467800020706","0.379306100017857","0.387969799980056","1","1","1","1","1","1","1","1","2"
"260013","img/object_images/note_book01.jpg","img/object_images/clip03.jpg","img/object_images/hammer03.jpg","0","1","1","0","0","1","0.387969799980056","0.385467800020706","0.35269710002467","1","1","1","1","1","1","2","1","1"
"260013","img/object_images/hammer03.jpg","img/object_images/note_book01.jpg","img/object_images/bell02.jpg","1","0","1","1","0","0","0.35269710002467","0.387969799980056","0.490206300019054","1","1","1","1","1","1","1","2","1"
"260013","img/object_images/bell02.jpg","img/object_images/hammer03.jpg","img/object_images/Oven01.jpg","1","1","1","0","1","1","0.490206300019054","0.35269710002467","0.385959500010358","1","1","1","1","1","1","1","1","1"
"260013","img/object_images/Oven01.jpg","img/object_images/bell02.jpg","img/object_images/paint_brush04.jpg","1","1","1","1","0","0","0.385959500010358","0.490206300019054","0.442746299988357","1","1","1","1","1","1","1","1","1"
"260013","img/object_images/paint_brush04.jpg","img/object_images/Oven01.jpg","img/object_images/book03.jpg","1","1","1","0","1","1","0.442746299988357","0.385959500010358","0.401206800015643","1","1","1","1","1","1","1","1","1"
"260013","img/object_images/book03.jpg","img/object_images/paint_brush04.jpg","img/object_images/retainer01.jpg","1","1","1","1","0","0","0.401206800015643","0.442746299988357","0.478921100002481","1","1","1","1","1","1","1","1","1"
"260013","img/object_images/retainer01.jpg","img/object_images/book03.jpg","img/object_images/pitcher01.jpg","1","1","1","0","1","0","0.478921100002481","0.401206800015643","0.44147309998516","1","1","1","1","1","1","1","1","1"
"260013","img/object_images/pitcher01.jpg","img/object_images/retainer01.jpg","img/object_images/floppy_disk03.jpg","1","1","1","0","0","1","0.44147309998516","0.478921100002481","0.448970900004497","1","1","1","1","1","1","1","1","1"
"260013","img/object_images/floppy_disk03.jpg","img/object_images/pitcher01.jpg","img/object_images/crutches02.jpg","1","1","1","1","0","0","0.448970900004497","0.44147309998516","0.417999400000554","1","1","1","1","1","1","1","1","1"
"260013","img/object_images/crutches02.jpg","img/object_images/floppy_disk03.jpg","img/object_images/floppy_disk02.jpg","1","1","1","0","1","0","0.417999400000554","0.448970900004497","0.438519899995299","1","1","1","1","1","1","1","1","1"
"260013","img/object_images/floppy_disk02.jpg","img/object_images/crutches02.jpg","img/object_images/motorcycle01.jpg","1","1","1","0","0","1","0.438519899995299","0.417999400000554","0.410819900018396","1","1","1","1","1","1","1","1","1"
"260013","img/object_images/motorcycle01.jpg","img/object_images/floppy_disk02.jpg","img/object_images/knit05.jpg","1","1","1","1","0","1","0.410819900018396","0.438519899995299","0.406640700006392","1","1","1","1","1","1","1","1","1"
"260013","img/object_images/knit05.jpg","img/object_images/motorcycle01.jpg","img/object_images/Staples01.jpg","1","1","1","1","1","1","0.406640700006392","0.410819900018396","0.400980300008086","1","1","1","1","1","1","1","1","1"
"260013","img/object_images/Staples01.jpg","img/object_images/knit05.jpg","img/object_images/microscope01.jpg","1","1","1","1","1","0","0.400980300008086","0.406640700006392","0.402933300007135","1","1","1","1","1","1","1","1","1"
"260013","img/object_images/microscope01.jpg","img/object_images/Staples01.jpg","img/object_images/usb02.jpg","1","1","1","0","1","0","0.402933300007135","0.400980300008086","0.383029099990381","1","1","1","1","1","1","1","1","1"
"260013","img/object_images/usb02.jpg","img/object_images/microscope01.jpg","img/object_images/compass01.jpg","1","1","1","0","0","1","0.383029099990381","0.402933300007135","0.37964239998837","1","1","1","1","1","1","1","1","1"
"260013","img/object_images/compass01.jpg","img/object_images/usb02.jpg","img/object_images/bottle01.jpg","1","1","1","1","0","0","0.37964239998837","0.383029099990381","0.441025600011926","1","1","1","1","1","1","1","1","1"
"260013","img/object_images/bottle01.jpg","img/object_images/compass01.jpg","img/object_images/wire02.jpg","1","1","1","0","1","1","0.441025600011926","0.37964239998837","0.415075600001728","1","1","1","1","1","1","1","1","1"
"260013","img/object_images/wire02.jpg","img/object_images/bottle01.jpg","img/object_images/pillows01.jpg","1","1","1","1","0","1","0.415075600001728","0.441025600011926","0.423555699991994","1","1","1","1","1","1","1","1","1"
"260013","img/object_images/pillows01.jpg","img/object_images/wire02.jpg","img/object_images/lid01.jpg","1","1","1","1","1","1","0.423555699991994","0.415075600001728","0.427311400009785","1","1","1","1","1","1","1","1","1"
"260013","img/object_images/lid01.jpg","img/object_images/pillows01.jpg","img/object_images/chair05.jpg","1","1","1","1","1","0","0.427311400009785","0.423555699991994","0.408065399999032","1","1","1","1","1","1","1","1","1"
"260013","img/object_images/chair05.jpg","img/object_images/lid01.jpg","img/object_images/tv02.jpg","1","1","1","0","1","0","0.408065399999032","0.427311400009785","0.398399199999403","1","1","1","1","1","1","1","1","1"
"260013","img/object_images/tv02.jpg","img/object_images/chair05.jpg","img/object_images/Thermometer01.jpg","1","1","0","0","0","0","0.398399199999403","0.408065399999032","0.391337700013537","1","1","1","1","1","1","1","1","2"
"260013","img/object_images/Thermometer01.jpg","img/object_images/tv02.jpg","img/object_images/pen03.jpg","0","1","0","0","0","0","0.391337700013537","0.398399199999403","0.495896099979291","1","1","1","1","1","1","2","1","2"
"260013","img/object_images/pen03.jpg","img/object_images/Thermometer01.jpg","img/object_images/cellphone01.jpg","0","0","1","0","0","1","0.495896099979291","0.391337700013537","0.440562400006456","1","1","1","1","1","1","2","2","1"
"260013","img/object_images/cellphone01.jpg","img/object_images/pen03.jpg","img/object_images/chess_piece02.jpg","1","0","1","1","0","1","0.440562400006456","0.495896099979291","0.437904200021876","1","1","1","1","1","1","1","2","1"
"260013","img/object_images/chess_piece02.jpg","img/object_images/cellphone01.jpg",NA,"1","1",NA,"1","1",NA,"0.437904200021876","0.440562400006456",NA,"1","1",NA,"1","1",NA,"1","1",NA
"260013","img/object_images/gift_box01.jpg",NA,"img/object_images/handkerchief01.jpg","1",NA,"0","1",NA,"0","0.384242000000086",NA,"0.466296200000215","1",NA,"1","1",NA,"1","1",NA,"2"
"260013","img/object_images/handkerchief01.jpg","img/object_images/gift_box01.jpg","img/object_images/coloring_pencil01.jpg","0","1","1","0","1","1","0.466296200000215","0.384242000000086","0.405526700022165","1","1","1","1","1","1","2","1","1"
"260013","img/object_images/coloring_pencil01.jpg","img/object_images/handkerchief01.jpg","img/object_images/bow_tie01.jpg","1","0","0","1","0","0","0.405526700022165","0.466296200000215","0.340368600009242","1","1","1","1","1","1","1","2","2"
"260013","img/object_images/bow_tie01.jpg","img/object_images/coloring_pencil01.jpg","img/object_images/gift_box03.jpg","0","1","1","0","1","0","0.340368600009242","0.405526700022165","0.485819499997888","1","1","1","1","1","1","2","1","1"
"260013","img/object_images/gift_box03.jpg","img/object_images/bow_tie01.jpg","img/object_images/measuring_tape02.jpg","1","0","1","0","0","1","0.485819499997888","0.340368600009242","0.401577599986922","1","1","1","1","1","1","1","2","1"
"260013","img/object_images/measuring_tape02.jpg","img/object_images/gift_box03.jpg","img/object_images/camera07.jpg","1","1","1","1","0","1","0.401577599986922","0.485819499997888","0.369217500003288","1","1","1","1","1","1","1","1","1"
"260013","img/object_images/camera07.jpg","img/object_images/measuring_tape02.jpg","img/object_images/wallet02.jpg","1","1","1","1","1","1","0.369217500003288","0.401577599986922","0.362738000025274","1","1","1","1","1","1","1","1","1"
"260013","img/object_images/wallet02.jpg","img/object_images/camera07.jpg","img/object_images/lawn_mower01.jpg","1","1","1","1","1","1","0.362738000025274","0.369217500003288","0.430064300016966","1","1","1","1","1","1","1","1","1"
"260013","img/object_images/lawn_mower01.jpg","img/object_images/wallet02.jpg","img/object_images/hammer01.jpg","1","1","1","1","1","0","0.430064300016966","0.362738000025274","0.410756299999775","1","1","1","1","1","1","1","1","1"
"260013","img/object_images/hammer01.jpg","img/object_images/lawn_mower01.jpg","img/object_images/Screws01.jpg","1","1","1","0","1","1","0.410756299999775","0.430064300016966","0.356148899998516","1","1","1","1","1","1","1","1","1"
"260013","img/object_images/Screws01.jpg","img/object_images/hammer01.jpg","img/object_images/lock04.jpg","1","1","1","1","0","1","0.356148899998516","0.410756299999775","0.413104899984319","1","1","1","1","1","1","1","1","1"
"260013","img/object_images/lock04.jpg","img/object_images/Screws01.jpg","img/object_images/bow_tie02.jpg","1","1","1","1","1","0","0.413104899984319","0.356148899998516","0.415699099976337","1","1","1","1","1","1","1","1","1"
"260013","img/object_images/bow_tie02.jpg","img/object_images/lock04.jpg","img/object_images/pitcher02.jpg","1","1","0","0","1","1","0.415699099976337","0.413104899984319","0.333477100008167","1","1","1","1","1","1","1","1","2"
"260013","img/object_images/pitcher02.jpg","img/object_images/bow_tie02.jpg","img/object_images/golf_ball03.jpg","0","1","1","1","0","1","0.333477100008167","0.415699099976337","0.431594399997266","1","1","1","1","1","1","2","1","1"
"260013","img/object_images/golf_ball03.jpg","img/object_images/pitcher02.jpg","img/object_images/jacket03.jpg","1","0","1","1","1","0","0.431594399997266","0.333477100008167","0.439698500005761","1","1","1","1","1","1","1","2","1"
"260013","img/object_images/jacket03.jpg","img/object_images/golf_ball03.jpg","img/object_images/socks02.jpg","1","1","1","0","1","0","0.439698500005761","0.431594399997266","0.386406299978262","1","1","1","1","1","1","1","1","1"
"260013","img/object_images/socks02.jpg","img/object_images/jacket03.jpg","img/object_images/funnel01.jpg","1","1","1","0","0","0","0.386406299978262","0.439698500005761","0.388422799995169","1","1","1","1","1","1","1","1","1"
"260013","img/object_images/funnel01.jpg","img/object_images/socks02.jpg","img/object_images/sleeping_bag01.jpg","1","1","1","0","0","0","0.388422799995169","0.386406299978262","0.455417799996212","1","1","1","1","1","1","1","1","1"
"260013","img/object_images/sleeping_bag01.jpg","img/object_images/funnel01.jpg","img/object_images/dresser04.jpg","1","1","1","0","0","0","0.455417799996212","0.388422799995169","0.425361100002192","1","1","1","1","1","1","1","1","1"
"260013","img/object_images/dresser04.jpg","img/object_images/sleeping_bag01.jpg","img/object_images/gift_box02.jpg","1","1","1","0","0","1","0.425361100002192","0.455417799996212","0.384205100010149","1","1","1","1","1","1","1","1","1"
"260013","img/object_images/gift_box02.jpg","img/object_images/dresser04.jpg","img/object_images/clip02.jpg","1","1","1","1","0","1","0.384205100010149","0.425361100002192","0.401420500013046","1","1","1","1","1","1","1","1","1"
"260013","img/object_images/clip02.jpg","img/object_images/gift_box02.jpg","img/object_images/Witchhat01.jpg","1","1","1","1","1","1","0.401420500013046","0.384205100010149","0.36946600000374","1","1","1","1","1","1","1","1","1"
"260013","img/object_images/Witchhat01.jpg","img/object_images/clip02.jpg","img/object_images/fork03.jpg","1","1","1","1","1","1","0.36946600000374","0.401420500013046","0.406706999987364","1","1","1","1","1","1","1","1","1"
"260013","img/object_images/fork03.jpg","img/object_images/Witchhat01.jpg","img/object_images/vga_port 01.jpg","1","1","1","1","1","0","0.406706999987364","0.36946600000374","0.461625800002366","1","1","1","1","1","1","1","1","1"
"260013","img/object_images/vga_port 01.jpg","img/object_images/fork03.jpg","img/object_images/ironing_table01.jpg","1","1","1","0","1","0","0.461625800002366","0.406706999987364","0.619515200000023","1","1","1","1","1","1","1","1","1"
"260013","img/object_images/ironing_table01.jpg","img/object_images/vga_port 01.jpg","img/object_images/bath_tub01.jpg","1","1","1","0","0","0","0.619515200000023","0.461625800002366","0.323216599994339","1","1","1","1","1","1","1","1","1"
"260013","img/object_images/bath_tub01.jpg","img/object_images/ironing_table01.jpg","img/object_images/grater01.jpg","1","1","1","0","0","1","0.323216599994339","0.619515200000023","0.395845400023973","1","1","1","1","1","1","1","1","1"
"260013","img/object_images/grater01.jpg","img/object_images/bath_tub01.jpg","img/object_images/couch03.jpg","1","1","1","1","0","0","0.395845400023973","0.323216599994339","0.407341099984478","1","1","1","1","1","1","1","1","1"
"260013","img/object_images/couch03.jpg","img/object_images/grater01.jpg","img/object_images/paper_cup01.jpg","1","1","0","0","1","0","0.407341099984478","0.395845400023973","0.36749430000782","1","1","1","1","1","1","1","1","2"
"260013","img/object_images/paper_cup01.jpg","img/object_images/couch03.jpg","img/object_images/jewelry01.jpg","0","1","1","0","0","1","0.36749430000782","0.407341099984478","0.354443599993829","1","1","1","1","1","1","2","1","1"
"260013","img/object_images/jewelry01.jpg","img/object_images/paper_cup01.jpg","img/object_images/balloon01.jpg","1","0","1","1","0","0","0.354443599993829","0.36749430000782","0.442861699993955","1","1","1","1","1","1","1","2","1"
"260013","img/object_images/balloon01.jpg","img/object_images/jewelry01.jpg",NA,"1","1",NA,"0","1",NA,"0.442861699993955","0.354443599993829",NA,"1","1",NA,"1","1",NA,"1","1",NA
"260013","img/object_images/bean_bag02.jpg",NA,"img/object_images/hot_air_balloon02.jpg","1",NA,"0","1",NA,"0","0.66406619999907",NA,"0.367002899991348","1",NA,"1","1",NA,"1","1",NA,"3"
"260013","img/object_images/hot_air_balloon02.jpg","img/object_images/bean_bag02.jpg","img/object_images/bicycle01.jpg","0","1","1","0","1","1","0.367002899991348","0.66406619999907","0.403230199997779","1","1","1","1","1","1","3","1","1"
"260013","img/object_images/bicycle01.jpg","img/object_images/hot_air_balloon02.jpg","img/object_images/piggy_bank01.jpg","1","0","1","1","0","1","0.403230199997779","0.367002899991348","0.417657899990445","1","1","1","1","1","1","1","3","1"
"260013","img/object_images/piggy_bank01.jpg","img/object_images/bicycle01.jpg","img/object_images/shoes07.jpg","1","1","1","1","1","0","0.417657899990445","0.403230199997779","0.395026300015161","1","1","1","1","1","1","1","1","1"
"260013","img/object_images/shoes07.jpg","img/object_images/piggy_bank01.jpg","img/object_images/cellphone03.jpg","1","1","1","0","1","0","0.395026300015161","0.417657899990445","0.458923899976071","1","1","1","1","1","1","1","1","1"
"260013","img/object_images/cellphone03.jpg","img/object_images/shoes07.jpg","img/object_images/toaster01.jpg","1","1","1","0","0","1","0.458923899976071","0.395026300015161","0.37821189998067","1","1","1","1","1","1","1","1","1"
"260013","img/object_images/toaster01.jpg","img/object_images/cellphone03.jpg","img/object_images/bottle10.jpg","1","1","1","1","0","1","0.37821189998067","0.458923899976071","0.380912399996305","1","1","1","1","1","1","1","1","1"
"260013","img/object_images/bottle10.jpg","img/object_images/toaster01.jpg","img/object_images/pen05.jpg","1","1","1","1","1","0","0.380912399996305","0.37821189998067","0.418259400001261","1","1","1","1","1","1","1","1","1"
"260013","img/object_images/pen05.jpg","img/object_images/bottle10.jpg","img/object_images/hat06.jpg","1","1","1","0","1","0","0.418259400001261","0.380912399996305","0.386884199979249","1","1","1","1","1","1","1","1","1"
"260013","img/object_images/hat06.jpg","img/object_images/pen05.jpg","img/object_images/camera_lens01.jpg","1","1","1","0","0","1","0.386884199979249","0.418259400001261","0.419538399990415","1","1","1","1","1","1","1","1","1"
"260013","img/object_images/camera_lens01.jpg","img/object_images/hat06.jpg","img/object_images/scoreboard01.jpg","1","1","1","1","0","1","0.419538399990415","0.386884199979249","0.370924999995623","1","1","1","1","1","1","1","1","1"
"260013","img/object_images/scoreboard01.jpg","img/object_images/camera_lens01.jpg","img/object_images/toilet_paper_dispenser01.jpg","1","1","1","1","1","1","0.370924999995623","0.419538399990415","0.425404800014803","1","1","1","1","1","1","1","1","1"
"260013","img/object_images/toilet_paper_dispenser01.jpg","img/object_images/scoreboard01.jpg","img/object_images/perfume02.jpg","1","1","0","1","1","0","0.425404800014803","0.370924999995623","0.375958099990385","1","1","1","1","1","1","1","1","2"
"260013","img/object_images/perfume02.jpg","img/object_images/toilet_paper_dispenser01.jpg","img/object_images/purse04.jpg","0","1","1","0","1","1","0.375958099990385","0.425404800014803","0.429645199998049","1","1","1","1","1","1","2","1","1"
"260013","img/object_images/purse04.jpg","img/object_images/perfume02.jpg","img/object_images/boat02.jpg","1","0","1","1","0","1","0.429645199998049","0.375958099990385","0.394800600013696","1","1","1","1","1","1","1","2","1"
"260013","img/object_images/boat02.jpg","img/object_images/purse04.jpg","img/object_images/chair03.jpg","1","1","1","1","1","0","0.394800600013696","0.429645199998049","0.409955599985551","1","1","1","1","1","1","1","1","1"
"260013","img/object_images/chair03.jpg","img/object_images/boat02.jpg","img/object_images/coloring_pencil02.jpg","1","1","1","0","1","0","0.409955599985551","0.394800600013696","0.430543500027852","1","1","1","1","1","1","1","1","1"
"260013","img/object_images/coloring_pencil02.jpg","img/object_images/chair03.jpg","img/object_images/knit01.jpg","1","1","1","0","0","0","0.430543500027852","0.409955599985551","0.394485400000121","1","1","1","1","1","1","1","1","1"
"260013","img/object_images/knit01.jpg","img/object_images/coloring_pencil02.jpg","img/object_images/tie02.jpg","1","1","1","0","0","0","0.394485400000121","0.430543500027852","0.371331100002863","1","1","1","1","1","1","1","1","1"
"260013","img/object_images/tie02.jpg","img/object_images/knit01.jpg","img/object_images/tool19.jpg","1","1","1","0","0","1","0.371331100002863","0.394485400000121","0.392618399986532","1","1","1","1","1","1","1","1","1"
"260013","img/object_images/tool19.jpg","img/object_images/tie02.jpg","img/object_images/fan02.jpg","1","1","0","1","0","0","0.392618399986532","0.371331100002863","0.424456199980341","1","1","1","1","1","1","1","1","2"
"260013","img/object_images/fan02.jpg","img/object_images/tool19.jpg","img/object_images/wagon_cart03.jpg","0","1","1","0","1","1","0.424456199980341","0.392618399986532","0.392349400004605","1","1","1","1","1","1","2","1","1"
"260013","img/object_images/wagon_cart03.jpg","img/object_images/fan02.jpg","img/object_images/boat_toy10.jpg","1","0","1","1","0","0","0.392349400004605","0.424456199980341","0.411938700010069","1","1","1","1","1","1","1","2","1"
"260013","img/object_images/boat_toy10.jpg","img/object_images/wagon_cart03.jpg","img/object_images/bottle09.jpg","1","1","0","0","1","0","0.411938700010069","0.392349400004605","0.400764599995455","1","1","1","1","1","1","1","1","2"
"260013","img/object_images/bottle09.jpg","img/object_images/boat_toy10.jpg","img/object_images/bottle02.jpg","0","1","1","0","0","1","0.400764599995455","0.411938700010069","0.410232399997767","1","1","1","1","1","1","2","1","1"
"260013","img/object_images/bottle02.jpg","img/object_images/bottle09.jpg","img/object_images/water_scooter01.jpg","1","0","1","1","0","1","0.410232399997767","0.400764599995455","0.40821729999152","1","1","1","1","1","1","1","2","1"
"260013","img/object_images/water_scooter01.jpg","img/object_images/bottle02.jpg","img/object_images/helmet04.jpg","1","1","1","1","1","1","0.40821729999152","0.410232399997767","0.324942799983546","1","1","1","1","1","1","1","1","1"
"260013","img/object_images/helmet04.jpg","img/object_images/water_scooter01.jpg","img/object_images/WoodBox01.jpg","1","1","1","1","1","0","0.324942799983546","0.40821729999152","0.437861800019164","1","1","1","1","1","1","1","1","1"
"260013","img/object_images/WoodBox01.jpg","img/object_images/helmet04.jpg","img/object_images/dog_leash01.jpg","1","1","1","0","1","0","0.437861800019164","0.324942799983546","0.507075700006681","1","1","1","1","1","1","1","1","1"
"260013","img/object_images/dog_leash01.jpg","img/object_images/WoodBox01.jpg","img/object_images/flask01.jpg","1","1","1","0","0","0","0.507075700006681","0.437861800019164","0.422652300010668","1","1","1","1","1","1","1","1","1"
"260013","img/object_images/flask01.jpg","img/object_images/dog_leash01.jpg","img/object_images/audio_port01.jpg","1","1","1","0","0","1","0.422652300010668","0.507075700006681","0.394605799985584","1","1","1","1","1","1","1","1","1"
"260013","img/object_images/audio_port01.jpg","img/object_images/flask01.jpg",NA,"1","1",NA,"1","0",NA,"0.394605799985584","0.422652300010668",NA,"1","1",NA,"1","1",NA,"1","1",NA
"260013","img/object_images/cellphone02.jpg",NA,"img/object_images/Sprayer01.jpg","1",NA,"1","1",NA,"0","0.403221499989741",NA,"0.391259900003206","1",NA,"1","1",NA,"1","1",NA,"1"
"260013","img/object_images/Sprayer01.jpg","img/object_images/cellphone02.jpg","img/object_images/tool08.jpg","1","1","1","0","1","0","0.391259900003206","0.403221499989741","0.398337699996773","1","1","1","1","1","1","1","1","1"
"260013","img/object_images/tool08.jpg","img/object_images/Sprayer01.jpg","img/object_images/bicycle_lock01.jpg","1","1","1","0","0","0","0.398337699996773","0.391259900003206","0.388596500008134","1","1","1","1","1","1","1","1","1"
"260013","img/object_images/bicycle_lock01.jpg","img/object_images/tool08.jpg","img/object_images/lighter01.jpg","1","1","1","0","0","1","0.388596500008134","0.398337699996773","0.381747900013579","1","1","1","1","1","1","1","1","1"
"260013","img/object_images/lighter01.jpg","img/object_images/bicycle_lock01.jpg","img/object_images/ring03.jpg","1","1","1","1","0","1","0.381747900013579","0.388596500008134","0.375105799990706","1","1","1","1","1","1","1","1","1"
"260013","img/object_images/ring03.jpg","img/object_images/lighter01.jpg","img/object_images/speaker01.jpg","1","1","1","1","1","1","0.375105799990706","0.381747900013579","0.425327399978414","1","1","1","1","1","1","1","1","1"
"260013","img/object_images/speaker01.jpg","img/object_images/ring03.jpg","img/object_images/fire_extinguisher01.jpg","1","1","1","1","1","0","0.425327399978414","0.375105799990706","0.411785800009966","1","1","1","1","1","1","1","1","1"
"260013","img/object_images/fire_extinguisher01.jpg","img/object_images/speaker01.jpg","img/object_images/Kitchen_Towel.jpg","1","1","1","0","1","0","0.411785800009966","0.425327399978414","0.394933599978685","1","1","1","1","1","1","1","1","1"
"260013","img/object_images/Kitchen_Towel.jpg","img/object_images/fire_extinguisher01.jpg","img/object_images/pan01.jpg","1","1","1","0","0","1","0.394933599978685","0.411785800009966","0.38996919998317","1","1","1","1","1","1","1","1","1"
"260013","img/object_images/pan01.jpg","img/object_images/Kitchen_Towel.jpg","img/object_images/faucet01.jpg","1","1","1","1","0","0","0.38996919998317","0.394933599978685","0.481790899997577","1","1","1","1","1","1","1","1","1"
"260013","img/object_images/faucet01.jpg","img/object_images/pan01.jpg","img/object_images/hair_clips01.jpg","1","1","1","0","1","1","0.481790899997577","0.38996919998317","0.389748499990674","1","1","1","1","1","1","1","1","1"
"260013","img/object_images/hair_clips01.jpg","img/object_images/faucet01.jpg","img/object_images/glasses07.jpg","1","1","1","1","0","1","0.389748499990674","0.481790899997577","0.396501399984118","1","1","1","1","1","1","1","1","1"
"260013","img/object_images/glasses07.jpg","img/object_images/hair_clips01.jpg","img/object_images/jewelry09.jpg","1","1","1","1","1","1","0.396501399984118","0.389748499990674","0.424873999989359","1","1","1","1","1","1","1","1","1"
"260013","img/object_images/jewelry09.jpg","img/object_images/glasses07.jpg","img/object_images/gift_box04.jpg","1","1","1","1","1","0","0.424873999989359","0.396501399984118","0.4305369000067","1","1","1","1","1","1","1","1","1"
"260013","img/object_images/gift_box04.jpg","img/object_images/jewelry09.jpg","img/object_images/yo_yo01.jpg","1","1","1","0","1","0","0.4305369000067","0.424873999989359","0.448589800012996","1","1","1","1","1","1","1","1","1"
"260013","img/object_images/yo_yo01.jpg","img/object_images/gift_box04.jpg","img/object_images/glasses06.jpg","1","1","1","0","0","1","0.448589800012996","0.4305369000067","0.455057099985424","1","1","1","1","1","1","1","1","1"
"260013","img/object_images/glasses06.jpg","img/object_images/yo_yo01.jpg","img/object_images/handcuffs01.jpg","1","1","1","1","0","0","0.455057099985424","0.448589800012996","0.436277999979211","1","1","1","1","1","1","1","1","1"
"260013","img/object_images/handcuffs01.jpg","img/object_images/glasses06.jpg","img/object_images/Traffic Sign 01.jpg","1","1","1","0","1","0","0.436277999979211","0.455057099985424","0.448643499985337","1","1","1","1","1","1","1","1","1"
"260013","img/object_images/Traffic Sign 01.jpg","img/object_images/handcuffs01.jpg","img/object_images/blanket01.jpg","1","1","1","0","0","1","0.448643499985337","0.436277999979211","0.383802099997411","1","1","1","1","1","1","1","1","1"
"260013","img/object_images/blanket01.jpg","img/object_images/Traffic Sign 01.jpg","img/object_images/purse01.jpg","1","1","1","1","0","1","0.383802099997411","0.448643499985337","0.38144560001092","1","1","1","1","1","1","1","1","1"
"260013","img/object_images/purse01.jpg","img/object_images/blanket01.jpg","img/object_images/TrashCan02.jpg","1","1","1","1","1","1","0.38144560001092","0.383802099997411","0.347122000006493","1","1","1","1","1","1","1","1","1"
"260013","img/object_images/TrashCan02.jpg","img/object_images/purse01.jpg","img/object_images/tool07.jpg","1","1","1","1","1","0","0.347122000006493","0.38144560001092","0.436952499992913","1","1","1","1","1","1","1","1","1"
"260013","img/object_images/tool07.jpg","img/object_images/TrashCan02.jpg","img/object_images/exfoliater_brush01.jpg","1","1","1","0","1","0","0.436952499992913","0.347122000006493","0.397811599978013","1","1","1","1","1","1","1","1","1"
"260013","img/object_images/exfoliater_brush01.jpg","img/object_images/tool07.jpg","img/object_images/hole_puncher01.jpg","1","1","1","0","0","1","0.397811599978013","0.436952499992913","0.407957299990812","1","1","1","1","1","1","1","1","1"
"260013","img/object_images/hole_puncher01.jpg","img/object_images/exfoliater_brush01.jpg","img/object_images/basket02.jpg","1","1","0","1","0","0","0.407957299990812","0.397811599978013","0.422421499999473","1","1","1","1","1","1","1","1","2"
"260013","img/object_images/basket02.jpg","img/object_images/hole_puncher01.jpg","img/object_images/Pottery01.jpg","0","1","0","0","1","0","0.422421499999473","0.407957299990812","0.448708299983991","1","1","1","1","1","1","2","1","2"
"260013","img/object_images/Pottery01.jpg","img/object_images/basket02.jpg","img/object_images/tray01.jpg","0","0","1","0","0","1","0.448708299983991","0.422421499999473","0.409276799997315","1","1","1","1","1","1","2","2","1"
"260013","img/object_images/tray01.jpg","img/object_images/Pottery01.jpg","img/object_images/book01.jpg","1","0","1","1","0","1","0.409276799997315","0.448708299983991","0.434617499995511","1","1","1","1","1","1","1","2","1"
"260013","img/object_images/book01.jpg","img/object_images/tray01.jpg","img/object_images/colander01.jpg","1","1","1","1","1","0","0.434617499995511","0.409276799997315","0.491066999995383","1","1","1","1","1","1","1","1","1"
"260013","img/object_images/colander01.jpg","img/object_images/book01.jpg","img/object_images/cup03.jpg","1","1","1","0","1","1","0.491066999995383","0.434617499995511","0.422181900008582","1","1","1","1","1","1","1","1","1"
"260013","img/object_images/cup03.jpg","img/object_images/colander01.jpg","img/object_images/projector01.jpg","1","1","1","1","0","0","0.422181900008582","0.491066999995383","0.423904100025538","1","1","1","1","1","1","1","1","1"
"260013","img/object_images/projector01.jpg","img/object_images/cup03.jpg",NA,"1","1",NA,"0","1",NA,"0.423904100025538","0.422181900008582",NA,"1","1",NA,"1","1",NA,"1","1",NA
"260013","img/object_images/towel02.jpg",NA,"img/object_images/MetalWire01.jpg","1",NA,"1","1",NA,"0","0.42166960000759",NA,"0.411808600008953","1",NA,"1","1",NA,"1","1",NA,"1"
"260013","img/object_images/MetalWire01.jpg","img/object_images/towel02.jpg","img/object_images/helmet01.jpg","1","1","1","0","1","0","0.411808600008953","0.42166960000759","0.44298410002375","1","1","1","1","1","1","1","1","1"
"260013","img/object_images/helmet01.jpg","img/object_images/MetalWire01.jpg","img/object_images/frisbee01.jpg","1","1","1","0","0","1","0.44298410002375","0.411808600008953","0.455452299996978","1","1","1","1","1","1","1","1","1"
"260013","img/object_images/frisbee01.jpg","img/object_images/helmet01.jpg","img/object_images/jewel04.jpg","1","1","1","1","0","0","0.455452299996978","0.44298410002375","0.442501400015317","1","1","1","1","1","1","1","1","1"
"260013","img/object_images/jewel04.jpg","img/object_images/frisbee01.jpg","img/object_images/bird_house02.jpg","1","1","1","0","1","1","0.442501400015317","0.455452299996978","0.375646499975119","1","1","1","1","1","1","1","1","1"
"260013","img/object_images/bird_house02.jpg","img/object_images/jewel04.jpg","img/object_images/toy04.jpg","1","1","1","1","0","0","0.375646499975119","0.442501400015317","0.345594499987783","1","1","1","1","1","1","1","1","1"
"260013","img/object_images/toy04.jpg","img/object_images/bird_house02.jpg","img/object_images/bottle05.jpg","1","1","1","0","1","0","0.345594499987783","0.375646499975119","0.338389100012137","1","1","1","1","1","1","1","1","1"
"260013","img/object_images/bottle05.jpg","img/object_images/toy04.jpg","img/object_images/fridge03.jpg","1","1","0","0","0","0","0.338389100012137","0.345594499987783","0.33478569998988","1","1","1","1","1","1","1","1","2"
"260013","img/object_images/fridge03.jpg","img/object_images/bottle05.jpg","img/object_images/guitar02.jpg","0","1","1","0","0","0","0.33478569998988","0.338389100012137","0.415661600010935","1","1","1","1","1","1","2","1","1"
"260013","img/object_images/guitar02.jpg","img/object_images/fridge03.jpg","img/object_images/bow01.jpg","1","0","1","0","0","1","0.415661600010935","0.33478569998988","0.401856500015128","1","1","1","1","1","1","1","2","1"
"260013","img/object_images/bow01.jpg","img/object_images/guitar02.jpg","img/object_images/video_game07.jpg","1","1","1","1","0","1","0.401856500015128","0.415661600010935","0.390025200002128","1","1","1","1","1","1","1","1","1"
"260013","img/object_images/video_game07.jpg","img/object_images/bow01.jpg","img/object_images/acoustic_capo01.jpg","1","1","1","1","1","1","0.390025200002128","0.401856500015128","0.379829300014535","1","1","1","1","1","1","1","1","1"
"260013","img/object_images/acoustic_capo01.jpg","img/object_images/video_game07.jpg","img/object_images/watch01.jpg","1","1","1","1","1","0","0.379829300014535","0.390025200002128","0.443357000011019","1","1","1","1","1","1","1","1","1"
"260013","img/object_images/watch01.jpg","img/object_images/acoustic_capo01.jpg","img/object_images/Stool01.jpg","1","1","0","0","1","0","0.443357000011019","0.379829300014535",NA,"1","1","0","1","1","0","1","1","0"
"260013","img/object_images/Stool01.jpg","img/object_images/watch01.jpg","img/object_images/gauze01.jpg","0","1","1","0","0","0",NA,"0.443357000011019","0.546403599990299","0","1","1","0","1","1","0","1","1"
"260013","img/object_images/gauze01.jpg","img/object_images/Stool01.jpg","img/object_images/Ring02.jpg","1","0","1","0","0","0","0.546403599990299",NA,"0.385438900004374","1","0","1","1","0","1","1","0","1"
"260013","img/object_images/Ring02.jpg","img/object_images/gauze01.jpg","img/object_images/mirror01.jpg","1","1","1","0","0","1","0.385438900004374","0.546403599990299","0.39678469998762","1","1","1","1","1","1","1","1","1"
"260013","img/object_images/mirror01.jpg","img/object_images/Ring02.jpg","img/object_images/pot01 (1).jpg","1","1","1","1","0","0","0.39678469998762","0.385438900004374","0.448527100001229","1","1","1","1","1","1","1","1","1"
"260013","img/object_images/pot01 (1).jpg","img/object_images/mirror01.jpg","img/object_images/dart01.jpg","1","1","1","0","1","0","0.448527100001229","0.39678469998762","0.416247599991038","1","1","1","1","1","1","1","1","1"
"260013","img/object_images/dart01.jpg","img/object_images/pot01 (1).jpg","img/object_images/tool09.jpg","1","1","1","0","0","1","0.416247599991038","0.448527100001229","0.364123799983645","1","1","1","1","1","1","1","1","1"
"260013","img/object_images/tool09.jpg","img/object_images/dart01.jpg","img/object_images/shovel03.jpg","1","1","1","1","0","1","0.364123799983645","0.416247599991038","0.344275199982803","1","1","1","1","1","1","1","1","1"
"260013","img/object_images/shovel03.jpg","img/object_images/tool09.jpg","img/object_images/ornament01.jpg","1","1","1","1","1","1","0.344275199982803","0.364123799983645","0.36362749998807","1","1","1","1","1","1","1","1","1"
"260013","img/object_images/ornament01.jpg","img/object_images/shovel03.jpg","img/object_images/crown02.jpg","1","1","1","1","1","1","0.36362749998807","0.344275199982803","0.437717099994188","1","1","1","1","1","1","1","1","1"
"260013","img/object_images/crown02.jpg","img/object_images/ornament01.jpg","img/object_images/outlet01.jpg","1","1","1","1","1","0","0.437717099994188","0.36362749998807","0.42199149998487","1","1","1","1","1","1","1","1","1"
"260013","img/object_images/outlet01.jpg","img/object_images/crown02.jpg","img/object_images/stapler.jpg","1","1","1","0","1","1","0.42199149998487","0.437717099994188","0.424905099993339","1","1","1","1","1","1","1","1","1"
"260013","img/object_images/stapler.jpg","img/object_images/outlet01.jpg","img/object_images/judge_gavel01.jpg","1","1","1","1","0","1","0.424905099993339","0.42199149998487","0.409045900014462","1","1","1","1","1","1","1","1","1"
"260013","img/object_images/judge_gavel01.jpg","img/object_images/stapler.jpg","img/object_images/Vacuum01.jpg","1","1","1","1","1","0","0.409045900014462","0.424905099993339","0.415194100001827","1","1","1","1","1","1","1","1","1"
"260013","img/object_images/Vacuum01.jpg","img/object_images/judge_gavel01.jpg","img/object_images/Tin01.jpg","1","1","1","0","1","1","0.415194100001827","0.409045900014462","0.373995500005549","1","1","1","1","1","1","1","1","1"
"260013","img/object_images/Tin01.jpg","img/object_images/Vacuum01.jpg","img/object_images/tool02.jpg","1","1","1","1","0","1","0.373995500005549","0.415194100001827","0.351242500008084","1","1","1","1","1","1","1","1","1"
"260013","img/object_images/tool02.jpg","img/object_images/Tin01.jpg","img/object_images/sink01.jpg","1","1","1","1","1","0","0.351242500008084","0.373995500005549","0.372811499983072","1","1","1","1","1","1","1","1","1"
"260013","img/object_images/sink01.jpg","img/object_images/tool02.jpg","img/object_images/toy03.jpg","1","1","1","0","1","1","0.372811499983072","0.351242500008084","0.386367600003723","1","1","1","1","1","1","1","1","1"
"260013","img/object_images/toy03.jpg","img/object_images/sink01.jpg",NA,"1","1",NA,"1","0",NA,"0.386367600003723","0.372811499983072",NA,"1","1",NA,"1","1",NA,"1","1",NA
"260013","img/object_images/matches02.jpg",NA,"img/object_images/camera03.jpg","0",NA,"1","0",NA,"0","0.336317799985409",NA,"0.410055200016359","1",NA,"1","1",NA,"1","2",NA,"1"
"260013","img/object_images/camera03.jpg","img/object_images/matches02.jpg","img/object_images/paper_cup02.jpg","1","0","1","0","0","1","0.410055200016359","0.336317799985409","0.399739399988903","1","1","1","1","1","1","1","2","1"
"260013","img/object_images/paper_cup02.jpg","img/object_images/camera03.jpg","img/object_images/keyboard02.jpg","1","1","1","1","0","1","0.399739399988903","0.410055200016359","0.403658100025496","1","1","1","1","1","1","1","1","1"
"260013","img/object_images/keyboard02.jpg","img/object_images/paper_cup02.jpg","img/object_images/backpack01.jpg","1","1","1","1","1","0","0.403658100025496","0.399739399988903","0.342011000000639","1","1","1","1","1","1","1","1","1"
"260013","img/object_images/backpack01.jpg","img/object_images/keyboard02.jpg","img/object_images/kite01.jpg","1","1","1","0","1","1","0.342011000000639","0.403658100025496","0.368326900003012","1","1","1","1","1","1","1","1","1"
"260013","img/object_images/kite01.jpg","img/object_images/backpack01.jpg","img/object_images/toy08.jpg","1","1","1","1","0","0","0.368326900003012","0.342011000000639","0.474635999999009","1","1","1","1","1","1","1","1","1"
"260013","img/object_images/toy08.jpg","img/object_images/kite01.jpg","img/object_images/remote_controller01.jpg","1","1","1","0","1","1","0.474635999999009","0.368326900003012","0.415664100000868","1","1","1","1","1","1","1","1","1"
"260013","img/object_images/remote_controller01.jpg","img/object_images/toy08.jpg","img/object_images/flashlight03.jpg","1","1","1","1","0","0","0.415664100000868","0.474635999999009","0.464094800001476","1","1","1","1","1","1","1","1","1"
"260013","img/object_images/flashlight03.jpg","img/object_images/remote_controller01.jpg","img/object_images/phone02.jpg","1","1","1","0","1","1","0.464094800001476","0.415664100000868","0.36930050002411","1","1","1","1","1","1","1","1","1"
"260013","img/object_images/phone02.jpg","img/object_images/flashlight03.jpg","img/object_images/mail_box01.jpg","1","1","1","1","0","0","0.36930050002411","0.464094800001476","0.530757400003495","1","1","1","1","1","1","1","1","1"
"260013","img/object_images/mail_box01.jpg","img/object_images/phone02.jpg","img/object_images/stereo02.jpg","1","1","1","0","1","0","0.530757400003495","0.36930050002411","0.509770800010301","1","1","1","1","1","1","1","1","1"
"260013","img/object_images/stereo02.jpg","img/object_images/mail_box01.jpg","img/object_images/sponge03.jpg","1","1","1","0","0","1","0.509770800010301","0.530757400003495","0.38735929998802","1","1","1","1","1","1","1","1","1"
"260013","img/object_images/sponge03.jpg","img/object_images/stereo02.jpg","img/object_images/hand_grip_exerciser01.jpg","1","1","1","1","0","0","0.38735929998802","0.509770800010301","0.436112700001104","1","1","1","1","1","1","1","1","1"
"260013","img/object_images/hand_grip_exerciser01.jpg","img/object_images/sponge03.jpg","img/object_images/knit03.jpg","1","1","1","0","1","1","0.436112700001104","0.38735929998802","0.459692400007043","1","1","1","1","1","1","1","1","1"
"260013","img/object_images/knit03.jpg","img/object_images/hand_grip_exerciser01.jpg","img/object_images/remover01.jpg","1","1","1","1","0","1","0.459692400007043","0.436112700001104","0.528906699997606","1","1","1","1","1","1","1","1","1"
"260013","img/object_images/remover01.jpg","img/object_images/knit03.jpg","img/object_images/basket04.jpg","1","1","1","1","1","1","0.528906699997606","0.459692400007043","0.424892200011527","1","1","1","1","1","1","1","1","1"
"260013","img/object_images/basket04.jpg","img/object_images/remover01.jpg","img/object_images/blender02.jpg","1","1","1","1","1","1","0.424892200011527","0.528906699997606","0.421065999980783","1","1","1","1","1","1","1","1","1"
"260013","img/object_images/blender02.jpg","img/object_images/basket04.jpg","img/object_images/tool18.jpg","1","1","1","1","1","0","0.421065999980783","0.424892200011527","0.458134400018025","1","1","1","1","1","1","1","1","1"
"260013","img/object_images/tool18.jpg","img/object_images/blender02.jpg","img/object_images/jacket04.jpg","1","1","1","0","1","0","0.458134400018025","0.421065999980783","0.601059400010854","1","1","1","1","1","1","1","1","1"
"260013","img/object_images/jacket04.jpg","img/object_images/tool18.jpg","img/object_images/shower_head01.jpg","1","1","1","0","0","1","0.601059400010854","0.458134400018025","0.406858900008956","1","1","1","1","1","1","1","1","1"
"260013","img/object_images/shower_head01.jpg","img/object_images/jacket04.jpg","img/object_images/boat04.jpg","1","1","1","1","0","0","0.406858900008956","0.601059400010854","0.421308400022099","1","1","1","1","1","1","1","1","1"
"260013","img/object_images/boat04.jpg","img/object_images/shower_head01.jpg","img/object_images/video_game01.jpg","1","1","1","0","1","1","0.421308400022099","0.406858900008956","0.390666499995859","1","1","1","1","1","1","1","1","1"
"260013","img/object_images/video_game01.jpg","img/object_images/boat04.jpg","img/object_images/Statue01.jpg","1","1","1","1","0","1","0.390666499995859","0.421308400022099","0.394745700003114","1","1","1","1","1","1","1","1","1"
"260013","img/object_images/Statue01.jpg","img/object_images/video_game01.jpg","img/object_images/knit04.jpg","1","1","1","1","1","1","0.394745700003114","0.390666499995859","0.418540300015593","1","1","1","1","1","1","1","1","1"
"260013","img/object_images/knit04.jpg","img/object_images/Statue01.jpg","img/object_images/bottle07.jpg","1","1","1","1","1","1","0.418540300015593","0.394745700003114","0.401652100001229","1","1","1","1","1","1","1","1","1"
"260013","img/object_images/bottle07.jpg","img/object_images/knit04.jpg","img/object_images/hoverboard01.jpg","1","1","1","1","1","0","0.401652100001229","0.418540300015593","0.490143100003479","1","1","1","1","1","1","1","1","1"
"260013","img/object_images/hoverboard01.jpg","img/object_images/bottle07.jpg","img/object_images/car01.jpg","1","1","1","0","1","1","0.490143100003479","0.401652100001229","0.578524000011384","1","1","1","1","1","1","1","1","1"
"260013","img/object_images/car01.jpg","img/object_images/hoverboard01.jpg","img/object_images/gloves02.jpg","1","1","1","1","0","0","0.578524000011384","0.490143100003479","0.498800000001211","1","1","1","1","1","1","1","1","1"
"260013","img/object_images/gloves02.jpg","img/object_images/car01.jpg","img/object_images/dresser03.jpg","1","1","1","0","1","0","0.498800000001211","0.578524000011384","0.374425299989525","1","1","1","1","1","1","1","1","1"
"260013","img/object_images/dresser03.jpg","img/object_images/gloves02.jpg","img/object_images/knife02.jpg","1","1","1","0","0","0","0.374425299989525","0.498800000001211","0.395586300001014","1","1","1","1","1","1","1","1","1"
"260013","img/object_images/knife02.jpg","img/object_images/dresser03.jpg","img/object_images/curtain02.jpg","1","1","1","0","0","0","0.395586300001014","0.374425299989525","0.410678300017025","1","1","1","1","1","1","1","1","1"
"260013","img/object_images/curtain02.jpg","img/object_images/knife02.jpg",NA,"1","1",NA,"0","0",NA,"0.410678300017025","0.395586300001014",NA,"1","1",NA,"1","1",NA,"1","1",NA
"260013","img/object_images/airfryer02.jpg",NA,"img/object_images/box03.jpg","1",NA,"1","1",NA,"0","0.413258200016571",NA,"0.438850000005914","1",NA,"1","1",NA,"1","1",NA,"1"
"260013","img/object_images/box03.jpg","img/object_images/airfryer02.jpg","img/object_images/couch01.jpg","1","1","1","0","1","0","0.438850000005914","0.413258200016571","0.341570999997202","1","1","1","1","1","1","1","1","1"
"260013","img/object_images/couch01.jpg","img/object_images/box03.jpg","img/object_images/bell03.jpg","1","1","1","0","0","0","0.341570999997202","0.438850000005914","0.446754999982659","1","1","1","1","1","1","1","1","1"
"260013","img/object_images/bell03.jpg","img/object_images/couch01.jpg","img/object_images/toy01.jpg","1","1","1","0","0","1","0.446754999982659","0.341570999997202","0.391383199981647","1","1","1","1","1","1","1","1","1"
"260013","img/object_images/toy01.jpg","img/object_images/bell03.jpg","img/object_images/toothbrush01.jpg","1","1","1","1","0","0","0.391383199981647","0.446754999982659","0.424937100004172","1","1","1","1","1","1","1","1","1"
"260013","img/object_images/toothbrush01.jpg","img/object_images/toy01.jpg","img/object_images/bag_pipes01.jpg","1","1","1","0","1","1","0.424937100004172","0.391383199981647","0.323587899998529","1","1","1","1","1","1","1","1","1"
"260013","img/object_images/bag_pipes01.jpg","img/object_images/toothbrush01.jpg","img/object_images/computer_mouse01.jpg","1","1","1","1","0","1","0.323587899998529","0.424937100004172","0.36742470000172","1","1","1","1","1","1","1","1","1"
"260013","img/object_images/computer_mouse01.jpg","img/object_images/bag_pipes01.jpg","img/object_images/drone01.jpg","1","1","1","1","1","1","0.36742470000172","0.323587899998529","0.380649999977322","1","1","1","1","1","1","1","1","1"
"260013","img/object_images/drone01.jpg","img/object_images/computer_mouse01.jpg","img/object_images/book02.jpg","1","1","1","1","1","1","0.380649999977322","0.36742470000172","0.364949599985266","1","1","1","1","1","1","1","1","1"
"260013","img/object_images/book02.jpg","img/object_images/drone01.jpg","img/object_images/chair06.jpg","1","1","1","1","1","0","0.364949599985266","0.380649999977322","0.466615200013621","1","1","1","1","1","1","1","1","1"
"260013","img/object_images/chair06.jpg","img/object_images/book02.jpg","img/object_images/clip04.jpg","1","1","1","0","1","1","0.466615200013621","0.364949599985266","0.3859554999799","1","1","1","1","1","1","1","1","1"
"260013","img/object_images/clip04.jpg","img/object_images/chair06.jpg","img/object_images/computer_mouse02.jpg","1","1","1","1","0","0","0.3859554999799","0.466615200013621","0.348805199988419","1","1","1","1","1","1","1","1","1"
"260013","img/object_images/computer_mouse02.jpg","img/object_images/clip04.jpg","img/object_images/shoes12.jpg","1","1","0","0","1","1","0.348805199988419","0.3859554999799","0.624452200019732","1","1","1","1","1","1","1","1","1"
"260013","img/object_images/shoes12.jpg","img/object_images/computer_mouse02.jpg","img/object_images/Violin01.jpg","0","1","1","1","0","0","0.624452200019732","0.348805199988419","0.378733099991223","1","1","1","1","1","1","1","1","1"
"260013","img/object_images/Violin01.jpg","img/object_images/shoes12.jpg","img/object_images/tool06.jpg","1","0","1","0","1","0","0.378733099991223","0.624452200019732","0.415879800013499","1","1","1","1","1","1","1","1","1"
"260013","img/object_images/tool06.jpg","img/object_images/Violin01.jpg","img/object_images/video_game03.jpg","1","1","1","0","0","1","0.415879800013499","0.378733099991223","0.403129200014519","1","1","1","1","1","1","1","1","1"
"260013","img/object_images/video_game03.jpg","img/object_images/tool06.jpg","img/object_images/blender01.jpg","1","1","1","1","0","0","0.403129200014519","0.415879800013499","0.452989999990678","1","1","1","1","1","1","1","1","1"
"260013","img/object_images/blender01.jpg","img/object_images/video_game03.jpg","img/object_images/Trowel01.jpg","1","1","1","0","1","0","0.452989999990678","0.403129200014519","0.493944100016961","1","1","1","1","1","1","1","1","1"
"260013","img/object_images/Trowel01.jpg","img/object_images/blender01.jpg","img/object_images/mail_box02.jpg","1","1","1","0","0","1","0.493944100016961","0.452989999990678","0.3356379000179","1","1","1","1","1","1","1","1","1"
"260013","img/object_images/mail_box02.jpg","img/object_images/Trowel01.jpg","img/object_images/chain01.jpg","1","1","0","1","0","0","0.3356379000179","0.493944100016961","0.304567399987718","1","1","1","1","1","1","1","1","2"
"260013","img/object_images/chain01.jpg","img/object_images/mail_box02.jpg","img/object_images/fork02.jpg","0","1","1","0","1","0","0.304567399987718","0.3356379000179","0.383244000026025","1","1","1","1","1","1","2","1","1"
"260013","img/object_images/fork02.jpg","img/object_images/chain01.jpg","img/object_images/hair_brush01.jpg","1","0","1","0","0","1","0.383244000026025","0.304567399987718","0.339289700001245","1","1","1","1","1","1","1","2","1"
"260013","img/object_images/hair_brush01.jpg","img/object_images/fork02.jpg","img/object_images/scarf01.jpg","1","1","1","1","0","1","0.339289700001245","0.383244000026025","0.345170900021913","1","1","1","1","1","1","1","1","1"
"260013","img/object_images/scarf01.jpg","img/object_images/hair_brush01.jpg","img/object_images/tripod01.jpg","1","1","1","1","1","1","0.345170900021913","0.339289700001245","0.388287400011904","1","1","1","1","1","1","1","1","1"
"260013","img/object_images/tripod01.jpg","img/object_images/scarf01.jpg","img/object_images/skate_board01.jpg","1","1","1","1","1","0","0.388287400011904","0.345170900021913","0.47167550001177","1","1","1","1","1","1","1","1","1"
"260013","img/object_images/skate_board01.jpg","img/object_images/tripod01.jpg","img/object_images/floss02.jpg","1","1","1","0","1","1","0.47167550001177","0.388287400011904","0.347616799990647","1","1","1","1","1","1","1","1","1"
"260013","img/object_images/floss02.jpg","img/object_images/skate_board01.jpg","img/object_images/egg_slicer01.jpg","1","1","1","1","0","1","0.347616799990647","0.47167550001177","0.382423000002746","1","1","1","1","1","1","1","1","1"
"260013","img/object_images/egg_slicer01.jpg","img/object_images/floss02.jpg","img/object_images/soap03.jpg","1","1","1","1","1","0","0.382423000002746","0.347616799990647","0.442150899994886","1","1","1","1","1","1","1","1","1"
"260013","img/object_images/soap03.jpg","img/object_images/egg_slicer01.jpg","img/object_images/rock02.jpg","1","1","1","0","1","0","0.442150899994886","0.382423000002746","0.415379299985943","1","1","1","1","1","1","1","1","1"
"260013","img/object_images/rock02.jpg","img/object_images/soap03.jpg","img/object_images/pitcher09.jpg","1","1","1","0","0","1","0.415379299985943","0.442150899994886","0.35862189999898","1","1","1","1","1","1","1","1","1"
"260013","img/object_images/pitcher09.jpg","img/object_images/rock02.jpg","img/object_images/pen01.jpg","1","1","1","1","0","0","0.35862189999898","0.415379299985943","0.366319399996428","1","1","1","1","1","1","1","1","1"
"260013","img/object_images/pen01.jpg","img/object_images/pitcher09.jpg",NA,"1","1",NA,"0","1",NA,"0.366319399996428","0.35862189999898",NA,"1","1",NA,"1","1",NA,"1","1",NA
