"participant_id","current_trial_object","pre_trial_object","post_trial_object","current_trial_accuracy","pre_trial_accuracy","post_trial_accuracy","current_trial_congruency","pre_trial_congruency","post_trial_congruency","current_trial_rt","pre_trial_rt","post_trial_rt","current_trial_responded","pre_trial_responded","post_trial_responded","current_trial_legitResponse","pre_trial_legitResponse","post_trial_legitResponse","current_trial_resp_nums","pre_trial_resp_nums","post_trial_resp_nums"
"260011","img/object_images/chair05.jpg",NA,"img/object_images/pen03.jpg","0",NA,"1","0",NA,"0","0.476526499987813",NA,"0.565578399990045","1",NA,"1","1",NA,"1","1",NA,"1"
"260011","img/object_images/pen03.jpg","img/object_images/chair05.jpg","img/object_images/hammer03.jpg","1","0","1","0","0","1","0.565578399990045","0.476526499987813","0.389850299994578","1","1","1","1","1","1","1","1","1"
"260011","img/object_images/hammer03.jpg","img/object_images/pen03.jpg","img/object_images/motorcycle01.jpg","1","1","1","1","0","1","0.389850299994578","0.565578399990045","0.334357899992028","1","1","1","1","1","1","1","1","1"
"260011","img/object_images/motorcycle01.jpg","img/object_images/hammer03.jpg","img/object_images/tv02.jpg","1","1","1","1","1","0","0.334357899992028","0.389850299994578","0.340727299990249","1","1","1","1","1","1","1","1","1"
"260011","img/object_images/tv02.jpg","img/object_images/motorcycle01.jpg","img/object_images/usb02.jpg","1","1","1","0","1","0","0.340727299990249","0.334357899992028","0.348960399991483","1","1","1","1","1","1","1","1","1"
"260011","img/object_images/usb02.jpg","img/object_images/tv02.jpg","img/object_images/pitcher01.jpg","1","1","1","0","0","0","0.348960399991483","0.340727299990249","0.514426199995796","1","1","1","1","1","1","1","1","1"
"260011","img/object_images/pitcher01.jpg","img/object_images/usb02.jpg","img/object_images/cellphone01.jpg","1","1","1","0","0","1","0.514426199995796","0.348960399991483","0.317884599993704","1","1","1","1","1","1","1","1","1"
"260011","img/object_images/cellphone01.jpg","img/object_images/pitcher01.jpg","img/object_images/ear_bud01.jpg","1","1","1","1","0","1","0.317884599993704","0.514426199995796","0.295538199992734","1","1","1","1","1","1","1","1","1"
"260011","img/object_images/ear_bud01.jpg","img/object_images/cellphone01.jpg","img/object_images/compass01.jpg","1","1","1","1","1","1","0.295538199992734","0.317884599993704","0.414195499994094","1","1","1","1","1","1","1","1","1"
"260011","img/object_images/compass01.jpg","img/object_images/ear_bud01.jpg","img/object_images/microscope01.jpg","1","1","0","1","1","0","0.414195499994094","0.295538199992734","0.336502899990592","1","1","1","1","1","1","1","1","1"
"260011","img/object_images/microscope01.jpg","img/object_images/compass01.jpg","img/object_images/pillows01.jpg","0","1","1","0","1","1","0.336502899990592","0.414195499994094","0.40268069999729","1","1","1","1","1","1","1","1","1"
"260011","img/object_images/pillows01.jpg","img/object_images/microscope01.jpg","img/object_images/bell02.jpg","1","0","0","1","0","0","0.40268069999729","0.336502899990592","0.438893599995936","1","1","1","1","1","1","1","1","2"
"260011","img/object_images/bell02.jpg","img/object_images/pillows01.jpg","img/object_images/paint_brush04.jpg","0","1","1","0","1","0","0.438893599995936","0.40268069999729","0.372398699990299","1","1","1","1","1","1","2","1","1"
"260011","img/object_images/paint_brush04.jpg","img/object_images/bell02.jpg","img/object_images/note_book01.jpg","1","0","0","0","0","0","0.372398699990299","0.438893599995936","0.404292999992322","1","1","1","1","1","1","1","2","1"
"260011","img/object_images/note_book01.jpg","img/object_images/paint_brush04.jpg","img/object_images/clip03.jpg","0","1","1","0","0","0","0.404292999992322","0.372398699990299","0.459240199998021","1","1","1","1","1","1","1","1","1"
"260011","img/object_images/clip03.jpg","img/object_images/note_book01.jpg","img/object_images/knife04.jpg","1","0","1","0","0","1","0.459240199998021","0.404292999992322","0.380235899996478","1","1","1","1","1","1","1","1","1"
"260011","img/object_images/knife04.jpg","img/object_images/clip03.jpg","img/object_images/book03.jpg","1","1","1","1","0","1","0.380235899996478","0.459240199998021","0.379271699988749","1","1","1","1","1","1","1","1","1"
"260011","img/object_images/book03.jpg","img/object_images/knife04.jpg","img/object_images/bottle01.jpg","1","1","1","1","1","0","0.379271699988749","0.380235899996478","0.561792599997716","1","1","1","1","1","1","1","1","1"
"260011","img/object_images/bottle01.jpg","img/object_images/book03.jpg","img/object_images/lid01.jpg","1","1","1","0","1","1","0.561792599997716","0.379271699988749","0.386983699994744","1","1","1","1","1","1","1","1","1"
"260011","img/object_images/lid01.jpg","img/object_images/bottle01.jpg","img/object_images/retainer01.jpg","1","1","0","1","0","0","0.386983699994744","0.561792599997716","0.362199499999406","1","1","1","1","1","1","1","1","1"
"260011","img/object_images/retainer01.jpg","img/object_images/lid01.jpg","img/object_images/tennis_racket02.jpg","0","1","1","0","1","1","0.362199499999406","0.386983699994744","0.823253499991552","1","1","1","1","1","1","1","1","1"
"260011","img/object_images/tennis_racket02.jpg","img/object_images/retainer01.jpg","img/object_images/floppy_disk02.jpg","1","0","1","1","0","0","0.823253499991552","0.362199499999406","0.485408299988194","1","1","1","1","1","1","1","1","1"
"260011","img/object_images/floppy_disk02.jpg","img/object_images/tennis_racket02.jpg","img/object_images/Staples01.jpg","1","1","1","0","1","1","0.485408299988194","0.823253499991552","0.449662499988335","1","1","1","1","1","1","1","1","1"
"260011","img/object_images/Staples01.jpg","img/object_images/floppy_disk02.jpg","img/object_images/wire02.jpg","1","1","1","1","0","1","0.449662499988335","0.485408299988194","0.416834399999061","1","1","1","1","1","1","1","1","1"
"260011","img/object_images/wire02.jpg","img/object_images/Staples01.jpg","img/object_images/Thermometer01.jpg","1","1","1","1","1","0","0.416834399999061","0.449662499988335","0.59095229999366","1","1","1","1","1","1","1","1","1"
"260011","img/object_images/Thermometer01.jpg","img/object_images/wire02.jpg","img/object_images/clock02.jpg","1","1","1","0","1","0","0.59095229999366","0.416834399999061","0.374330299993744","1","1","1","1","1","1","1","1","1"
"260011","img/object_images/clock02.jpg","img/object_images/Thermometer01.jpg","img/object_images/floppy_disk03.jpg","1","1","1","0","0","1","0.374330299993744","0.59095229999366","0.406661499997426","1","1","1","1","1","1","1","1","1"
"260011","img/object_images/floppy_disk03.jpg","img/object_images/clock02.jpg","img/object_images/knit05.jpg","1","1","1","1","0","1","0.406661499997426","0.374330299993744","0.517243199996301","1","1","1","1","1","1","1","1","1"
"260011","img/object_images/knit05.jpg","img/object_images/floppy_disk03.jpg","img/object_images/chess_piece02.jpg","1","1","1","1","1","1","0.517243199996301","0.406661499997426","0.416183699999237","1","1","1","1","1","1","1","1","1"
"260011","img/object_images/chess_piece02.jpg","img/object_images/knit05.jpg","img/object_images/Oven01.jpg","1","1","1","1","1","1","0.416183699999237","0.517243199996301","0.528301999991527","1","1","1","1","1","1","1","1","1"
"260011","img/object_images/Oven01.jpg","img/object_images/chess_piece02.jpg","img/object_images/crutches02.jpg","1","1","1","1","1","0","0.528301999991527","0.416183699999237","0.522418199994718","1","1","1","1","1","1","1","1","1"
"260011","img/object_images/crutches02.jpg","img/object_images/Oven01.jpg",NA,"1","1",NA,"0","1",NA,"0.522418199994718","0.528301999991527",NA,"1","1",NA,"1","1",NA,"1","1",NA
"260011","img/object_images/computer_mouse01.jpg",NA,"img/object_images/pitcher09.jpg","1",NA,"1","1",NA,"1","0.526480899992748",NA,"0.520922699994117","1",NA,"1","1",NA,"1","1",NA,"1"
"260011","img/object_images/pitcher09.jpg","img/object_images/computer_mouse01.jpg","img/object_images/bag_pipes01.jpg","1","1","1","1","1","1","0.520922699994117","0.526480899992748","0.594427199997881","1","1","1","1","1","1","1","1","1"
"260011","img/object_images/bag_pipes01.jpg","img/object_images/pitcher09.jpg","img/object_images/computer_mouse02.jpg","1","1","1","1","1","0","0.594427199997881","0.520922699994117","0.464358499993978","1","1","1","1","1","1","1","1","1"
"260011","img/object_images/computer_mouse02.jpg","img/object_images/bag_pipes01.jpg","img/object_images/bell03.jpg","1","1","1","0","1","0","0.464358499993978","0.594427199997881","0.549690099993313","1","1","1","1","1","1","1","1","1"
"260011","img/object_images/bell03.jpg","img/object_images/computer_mouse02.jpg","img/object_images/Violin01.jpg","1","1","1","0","0","0","0.549690099993313","0.464358499993978","0.507918699993752","1","1","1","1","1","1","1","1","1"
"260011","img/object_images/Violin01.jpg","img/object_images/bell03.jpg","img/object_images/chain01.jpg","1","1","1","0","0","0","0.507918699993752","0.549690099993313","0.562442699992971","1","1","1","1","1","1","1","1","1"
"260011","img/object_images/chain01.jpg","img/object_images/Violin01.jpg","img/object_images/fork02.jpg","1","1","1","0","0","0","0.562442699992971","0.507918699993752","0.473295399991912","1","1","1","1","1","1","1","1","1"
"260011","img/object_images/fork02.jpg","img/object_images/chain01.jpg","img/object_images/egg_slicer01.jpg","1","1","1","0","0","1","0.473295399991912","0.562442699992971","0.49434009999095","1","1","1","1","1","1","1","1","1"
"260011","img/object_images/egg_slicer01.jpg","img/object_images/fork02.jpg","img/object_images/book02.jpg","1","1","1","1","0","1","0.49434009999095","0.473295399991912","0.546172099988325","1","1","1","1","1","1","1","1","1"
"260011","img/object_images/book02.jpg","img/object_images/egg_slicer01.jpg","img/object_images/shoes12.jpg","1","1","1","1","1","1","0.546172099988325","0.49434009999095","0.442683299996133","1","1","1","1","1","1","1","1","1"
"260011","img/object_images/shoes12.jpg","img/object_images/book02.jpg","img/object_images/toothbrush01.jpg","1","1","1","1","1","0","0.442683299996133","0.546172099988325","0.52377369999158","1","1","1","1","1","1","1","1","1"
"260011","img/object_images/toothbrush01.jpg","img/object_images/shoes12.jpg","img/object_images/scarf01.jpg","1","1","1","0","1","1","0.52377369999158","0.442683299996133","0.437127699995472","1","1","1","1","1","1","1","1","1"
"260011","img/object_images/scarf01.jpg","img/object_images/toothbrush01.jpg","img/object_images/Trowel01.jpg","1","1","1","1","0","0","0.437127699995472","0.52377369999158","0.574252899990825","1","1","1","1","1","1","1","1","1"
"260011","img/object_images/Trowel01.jpg","img/object_images/scarf01.jpg","img/object_images/hair_brush01.jpg","1","1","1","0","1","1","0.574252899990825","0.437127699995472","0.519685999999638","1","1","1","1","1","1","1","1","1"
"260011","img/object_images/hair_brush01.jpg","img/object_images/Trowel01.jpg","img/object_images/couch01.jpg","1","1","1","1","0","0","0.519685999999638","0.574252899990825","0.558656599991082","1","1","1","1","1","1","1","1","1"
"260011","img/object_images/couch01.jpg","img/object_images/hair_brush01.jpg","img/object_images/rock02.jpg","1","1","1","0","1","0","0.558656599991082","0.519685999999638","0.570944799990684","1","1","1","1","1","1","1","1","1"
"260011","img/object_images/rock02.jpg","img/object_images/couch01.jpg","img/object_images/box03.jpg","1","1","1","0","0","0","0.570944799990684","0.558656599991082","0.573575399990659","1","1","1","1","1","1","1","1","1"
"260011","img/object_images/box03.jpg","img/object_images/rock02.jpg","img/object_images/skate_board01.jpg","1","1","1","0","0","0","0.573575399990659","0.570944799990684","0.414723299996695","1","1","1","1","1","1","1","1","1"
"260011","img/object_images/skate_board01.jpg","img/object_images/box03.jpg","img/object_images/video_game03.jpg","1","1","1","0","0","1","0.414723299996695","0.573575399990659","0.492038299991691","1","1","1","1","1","1","1","1","1"
"260011","img/object_images/video_game03.jpg","img/object_images/skate_board01.jpg","img/object_images/toy01.jpg","1","1","1","1","0","1","0.492038299991691","0.414723299996695","0.437444099989079","1","1","1","1","1","1","1","1","1"
"260011","img/object_images/toy01.jpg","img/object_images/video_game03.jpg","img/object_images/tool06.jpg","1","1","1","1","1","0","0.437444099989079","0.492038299991691","0.451868099997228","1","1","1","1","1","1","1","1","1"
"260011","img/object_images/tool06.jpg","img/object_images/toy01.jpg","img/object_images/chair06.jpg","1","1","1","0","1","0","0.451868099997228","0.437444099989079","0.451819799993245","1","1","1","1","1","1","1","1","1"
"260011","img/object_images/chair06.jpg","img/object_images/tool06.jpg","img/object_images/pen01.jpg","1","1","1","0","0","0","0.451819799993245","0.451868099997228","0.53192929999932","1","1","1","1","1","1","1","1","1"
"260011","img/object_images/pen01.jpg","img/object_images/chair06.jpg","img/object_images/blender01.jpg","1","1","1","0","0","0","0.53192929999932","0.451819799993245","0.497914599996875","1","1","1","1","1","1","1","1","1"
"260011","img/object_images/blender01.jpg","img/object_images/pen01.jpg","img/object_images/airfryer02.jpg","1","1","1","0","0","1","0.497914599996875","0.53192929999932","0.440491599991219","1","1","1","1","1","1","1","1","1"
"260011","img/object_images/airfryer02.jpg","img/object_images/blender01.jpg","img/object_images/mail_box02.jpg","1","1","1","1","0","1","0.440491599991219","0.497914599996875","0.394066599998041","1","1","1","1","1","1","1","1","1"
"260011","img/object_images/mail_box02.jpg","img/object_images/airfryer02.jpg","img/object_images/drone01.jpg","1","1","1","1","1","1","0.394066599998041","0.440491599991219","0.408766099993954","1","1","1","1","1","1","1","1","1"
"260011","img/object_images/drone01.jpg","img/object_images/mail_box02.jpg","img/object_images/tripod01.jpg","1","1","1","1","1","1","0.408766099993954","0.394066599998041","0.46508019999601","1","1","1","1","1","1","1","1","1"
"260011","img/object_images/tripod01.jpg","img/object_images/drone01.jpg","img/object_images/soap03.jpg","1","1","1","1","1","0","0.46508019999601","0.408766099993954","0.481703899989952","1","1","1","1","1","1","1","1","1"
"260011","img/object_images/soap03.jpg","img/object_images/tripod01.jpg","img/object_images/floss02.jpg","1","1","1","0","1","1","0.481703899989952","0.46508019999601","0.46396289999393","1","1","1","1","1","1","1","1","1"
"260011","img/object_images/floss02.jpg","img/object_images/soap03.jpg","img/object_images/clip04.jpg","1","1","1","1","0","1","0.46396289999393","0.481703899989952","0.366578199995274","1","1","1","1","1","1","1","1","1"
"260011","img/object_images/clip04.jpg","img/object_images/floss02.jpg",NA,"1","1",NA,"1","1",NA,"0.366578199995274","0.46396289999393",NA,"1","1",NA,"1","1",NA,"1","1",NA
"260011","img/object_images/bath_tub01.jpg",NA,"img/object_images/lawn_mower01.jpg","1",NA,"1","0",NA,"1","0.506735999995726",NA,"0.369534499994188","1",NA,"1","1",NA,"1","1",NA,"1"
"260011","img/object_images/lawn_mower01.jpg","img/object_images/bath_tub01.jpg","img/object_images/lock04.jpg","1","1","1","1","0","1","0.369534499994188","0.506735999995726","0.369694099994376","1","1","1","1","1","1","1","1","1"
"260011","img/object_images/lock04.jpg","img/object_images/lawn_mower01.jpg","img/object_images/hammer01.jpg","1","1","1","1","1","0","0.369694099994376","0.369534499994188","0.528151099992101","1","1","1","1","1","1","1","1","1"
"260011","img/object_images/hammer01.jpg","img/object_images/lock04.jpg","img/object_images/funnel01.jpg","1","1","0","0","1","0","0.528151099992101","0.369694099994376","0.353314399988449","1","1","1","1","1","1","1","1","1"
"260011","img/object_images/funnel01.jpg","img/object_images/hammer01.jpg","img/object_images/ironing_table01.jpg","0","1","1","0","0","0","0.353314399988449","0.528151099992101","0.467647399993439","1","1","1","1","1","1","1","1","1"
"260011","img/object_images/ironing_table01.jpg","img/object_images/funnel01.jpg","img/object_images/gift_box02.jpg","1","0","1","0","0","1","0.467647399993439","0.353314399988449","0.422554299992044","1","1","1","1","1","1","1","1","1"
"260011","img/object_images/gift_box02.jpg","img/object_images/ironing_table01.jpg","img/object_images/measuring_tape02.jpg","1","1","1","1","0","1","0.422554299992044","0.467647399993439","0.407561299994995","1","1","1","1","1","1","1","1","1"
"260011","img/object_images/measuring_tape02.jpg","img/object_images/gift_box02.jpg","img/object_images/pitcher02.jpg","1","1","1","1","1","1","0.407561299994995","0.422554299992044","0.371443099997123","1","1","1","1","1","1","1","1","1"
"260011","img/object_images/pitcher02.jpg","img/object_images/measuring_tape02.jpg","img/object_images/couch03.jpg","1","1","1","1","1","0","0.371443099997123","0.407561299994995","0.472910099990258","1","1","1","1","1","1","1","1","1"
"260011","img/object_images/couch03.jpg","img/object_images/pitcher02.jpg","img/object_images/vga_port 01.jpg","1","1","1","0","1","0","0.472910099990258","0.371443099997123","0.438667899994471","1","1","1","1","1","1","1","1","1"
"260011","img/object_images/vga_port 01.jpg","img/object_images/couch03.jpg","img/object_images/grater01.jpg","1","1","1","0","0","1","0.438667899994471","0.472910099990258","0.373336799995741","1","1","1","1","1","1","1","1","1"
"260011","img/object_images/grater01.jpg","img/object_images/vga_port 01.jpg","img/object_images/gift_box01.jpg","1","1","1","1","0","1","0.373336799995741","0.438667899994471","0.350049399996351","1","1","1","1","1","1","1","1","1"
"260011","img/object_images/gift_box01.jpg","img/object_images/grater01.jpg","img/object_images/Witchhat01.jpg","1","1","1","1","1","1","0.350049399996351","0.373336799995741","0.413311099990096","1","1","1","1","1","1","1","1","1"
"260011","img/object_images/Witchhat01.jpg","img/object_images/gift_box01.jpg","img/object_images/camera07.jpg","1","1","1","1","1","1","0.413311099990096","0.350049399996351","0.414700199988147","1","1","1","1","1","1","1","1","1"
"260011","img/object_images/camera07.jpg","img/object_images/Witchhat01.jpg","img/object_images/golf_ball03.jpg","1","1","1","1","1","1","0.414700199988147","0.413311099990096","0.365555999989738","1","1","1","1","1","1","1","1","1"
"260011","img/object_images/golf_ball03.jpg","img/object_images/camera07.jpg","img/object_images/dresser04.jpg","1","1","1","1","1","0","0.365555999989738","0.414700199988147","0.434538299996348","1","1","1","1","1","1","1","1","1"
"260011","img/object_images/dresser04.jpg","img/object_images/golf_ball03.jpg","img/object_images/bow_tie01.jpg","1","1","1","0","1","0","0.434538299996348","0.365555999989738","0.463517799995316","1","1","1","1","1","1","1","1","1"
"260011","img/object_images/bow_tie01.jpg","img/object_images/dresser04.jpg","img/object_images/Screws01.jpg","1","1","1","0","0","1","0.463517799995316","0.434538299996348","0.350717599998461","1","1","1","1","1","1","1","1","1"
"260011","img/object_images/Screws01.jpg","img/object_images/bow_tie01.jpg","img/object_images/fork03.jpg","1","1","1","1","0","1","0.350717599998461","0.463517799995316","0.393059399990307","1","1","1","1","1","1","1","1","1"
"260011","img/object_images/fork03.jpg","img/object_images/Screws01.jpg","img/object_images/coloring_pencil01.jpg","1","1","1","1","1","1","0.393059399990307","0.350717599998461","0.355826099992555","1","1","1","1","1","1","1","1","1"
"260011","img/object_images/coloring_pencil01.jpg","img/object_images/fork03.jpg","img/object_images/socks02.jpg","1","1","1","1","1","0","0.355826099992555","0.393059399990307","0.486537799988582","1","1","1","1","1","1","1","1","1"
"260011","img/object_images/socks02.jpg","img/object_images/coloring_pencil01.jpg","img/object_images/clip02.jpg","1","1","1","0","1","1","0.486537799988582","0.355826099992555","0.423143199994229","1","1","1","1","1","1","1","1","1"
"260011","img/object_images/clip02.jpg","img/object_images/socks02.jpg","img/object_images/bow_tie02.jpg","1","1","1","1","0","0","0.423143199994229","0.486537799988582","0.497758999990765","1","1","1","1","1","1","1","1","1"
"260011","img/object_images/bow_tie02.jpg","img/object_images/clip02.jpg","img/object_images/handkerchief01.jpg","1","1","1","0","1","0","0.497758999990765","0.423143199994229","0.406628799988539","1","1","1","1","1","1","1","1","1"
"260011","img/object_images/handkerchief01.jpg","img/object_images/bow_tie02.jpg","img/object_images/gift_box03.jpg","1","1","1","0","0","0","0.406628799988539","0.497758999990765","0.436472899993532","1","1","1","1","1","1","1","1","1"
"260011","img/object_images/gift_box03.jpg","img/object_images/handkerchief01.jpg","img/object_images/sleeping_bag01.jpg","1","1","1","0","0","0","0.436472899993532","0.406628799988539","0.400999799996498","1","1","1","1","1","1","1","1","1"
"260011","img/object_images/sleeping_bag01.jpg","img/object_images/gift_box03.jpg","img/object_images/jacket03.jpg","1","1","1","0","0","0","0.400999799996498","0.436472899993532","0.456805399990117","1","1","1","1","1","1","1","1","1"
"260011","img/object_images/jacket03.jpg","img/object_images/sleeping_bag01.jpg","img/object_images/wallet02.jpg","1","1","1","0","0","1","0.456805399990117","0.400999799996498","0.365272099988943","1","1","1","1","1","1","1","1","1"
"260011","img/object_images/wallet02.jpg","img/object_images/jacket03.jpg","img/object_images/paper_cup01.jpg","1","1","0","1","0","0","0.365272099988943","0.456805399990117","0.371060799989209","1","1","1","1","1","1","1","1","1"
"260011","img/object_images/paper_cup01.jpg","img/object_images/wallet02.jpg","img/object_images/balloon01.jpg","0","1","1","0","1","0","0.371060799989209","0.365272099988943","0.388406999991275","1","1","1","1","1","1","1","1","1"
"260011","img/object_images/balloon01.jpg","img/object_images/paper_cup01.jpg","img/object_images/jewelry01.jpg","1","0","1","0","0","1","0.388406999991275","0.371060799989209","0.386915299997781","1","1","1","1","1","1","1","1","1"
"260011","img/object_images/jewelry01.jpg","img/object_images/balloon01.jpg",NA,"1","1",NA,"1","0",NA,"0.386915299997781","0.388406999991275",NA,"1","1",NA,"1","1",NA,"1","1",NA
"260011","img/object_images/Traffic Sign 01.jpg",NA,"img/object_images/glasses07.jpg","1",NA,"1","0",NA,"1","0.48166549999587",NA,"0.347644699992088","1",NA,"1","1",NA,"1","1",NA,"1"
"260011","img/object_images/glasses07.jpg","img/object_images/Traffic Sign 01.jpg","img/object_images/blanket01.jpg","1","1","1","1","0","1","0.347644699992088","0.48166549999587","0.333325699997658","1","1","1","1","1","1","1","1","1"
"260011","img/object_images/blanket01.jpg","img/object_images/glasses07.jpg","img/object_images/cup03.jpg","1","1","1","1","1","1","0.333325699997658","0.347644699992088","0.2977100999924","1","1","1","1","1","1","1","1","1"
"260011","img/object_images/cup03.jpg","img/object_images/blanket01.jpg","img/object_images/faucet01.jpg","1","1","0","1","1","0","0.2977100999924","0.333325699997658","0.342412699996203","1","1","1","1","1","1","1","1","1"
"260011","img/object_images/faucet01.jpg","img/object_images/cup03.jpg","img/object_images/colander01.jpg","0","1","1","0","1","0","0.342412699996203","0.2977100999924","0.588502699989476","1","1","1","1","1","1","1","1","1"
"260011","img/object_images/colander01.jpg","img/object_images/faucet01.jpg","img/object_images/glasses06.jpg","1","0","1","0","0","1","0.588502699989476","0.342412699996203","0.379318199993577","1","1","1","1","1","1","1","1","1"
"260011","img/object_images/glasses06.jpg","img/object_images/colander01.jpg","img/object_images/gift_box04.jpg","1","1","1","1","0","0","0.379318199993577","0.588502699989476","0.519955899995693","1","1","1","1","1","1","1","1","1"
"260011","img/object_images/gift_box04.jpg","img/object_images/glasses06.jpg","img/object_images/jewelry09.jpg","1","1","1","0","1","1","0.519955899995693","0.379318199993577","0.317684399989957","1","1","1","1","1","1","1","1","1"
"260011","img/object_images/jewelry09.jpg","img/object_images/gift_box04.jpg","img/object_images/tool08.jpg","1","1","1","1","0","0","0.317684399989957","0.519955899995693","0.408159699989483","1","1","1","1","1","1","1","1","1"
"260011","img/object_images/tool08.jpg","img/object_images/jewelry09.jpg","img/object_images/handcuffs01.jpg","1","1","1","0","1","0","0.408159699989483","0.317684399989957","0.527449099994556","1","1","1","1","1","1","1","1","1"
"260011","img/object_images/handcuffs01.jpg","img/object_images/tool08.jpg","img/object_images/bicycle_lock01.jpg","1","1","1","0","0","0","0.527449099994556","0.408159699989483","0.452353299995593","1","1","1","1","1","1","1","1","1"
"260011","img/object_images/bicycle_lock01.jpg","img/object_images/handcuffs01.jpg","img/object_images/projector01.jpg","1","1","1","0","0","0","0.452353299995593","0.527449099994556","0.472695199990994","1","1","1","1","1","1","1","1","1"
"260011","img/object_images/projector01.jpg","img/object_images/bicycle_lock01.jpg","img/object_images/hole_puncher01.jpg","1","1","1","0","0","1","0.472695199990994","0.452353299995593","0.368727999994007","1","1","1","1","1","1","1","1","1"
"260011","img/object_images/hole_puncher01.jpg","img/object_images/projector01.jpg","img/object_images/ring03.jpg","1","1","1","1","0","1","0.368727999994007","0.472695199990994","0.341228899997077","1","1","1","1","1","1","1","1","1"
"260011","img/object_images/ring03.jpg","img/object_images/hole_puncher01.jpg","img/object_images/Pottery01.jpg","1","1","1","1","1","0","0.341228899997077","0.368727999994007","0.421162599988747","1","1","1","1","1","1","1","1","1"
"260011","img/object_images/Pottery01.jpg","img/object_images/ring03.jpg","img/object_images/Sprayer01.jpg","1","1","1","0","1","0","0.421162599988747","0.341228899997077","0.349502699995355","1","1","1","1","1","1","1","1","1"
"260011","img/object_images/Sprayer01.jpg","img/object_images/Pottery01.jpg","img/object_images/fire_extinguisher01.jpg","1","1","1","0","0","0","0.349502699995355","0.421162599988747","0.526063599994814","1","1","1","1","1","1","1","1","1"
"260011","img/object_images/fire_extinguisher01.jpg","img/object_images/Sprayer01.jpg","img/object_images/basket02.jpg","1","1","1","0","0","0","0.526063599994814","0.349502699995355","0.4767437999908","1","1","1","1","1","1","1","1","1"
"260011","img/object_images/basket02.jpg","img/object_images/fire_extinguisher01.jpg","img/object_images/Kitchen_Towel.jpg","1","1","0","0","0","0","0.4767437999908","0.526063599994814","0.396972399998049","1","1","1","1","1","1","1","1","1"
"260011","img/object_images/Kitchen_Towel.jpg","img/object_images/basket02.jpg","img/object_images/speaker01.jpg","0","1","1","0","0","1","0.396972399998049","0.4767437999908","0.43288109999412","1","1","1","1","1","1","1","1","1"
"260011","img/object_images/speaker01.jpg","img/object_images/Kitchen_Towel.jpg","img/object_images/book01.jpg","1","0","1","1","0","1","0.43288109999412","0.396972399998049","0.427669599986984","1","1","1","1","1","1","1","1","1"
"260011","img/object_images/book01.jpg","img/object_images/speaker01.jpg","img/object_images/yo_yo01.jpg","1","1","1","1","1","0","0.427669599986984","0.43288109999412","0.445237599989923","1","1","1","1","1","1","1","1","1"
"260011","img/object_images/yo_yo01.jpg","img/object_images/book01.jpg","img/object_images/tool07.jpg","1","1","0","0","1","0","0.445237599989923","0.427669599986984","0.438848399993731","1","1","1","1","1","1","1","1","1"
"260011","img/object_images/tool07.jpg","img/object_images/yo_yo01.jpg","img/object_images/exfoliater_brush01.jpg","0","1","1","0","0","0","0.438848399993731","0.445237599989923","0.418098299996927","1","1","1","1","1","1","1","1","1"
"260011","img/object_images/exfoliater_brush01.jpg","img/object_images/tool07.jpg","img/object_images/pan01.jpg","1","0","1","0","0","1","0.418098299996927","0.438848399993731","0.36483789999329","1","1","1","1","1","1","1","1","1"
"260011","img/object_images/pan01.jpg","img/object_images/exfoliater_brush01.jpg","img/object_images/cellphone02.jpg","1","1","1","1","0","1","0.36483789999329","0.418098299996927","0.363498099992285","1","1","1","1","1","1","1","1","1"
"260011","img/object_images/cellphone02.jpg","img/object_images/pan01.jpg","img/object_images/TrashCan02.jpg","1","1","1","1","1","1","0.363498099992285","0.36483789999329","0.359203599997272","1","1","1","1","1","1","1","1","1"
"260011","img/object_images/TrashCan02.jpg","img/object_images/cellphone02.jpg","img/object_images/lighter01.jpg","1","1","1","1","1","1","0.359203599997272","0.363498099992285","0.328123299994331","1","1","1","1","1","1","1","1","1"
"260011","img/object_images/lighter01.jpg","img/object_images/TrashCan02.jpg","img/object_images/hair_clips01.jpg","1","1","1","1","1","1","0.328123299994331","0.359203599997272","0.406206799991196","1","1","1","1","1","1","1","1","1"
"260011","img/object_images/hair_clips01.jpg","img/object_images/lighter01.jpg","img/object_images/tray01.jpg","1","1","1","1","1","1","0.406206799991196","0.328123299994331","0.406507599989709","1","1","1","1","1","1","1","1","1"
"260011","img/object_images/tray01.jpg","img/object_images/hair_clips01.jpg","img/object_images/purse01.jpg","1","1","1","1","1","1","0.406507599989709","0.406206799991196","0.314174199993431","1","1","1","1","1","1","1","1","1"
"260011","img/object_images/purse01.jpg","img/object_images/tray01.jpg",NA,"1","1",NA,"1","1",NA,"0.314174199993431","0.406507599989709",NA,"1","1",NA,"1","1",NA,"1","1",NA
"260011","img/object_images/Recycling01.jpg",NA,"img/object_images/couch04.jpg","1",NA,"1","1",NA,"1","0.392182599993248",NA,"0.391272199995001","1",NA,"1","1",NA,"1","1",NA,"1"
"260011","img/object_images/couch04.jpg","img/object_images/Recycling01.jpg","img/object_images/brief_case02.jpg","1","1","1","1","1","1","0.391272199995001","0.392182599993248","0.393220299993118","1","1","1","1","1","1","1","1","1"
"260011","img/object_images/brief_case02.jpg","img/object_images/couch04.jpg","img/object_images/video_game06.jpg","1","1","0","1","1","0","0.393220299993118","0.391272199995001","0.330450099994778","1","1","1","1","1","1","1","1","1"
"260011","img/object_images/video_game06.jpg","img/object_images/brief_case02.jpg","img/object_images/broom01.jpg","0","1","1","0","1","1","0.330450099994778","0.393220299993118","0.430277799991018","1","1","1","1","1","1","1","1","1"
"260011","img/object_images/broom01.jpg","img/object_images/video_game06.jpg","img/object_images/razor03.jpg","1","0","1","1","0","0","0.430277799991018","0.330450099994778","0.433501799998339","1","1","1","1","1","1","1","1","1"
"260011","img/object_images/razor03.jpg","img/object_images/broom01.jpg","img/object_images/toilet_paper01.jpg","1","1","1","0","1","1","0.433501799998339","0.430277799991018","0.319936199994117","1","1","1","1","1","1","1","1","1"
"260011","img/object_images/toilet_paper01.jpg","img/object_images/razor03.jpg","img/object_images/ironing_table02.jpg","1","1","1","1","0","0","0.319936199994117","0.433501799998339","0.452669999998761","1","1","1","1","1","1","1","1","1"
"260011","img/object_images/ironing_table02.jpg","img/object_images/toilet_paper01.jpg","img/object_images/tie01.jpg","1","1","1","0","1","0","0.452669999998761","0.319936199994117","0.495781599995098","1","1","1","1","1","1","1","1","1"
"260011","img/object_images/tie01.jpg","img/object_images/ironing_table02.jpg","img/object_images/ball01.jpg","1","1","1","0","0","1","0.495781599995098","0.452669999998761","0.380985899995721","1","1","1","1","1","1","1","1","1"
"260011","img/object_images/ball01.jpg","img/object_images/tie01.jpg","img/object_images/guitar01.jpg","1","1","1","1","0","1","0.380985899995721","0.495781599995098","0.35543919999327","1","1","1","1","1","1","1","1","1"
"260011","img/object_images/guitar01.jpg","img/object_images/ball01.jpg","img/object_images/toy_train02.jpg","1","1","1","1","1","1","0.35543919999327","0.380985899995721","0.303032399991935","1","1","1","1","1","1","1","1","1"
"260011","img/object_images/toy_train02.jpg","img/object_images/guitar01.jpg","img/object_images/gloves05.jpg","1","1","1","1","1","1","0.303032399991935","0.35543919999327","0.424118699993414","1","1","1","1","1","1","1","1","1"
"260011","img/object_images/gloves05.jpg","img/object_images/toy_train02.jpg","img/object_images/bottle12.jpg","1","1","1","1","1","1","0.424118699993414","0.303032399991935","0.370044199989934","1","1","1","1","1","1","1","1","1"
"260011","img/object_images/bottle12.jpg","img/object_images/gloves05.jpg","img/object_images/pitcher03.jpg","1","1","1","1","1","1","0.370044199989934","0.424118699993414","0.366986899993208","1","1","1","1","1","1","1","1","1"
"260011","img/object_images/pitcher03.jpg","img/object_images/bottle12.jpg","img/object_images/car02.jpg","1","1","1","1","1","0","0.366986899993208","0.370044199989934","0.466730599990115","1","1","1","1","1","1","1","1","1"
"260011","img/object_images/car02.jpg","img/object_images/pitcher03.jpg","img/object_images/container01.jpg","1","1","1","0","1","0","0.466730599990115","0.366986899993208","0.459115699995891","1","1","1","1","1","1","1","1","1"
"260011","img/object_images/container01.jpg","img/object_images/car02.jpg","img/object_images/Wisk01.jpg","1","1","1","0","0","1","0.459115699995891","0.466730599990115","0.40944099999615","1","1","1","1","1","1","1","1","1"
"260011","img/object_images/Wisk01.jpg","img/object_images/container01.jpg","img/object_images/lamp01.jpg","1","1","1","1","0","1","0.40944099999615","0.459115699995891","0.335515200000373","1","1","1","1","1","1","1","1","1"
"260011","img/object_images/lamp01.jpg","img/object_images/Wisk01.jpg","img/object_images/decorative02.jpg","1","1","0","1","1","0","0.335515200000373","0.40944099999615","0.355605499993544","1","1","1","1","1","1","1","1","1"
"260011","img/object_images/decorative02.jpg","img/object_images/lamp01.jpg","img/object_images/helmet05.jpg","0","1","1","0","1","1","0.355605499993544","0.335515200000373","0.42123909998918","1","1","1","1","1","1","1","1","1"
"260011","img/object_images/helmet05.jpg","img/object_images/decorative02.jpg","img/object_images/Woopie01.jpg","1","0","1","1","0","1","0.42123909998918","0.355605499993544","0.335435299988603","1","1","1","1","1","1","1","1","1"
"260011","img/object_images/Woopie01.jpg","img/object_images/helmet05.jpg","img/object_images/cochlear_implant01.jpg","1","1","1","1","1","0","0.335435299988603","0.42123909998918","0.475535199999285","1","1","1","1","1","1","1","1","1"
"260011","img/object_images/cochlear_implant01.jpg","img/object_images/Woopie01.jpg","img/object_images/soap01.jpg","1","1","1","0","1","0","0.475535199999285","0.335435299988603","0.501366399992548","1","1","1","1","1","1","1","1","1"
"260011","img/object_images/soap01.jpg","img/object_images/cochlear_implant01.jpg","img/object_images/hat02.jpg","1","1","1","0","0","0","0.501366399992548","0.475535199999285","0.441459499998018","1","1","1","1","1","1","1","1","1"
"260011","img/object_images/hat02.jpg","img/object_images/soap01.jpg","img/object_images/airfryer01.jpg","1","1","1","0","0","0","0.441459499998018","0.501366399992548","0.443238799991377","1","1","1","1","1","1","1","1","1"
"260011","img/object_images/airfryer01.jpg","img/object_images/hat02.jpg","img/object_images/brief_case01.jpg","1","1","0","0","0","0","0.443238799991377","0.441459499998018","0.36480379999557","1","1","1","1","1","1","1","1","1"
"260011","img/object_images/brief_case01.jpg","img/object_images/airfryer01.jpg","img/object_images/pot01.jpg","0","1","1","0","0","0","0.36480379999557","0.443238799991377","0.41646299999411","1","1","1","1","1","1","1","1","1"
"260011","img/object_images/pot01.jpg","img/object_images/brief_case01.jpg","img/object_images/lantern01.jpg","1","0","1","0","0","1","0.41646299999411","0.36480379999557","0.424566199988476","1","1","1","1","1","1","1","1","1"
"260011","img/object_images/lantern01.jpg","img/object_images/pot01.jpg","img/object_images/basketball_hoop02.jpg","1","1","1","1","0","0","0.424566199988476","0.41646299999411","0.450858699994569","1","1","1","1","1","1","1","1","1"
"260011","img/object_images/basketball_hoop02.jpg","img/object_images/lantern01.jpg","img/object_images/chair01.jpg","1","1","1","0","1","0","0.450858699994569","0.424566199988476","0.447855099992012","1","1","1","1","1","1","1","1","1"
"260011","img/object_images/chair01.jpg","img/object_images/basketball_hoop02.jpg","img/object_images/drone02.jpg","1","1","1","0","0","0","0.447855099992012","0.450858699994569","0.486499999991793","1","1","1","1","1","1","1","1","1"
"260011","img/object_images/drone02.jpg","img/object_images/chair01.jpg",NA,"1","1",NA,"0","0",NA,"0.486499999991793","0.447855099992012",NA,"1","1",NA,"1","1",NA,"1","1",NA
"260011","img/object_images/remote_controller01.jpg",NA,"img/object_images/matches02.jpg","1",NA,"1","1",NA,"0","0.443580799990741",NA,"0.539719099993818","1",NA,"1","1",NA,"1","1",NA,"1"
"260011","img/object_images/matches02.jpg","img/object_images/remote_controller01.jpg","img/object_images/sponge03.jpg","1","1","1","0","1","1","0.539719099993818","0.443580799990741","0.345953199997894","1","1","1","1","1","1","1","1","1"
"260011","img/object_images/sponge03.jpg","img/object_images/matches02.jpg","img/object_images/mail_box01.jpg","1","1","1","1","0","0","0.345953199997894","0.539719099993818","0.397885299993504","1","1","1","1","1","1","1","1","1"
"260011","img/object_images/mail_box01.jpg","img/object_images/sponge03.jpg","img/object_images/knife02.jpg","1","1","1","0","1","0","0.397885299993504","0.345953199997894","0.51541599999473","1","1","1","1","1","1","1","1","1"
"260011","img/object_images/knife02.jpg","img/object_images/mail_box01.jpg","img/object_images/remover01.jpg","1","1","1","0","0","1","0.51541599999473","0.397885299993504","0.437202899993281","1","1","1","1","1","1","1","1","1"
"260011","img/object_images/remover01.jpg","img/object_images/knife02.jpg","img/object_images/tool18.jpg","1","1","1","1","0","0","0.437202899993281","0.51541599999473","0.473224699991988","1","1","1","1","1","1","1","1","1"
"260011","img/object_images/tool18.jpg","img/object_images/remover01.jpg","img/object_images/hoverboard01.jpg","1","1","0","0","1","0","0.473224699991988","0.437202899993281","0.371512299992901","1","1","1","1","1","1","1","1","1"
"260011","img/object_images/hoverboard01.jpg","img/object_images/tool18.jpg","img/object_images/toy08.jpg","0","1","1","0","0","0","0.371512299992901","0.473224699991988","0.425484799990954","1","1","1","1","1","1","1","1","1"
"260011","img/object_images/toy08.jpg","img/object_images/hoverboard01.jpg","img/object_images/gloves02.jpg","1","0","1","0","0","0","0.425484799990954","0.371512299992901","0.385083499997563","1","1","1","1","1","1","1","1","1"
"260011","img/object_images/gloves02.jpg","img/object_images/toy08.jpg","img/object_images/phone02.jpg","1","1","1","0","0","1","0.385083499997563","0.425484799990954","0.324130499990133","1","1","1","1","1","1","1","1","1"
"260011","img/object_images/phone02.jpg","img/object_images/gloves02.jpg","img/object_images/boat04.jpg","1","1","1","1","0","0","0.324130499990133","0.385083499997563","0.459244199992099","1","1","1","1","1","1","1","1","1"
"260011","img/object_images/boat04.jpg","img/object_images/phone02.jpg","img/object_images/blender02.jpg","1","1","1","0","1","1","0.459244199992099","0.324130499990133","0.372302099996887","1","1","1","1","1","1","1","1","1"
"260011","img/object_images/blender02.jpg","img/object_images/boat04.jpg","img/object_images/car01.jpg","1","1","1","1","0","1","0.372302099996887","0.459244199992099","0.313201899996784","1","1","1","1","1","1","1","1","1"
"260011","img/object_images/car01.jpg","img/object_images/blender02.jpg","img/object_images/backpack01.jpg","1","1","1","1","1","0","0.313201899996784","0.372302099996887","0.501481599989347","1","1","1","1","1","1","1","1","1"
"260011","img/object_images/backpack01.jpg","img/object_images/car01.jpg","img/object_images/jacket04.jpg","1","1","1","0","1","0","0.501481599989347","0.313201899996784","0.323765099994489","1","1","1","1","1","1","1","1","1"
"260011","img/object_images/jacket04.jpg","img/object_images/backpack01.jpg","img/object_images/keyboard02.jpg","1","1","1","0","0","1","0.323765099994489","0.501481599989347","0.419035299993993","1","1","1","1","1","1","1","1","1"
"260011","img/object_images/keyboard02.jpg","img/object_images/jacket04.jpg","img/object_images/bottle07.jpg","1","1","1","1","0","1","0.419035299993993","0.323765099994489","0.359842099991511","1","1","1","1","1","1","1","1","1"
"260011","img/object_images/bottle07.jpg","img/object_images/keyboard02.jpg","img/object_images/video_game01.jpg","1","1","1","1","1","1","0.359842099991511","0.419035299993993","0.356649699999252","1","1","1","1","1","1","1","1","1"
"260011","img/object_images/video_game01.jpg","img/object_images/bottle07.jpg","img/object_images/basket04.jpg","1","1","1","1","1","1","0.356649699999252","0.359842099991511","0.328193199988164","1","1","1","1","1","1","1","1","1"
"260011","img/object_images/basket04.jpg","img/object_images/video_game01.jpg","img/object_images/flashlight03.jpg","1","1","1","1","1","0","0.328193199988164","0.356649699999252","0.400201099997503","1","1","1","1","1","1","1","1","1"
"260011","img/object_images/flashlight03.jpg","img/object_images/basket04.jpg","img/object_images/hand_grip_exerciser01.jpg","1","1","0","0","1","0","0.400201099997503","0.328193199988164","0.399288599997817","1","1","1","1","1","1","1","1","1"
"260011","img/object_images/hand_grip_exerciser01.jpg","img/object_images/flashlight03.jpg","img/object_images/Statue01.jpg","0","1","1","0","0","1","0.399288599997817","0.400201099997503","0.392084099992644","1","1","1","1","1","1","1","1","1"
"260011","img/object_images/Statue01.jpg","img/object_images/hand_grip_exerciser01.jpg","img/object_images/kite01.jpg","1","0","1","1","0","1","0.392084099992644","0.399288599997817","0.387950799988175","1","1","1","1","1","1","1","1","1"
"260011","img/object_images/kite01.jpg","img/object_images/Statue01.jpg","img/object_images/dresser03.jpg","1","1","1","1","1","0","0.387950799988175","0.392084099992644","0.369885499989323","1","1","1","1","1","1","1","1","1"
"260011","img/object_images/dresser03.jpg","img/object_images/kite01.jpg","img/object_images/paper_cup02.jpg","1","1","1","0","1","1","0.369885499989323","0.387950799988175","0.391086799987534","1","1","1","1","1","1","1","1","1"
"260011","img/object_images/paper_cup02.jpg","img/object_images/dresser03.jpg","img/object_images/camera03.jpg","1","1","0","1","0","0","0.391086799987534","0.369885499989323","0.330134699994233","1","1","1","1","1","1","1","1","1"
"260011","img/object_images/camera03.jpg","img/object_images/paper_cup02.jpg","img/object_images/knit03.jpg","0","1","1","0","1","1","0.330134699994233","0.391086799987534","0.387720099992293","1","1","1","1","1","1","1","1","1"
"260011","img/object_images/knit03.jpg","img/object_images/camera03.jpg","img/object_images/shower_head01.jpg","1","0","1","1","0","1","0.387720099992293","0.330134699994233","0.401855899988732","1","1","1","1","1","1","1","1","1"
"260011","img/object_images/shower_head01.jpg","img/object_images/knit03.jpg","img/object_images/stereo02.jpg","1","1","1","1","1","0","0.401855899988732","0.387720099992293","0.402196999995795","1","1","1","1","1","1","1","1","1"
"260011","img/object_images/stereo02.jpg","img/object_images/shower_head01.jpg","img/object_images/curtain02.jpg","1","1","1","0","1","0","0.402196999995795","0.401855899988732","0.428260499997123","1","1","1","1","1","1","1","1","1"
"260011","img/object_images/curtain02.jpg","img/object_images/stereo02.jpg","img/object_images/knit04.jpg","1","1","1","0","0","1","0.428260499997123","0.402196999995795","0.376236699994479","1","1","1","1","1","1","1","1","1"
"260011","img/object_images/knit04.jpg","img/object_images/curtain02.jpg",NA,"1","1",NA,"1","0",NA,"0.376236699994479","0.428260499997123",NA,"1","1",NA,"1","1",NA,"1","1",NA
"260011","img/object_images/toilet_paper_dispenser01.jpg",NA,"img/object_images/purse04.jpg","1",NA,"1","1",NA,"1","0.422837299993262",NA,"0.430582499997399","1",NA,"1","1",NA,"1","1",NA,"1"
"260011","img/object_images/purse04.jpg","img/object_images/toilet_paper_dispenser01.jpg","img/object_images/dog_leash01.jpg","1","1","1","1","1","0","0.430582499997399","0.422837299993262","0.486139099994034","1","1","1","1","1","1","1","1","1"
"260011","img/object_images/dog_leash01.jpg","img/object_images/purse04.jpg","img/object_images/WoodBox01.jpg","1","1","0","0","1","0","0.486139099994034","0.430582499997399","0.335388399988005","1","1","1","1","1","1","1","1","1"
"260011","img/object_images/WoodBox01.jpg","img/object_images/dog_leash01.jpg","img/object_images/hat06.jpg","0","1","1","0","0","0","0.335388399988005","0.486139099994034","0.387283899995964","1","1","1","1","1","1","1","1","1"
"260011","img/object_images/hat06.jpg","img/object_images/WoodBox01.jpg","img/object_images/boat_toy10.jpg","1","0","1","0","0","0","0.387283899995964","0.335388399988005","0.479902399994899","1","1","1","1","1","1","1","1","1"
"260011","img/object_images/boat_toy10.jpg","img/object_images/hat06.jpg","img/object_images/perfume02.jpg","1","1","0","0","0","0","0.479902399994899","0.387283899995964","0.446707799994329","1","1","1","1","1","1","1","1","1"
"260011","img/object_images/perfume02.jpg","img/object_images/boat_toy10.jpg","img/object_images/fan02.jpg","0","1","0","0","0","0","0.446707799994329","0.479902399994899","0.388596599994344","1","1","1","1","1","1","1","1","1"
"260011","img/object_images/fan02.jpg","img/object_images/perfume02.jpg","img/object_images/piggy_bank01.jpg","0","0","1","0","0","1","0.388596599994344","0.446707799994329","0.355142899992643","1","1","1","1","1","1","1","1","1"
"260011","img/object_images/piggy_bank01.jpg","img/object_images/fan02.jpg","img/object_images/scoreboard01.jpg","1","0","1","1","0","1","0.355142899992643","0.388596599994344","0.362965699991037","1","1","1","1","1","1","1","1","1"
"260011","img/object_images/scoreboard01.jpg","img/object_images/piggy_bank01.jpg","img/object_images/bottle02.jpg","1","1","1","1","1","1","0.362965699991037","0.355142899992643","0.42054669999925","1","1","1","1","1","1","1","1","1"
"260011","img/object_images/bottle02.jpg","img/object_images/scoreboard01.jpg","img/object_images/bicycle01.jpg","1","1","1","1","1","1","0.42054669999925","0.362965699991037","0.429301199998008","1","1","1","1","1","1","1","1","1"
"260011","img/object_images/bicycle01.jpg","img/object_images/bottle02.jpg","img/object_images/bottle10.jpg","1","1","1","1","1","1","0.429301199998008","0.42054669999925","0.58217249999143","1","1","1","1","1","1","1","1","1"
"260011","img/object_images/bottle10.jpg","img/object_images/bicycle01.jpg","img/object_images/pen05.jpg","1","1","1","1","1","0","0.58217249999143","0.429301199998008","0.471198299994285","1","1","1","1","1","1","1","1","1"
"260011","img/object_images/pen05.jpg","img/object_images/bottle10.jpg","img/object_images/hot_air_balloon02.jpg","1","1","1","0","1","0","0.471198299994285","0.58217249999143","0.554686199997377","1","1","1","1","1","1","1","1","1"
"260011","img/object_images/hot_air_balloon02.jpg","img/object_images/pen05.jpg","img/object_images/flask01.jpg","1","1","1","0","0","0","0.554686199997377","0.471198299994285","0.448550299995986","1","1","1","1","1","1","1","1","1"
"260011","img/object_images/flask01.jpg","img/object_images/hot_air_balloon02.jpg","img/object_images/knit01.jpg","1","1","1","0","0","0","0.448550299995986","0.554686199997377","0.377875999991375","1","1","1","1","1","1","1","1","1"
"260011","img/object_images/knit01.jpg","img/object_images/flask01.jpg","img/object_images/bottle09.jpg","1","1","1","0","0","0","0.377875999991375","0.448550299995986","0.473868799992488","1","1","1","1","1","1","1","1","1"
"260011","img/object_images/bottle09.jpg","img/object_images/knit01.jpg","img/object_images/helmet04.jpg","1","1","1","0","0","1","0.473868799992488","0.377875999991375","0.422884999992675","1","1","1","1","1","1","1","1","1"
"260011","img/object_images/helmet04.jpg","img/object_images/bottle09.jpg","img/object_images/tie02.jpg","1","1","1","1","0","0","0.422884999992675","0.473868799992488","0.325353299995186","1","1","1","1","1","1","1","1","1"
"260011","img/object_images/tie02.jpg","img/object_images/helmet04.jpg","img/object_images/shoes07.jpg","1","1","0","0","1","0","0.325353299995186","0.422884999992675","0.317574399989098","1","1","1","1","1","1","1","1","1"
"260011","img/object_images/shoes07.jpg","img/object_images/tie02.jpg","img/object_images/boat02.jpg","0","1","1","0","0","1","0.317574399989098","0.325353299995186","0.340223399995011","1","1","1","1","1","1","1","1","1"
"260011","img/object_images/boat02.jpg","img/object_images/shoes07.jpg","img/object_images/bean_bag02.jpg","1","0","1","1","0","1","0.340223399995011","0.317574399989098","0.442063799993775","1","1","1","1","1","1","1","1","1"
"260011","img/object_images/bean_bag02.jpg","img/object_images/boat02.jpg","img/object_images/cellphone03.jpg","1","1","1","1","1","0","0.442063799993775","0.340223399995011","0.41916589999164","1","1","1","1","1","1","1","1","1"
"260011","img/object_images/cellphone03.jpg","img/object_images/bean_bag02.jpg","img/object_images/tool19.jpg","1","1","1","0","1","1","0.41916589999164","0.442063799993775","0.417686599997978","1","1","1","1","1","1","1","1","1"
"260011","img/object_images/tool19.jpg","img/object_images/cellphone03.jpg","img/object_images/audio_port01.jpg","1","1","1","1","0","1","0.417686599997978","0.41916589999164","0.386124899996503","1","1","1","1","1","1","1","1","1"
"260011","img/object_images/audio_port01.jpg","img/object_images/tool19.jpg","img/object_images/chair03.jpg","1","1","1","1","1","0","0.386124899996503","0.417686599997978","0.352867899993726","1","1","1","1","1","1","1","1","1"
"260011","img/object_images/chair03.jpg","img/object_images/audio_port01.jpg","img/object_images/wagon_cart03.jpg","1","1","1","0","1","1","0.352867899993726","0.386124899996503","0.340406899988011","1","1","1","1","1","1","1","1","1"
"260011","img/object_images/wagon_cart03.jpg","img/object_images/chair03.jpg","img/object_images/toaster01.jpg","1","1","1","1","0","1","0.340406899988011","0.352867899993726","0.365714599996863","1","1","1","1","1","1","1","1","1"
"260011","img/object_images/toaster01.jpg","img/object_images/wagon_cart03.jpg","img/object_images/camera_lens01.jpg","1","1","1","1","1","1","0.365714599996863","0.340406899988011","0.324315999991086","1","1","1","1","1","1","1","1","1"
"260011","img/object_images/camera_lens01.jpg","img/object_images/toaster01.jpg","img/object_images/water_scooter01.jpg","1","1","1","1","1","1","0.324315999991086","0.365714599996863","0.346906699989631","1","1","1","1","1","1","1","1","1"
"260011","img/object_images/water_scooter01.jpg","img/object_images/camera_lens01.jpg","img/object_images/coloring_pencil02.jpg","1","1","1","1","1","0","0.346906699989631","0.324315999991086","0.470599899992521","1","1","1","1","1","1","1","1","1"
"260011","img/object_images/coloring_pencil02.jpg","img/object_images/water_scooter01.jpg",NA,"1","1",NA,"0","1",NA,"0.470599899992521","0.346906699989631",NA,"1","1",NA,"1","1",NA,"1","1",NA
"260011","img/object_images/bow_tie03.jpg",NA,"img/object_images/cup01.jpg","1",NA,"0","1",NA,"0","0.351784999991651",NA,"0.365367699989292","1",NA,"1","1",NA,"1","1",NA,"1"
"260011","img/object_images/cup01.jpg","img/object_images/bow_tie03.jpg","img/object_images/camera05.jpg","0","1","1","0","1","0","0.365367699989292","0.351784999991651","0.537466499990842","1","1","1","1","1","1","1","1","1"
"260011","img/object_images/camera05.jpg","img/object_images/cup01.jpg","img/object_images/ruler02.jpg","1","0","1","0","0","1","0.537466499990842","0.365367699989292","0.334847199999786","1","1","1","1","1","1","1","1","1"
"260011","img/object_images/ruler02.jpg","img/object_images/camera05.jpg","img/object_images/hat13.jpg","1","1","1","1","0","1","0.334847199999786","0.537466499990842","0.39404769999237","1","1","1","1","1","1","1","1","1"
"260011","img/object_images/hat13.jpg","img/object_images/ruler02.jpg","img/object_images/Confetti 01.jpg","1","1","0","1","1","0","0.39404769999237","0.334847199999786","0.345233499989263","1","1","1","1","1","1","1","1","1"
"260011","img/object_images/Confetti 01.jpg","img/object_images/hat13.jpg","img/object_images/video_game02.jpg","0","1","1","0","1","1","0.345233499989263","0.39404769999237","0.401311299996451","1","1","1","1","1","1","1","1","1"
"260011","img/object_images/video_game02.jpg","img/object_images/Confetti 01.jpg","img/object_images/bag04.jpg","1","0","1","1","0","0","0.401311299996451","0.345233499989263","0.499877899994317","1","1","1","1","1","1","1","1","1"
"260011","img/object_images/bag04.jpg","img/object_images/video_game02.jpg","img/object_images/pen06.jpg","1","1","1","0","1","0","0.499877899994317","0.401311299996451","0.419078199993237","1","1","1","1","1","1","1","1","1"
"260011","img/object_images/pen06.jpg","img/object_images/bag04.jpg","img/object_images/razor02.jpg","1","1","1","0","0","1","0.419078199993237","0.499877899994317","0.398626399990462","1","1","1","1","1","1","1","1","1"
"260011","img/object_images/razor02.jpg","img/object_images/pen06.jpg","img/object_images/sign02.jpg","1","1","1","1","0","0","0.398626399990462","0.419078199993237","0.528633299996727","1","1","1","1","1","1","1","1","1"
"260011","img/object_images/sign02.jpg","img/object_images/razor02.jpg","img/object_images/sink_filter01 (1).jpg","1","1","1","0","1","0","0.528633299996727","0.398626399990462","0.531210199995257","1","1","1","1","1","1","1","1","1"
"260011","img/object_images/sink_filter01 (1).jpg","img/object_images/sign02.jpg","img/object_images/tool20.jpg","1","1","1","0","0","0","0.531210199995257","0.528633299996727","0.454626399994595","1","1","1","1","1","1","1","1","1"
"260011","img/object_images/tool20.jpg","img/object_images/sink_filter01 (1).jpg","img/object_images/perfume01.jpg","1","1","1","0","0","0","0.454626399994595","0.531210199995257","0.386528099996212","1","1","1","1","1","1","1","1","1"
"260011","img/object_images/perfume01.jpg","img/object_images/tool20.jpg","img/object_images/pan03.jpg","1","1","1","0","0","1","0.386528099996212","0.454626399994595","0.439296999989892","1","1","1","1","1","1","1","1","1"
"260011","img/object_images/pan03.jpg","img/object_images/perfume01.jpg","img/object_images/vase02.jpg","1","1","1","1","0","1","0.439296999989892","0.386528099996212","0.334127499991155","1","1","1","1","1","1","1","1","1"
"260011","img/object_images/vase02.jpg","img/object_images/pan03.jpg","img/object_images/socks01.jpg","1","1","1","1","1","1","0.334127499991155","0.439296999989892","0.53966849999415","1","1","1","1","1","1","1","1","1"
"260011","img/object_images/socks01.jpg","img/object_images/vase02.jpg","img/object_images/Candle_Holder01.jpg","1","1","1","1","1","0","0.53966849999415","0.334127499991155","0.376012699991406","1","1","1","1","1","1","1","1","1"
"260011","img/object_images/Candle_Holder01.jpg","img/object_images/socks01.jpg","img/object_images/knife01.jpg","1","1","1","0","1","1","0.376012699991406","0.53966849999415","0.375380399993446","1","1","1","1","1","1","1","1","1"
"260011","img/object_images/knife01.jpg","img/object_images/Candle_Holder01.jpg","img/object_images/hammer02.jpg","1","1","1","1","0","0","0.375380399993446","0.376012699991406","0.363511199997447","1","1","1","1","1","1","1","1","1"
"260011","img/object_images/hammer02.jpg","img/object_images/knife01.jpg","img/object_images/floss01.jpg","1","1","1","0","1","1","0.363511199997447","0.375380399993446","0.4232184999928","1","1","1","1","1","1","1","1","1"
"260011","img/object_images/floss01.jpg","img/object_images/hammer02.jpg","img/object_images/hat09.jpg","1","1","1","1","0","0","0.4232184999928","0.363511199997447","0.385736399992311","1","1","1","1","1","1","1","1","1"
"260011","img/object_images/hat09.jpg","img/object_images/floss01.jpg","img/object_images/tool13.jpg","1","1","1","0","1","1","0.385736399992311","0.4232184999928","0.455601399997249","1","1","1","1","1","1","1","1","1"
"260011","img/object_images/tool13.jpg","img/object_images/hat09.jpg","img/object_images/dust_pan01.jpg","1","1","1","1","0","1","0.455601399997249","0.385736399992311","0.465565200000128","1","1","1","1","1","1","1","1","1"
"260011","img/object_images/dust_pan01.jpg","img/object_images/tool13.jpg","img/object_images/spray_can01.jpg","1","1","0","1","1","0","0.465565200000128","0.455601399997249","0.390929099994537","1","1","1","1","1","1","1","1","3"
"260011","img/object_images/spray_can01.jpg","img/object_images/dust_pan01.jpg","img/object_images/board01.jpg","0","1","1","0","1","1","0.390929099994537","0.465565200000128","0.375956899995799","1","1","1","1","1","1","3","1","1"
"260011","img/object_images/board01.jpg","img/object_images/spray_can01.jpg","img/object_images/duster01.jpg","1","0","1","1","0","0","0.375956899995799","0.390929099994537","0.472210199994151","1","1","1","1","1","1","1","3","1"
"260011","img/object_images/duster01.jpg","img/object_images/board01.jpg","img/object_images/lemon_squeezer01.jpg","1","1","1","0","1","1","0.472210199994151","0.375956899995799","0.351186299994879","1","1","1","1","1","1","1","1","1"
"260011","img/object_images/lemon_squeezer01.jpg","img/object_images/duster01.jpg","img/object_images/glasses03.jpg","1","1","1","1","0","0","0.351186299994879","0.472210199994151","0.322514899991802","1","1","1","1","1","1","1","1","1"
"260011","img/object_images/glasses03.jpg","img/object_images/lemon_squeezer01.jpg","img/object_images/candle02.jpg","1","1","1","0","1","0","0.322514899991802","0.351186299994879","0.438295499996457","1","1","1","1","1","1","1","1","1"
"260011","img/object_images/candle02.jpg","img/object_images/glasses03.jpg","img/object_images/office_supplies01.jpg","1","1","1","0","0","1","0.438295499996457","0.322514899991802","0.332567299992661","1","1","1","1","1","1","1","1","1"
"260011","img/object_images/office_supplies01.jpg","img/object_images/candle02.jpg","img/object_images/clipboard01.jpg","1","1","1","1","0","1","0.332567299992661","0.438295499996457","0.376917699992191","1","1","1","1","1","1","1","1","1"
"260011","img/object_images/clipboard01.jpg","img/object_images/office_supplies01.jpg",NA,"1","1",NA,"1","1",NA,"0.376917699992191","0.332567299992661",NA,"1","1",NA,"1","1",NA,"1","1",NA
"260011","img/object_images/phone04.jpg",NA,"img/object_images/TreeSlice01.jpg","1",NA,"1","1",NA,"1","0.390472999992198",NA,"0.334040599991567","1",NA,"1","1",NA,"1","1",NA,"1"
"260011","img/object_images/TreeSlice01.jpg","img/object_images/phone04.jpg","img/object_images/bottle06.jpg","1","1","1","1","1","0","0.334040599991567","0.390472999992198","0.519284799993329","1","1","1","1","1","1","1","1","1"
"260011","img/object_images/bottle06.jpg","img/object_images/TreeSlice01.jpg","img/object_images/egg_basket01.jpg","1","1","1","0","1","1","0.519284799993329","0.334040599991567","0.340865399994073","1","1","1","1","1","1","1","1","1"
"260011","img/object_images/egg_basket01.jpg","img/object_images/bottle06.jpg","img/object_images/Shoes05.jpg","1","1","0","1","0","0","0.340865399994073","0.519284799993329","0.411460899988015","1","1","1","1","1","1","1","1","1"
"260011","img/object_images/Shoes05.jpg","img/object_images/egg_basket01.jpg","img/object_images/badminton01.jpg","0","1","1","0","1","1","0.411460899988015","0.340865399994073","0.390190099991742","1","1","1","1","1","1","1","1","1"
"260011","img/object_images/badminton01.jpg","img/object_images/Shoes05.jpg","img/object_images/frame01.jpg","1","0","1","1","0","1","0.390190099991742","0.411460899988015","0.37562789999356","1","1","1","1","1","1","1","1","1"
"260011","img/object_images/frame01.jpg","img/object_images/badminton01.jpg","img/object_images/dice01.jpg","1","1","0","1","1","0","0.37562789999356","0.390190099991742","0.370349999997416","1","1","1","1","1","1","1","1","1"
"260011","img/object_images/dice01.jpg","img/object_images/frame01.jpg","img/object_images/tennis_racket01.jpg","0","1","1","0","1","1","0.370349999997416","0.37562789999356","0.38373729999148","1","1","1","1","1","1","1","1","1"
"260011","img/object_images/tennis_racket01.jpg","img/object_images/dice01.jpg","img/object_images/belt03.jpg","1","0","1","1","0","0","0.38373729999148","0.370349999997416","0.55951549999736","1","1","1","1","1","1","1","1","1"
"260011","img/object_images/belt03.jpg","img/object_images/tennis_racket01.jpg","img/object_images/Safe01.jpg","1","1","1","0","1","1","0.55951549999736","0.38373729999148","0.327794599994377","1","1","1","1","1","1","1","1","1"
"260011","img/object_images/Safe01.jpg","img/object_images/belt03.jpg","img/object_images/scale02.jpg","1","1","1","1","0","0","0.327794599994377","0.55951549999736","0.493499299991527","1","1","1","1","1","1","1","1","1"
"260011","img/object_images/scale02.jpg","img/object_images/Safe01.jpg","img/object_images/joystick03.jpg","1","1","1","0","1","1","0.493499299991527","0.327794599994377","0.338488499997766","1","1","1","1","1","1","1","1","1"
"260011","img/object_images/joystick03.jpg","img/object_images/scale02.jpg","img/object_images/headset02.jpg","1","1","1","1","0","0","0.338488499997766","0.493499299991527","0.461944999988191","1","1","1","1","1","1","1","1","1"
"260011","img/object_images/headset02.jpg","img/object_images/joystick03.jpg","img/object_images/note_book02.jpg","1","1","1","0","1","0","0.461944999988191","0.338488499997766","0.45871279999119","1","1","1","1","1","1","1","1","1"
"260011","img/object_images/note_book02.jpg","img/object_images/headset02.jpg","img/object_images/yoga_mat01.jpg","1","1","1","0","0","0","0.45871279999119","0.461944999988191","0.403961099989829","1","1","1","1","1","1","1","1","1"
"260011","img/object_images/yoga_mat01.jpg","img/object_images/note_book02.jpg","img/object_images/usb03.jpg","1","1","1","0","0","0","0.403961099989829","0.45871279999119","0.407026399996539","1","1","1","1","1","1","1","1","1"
"260011","img/object_images/usb03.jpg","img/object_images/yoga_mat01.jpg","img/object_images/Eyeliner01.jpg","1","1","1","0","0","1","0.407026399996539","0.403961099989829","0.38423939999484","1","1","1","1","1","1","1","1","1"
"260011","img/object_images/Eyeliner01.jpg","img/object_images/usb03.jpg","img/object_images/fan01.jpg","1","1","1","1","0","0","0.38423939999484","0.407026399996539","0.625082799990196","1","1","1","1","1","1","1","1","1"
"260011","img/object_images/fan01.jpg","img/object_images/Eyeliner01.jpg","img/object_images/water_gun01.jpg","1","1","1","0","1","1","0.625082799990196","0.38423939999484","0.433365599994431","1","1","1","1","1","1","1","1","1"
"260011","img/object_images/water_gun01.jpg","img/object_images/fan01.jpg","img/object_images/nut_cracker01.jpg","1","1","1","1","0","1","0.433365599994431","0.625082799990196","0.432653499992739","1","1","1","1","1","1","1","1","1"
"260011","img/object_images/nut_cracker01.jpg","img/object_images/water_gun01.jpg","img/object_images/ToolBag01.jpg","1","1","1","1","1","0","0.432653499992739","0.433365599994431","0.538706199993612","1","1","1","1","1","1","1","1","1"
"260011","img/object_images/ToolBag01.jpg","img/object_images/nut_cracker01.jpg","img/object_images/trumpet01.jpg","1","1","1","0","1","0","0.538706199993612","0.432653499992739","0.434382199993706","1","1","1","1","1","1","1","1","1"
"260011","img/object_images/trumpet01.jpg","img/object_images/ToolBag01.jpg","img/object_images/shovel01.jpg","1","1","1","0","0","0","0.434382199993706","0.538706199993612","0.453591499994218","1","1","1","1","1","1","1","1","1"
"260011","img/object_images/shovel01.jpg","img/object_images/trumpet01.jpg","img/object_images/lock03.jpg","1","1","1","0","0","1","0.453591499994218","0.434382199993706","0.378479399994831","1","1","1","1","1","1","1","1","1"
"260011","img/object_images/lock03.jpg","img/object_images/shovel01.jpg","img/object_images/helmet03.jpg","1","1","1","1","0","1","0.378479399994831","0.453591499994218","0.330389999988256","1","1","1","1","1","1","1","1","1"
"260011","img/object_images/helmet03.jpg","img/object_images/lock03.jpg","img/object_images/bucket01.jpg","1","1","1","1","1","1","0.330389999988256","0.378479399994831","0.414360099995975","1","1","1","1","1","1","1","1","1"
"260011","img/object_images/bucket01.jpg","img/object_images/helmet03.jpg","img/object_images/jewel02.jpg","1","1","1","1","1","0","0.414360099995975","0.330389999988256","0.440500599994266","1","1","1","1","1","1","1","1","1"
"260011","img/object_images/jewel02.jpg","img/object_images/bucket01.jpg","img/object_images/pitcher07.jpg","1","1","1","0","1","1","0.440500599994266","0.414360099995975","0.380366499994125","1","1","1","1","1","1","1","1","1"
"260011","img/object_images/pitcher07.jpg","img/object_images/jewel02.jpg","img/object_images/bookmark01.jpg","1","1","0","1","0","0","0.380366499994125","0.440500599994266","0.348948099992413","1","1","1","1","1","1","1","1","1"
"260011","img/object_images/bookmark01.jpg","img/object_images/pitcher07.jpg","img/object_images/origami01.jpg","0","1","1","0","1","1","0.348948099992413","0.380366499994125","0.34159309999086","1","1","1","1","1","1","1","1","1"
"260011","img/object_images/origami01.jpg","img/object_images/bookmark01.jpg","img/object_images/piano03.jpg","1","0","1","1","0","0","0.34159309999086","0.348948099992413","0.469612099994265","1","1","1","1","1","1","1","1","1"
"260011","img/object_images/piano03.jpg","img/object_images/origami01.jpg",NA,"1","1",NA,"0","1",NA,"0.469612099994265","0.34159309999086",NA,"1","1",NA,"1","1",NA,"1","1",NA
"260011","img/object_images/sink01.jpg",NA,"img/object_images/watch01.jpg","1",NA,"1","0",NA,"0","0.505601799988654",NA,"0.398591799988935","1",NA,"1","1",NA,"1","1",NA,"1"
"260011","img/object_images/watch01.jpg","img/object_images/sink01.jpg","img/object_images/jewel04.jpg","1","1","0","0","0","0","0.398591799988935","0.505601799988654","0.370807399995101","1","1","1","1","1","1","1","1","1"
"260011","img/object_images/jewel04.jpg","img/object_images/watch01.jpg","img/object_images/guitar02.jpg","0","1","1","0","0","0","0.370807399995101","0.398591799988935","0.455998699988413","1","1","1","1","1","1","1","1","1"
"260011","img/object_images/guitar02.jpg","img/object_images/jewel04.jpg","img/object_images/judge_gavel01.jpg","1","0","1","0","0","1","0.455998699988413","0.370807399995101","0.383598499996879","1","1","1","1","1","1","1","1","1"
"260011","img/object_images/judge_gavel01.jpg","img/object_images/guitar02.jpg","img/object_images/toy03.jpg","1","1","1","1","0","1","0.383598499996879","0.455998699988413","0.348503099994559","1","1","1","1","1","1","1","1","1"
"260011","img/object_images/toy03.jpg","img/object_images/judge_gavel01.jpg","img/object_images/shovel03.jpg","1","1","1","1","1","1","0.348503099994559","0.383598499996879","0.400380099992617","1","1","1","1","1","1","1","1","1"
"260011","img/object_images/shovel03.jpg","img/object_images/toy03.jpg","img/object_images/mirror01.jpg","1","1","1","1","1","1","0.400380099992617","0.348503099994559","0.341814699990209","1","1","1","1","1","1","1","1","1"
"260011","img/object_images/mirror01.jpg","img/object_images/shovel03.jpg","img/object_images/helmet01.jpg","1","1","1","1","1","0","0.341814699990209","0.400380099992617","0.530324699997436","1","1","1","1","1","1","1","1","1"
"260011","img/object_images/helmet01.jpg","img/object_images/mirror01.jpg","img/object_images/dart01.jpg","1","1","1","0","1","0","0.530324699997436","0.341814699990209","0.57404279999173","1","1","1","1","1","1","1","1","1"
"260011","img/object_images/dart01.jpg","img/object_images/helmet01.jpg","img/object_images/tool02.jpg","1","1","1","0","0","1","0.57404279999173","0.530324699997436","0.404980799990881","1","1","1","1","1","1","1","1","1"
"260011","img/object_images/tool02.jpg","img/object_images/dart01.jpg","img/object_images/tool09.jpg","1","1","1","1","0","1","0.404980799990881","0.57404279999173","0.390971499989973","1","1","1","1","1","1","1","1","1"
"260011","img/object_images/tool09.jpg","img/object_images/tool02.jpg","img/object_images/bird_house02.jpg","1","1","1","1","1","1","0.390971499989973","0.404980799990881","0.381899499996507","1","1","1","1","1","1","1","1","1"
"260011","img/object_images/bird_house02.jpg","img/object_images/tool09.jpg","img/object_images/fridge03.jpg","1","1","1","1","1","0","0.381899499996507","0.390971499989973","0.43270169999596","1","1","1","1","1","1","1","1","1"
"260011","img/object_images/fridge03.jpg","img/object_images/bird_house02.jpg","img/object_images/frisbee01.jpg","1","1","1","0","1","1","0.43270169999596","0.381899499996507","0.403098299990233","1","1","1","1","1","1","1","1","1"
"260011","img/object_images/frisbee01.jpg","img/object_images/fridge03.jpg","img/object_images/stapler.jpg","1","1","1","1","0","1","0.403098299990233","0.43270169999596","0.328962599996885","1","1","1","1","1","1","1","1","1"
"260011","img/object_images/stapler.jpg","img/object_images/frisbee01.jpg","img/object_images/Tin01.jpg","1","1","1","1","1","1","0.328962599996885","0.403098299990233","0.369377799994254","1","1","1","1","1","1","1","1","1"
"260011","img/object_images/Tin01.jpg","img/object_images/stapler.jpg","img/object_images/bottle05.jpg","1","1","1","1","1","0","0.369377799994254","0.328962599996885","0.488405599993712","1","1","1","1","1","1","1","1","1"
"260011","img/object_images/bottle05.jpg","img/object_images/Tin01.jpg","img/object_images/crown02.jpg","1","1","1","0","1","1","0.488405599993712","0.369377799994254","0.383663399996294","1","1","1","1","1","1","1","1","1"
"260011","img/object_images/crown02.jpg","img/object_images/bottle05.jpg","img/object_images/MetalWire01.jpg","1","1","1","1","0","0","0.383663399996294","0.488405599993712","0.551346799991734","1","1","1","1","1","1","1","1","1"
"260011","img/object_images/MetalWire01.jpg","img/object_images/crown02.jpg","img/object_images/towel02.jpg","1","1","1","0","1","1","0.551346799991734","0.383663399996294","0.392454999993788","1","1","1","1","1","1","1","1","1"
"260011","img/object_images/towel02.jpg","img/object_images/MetalWire01.jpg","img/object_images/ornament01.jpg","1","1","1","1","0","1","0.392454999993788","0.551346799991734","0.397855799994431","1","1","1","1","1","1","1","1","1"
"260011","img/object_images/ornament01.jpg","img/object_images/towel02.jpg","img/object_images/gauze01.jpg","1","1","0","1","1","0","0.397855799994431","0.392454999993788","0.331250899987936","1","1","1","1","1","1","1","1","1"
"260011","img/object_images/gauze01.jpg","img/object_images/ornament01.jpg","img/object_images/Stool01.jpg","0","1","1","0","1","0","0.331250899987936","0.397855799994431","0.588849299987487","1","1","1","1","1","1","1","1","1"
"260011","img/object_images/Stool01.jpg","img/object_images/gauze01.jpg","img/object_images/pot01 (1).jpg","1","0","1","0","0","0","0.588849299987487","0.331250899987936","0.612649699993199","1","1","1","1","1","1","1","1","1"
"260011","img/object_images/pot01 (1).jpg","img/object_images/Stool01.jpg","img/object_images/outlet01.jpg","1","1","1","0","0","0","0.612649699993199","0.588849299987487","0.43581599999743","1","1","1","1","1","1","1","1","1"
"260011","img/object_images/outlet01.jpg","img/object_images/pot01 (1).jpg","img/object_images/Ring02.jpg","1","1","1","0","0","0","0.43581599999743","0.612649699993199","0.458157699998992","1","1","1","1","1","1","1","1","1"
"260011","img/object_images/Ring02.jpg","img/object_images/outlet01.jpg","img/object_images/bow01.jpg","1","1","1","0","0","1","0.458157699998992","0.43581599999743","0.377459399991494","1","1","1","1","1","1","1","1","1"
"260011","img/object_images/bow01.jpg","img/object_images/Ring02.jpg","img/object_images/Vacuum01.jpg","1","1","1","1","0","0","0.377459399991494","0.458157699998992","0.485512999992352","1","1","1","1","1","1","1","1","1"
"260011","img/object_images/Vacuum01.jpg","img/object_images/bow01.jpg","img/object_images/video_game07.jpg","1","1","1","0","1","1","0.485512999992352","0.377459399991494","0.348258799989708","1","1","1","1","1","1","1","1","1"
"260011","img/object_images/video_game07.jpg","img/object_images/Vacuum01.jpg","img/object_images/toy04.jpg","1","1","1","1","0","0","0.348258799989708","0.485512999992352","0.332800199990743","1","1","1","1","1","1","1","1","1"
"260011","img/object_images/toy04.jpg","img/object_images/video_game07.jpg","img/object_images/acoustic_capo01.jpg","1","1","1","0","1","1","0.332800199990743","0.348258799989708","0.430699999989884","1","1","1","1","1","1","1","1","1"
"260011","img/object_images/acoustic_capo01.jpg","img/object_images/toy04.jpg",NA,"1","1",NA,"1","0",NA,"0.430699999989884","0.332800199990743",NA,"1","1",NA,"1","1",NA,"1","1",NA
"260011","img/object_images/toy05.jpg",NA,"img/object_images/calculator01.jpg","1",NA,"1","0",NA,"1","0.432447699997283",NA,"0.362304699992819","1",NA,"1","1",NA,"1","1",NA,"1"
"260011","img/object_images/calculator01.jpg","img/object_images/toy05.jpg","img/object_images/helmet02.jpg","1","1","1","1","0","0","0.362304699992819","0.432447699997283","0.411641499988036","1","1","1","1","1","1","1","1","1"
"260011","img/object_images/helmet02.jpg","img/object_images/calculator01.jpg","img/object_images/Lint_Roller02.jpg","1","1","1","0","1","0","0.411641499988036","0.362304699992819","0.350887999993574","1","1","1","1","1","1","1","1","1"
"260011","img/object_images/Lint_Roller02.jpg","img/object_images/helmet02.jpg","img/object_images/umbrella01.jpg","1","1","1","0","0","0","0.350887999993574","0.411641499988036","0.434288299991749","1","1","1","1","1","1","1","1","1"
"260011","img/object_images/umbrella01.jpg","img/object_images/Lint_Roller02.jpg","img/object_images/laptop01.jpg","1","1","1","0","0","0","0.434288299991749","0.350887999993574","0.48953989999427","1","1","1","1","1","1","1","1","1"
"260011","img/object_images/laptop01.jpg","img/object_images/umbrella01.jpg","img/object_images/robe01.jpg","1","1","1","0","0","1","0.48953989999427","0.434288299991749","0.35647579999204","1","1","1","1","1","1","1","1","1"
"260011","img/object_images/robe01.jpg","img/object_images/laptop01.jpg","img/object_images/surf_board01.jpg","1","1","1","1","0","1","0.35647579999204","0.48953989999427","0.30811389999144","1","1","1","1","1","1","1","1","1"
"260011","img/object_images/surf_board01.jpg","img/object_images/robe01.jpg","img/object_images/bucket02.jpg","1","1","1","1","1","1","0.30811389999144","0.35647579999204","0.392321899991657","1","1","1","1","1","1","1","1","1"
"260011","img/object_images/bucket02.jpg","img/object_images/surf_board01.jpg","img/object_images/shoes08.jpg","1","1","1","1","1","1","0.392321899991657","0.30811389999144","0.410222099992097","1","1","1","1","1","1","1","1","1"
"260011","img/object_images/shoes08.jpg","img/object_images/bucket02.jpg","img/object_images/vase01.jpg","1","1","0","1","1","0","0.410222099992097","0.392321899991657","0.343192699998326","1","1","1","1","1","1","1","1","1"
"260011","img/object_images/vase01.jpg","img/object_images/shoes08.jpg","img/object_images/combs01.jpg","0","1","1","0","1","1","0.343192699998326","0.410222099992097","0.387848099999246","1","1","1","1","1","1","1","1","1"
"260011","img/object_images/combs01.jpg","img/object_images/vase01.jpg","img/object_images/microphone03.jpg","1","0","1","1","0","1","0.387848099999246","0.343192699998326","0.37133699998958","1","1","1","1","1","1","1","1","1"
"260011","img/object_images/microphone03.jpg","img/object_images/combs01.jpg","img/object_images/pitcher05.jpg","1","1","1","1","1","0","0.37133699998958","0.387848099999246","0.355736899990006","1","1","1","1","1","1","1","1","1"
"260011","img/object_images/pitcher05.jpg","img/object_images/microphone03.jpg","img/object_images/towels01.jpg","1","1","0","0","1","0","0.355736899990006","0.37133699998958","0.356454899992968","1","1","1","1","1","1","1","1","1"
"260011","img/object_images/towels01.jpg","img/object_images/pitcher05.jpg","img/object_images/lock01.jpg","0","1","1","0","0","0","0.356454899992968","0.355736899990006","0.460579799990228","1","1","1","1","1","1","1","1","1"
"260011","img/object_images/lock01.jpg","img/object_images/towels01.jpg","img/object_images/stove01.jpg","1","0","1","0","0","0","0.460579799990228","0.356454899992968","0.436893299993244","1","1","1","1","1","1","1","1","1"
"260011","img/object_images/stove01.jpg","img/object_images/lock01.jpg","img/object_images/fan04.jpg","1","1","1","0","0","0","0.436893299993244","0.460579799990228","0.44835599999351","1","1","1","1","1","1","1","1","1"
"260011","img/object_images/fan04.jpg","img/object_images/stove01.jpg","img/object_images/accardion01.jpg","1","1","1","0","0","1","0.44835599999351","0.436893299993244","0.376448399991204","1","1","1","1","1","1","1","1","1"
"260011","img/object_images/accardion01.jpg","img/object_images/fan04.jpg","img/object_images/ball02.jpg","1","1","1","1","0","1","0.376448399991204","0.44835599999351","0.382103299991286","1","1","1","1","1","1","1","1","1"
"260011","img/object_images/ball02.jpg","img/object_images/accardion01.jpg","img/object_images/trash_can03.jpg","1","1","1","1","1","1","0.382103299991286","0.376448399991204","0.359503899991978","1","1","1","1","1","1","1","1","1"
"260011","img/object_images/trash_can03.jpg","img/object_images/ball02.jpg","img/object_images/hair_brush02.jpg","1","1","1","1","1","0","0.359503899991978","0.382103299991286","0.49565389999043","1","1","1","1","1","1","1","1","1"
"260011","img/object_images/hair_brush02.jpg","img/object_images/trash_can03.jpg","img/object_images/hair_dryer01.jpg","1","1","1","0","1","0","0.49565389999043","0.359503899991978","0.396439699994517","1","1","1","1","1","1","1","1","1"
"260011","img/object_images/hair_dryer01.jpg","img/object_images/hair_brush02.jpg","img/object_images/trash_can05.jpg","1","1","1","0","0","1","0.396439699994517","0.49565389999043","0.439069299995026","1","1","1","1","1","1","1","1","1"
"260011","img/object_images/trash_can05.jpg","img/object_images/hair_dryer01.jpg","img/object_images/backpack03.jpg","1","1","1","1","0","1","0.439069299995026","0.396439699994517","0.336116299993591","1","1","1","1","1","1","1","1","1"
"260011","img/object_images/backpack03.jpg","img/object_images/trash_can05.jpg","img/object_images/chess_piece01.jpg","1","1","1","1","1","0","0.336116299993591","0.439069299995026","0.477033699993626","1","1","1","1","1","1","1","1","1"
"260011","img/object_images/chess_piece01.jpg","img/object_images/backpack03.jpg","img/object_images/spatula02.jpg","1","1","1","0","1","1","0.477033699993626","0.336116299993591","0.369426099998236","1","1","1","1","1","1","1","1","1"
"260011","img/object_images/spatula02.jpg","img/object_images/chess_piece01.jpg","img/object_images/laptop03.jpg","1","1","1","1","0","1","0.369426099998236","0.477033699993626","0.365105199991376","1","1","1","1","1","1","1","1","1"
"260011","img/object_images/laptop03.jpg","img/object_images/spatula02.jpg","img/object_images/gift_box05.jpg","1","1","1","1","1","0","0.365105199991376","0.369426099998236","0.478841199997987","1","1","1","1","1","1","1","1","1"
"260011","img/object_images/gift_box05.jpg","img/object_images/laptop03.jpg","img/object_images/chair02.jpg","1","1","1","0","1","1","0.478841199997987","0.365105199991376","0.390609099995345","1","1","1","1","1","1","1","1","1"
"260011","img/object_images/chair02.jpg","img/object_images/gift_box05.jpg","img/object_images/jewel03.jpg","1","1","1","1","0","1","0.390609099995345","0.478841199997987","0.421095499994408","1","1","1","1","1","1","1","1","1"
"260011","img/object_images/jewel03.jpg","img/object_images/chair02.jpg","img/object_images/Vest02.jpg","1","1","0","1","1","0","0.421095499994408","0.390609099995345","0.360079499987478","1","1","1","1","1","1","1","1","1"
"260011","img/object_images/Vest02.jpg","img/object_images/jewel03.jpg",NA,"0","1",NA,"0","1",NA,"0.360079499987478","0.421095499994408",NA,"1","1",NA,"1","1",NA,"1","1",NA
"260011","img/object_images/MeasuringCup01.jpg",NA,"img/object_images/bag06.jpg","1",NA,"1","1",NA,"1","0.404786199993396",NA,"0.380052299995441","1",NA,"1","1",NA,"1","1",NA,"1"
"260011","img/object_images/bag06.jpg","img/object_images/MeasuringCup01.jpg","img/object_images/razor01.jpg","1","1","1","1","1","0","0.380052299995441","0.404786199993396","0.452565299994603","1","1","1","1","1","1","1","1","1"
"260011","img/object_images/razor01.jpg","img/object_images/bag06.jpg","img/object_images/screwdriver01.jpg","1","1","1","0","1","0","0.452565299994603","0.380052299995441","0.415446299994073","1","1","1","1","1","1","1","1","1"
"260011","img/object_images/screwdriver01.jpg","img/object_images/razor01.jpg","img/object_images/satellite01.jpg","1","1","1","0","0","0","0.415446299994073","0.452565299994603","0.350488099989889","1","1","1","1","1","1","1","1","1"
"260011","img/object_images/satellite01.jpg","img/object_images/screwdriver01.jpg","img/object_images/WitchHat02.jpg","1","1","1","0","0","1","0.350488099989889","0.415446299994073","0.366637499995704","1","1","1","1","1","1","1","1","1"
"260011","img/object_images/WitchHat02.jpg","img/object_images/satellite01.jpg","img/object_images/car03.jpg","1","1","1","1","0","0","0.366637499995704","0.350488099989889","0.426282299995364","1","1","1","1","1","1","1","1","1"
"260011","img/object_images/car03.jpg","img/object_images/WitchHat02.jpg","img/object_images/yarn02.jpg","1","1","1","0","1","0","0.426282299995364","0.366637499995704","0.618459399993299","1","1","1","1","1","1","1","1","1"
"260011","img/object_images/yarn02.jpg","img/object_images/car03.jpg","img/object_images/shower_head03.jpg","1","1","1","0","0","1","0.618459399993299","0.426282299995364","0.427044099997147","1","1","1","1","1","1","1","1","1"
"260011","img/object_images/shower_head03.jpg","img/object_images/yarn02.jpg","img/object_images/ladle02.jpg","1","1","1","1","0","0","0.427044099997147","0.618459399993299","0.466268999989552","1","1","1","1","1","1","1","1","1"
"260011","img/object_images/ladle02.jpg","img/object_images/shower_head03.jpg","img/object_images/cutting_board01.jpg","1","1","1","0","1","1","0.466268999989552","0.427044099997147","0.373518599997624","1","1","1","1","1","1","1","1","1"
"260011","img/object_images/cutting_board01.jpg","img/object_images/ladle02.jpg","img/object_images/shoes10.jpg","1","1","0","1","0","0","0.373518599997624","0.466268999989552","0.379227699995681","1","1","1","1","1","1","1","1","1"
"260011","img/object_images/shoes10.jpg","img/object_images/cutting_board01.jpg","img/object_images/ribbon01.jpg","0","1","1","0","1","0","0.379227699995681","0.373518599997624","0.38845549999678","1","1","1","1","1","1","1","1","1"
"260011","img/object_images/ribbon01.jpg","img/object_images/shoes10.jpg","img/object_images/rock03.jpg","1","0","1","0","0","0","0.38845549999678","0.379227699995681","0.444358399996418","1","1","1","1","1","1","1","1","1"
"260011","img/object_images/rock03.jpg","img/object_images/ribbon01.jpg","img/object_images/car04.jpg","1","1","1","0","0","0","0.444358399996418","0.38845549999678","0.542542299997876","1","1","1","1","1","1","1","1","1"
"260011","img/object_images/car04.jpg","img/object_images/rock03.jpg","img/object_images/jewel01.jpg","1","1","1","0","0","0","0.542542299997876","0.444358399996418","0.370567799996934","1","1","1","1","1","1","1","1","1"
"260011","img/object_images/jewel01.jpg","img/object_images/car04.jpg","img/object_images/ice_tray03.jpg","1","1","1","0","0","1","0.370567799996934","0.542542299997876","0.350945999991382","1","1","1","1","1","1","1","1","1"
"260011","img/object_images/ice_tray03.jpg","img/object_images/jewel01.jpg","img/object_images/cards01.jpg","1","1","1","1","0","0","0.350945999991382","0.370567799996934","0.554789799993159","1","1","1","1","1","1","1","1","1"
"260011","img/object_images/cards01.jpg","img/object_images/ice_tray03.jpg","img/object_images/tool11.jpg","1","1","1","0","1","1","0.554789799993159","0.350945999991382","0.356904099993699","1","1","1","1","1","1","1","1","1"
"260011","img/object_images/tool11.jpg","img/object_images/cards01.jpg","img/object_images/lemon_squeezer02.jpg","1","1","1","1","0","1","0.356904099993699","0.554789799993159","0.349550199993246","1","1","1","1","1","1","1","1","1"
"260011","img/object_images/lemon_squeezer02.jpg","img/object_images/tool11.jpg","img/object_images/slinky_toy01.jpg","1","1","1","1","1","1","0.349550199993246","0.356904099993699","0.431834699993487","1","1","1","1","1","1","1","1","1"
"260011","img/object_images/slinky_toy01.jpg","img/object_images/lemon_squeezer02.jpg","img/object_images/belt01.jpg","1","1","0","1","1","0","0.431834699993487","0.349550199993246","0.423611099999107","1","1","1","1","1","1","1","1","1"
"260011","img/object_images/belt01.jpg","img/object_images/slinky_toy01.jpg","img/object_images/hair_brush05.jpg","0","1","1","0","1","1","0.423611099999107","0.431834699993487","0.438696799996251","1","1","1","1","1","1","1","1","1"
"260011","img/object_images/hair_brush05.jpg","img/object_images/belt01.jpg","img/object_images/fan05.jpg","1","0","1","1","0","0","0.438696799996251","0.423611099999107","0.440953899997112","1","1","1","1","1","1","1","1","1"
"260011","img/object_images/fan05.jpg","img/object_images/hair_brush05.jpg","img/object_images/toaster02.jpg","1","1","1","0","1","1","0.440953899997112","0.438696799996251","0.326883399997314","1","1","1","1","1","1","1","1","1"
"260011","img/object_images/toaster02.jpg","img/object_images/fan05.jpg","img/object_images/chair04.jpg","1","1","1","1","0","1","0.326883399997314","0.440953899997112","0.436023199996271","1","1","1","1","1","1","1","1","1"
"260011","img/object_images/chair04.jpg","img/object_images/toaster02.jpg","img/object_images/binoculars03.jpg","1","1","1","1","1","1","0.436023199996271","0.326883399997314","0.319776399992406","1","1","1","1","1","1","1","1","1"
"260011","img/object_images/binoculars03.jpg","img/object_images/chair04.jpg","img/object_images/key02.jpg","1","1","1","1","1","1","0.319776399992406","0.436023199996271","0.386070499997004","1","1","1","1","1","1","1","1","1"
"260011","img/object_images/key02.jpg","img/object_images/binoculars03.jpg","img/object_images/dress03.jpg","1","1","1","1","1","1","0.386070499997004","0.319776399992406","0.421397799989791","1","1","1","1","1","1","1","1","1"
"260011","img/object_images/dress03.jpg","img/object_images/key02.jpg","img/object_images/mask01.jpg","1","1","1","1","1","0","0.421397799989791","0.386070499997004","0.388968799990835","1","1","1","1","1","1","1","1","1"
"260011","img/object_images/mask01.jpg","img/object_images/dress03.jpg","img/object_images/jewelry07.jpg","1","1","1","0","1","1","0.388968799990835","0.421397799989791","0.392488999990746","1","1","1","1","1","1","1","1","1"
"260011","img/object_images/jewelry07.jpg","img/object_images/mask01.jpg","img/object_images/tv01.jpg","1","1","1","1","0","0","0.392488999990746","0.388968799990835","0.441515799990157","1","1","1","1","1","1","1","1","1"
"260011","img/object_images/tv01.jpg","img/object_images/jewelry07.jpg",NA,"1","1",NA,"0","1",NA,"0.441515799990157","0.392488999990746",NA,"1","1",NA,"1","1",NA,"1","1",NA
