"participant_id","current_trial_object","pre_trial_object","post_trial_object","current_trial_accuracy","pre_trial_accuracy","post_trial_accuracy","current_trial_congruency","pre_trial_congruency","post_trial_congruency","current_trial_rt","pre_trial_rt","post_trial_rt","current_trial_responded","pre_trial_responded","post_trial_responded","current_trial_legitResponse","pre_trial_legitResponse","post_trial_legitResponse","current_trial_resp_nums","pre_trial_resp_nums","post_trial_resp_nums"
"260058","img/object_images/robe01.jpg",NA,"img/object_images/helmet02.jpg","1",NA,"1","1",NA,"0","0.612308599986136",NA,"0.639364500064403","1",NA,"1","1",NA,"1","1",NA,"1"
"260058","img/object_images/helmet02.jpg","img/object_images/robe01.jpg","img/object_images/chess_piece01.jpg","1","1","1","0","1","0","0.639364500064403","0.612308599986136","0.695406300015748","1","1","1","1","1","1","1","1","1"
"260058","img/object_images/chess_piece01.jpg","img/object_images/helmet02.jpg","img/object_images/Vest02.jpg","1","1","1","0","0","0","0.695406300015748","0.639364500064403","0.494538199855015","1","1","1","1","1","1","1","1","1"
"260058","img/object_images/Vest02.jpg","img/object_images/chess_piece01.jpg","img/object_images/spatula02.jpg","1","1","1","0","0","1","0.494538199855015","0.695406300015748","0.416892099892721","1","1","1","1","1","1","1","1","1"
"260058","img/object_images/spatula02.jpg","img/object_images/Vest02.jpg","img/object_images/combs01.jpg","1","1","1","1","0","1","0.416892099892721","0.494538199855015","0.499683599919081","1","1","1","1","1","1","1","1","1"
"260058","img/object_images/combs01.jpg","img/object_images/spatula02.jpg","img/object_images/laptop03.jpg","1","1","1","1","1","1","0.499683599919081","0.416892099892721","0.490111399907619","1","1","1","1","1","1","1","1","1"
"260058","img/object_images/laptop03.jpg","img/object_images/combs01.jpg","img/object_images/ball02.jpg","1","1","1","1","1","1","0.490111399907619","0.499683599919081","0.487376899924129","1","1","1","1","1","1","1","1","1"
"260058","img/object_images/ball02.jpg","img/object_images/laptop03.jpg","img/object_images/trash_can05.jpg","1","1","1","1","1","1","0.487376899924129","0.490111399907619","0.657025699969381","1","1","1","1","1","1","1","1","1"
"260058","img/object_images/trash_can05.jpg","img/object_images/ball02.jpg","img/object_images/calculator01.jpg","1","1","1","1","1","1","0.657025699969381","0.487376899924129","0.540078099817038","1","1","1","1","1","1","1","1","1"
"260058","img/object_images/calculator01.jpg","img/object_images/trash_can05.jpg","img/object_images/umbrella01.jpg","1","1","1","1","1","0","0.540078099817038","0.657025699969381","0.623677799943835","1","1","1","1","1","1","1","1","1"
"260058","img/object_images/umbrella01.jpg","img/object_images/calculator01.jpg","img/object_images/gift_box05.jpg","1","1","1","0","1","0","0.623677799943835","0.540078099817038","0.688948499970138","1","1","1","1","1","1","1","1","1"
"260058","img/object_images/gift_box05.jpg","img/object_images/umbrella01.jpg","img/object_images/pitcher05.jpg","1","1","1","0","0","0","0.688948499970138","0.623677799943835","0.811672100098804","1","1","1","1","1","1","1","1","1"
"260058","img/object_images/pitcher05.jpg","img/object_images/gift_box05.jpg","img/object_images/chair02.jpg","1","1","1","0","0","1","0.811672100098804","0.688948499970138","0.591034400044009","1","1","1","1","1","1","1","1","1"
"260058","img/object_images/chair02.jpg","img/object_images/pitcher05.jpg","img/object_images/surf_board01.jpg","1","1","1","1","0","1","0.591034400044009","0.811672100098804","0.612440100172535","1","1","1","1","1","1","1","1","1"
"260058","img/object_images/surf_board01.jpg","img/object_images/chair02.jpg","img/object_images/bucket02.jpg","1","1","1","1","1","1","0.612440100172535","0.591034400044009","0.620680299820378","1","1","1","1","1","1","1","1","1"
"260058","img/object_images/bucket02.jpg","img/object_images/surf_board01.jpg","img/object_images/toy05.jpg","1","1","1","1","1","0","0.620680299820378","0.612440100172535","0.511124599957839","1","1","1","1","1","1","1","1","1"
"260058","img/object_images/toy05.jpg","img/object_images/bucket02.jpg","img/object_images/fan04.jpg","1","1","1","0","1","0","0.511124599957839","0.620680299820378","0.670340499840677","1","1","1","1","1","1","1","1","1"
"260058","img/object_images/fan04.jpg","img/object_images/toy05.jpg","img/object_images/accardion01.jpg","1","1","1","0","0","1","0.670340499840677","0.511124599957839","0.605997300008312","1","1","1","1","1","1","1","1","1"
"260058","img/object_images/accardion01.jpg","img/object_images/fan04.jpg","img/object_images/lock01.jpg","1","1","1","1","0","0","0.605997300008312","0.670340499840677","0.518466199981049","1","1","1","1","1","1","1","1","1"
"260058","img/object_images/lock01.jpg","img/object_images/accardion01.jpg","img/object_images/microphone03.jpg","1","1","1","0","1","1","0.518466199981049","0.605997300008312","0.395167999900877","1","1","1","1","1","1","1","1","1"
"260058","img/object_images/microphone03.jpg","img/object_images/lock01.jpg","img/object_images/hair_dryer01.jpg","1","1","0","1","0","0","0.395167999900877","0.518466199981049","0.862169400090352","1","1","1","1","1","1","1","1","1"
"260058","img/object_images/hair_dryer01.jpg","img/object_images/microphone03.jpg","img/object_images/laptop01.jpg","0","1","1","0","1","0","0.862169400090352","0.395167999900877","0.542643500026315","1","1","1","1","1","1","1","1","1"
"260058","img/object_images/laptop01.jpg","img/object_images/hair_dryer01.jpg","img/object_images/trash_can03.jpg","1","0","1","0","0","1","0.542643500026315","0.862169400090352","0.800952899968252","1","1","1","1","1","1","1","1","1"
"260058","img/object_images/trash_can03.jpg","img/object_images/laptop01.jpg","img/object_images/towels01.jpg","1","1","1","1","0","0","0.800952899968252","0.542643500026315","0.530897499993443","1","1","1","1","1","1","1","1","1"
"260058","img/object_images/towels01.jpg","img/object_images/trash_can03.jpg","img/object_images/stove01.jpg","1","1","1","0","1","0","0.530897499993443","0.800952899968252","0.590320500079542","1","1","1","1","1","1","1","1","1"
"260058","img/object_images/stove01.jpg","img/object_images/towels01.jpg","img/object_images/jewel03.jpg","1","1","1","0","0","1","0.590320500079542","0.530897499993443","0.639232599874958","1","1","1","1","1","1","1","1","1"
"260058","img/object_images/jewel03.jpg","img/object_images/stove01.jpg","img/object_images/vase01.jpg","1","1","1","1","0","0","0.639232599874958","0.590320500079542","0.574130400083959","1","1","1","1","1","1","1","1","1"
"260058","img/object_images/vase01.jpg","img/object_images/jewel03.jpg","img/object_images/backpack03.jpg","1","1","1","0","1","1","0.574130400083959","0.639232599874958","0.559904399793595","1","1","1","1","1","1","1","1","1"
"260058","img/object_images/backpack03.jpg","img/object_images/vase01.jpg","img/object_images/Lint_Roller02.jpg","1","1","1","1","0","0","0.559904399793595","0.574130400083959","0.706747899996117","1","1","1","1","1","1","1","1","1"
"260058","img/object_images/Lint_Roller02.jpg","img/object_images/backpack03.jpg","img/object_images/hair_brush02.jpg","1","1","1","0","1","0","0.706747899996117","0.559904399793595","0.684473500121385","1","1","1","1","1","1","1","1","1"
"260058","img/object_images/hair_brush02.jpg","img/object_images/Lint_Roller02.jpg","img/object_images/shoes08.jpg","1","1","1","0","0","1","0.684473500121385","0.706747899996117","0.673274600179866","1","1","1","1","1","1","1","1","1"
"260058","img/object_images/shoes08.jpg","img/object_images/hair_brush02.jpg",NA,"1","1",NA,"1","0",NA,"0.673274600179866","0.684473500121385",NA,"1","1",NA,"1","1",NA,"1","1",NA
"260058","img/object_images/dart01.jpg",NA,"img/object_images/outlet01.jpg","1",NA,"1","0",NA,"0","0.742025800049305",NA,"1.59794740006328","1",NA,"1","1",NA,"1","1",NA,"1"
"260058","img/object_images/outlet01.jpg","img/object_images/dart01.jpg","img/object_images/fridge03.jpg","1","1","1","0","0","0","1.59794740006328","0.742025800049305","0.593929199967533","1","1","1","1","1","1","1","1","1"
"260058","img/object_images/fridge03.jpg","img/object_images/outlet01.jpg","img/object_images/mirror01.jpg","1","1","1","0","0","1","0.593929199967533","1.59794740006328","0.48030099994503","1","1","1","1","1","1","1","1","1"
"260058","img/object_images/mirror01.jpg","img/object_images/fridge03.jpg","img/object_images/watch01.jpg","1","1","1","1","0","0","0.48030099994503","0.593929199967533","0.570504099829122","1","1","1","1","1","1","1","1","1"
"260058","img/object_images/watch01.jpg","img/object_images/mirror01.jpg","img/object_images/tool02.jpg","1","1","1","0","1","1","0.570504099829122","0.48030099994503","0.710726100020111","1","1","1","1","1","1","1","1","1"
"260058","img/object_images/tool02.jpg","img/object_images/watch01.jpg","img/object_images/video_game07.jpg","1","1","1","1","0","1","0.710726100020111","0.570504099829122","0.519758500158787","1","1","1","1","1","1","1","1","1"
"260058","img/object_images/video_game07.jpg","img/object_images/tool02.jpg","img/object_images/helmet01.jpg","1","1","1","1","1","0","0.519758500158787","0.710726100020111","0.49184889998287","1","1","1","1","1","1","1","1","1"
"260058","img/object_images/helmet01.jpg","img/object_images/video_game07.jpg","img/object_images/gauze01.jpg","1","1","1","0","1","0","0.49184889998287","0.519758500158787","0.554900099989027","1","1","1","1","1","1","1","1","1"
"260058","img/object_images/gauze01.jpg","img/object_images/helmet01.jpg","img/object_images/ornament01.jpg","1","1","1","0","0","1","0.554900099989027","0.49184889998287","0.531106000067666","1","1","1","1","1","1","1","1","1"
"260058","img/object_images/ornament01.jpg","img/object_images/gauze01.jpg","img/object_images/shovel03.jpg","1","1","1","1","0","1","0.531106000067666","0.554900099989027","0.759722999995574","1","1","1","1","1","1","1","1","1"
"260058","img/object_images/shovel03.jpg","img/object_images/ornament01.jpg","img/object_images/tool09.jpg","1","1","1","1","1","1","0.759722999995574","0.531106000067666","0.482354899868369","1","1","1","1","1","1","1","1","1"
"260058","img/object_images/tool09.jpg","img/object_images/shovel03.jpg","img/object_images/Stool01.jpg","1","1","1","1","1","0","0.482354899868369","0.759722999995574","0.630010700086132","1","1","1","1","1","1","1","1","1"
"260058","img/object_images/Stool01.jpg","img/object_images/tool09.jpg","img/object_images/sink01.jpg","1","1","1","0","1","0","0.630010700086132","0.482354899868369","0.638272699899971","1","1","1","1","1","1","1","1","1"
"260058","img/object_images/sink01.jpg","img/object_images/Stool01.jpg","img/object_images/MetalWire01.jpg","1","1","1","0","0","0","0.638272699899971","0.630010700086132","0.62379250000231","1","1","1","1","1","1","1","1","1"
"260058","img/object_images/MetalWire01.jpg","img/object_images/sink01.jpg","img/object_images/bow01.jpg","1","1","1","0","0","1","0.62379250000231","0.638272699899971","0.568959600059316","1","1","1","1","1","1","1","1","1"
"260058","img/object_images/bow01.jpg","img/object_images/MetalWire01.jpg","img/object_images/Ring02.jpg","1","1","1","1","0","0","0.568959600059316","0.62379250000231","0.570762800052762","1","1","1","1","1","1","1","1","1"
"260058","img/object_images/Ring02.jpg","img/object_images/bow01.jpg","img/object_images/Vacuum01.jpg","1","1","1","0","1","0","0.570762800052762","0.568959600059316","0.554963100003079","1","1","1","1","1","1","1","1","1"
"260058","img/object_images/Vacuum01.jpg","img/object_images/Ring02.jpg","img/object_images/bird_house02.jpg","1","1","1","0","0","1","0.554963100003079","0.570762800052762","0.478234200039878","1","1","1","1","1","1","1","1","1"
"260058","img/object_images/bird_house02.jpg","img/object_images/Vacuum01.jpg","img/object_images/guitar02.jpg","1","1","1","1","0","0","0.478234200039878","0.554963100003079","0.546502100070938","1","1","1","1","1","1","1","1","1"
"260058","img/object_images/guitar02.jpg","img/object_images/bird_house02.jpg","img/object_images/towel02.jpg","1","1","1","0","1","1","0.546502100070938","0.478234200039878","0.67828239989467","1","1","1","1","1","1","1","1","1"
"260058","img/object_images/towel02.jpg","img/object_images/guitar02.jpg","img/object_images/crown02.jpg","1","1","1","1","0","1","0.67828239989467","0.546502100070938","0.478860000148416","1","1","1","1","1","1","1","1","1"
"260058","img/object_images/crown02.jpg","img/object_images/towel02.jpg","img/object_images/toy03.jpg","1","1","1","1","1","1","0.478860000148416","0.67828239989467","0.660791900008917","1","1","1","1","1","1","1","1","1"
"260058","img/object_images/toy03.jpg","img/object_images/crown02.jpg","img/object_images/bottle05.jpg","1","1","1","1","1","0","0.660791900008917","0.478860000148416","0.628052199957892","1","1","1","1","1","1","1","1","1"
"260058","img/object_images/bottle05.jpg","img/object_images/toy03.jpg","img/object_images/toy04.jpg","1","1","1","0","1","0","0.628052199957892","0.660791900008917","0.549954399932176","1","1","1","1","1","1","1","1","1"
"260058","img/object_images/toy04.jpg","img/object_images/bottle05.jpg","img/object_images/stapler.jpg","1","1","1","0","0","1","0.549954399932176","0.628052199957892","0.68674649996683","1","1","1","1","1","1","1","1","1"
"260058","img/object_images/stapler.jpg","img/object_images/toy04.jpg","img/object_images/frisbee01.jpg","1","1","1","1","0","1","0.68674649996683","0.549954399932176","0.724334999918938","1","1","1","1","1","1","1","1","1"
"260058","img/object_images/frisbee01.jpg","img/object_images/stapler.jpg","img/object_images/judge_gavel01.jpg","1","1","1","1","1","1","0.724334999918938","0.68674649996683","0.657385400030762","1","1","1","1","1","1","1","1","1"
"260058","img/object_images/judge_gavel01.jpg","img/object_images/frisbee01.jpg","img/object_images/Tin01.jpg","1","1","1","1","1","1","0.657385400030762","0.724334999918938","0.602149400161579","1","1","1","1","1","1","1","1","1"
"260058","img/object_images/Tin01.jpg","img/object_images/judge_gavel01.jpg","img/object_images/acoustic_capo01.jpg","1","1","1","1","1","1","0.602149400161579","0.657385400030762","0.540298900101334","1","1","1","1","1","1","1","1","1"
"260058","img/object_images/acoustic_capo01.jpg","img/object_images/Tin01.jpg","img/object_images/pot01 (1).jpg","1","1","1","1","1","0","0.540298900101334","0.602149400161579","0.733573700068519","1","1","1","1","1","1","1","1","1"
"260058","img/object_images/pot01 (1).jpg","img/object_images/acoustic_capo01.jpg","img/object_images/jewel04.jpg","1","1","1","0","1","0","0.733573700068519","0.540298900101334","0.541694199899212","1","1","1","1","1","1","1","1","1"
"260058","img/object_images/jewel04.jpg","img/object_images/pot01 (1).jpg",NA,"1","1",NA,"0","0",NA,"0.541694199899212","0.733573700068519",NA,"1","1",NA,"1","1",NA,"1","1",NA
"260058","img/object_images/blender01.jpg",NA,"img/object_images/fork02.jpg","1",NA,"1","0",NA,"0","0.765089399879798",NA,"0.651368899969384","1",NA,"1","1",NA,"1","1",NA,"1"
"260058","img/object_images/fork02.jpg","img/object_images/blender01.jpg","img/object_images/couch01.jpg","1","1","1","0","0","0","0.651368899969384","0.765089399879798","0.554737099912018","1","1","1","1","1","1","1","1","1"
"260058","img/object_images/couch01.jpg","img/object_images/fork02.jpg","img/object_images/box03.jpg","1","1","1","0","0","0","0.554737099912018","0.651368899969384","0.68111570016481","1","1","1","1","1","1","1","1","1"
"260058","img/object_images/box03.jpg","img/object_images/couch01.jpg","img/object_images/pen01.jpg","1","1","1","0","0","0","0.68111570016481","0.554737099912018","0.460108099970967","1","1","1","1","1","1","1","1","1"
"260058","img/object_images/pen01.jpg","img/object_images/box03.jpg","img/object_images/drone01.jpg","1","1","1","0","0","1","0.460108099970967","0.68111570016481","0.55329279997386","1","1","1","1","1","1","1","1","1"
"260058","img/object_images/drone01.jpg","img/object_images/pen01.jpg","img/object_images/clip04.jpg","1","1","1","1","0","1","0.55329279997386","0.460108099970967","0.468400799902156","1","1","1","1","1","1","1","1","1"
"260058","img/object_images/clip04.jpg","img/object_images/drone01.jpg","img/object_images/scarf01.jpg","1","1","1","1","1","1","0.468400799902156","0.55329279997386","0.45828349981457","1","1","1","1","1","1","1","1","1"
"260058","img/object_images/scarf01.jpg","img/object_images/clip04.jpg","img/object_images/video_game03.jpg","1","1","1","1","1","1","0.45828349981457","0.468400799902156","0.524460999993607","1","1","1","1","1","1","1","1","1"
"260058","img/object_images/video_game03.jpg","img/object_images/scarf01.jpg","img/object_images/Trowel01.jpg","1","1","1","1","1","0","0.524460999993607","0.45828349981457","0.612698799930513","1","1","1","1","1","1","1","1","1"
"260058","img/object_images/Trowel01.jpg","img/object_images/video_game03.jpg","img/object_images/tripod01.jpg","1","1","1","0","1","1","0.612698799930513","0.524460999993607","0.656156399985775","1","1","1","1","1","1","1","1","1"
"260058","img/object_images/tripod01.jpg","img/object_images/Trowel01.jpg","img/object_images/hair_brush01.jpg","1","1","1","1","0","1","0.656156399985775","0.612698799930513","0.470534499967471","1","1","1","1","1","1","1","1","1"
"260058","img/object_images/hair_brush01.jpg","img/object_images/tripod01.jpg","img/object_images/Violin01.jpg","1","1","1","1","1","0","0.470534499967471","0.656156399985775","0.540987400105223","1","1","1","1","1","1","1","1","1"
"260058","img/object_images/Violin01.jpg","img/object_images/hair_brush01.jpg","img/object_images/toothbrush01.jpg","1","1","1","0","1","0","0.540987400105223","0.470534499967471","0.550351400161162","1","1","1","1","1","1","1","1","1"
"260058","img/object_images/toothbrush01.jpg","img/object_images/Violin01.jpg","img/object_images/rock02.jpg","1","1","1","0","0","0","0.550351400161162","0.540987400105223","0.557494000066072","1","1","1","1","1","1","1","1","1"
"260058","img/object_images/rock02.jpg","img/object_images/toothbrush01.jpg","img/object_images/egg_slicer01.jpg","1","1","1","0","0","1","0.557494000066072","0.550351400161162","0.618665200192481","1","1","1","1","1","1","1","1","1"
"260058","img/object_images/egg_slicer01.jpg","img/object_images/rock02.jpg","img/object_images/tool06.jpg","1","1","0","1","0","0","0.618665200192481","0.557494000066072","1.02255090000108","1","1","1","1","1","1","1","1","1"
"260058","img/object_images/tool06.jpg","img/object_images/egg_slicer01.jpg","img/object_images/airfryer02.jpg","0","1","1","0","1","1","1.02255090000108","0.618665200192481","0.60311339981854","1","1","1","1","1","1","1","1","1"
"260058","img/object_images/airfryer02.jpg","img/object_images/tool06.jpg","img/object_images/computer_mouse02.jpg","1","0","1","1","0","0","0.60311339981854","1.02255090000108","0.644874999998137","1","1","1","1","1","1","1","1","1"
"260058","img/object_images/computer_mouse02.jpg","img/object_images/airfryer02.jpg","img/object_images/shoes12.jpg","1","1","1","0","1","1","0.644874999998137","0.60311339981854","0.598102299962193","1","1","1","1","1","1","1","1","1"
"260058","img/object_images/shoes12.jpg","img/object_images/computer_mouse02.jpg","img/object_images/floss02.jpg","1","1","1","1","0","1","0.598102299962193","0.644874999998137","0.561537800123915","1","1","1","1","1","1","1","1","1"
"260058","img/object_images/floss02.jpg","img/object_images/shoes12.jpg","img/object_images/bell03.jpg","1","1","1","1","1","0","0.561537800123915","0.598102299962193","0.617924999911338","1","1","1","1","1","1","1","1","1"
"260058","img/object_images/bell03.jpg","img/object_images/floss02.jpg","img/object_images/pitcher09.jpg","1","1","1","0","1","1","0.617924999911338","0.561537800123915","0.510845199925825","1","1","1","1","1","1","1","1","1"
"260058","img/object_images/pitcher09.jpg","img/object_images/bell03.jpg","img/object_images/chair06.jpg","1","1","1","1","0","0","0.510845199925825","0.617924999911338","0.522694000042975","1","1","1","1","1","1","1","1","1"
"260058","img/object_images/chair06.jpg","img/object_images/pitcher09.jpg","img/object_images/chain01.jpg","1","1","1","0","1","0","0.522694000042975","0.510845199925825","0.558480500010774","1","1","1","1","1","1","1","1","1"
"260058","img/object_images/chain01.jpg","img/object_images/chair06.jpg","img/object_images/soap03.jpg","1","1","1","0","0","0","0.558480500010774","0.522694000042975","0.614408900029957","1","1","1","1","1","1","1","1","1"
"260058","img/object_images/soap03.jpg","img/object_images/chain01.jpg","img/object_images/skate_board01.jpg","1","1","1","0","0","0","0.614408900029957","0.558480500010774","0.525123999919742","1","1","1","1","1","1","1","1","1"
"260058","img/object_images/skate_board01.jpg","img/object_images/soap03.jpg","img/object_images/mail_box02.jpg","1","1","1","0","0","1","0.525123999919742","0.614408900029957","0.586504000006244","1","1","1","1","1","1","1","1","1"
"260058","img/object_images/mail_box02.jpg","img/object_images/skate_board01.jpg","img/object_images/computer_mouse01.jpg","1","1","1","1","0","1","0.586504000006244","0.525123999919742","0.48807209986262","1","1","1","1","1","1","1","1","1"
"260058","img/object_images/computer_mouse01.jpg","img/object_images/mail_box02.jpg","img/object_images/bag_pipes01.jpg","1","1","1","1","1","1","0.48807209986262","0.586504000006244","0.547140100039542","1","1","1","1","1","1","1","1","1"
"260058","img/object_images/bag_pipes01.jpg","img/object_images/computer_mouse01.jpg","img/object_images/book02.jpg","1","1","1","1","1","1","0.547140100039542","0.48807209986262","0.486716599902138","1","1","1","1","1","1","1","1","1"
"260058","img/object_images/book02.jpg","img/object_images/bag_pipes01.jpg","img/object_images/toy01.jpg","1","1","1","1","1","1","0.486716599902138","0.547140100039542","0.517974600195885","1","1","1","1","1","1","1","1","1"
"260058","img/object_images/toy01.jpg","img/object_images/book02.jpg",NA,"1","1",NA,"1","1",NA,"0.517974600195885","0.486716599902138",NA,"1","1",NA,"1","1",NA,"1","1",NA
"260058","img/object_images/cup03.jpg",NA,"img/object_images/Sprayer01.jpg","1",NA,"1","1",NA,"0","0.583728600060567",NA,"0.822957300115377","1",NA,"1","1",NA,"1","1",NA,"1"
"260058","img/object_images/Sprayer01.jpg","img/object_images/cup03.jpg","img/object_images/cellphone02.jpg","1","1","1","0","1","1","0.822957300115377","0.583728600060567","0.427049699937925","1","1","1","1","1","1","1","1","1"
"260058","img/object_images/cellphone02.jpg","img/object_images/Sprayer01.jpg","img/object_images/projector01.jpg","1","1","1","1","0","0","0.427049699937925","0.822957300115377","0.521461500087753","1","1","1","1","1","1","1","1","1"
"260058","img/object_images/projector01.jpg","img/object_images/cellphone02.jpg","img/object_images/TrashCan02.jpg","1","1","1","0","1","1","0.521461500087753","0.427049699937925","0.662781500024721","1","1","1","1","1","1","1","1","1"
"260058","img/object_images/TrashCan02.jpg","img/object_images/projector01.jpg","img/object_images/purse01.jpg","1","1","1","1","0","1","0.662781500024721","0.521461500087753","0.426684400066733","1","1","1","1","1","1","1","1","1"
"260058","img/object_images/purse01.jpg","img/object_images/TrashCan02.jpg","img/object_images/faucet01.jpg","1","1","1","1","1","0","0.426684400066733","0.662781500024721","0.855841800104827","1","1","1","1","1","1","1","1","1"
"260058","img/object_images/faucet01.jpg","img/object_images/purse01.jpg","img/object_images/tool08.jpg","1","1","1","0","1","0","0.855841800104827","0.426684400066733","0.677272000117227","1","1","1","1","1","1","1","1","1"
"260058","img/object_images/tool08.jpg","img/object_images/faucet01.jpg","img/object_images/speaker01.jpg","1","1","1","0","0","1","0.677272000117227","0.855841800104827","0.481414000038058","1","1","1","1","1","1","1","1","1"
"260058","img/object_images/speaker01.jpg","img/object_images/tool08.jpg","img/object_images/Traffic Sign 01.jpg","1","1","1","1","0","0","0.481414000038058","0.677272000117227","0.545762100024149","1","1","1","1","1","1","1","1","1"
"260058","img/object_images/Traffic Sign 01.jpg","img/object_images/speaker01.jpg","img/object_images/Pottery01.jpg","1","1","1","0","1","0","0.545762100024149","0.481414000038058","0.609583799960092","1","1","1","1","1","1","1","1","1"
"260058","img/object_images/Pottery01.jpg","img/object_images/Traffic Sign 01.jpg","img/object_images/colander01.jpg","1","1","0","0","0","0","0.609583799960092","0.545762100024149","0.51047410001047","1","1","1","1","1","1","1","1","1"
"260058","img/object_images/colander01.jpg","img/object_images/Pottery01.jpg","img/object_images/bicycle_lock01.jpg","0","1","1","0","0","0","0.51047410001047","0.609583799960092","0.584905399940908","1","1","1","1","1","1","1","1","1"
"260058","img/object_images/bicycle_lock01.jpg","img/object_images/colander01.jpg","img/object_images/Kitchen_Towel.jpg","1","0","1","0","0","0","0.584905399940908","0.51047410001047","0.684533199993894","1","1","1","1","1","1","1","1","1"
"260058","img/object_images/Kitchen_Towel.jpg","img/object_images/bicycle_lock01.jpg","img/object_images/pan01.jpg","1","1","1","0","0","1","0.684533199993894","0.584905399940908","0.554141000146046","1","1","1","1","1","1","1","1","1"
"260058","img/object_images/pan01.jpg","img/object_images/Kitchen_Towel.jpg","img/object_images/yo_yo01.jpg","1","1","1","1","0","0","0.554141000146046","0.684533199993894","0.682228800142184","1","1","1","1","1","1","1","1","1"
"260058","img/object_images/yo_yo01.jpg","img/object_images/pan01.jpg","img/object_images/jewelry09.jpg","1","1","1","0","1","1","0.682228800142184","0.554141000146046","0.530331499874592","1","1","1","1","1","1","1","1","1"
"260058","img/object_images/jewelry09.jpg","img/object_images/yo_yo01.jpg","img/object_images/glasses07.jpg","1","1","1","1","0","1","0.530331499874592","0.682228800142184","0.47756029991433","1","1","1","1","1","1","1","1","1"
"260058","img/object_images/glasses07.jpg","img/object_images/jewelry09.jpg","img/object_images/hair_clips01.jpg","1","1","1","1","1","1","0.47756029991433","0.530331499874592","0.934908599825576","1","1","1","1","1","1","1","1","1"
"260058","img/object_images/hair_clips01.jpg","img/object_images/glasses07.jpg","img/object_images/gift_box04.jpg","1","1","1","1","1","0","0.934908599825576","0.47756029991433","0.619827500078827","1","1","1","1","1","1","1","1","1"
"260058","img/object_images/gift_box04.jpg","img/object_images/hair_clips01.jpg","img/object_images/basket02.jpg","1","1","1","0","1","0","0.619827500078827","0.934908599825576","0.679155600024387","1","1","1","1","1","1","1","1","1"
"260058","img/object_images/basket02.jpg","img/object_images/gift_box04.jpg","img/object_images/tray01.jpg","1","1","1","0","0","1","0.679155600024387","0.619827500078827","0.55601070006378","1","1","1","1","1","1","1","1","1"
"260058","img/object_images/tray01.jpg","img/object_images/basket02.jpg","img/object_images/exfoliater_brush01.jpg","1","1","1","1","0","0","0.55601070006378","0.679155600024387","0.585258800070733","1","1","1","1","1","1","1","1","1"
"260058","img/object_images/exfoliater_brush01.jpg","img/object_images/tray01.jpg","img/object_images/blanket01.jpg","1","1","1","0","1","1","0.585258800070733","0.55601070006378","0.605187099892646","1","1","1","1","1","1","1","1","1"
"260058","img/object_images/blanket01.jpg","img/object_images/exfoliater_brush01.jpg","img/object_images/book01.jpg","1","1","1","1","0","1","0.605187099892646","0.585258800070733","0.539381999988109","1","1","1","1","1","1","1","1","1"
"260058","img/object_images/book01.jpg","img/object_images/blanket01.jpg","img/object_images/tool07.jpg","1","1","1","1","1","0","0.539381999988109","0.605187099892646","0.563806000165641","1","1","1","1","1","1","1","1","1"
"260058","img/object_images/tool07.jpg","img/object_images/book01.jpg","img/object_images/hole_puncher01.jpg","1","1","1","0","1","1","0.563806000165641","0.539381999988109","0.514812599867582","1","1","1","1","1","1","1","1","1"
"260058","img/object_images/hole_puncher01.jpg","img/object_images/tool07.jpg","img/object_images/handcuffs01.jpg","1","1","1","1","0","0","0.514812599867582","0.563806000165641","0.467731300042942","1","1","1","1","1","1","1","1","1"
"260058","img/object_images/handcuffs01.jpg","img/object_images/hole_puncher01.jpg","img/object_images/fire_extinguisher01.jpg","1","1","1","0","1","0","0.467731300042942","0.514812599867582","0.567544999998063","1","1","1","1","1","1","1","1","1"
"260058","img/object_images/fire_extinguisher01.jpg","img/object_images/handcuffs01.jpg","img/object_images/ring03.jpg","1","1","1","0","0","1","0.567544999998063","0.467731300042942","0.556204000022262","1","1","1","1","1","1","1","1","1"
"260058","img/object_images/ring03.jpg","img/object_images/fire_extinguisher01.jpg","img/object_images/lighter01.jpg","1","1","1","1","0","1","0.556204000022262","0.567544999998063","0.488680599955842","1","1","1","1","1","1","1","1","1"
"260058","img/object_images/lighter01.jpg","img/object_images/ring03.jpg","img/object_images/glasses06.jpg","1","1","1","1","1","1","0.488680599955842","0.556204000022262","0.607917599845678","1","1","1","1","1","1","1","1","1"
"260058","img/object_images/glasses06.jpg","img/object_images/lighter01.jpg",NA,"1","1",NA,"1","1",NA,"0.607917599845678","0.488680599955842",NA,"1","1",NA,"1","1",NA,"1","1",NA
"260058","img/object_images/compass01.jpg",NA,"img/object_images/pen03.jpg","1",NA,"1","1",NA,"0","0.469027400016785",NA,"0.544051799923182","1",NA,"1","1",NA,"1","1",NA,"1"
"260058","img/object_images/pen03.jpg","img/object_images/compass01.jpg","img/object_images/chess_piece02.jpg","1","1","1","0","1","1","0.544051799923182","0.469027400016785","0.573071599937975","1","1","1","1","1","1","1","1","1"
"260058","img/object_images/chess_piece02.jpg","img/object_images/pen03.jpg","img/object_images/floppy_disk02.jpg","1","1","1","1","0","0","0.573071599937975","0.544051799923182","0.63234919984825","1","1","1","1","1","1","1","1","1"
"260058","img/object_images/floppy_disk02.jpg","img/object_images/chess_piece02.jpg","img/object_images/usb02.jpg","1","1","1","0","1","0","0.63234919984825","0.573071599937975","0.63446530001238","1","1","1","1","1","1","1","1","1"
"260058","img/object_images/usb02.jpg","img/object_images/floppy_disk02.jpg","img/object_images/bottle01.jpg","1","1","1","0","0","0","0.63446530001238","0.63234919984825","0.590199999976903","1","1","1","1","1","1","1","1","1"
"260058","img/object_images/bottle01.jpg","img/object_images/usb02.jpg","img/object_images/microscope01.jpg","1","1","1","0","0","0","0.590199999976903","0.63446530001238","0.558408499928191","1","1","1","1","1","1","1","1","1"
"260058","img/object_images/microscope01.jpg","img/object_images/bottle01.jpg","img/object_images/lid01.jpg","1","1","1","0","0","1","0.558408499928191","0.590199999976903","0.55128480005078","1","1","1","1","1","1","1","1","1"
"260058","img/object_images/lid01.jpg","img/object_images/microscope01.jpg","img/object_images/pillows01.jpg","1","1","1","1","0","1","0.55128480005078","0.558408499928191","0.451398900011554","1","1","1","1","1","1","1","1","1"
"260058","img/object_images/pillows01.jpg","img/object_images/lid01.jpg","img/object_images/tennis_racket02.jpg","1","1","1","1","1","1","0.451398900011554","0.55128480005078","0.439283200073987","1","1","1","1","1","1","1","1","1"
"260058","img/object_images/tennis_racket02.jpg","img/object_images/pillows01.jpg","img/object_images/knit05.jpg","1","1","1","1","1","1","0.439283200073987","0.451398900011554","0.433871499961242","1","1","1","1","1","1","1","1","1"
"260058","img/object_images/knit05.jpg","img/object_images/tennis_racket02.jpg","img/object_images/paint_brush04.jpg","1","1","1","1","1","0","0.433871499961242","0.439283200073987","0.445673800073564","1","1","1","1","1","1","1","1","1"
"260058","img/object_images/paint_brush04.jpg","img/object_images/knit05.jpg","img/object_images/floppy_disk03.jpg","1","1","1","0","1","1","0.445673800073564","0.433871499961242","0.422582800034434","1","1","1","1","1","1","1","1","1"
"260058","img/object_images/floppy_disk03.jpg","img/object_images/paint_brush04.jpg","img/object_images/chair05.jpg","1","1","1","1","0","0","0.422582800034434","0.445673800073564","0.776703799841926","1","1","1","1","1","1","1","1","1"
"260058","img/object_images/chair05.jpg","img/object_images/floppy_disk03.jpg","img/object_images/retainer01.jpg","1","1","0","0","1","0","0.776703799841926","0.422582800034434","0.450762600172311","1","1","1","1","1","1","1","1","1"
"260058","img/object_images/retainer01.jpg","img/object_images/chair05.jpg","img/object_images/Oven01.jpg","0","1","1","0","0","1","0.450762600172311","0.776703799841926","0.669996999902651","1","1","1","1","1","1","1","1","1"
"260058","img/object_images/Oven01.jpg","img/object_images/retainer01.jpg","img/object_images/motorcycle01.jpg","1","0","1","1","0","1","0.669996999902651","0.450762600172311","0.560869099805132","1","1","1","1","1","1","1","1","1"
"260058","img/object_images/motorcycle01.jpg","img/object_images/Oven01.jpg","img/object_images/Thermometer01.jpg","1","1","1","1","1","0","0.560869099805132","0.669996999902651","0.57037640013732","1","1","1","1","1","1","1","1","1"
"260058","img/object_images/Thermometer01.jpg","img/object_images/motorcycle01.jpg","img/object_images/book03.jpg","1","1","1","0","1","1","0.57037640013732","0.560869099805132","0.552494499832392","1","1","1","1","1","1","1","1","1"
"260058","img/object_images/book03.jpg","img/object_images/Thermometer01.jpg","img/object_images/hammer03.jpg","1","1","1","1","0","1","0.552494499832392","0.57037640013732","1.4050788001623","1","1","1","1","1","1","1","1","1"
"260058","img/object_images/hammer03.jpg","img/object_images/book03.jpg","img/object_images/crutches02.jpg","1","1","1","1","1","0","1.4050788001623","0.552494499832392","1.05972780007869","1","1","1","1","1","1","1","1","1"
"260058","img/object_images/crutches02.jpg","img/object_images/hammer03.jpg","img/object_images/pitcher01.jpg","1","1","1","0","1","0","1.05972780007869","1.4050788001623","0.812520899809897","1","1","1","1","1","1","1","1","1"
"260058","img/object_images/pitcher01.jpg","img/object_images/crutches02.jpg","img/object_images/clock02.jpg","1","1","1","0","0","0","0.812520899809897","1.05972780007869","0.535701700020581","1","1","1","1","1","1","1","1","1"
"260058","img/object_images/clock02.jpg","img/object_images/pitcher01.jpg","img/object_images/knife04.jpg","1","1","1","0","0","1","0.535701700020581","0.812520899809897","0.708275099983439","1","1","1","1","1","1","1","1","1"
"260058","img/object_images/knife04.jpg","img/object_images/clock02.jpg","img/object_images/Staples01.jpg","1","1","1","1","0","1","0.708275099983439","0.535701700020581","0.481063700048253","1","1","1","1","1","1","1","1","1"
"260058","img/object_images/Staples01.jpg","img/object_images/knife04.jpg","img/object_images/note_book01.jpg","1","1","1","1","1","0","0.481063700048253","0.708275099983439","0.625468099955469","1","1","1","1","1","1","1","1","1"
"260058","img/object_images/note_book01.jpg","img/object_images/Staples01.jpg","img/object_images/ear_bud01.jpg","1","1","1","0","1","1","0.625468099955469","0.481063700048253","0.478355499915779","1","1","1","1","1","1","1","1","1"
"260058","img/object_images/ear_bud01.jpg","img/object_images/note_book01.jpg","img/object_images/cellphone01.jpg","1","1","1","1","0","1","0.478355499915779","0.625468099955469","0.554939900059253","1","1","1","1","1","1","1","1","1"
"260058","img/object_images/cellphone01.jpg","img/object_images/ear_bud01.jpg","img/object_images/bell02.jpg","1","1","1","1","1","0","0.554939900059253","0.478355499915779","0.465091399848461","1","1","1","1","1","1","1","1","1"
"260058","img/object_images/bell02.jpg","img/object_images/cellphone01.jpg","img/object_images/clip03.jpg","1","1","1","0","1","0","0.465091399848461","0.554939900059253","0.511404499877244","1","1","1","1","1","1","1","1","1"
"260058","img/object_images/clip03.jpg","img/object_images/bell02.jpg","img/object_images/wire02.jpg","1","1","1","0","0","1","0.511404499877244","0.465091399848461","0.642263199901208","1","1","1","1","1","1","1","1","1"
"260058","img/object_images/wire02.jpg","img/object_images/clip03.jpg","img/object_images/tv02.jpg","1","1","1","1","0","0","0.642263199901208","0.511404499877244","0.554541000165045","1","1","1","1","1","1","1","1","1"
"260058","img/object_images/tv02.jpg","img/object_images/wire02.jpg",NA,"1","1",NA,"0","1",NA,"0.554541000165045","0.642263199901208",NA,"1","1",NA,"1","1",NA,"1","1",NA
"260058","img/object_images/camera07.jpg",NA,"img/object_images/bow_tie01.jpg","1",NA,"1","1",NA,"0","0.970382199855521",NA,"0.598904199898243","1",NA,"1","1",NA,"1","1",NA,"1"
"260058","img/object_images/bow_tie01.jpg","img/object_images/camera07.jpg","img/object_images/paper_cup01.jpg","1","1","1","0","1","0","0.598904199898243","0.970382199855521","0.963013299973682","1","1","1","1","1","1","1","1","1"
"260058","img/object_images/paper_cup01.jpg","img/object_images/bow_tie01.jpg","img/object_images/coloring_pencil01.jpg","1","1","1","0","0","1","0.963013299973682","0.598904199898243","0.463640700094402","1","1","1","1","1","1","1","1","1"
"260058","img/object_images/coloring_pencil01.jpg","img/object_images/paper_cup01.jpg","img/object_images/lawn_mower01.jpg","1","1","1","1","0","1","0.463640700094402","0.963013299973682","0.572907299967483","1","1","1","1","1","1","1","1","1"
"260058","img/object_images/lawn_mower01.jpg","img/object_images/coloring_pencil01.jpg","img/object_images/jacket03.jpg","1","1","1","1","1","0","0.572907299967483","0.463640700094402","0.529025899944827","1","1","1","1","1","1","1","1","1"
"260058","img/object_images/jacket03.jpg","img/object_images/lawn_mower01.jpg","img/object_images/clip02.jpg","1","1","1","0","1","1","0.529025899944827","0.572907299967483","0.463826399995014","1","1","1","1","1","1","1","1","1"
"260058","img/object_images/clip02.jpg","img/object_images/jacket03.jpg","img/object_images/measuring_tape02.jpg","1","1","1","1","0","1","0.463826399995014","0.529025899944827","0.418650500010699","1","1","1","1","1","1","1","1","1"
"260058","img/object_images/measuring_tape02.jpg","img/object_images/clip02.jpg","img/object_images/vga_port 01.jpg","1","1","1","1","1","0","0.418650500010699","0.463826399995014","0.500740099931136","1","1","1","1","1","1","1","1","1"
"260058","img/object_images/vga_port 01.jpg","img/object_images/measuring_tape02.jpg","img/object_images/bow_tie02.jpg","1","1","1","0","1","0","0.500740099931136","0.418650500010699","0.645459600025788","1","1","1","1","1","1","1","1","1"
"260058","img/object_images/bow_tie02.jpg","img/object_images/vga_port 01.jpg","img/object_images/fork03.jpg","1","1","1","0","0","1","0.645459600025788","0.500740099931136","0.567462400067598","1","1","1","1","1","1","1","1","1"
"260058","img/object_images/fork03.jpg","img/object_images/bow_tie02.jpg","img/object_images/couch03.jpg","1","1","1","1","0","0","0.567462400067598","0.645459600025788","0.635545399971306","1","1","1","1","1","1","1","1","1"
"260058","img/object_images/couch03.jpg","img/object_images/fork03.jpg","img/object_images/socks02.jpg","1","1","1","0","1","0","0.635545399971306","0.567462400067598","0.676015600096434","1","1","1","1","1","1","1","1","1"
"260058","img/object_images/socks02.jpg","img/object_images/couch03.jpg","img/object_images/dresser04.jpg","1","1","1","0","0","0","0.676015600096434","0.635545399971306","0.557136100018397","1","1","1","1","1","1","1","1","1"
"260058","img/object_images/dresser04.jpg","img/object_images/socks02.jpg","img/object_images/golf_ball03.jpg","1","1","1","0","0","1","0.557136100018397","0.676015600096434","0.464380899909884","1","1","1","1","1","1","1","1","1"
"260058","img/object_images/golf_ball03.jpg","img/object_images/dresser04.jpg","img/object_images/gift_box03.jpg","1","1","1","1","0","0","0.464380899909884","0.557136100018397","0.65035600005649","1","1","1","1","1","1","1","1","1"
"260058","img/object_images/gift_box03.jpg","img/object_images/golf_ball03.jpg","img/object_images/jewelry01.jpg","1","1","1","0","1","1","0.65035600005649","0.464380899909884","0.522733699996024","1","1","1","1","1","1","1","1","1"
"260058","img/object_images/jewelry01.jpg","img/object_images/gift_box03.jpg","img/object_images/balloon01.jpg","1","1","1","1","0","0","0.522733699996024","0.65035600005649","0.679326300043613","1","1","1","1","1","1","1","1","1"
"260058","img/object_images/balloon01.jpg","img/object_images/jewelry01.jpg","img/object_images/Screws01.jpg","1","1","1","0","1","1","0.679326300043613","0.522733699996024","0.454406500095502","1","1","1","1","1","1","1","1","1"
"260058","img/object_images/Screws01.jpg","img/object_images/balloon01.jpg","img/object_images/bath_tub01.jpg","1","1","1","1","0","0","0.454406500095502","0.679326300043613","0.438549899961799","1","1","1","1","1","1","1","1","1"
"260058","img/object_images/bath_tub01.jpg","img/object_images/Screws01.jpg","img/object_images/grater01.jpg","1","1","1","0","1","1","0.438549899961799","0.454406500095502","0.61757650016807","1","1","1","1","1","1","1","1","1"
"260058","img/object_images/grater01.jpg","img/object_images/bath_tub01.jpg","img/object_images/handkerchief01.jpg","1","1","1","1","0","0","0.61757650016807","0.438549899961799","0.486392799997702","1","1","1","1","1","1","1","1","1"
"260058","img/object_images/handkerchief01.jpg","img/object_images/grater01.jpg","img/object_images/gift_box02.jpg","1","1","1","0","1","1","0.486392799997702","0.61757650016807","0.795917900046334","1","1","1","1","1","1","1","1","1"
"260058","img/object_images/gift_box02.jpg","img/object_images/handkerchief01.jpg","img/object_images/funnel01.jpg","1","1","1","1","0","0","0.795917900046334","0.486392799997702","0.498114999849349","1","1","1","1","1","1","1","1","1"
"260058","img/object_images/funnel01.jpg","img/object_images/gift_box02.jpg","img/object_images/ironing_table01.jpg","1","1","1","0","1","0","0.498114999849349","0.795917900046334","0.455069700023159","1","1","1","1","1","1","1","1","1"
"260058","img/object_images/ironing_table01.jpg","img/object_images/funnel01.jpg","img/object_images/sleeping_bag01.jpg","1","1","1","0","0","0","0.455069700023159","0.498114999849349","0.525669299997389","1","1","1","1","1","1","1","1","1"
"260058","img/object_images/sleeping_bag01.jpg","img/object_images/ironing_table01.jpg","img/object_images/lock04.jpg","1","1","1","0","0","1","0.525669299997389","0.455069700023159","0.423284400021657","1","1","1","1","1","1","1","1","1"
"260058","img/object_images/lock04.jpg","img/object_images/sleeping_bag01.jpg","img/object_images/pitcher02.jpg","1","1","1","1","0","1","0.423284400021657","0.525669299997389","0.639580599963665","1","1","1","1","1","1","1","1","1"
"260058","img/object_images/pitcher02.jpg","img/object_images/lock04.jpg","img/object_images/Witchhat01.jpg","1","1","1","1","1","1","0.639580599963665","0.423284400021657","0.461060700006783","1","1","1","1","1","1","1","1","1"
"260058","img/object_images/Witchhat01.jpg","img/object_images/pitcher02.jpg","img/object_images/hammer01.jpg","1","1","0","1","1","0","0.461060700006783","0.639580599963665","0.440520999953151","1","1","1","1","1","1","1","1","2"
"260058","img/object_images/hammer01.jpg","img/object_images/Witchhat01.jpg","img/object_images/gift_box01.jpg","0","1","1","0","1","1","0.440520999953151","0.461060700006783","0.61778109986335","1","1","1","1","1","1","2","1","1"
"260058","img/object_images/gift_box01.jpg","img/object_images/hammer01.jpg","img/object_images/wallet02.jpg","1","0","1","1","0","1","0.61778109986335","0.440520999953151","0.565977100050077","1","1","1","1","1","1","1","2","1"
"260058","img/object_images/wallet02.jpg","img/object_images/gift_box01.jpg",NA,"1","1",NA,"1","1",NA,"0.565977100050077","0.61778109986335",NA,"1","1",NA,"1","1",NA,"1","1",NA
"260058","img/object_images/bottle09.jpg",NA,"img/object_images/flask01.jpg","1",NA,"1","0",NA,"0","0.70857509993948",NA,"0.572921599959955","1",NA,"1","1",NA,"1","1",NA,"1"
"260058","img/object_images/flask01.jpg","img/object_images/bottle09.jpg","img/object_images/scoreboard01.jpg","1","1","1","0","0","1","0.572921599959955","0.70857509993948","0.510320599889383","1","1","1","1","1","1","1","1","1"
"260058","img/object_images/scoreboard01.jpg","img/object_images/flask01.jpg","img/object_images/bottle02.jpg","1","1","1","1","0","1","0.510320599889383","0.572921599959955","1.10391389997676","1","1","1","1","1","1","1","1","1"
"260058","img/object_images/bottle02.jpg","img/object_images/scoreboard01.jpg","img/object_images/bean_bag02.jpg","1","1","1","1","1","1","1.10391389997676","0.510320599889383","0.515224199974909","1","1","1","1","1","1","1","1","1"
"260058","img/object_images/bean_bag02.jpg","img/object_images/bottle02.jpg","img/object_images/shoes07.jpg","1","1","1","1","1","0","0.515224199974909","1.10391389997676","0.749889899976552","1","1","1","1","1","1","1","1","1"
"260058","img/object_images/shoes07.jpg","img/object_images/bean_bag02.jpg","img/object_images/purse04.jpg","1","1","1","0","1","1","0.749889899976552","0.515224199974909","0.494448899989948","1","1","1","1","1","1","1","1","1"
"260058","img/object_images/purse04.jpg","img/object_images/shoes07.jpg","img/object_images/water_scooter01.jpg","1","1","1","1","0","1","0.494448899989948","0.749889899976552","0.594537200173363","1","1","1","1","1","1","1","1","1"
"260058","img/object_images/water_scooter01.jpg","img/object_images/purse04.jpg","img/object_images/tie02.jpg","1","1","0","1","1","0","0.594537200173363","0.494448899989948","0.696830000029877","1","1","1","1","1","1","1","1","1"
"260058","img/object_images/tie02.jpg","img/object_images/water_scooter01.jpg","img/object_images/dog_leash01.jpg","0","1","1","0","1","0","0.696830000029877","0.594537200173363","0.638709099963307","1","1","1","1","1","1","1","1","1"
"260058","img/object_images/dog_leash01.jpg","img/object_images/tie02.jpg","img/object_images/knit01.jpg","1","0","1","0","0","0","0.638709099963307","0.696830000029877","0.917645100038499","1","1","1","1","1","1","1","1","1"
"260058","img/object_images/knit01.jpg","img/object_images/dog_leash01.jpg","img/object_images/piggy_bank01.jpg","1","1","1","0","0","1","0.917645100038499","0.638709099963307","0.724332900019363","1","1","1","1","1","1","1","1","1"
"260058","img/object_images/piggy_bank01.jpg","img/object_images/knit01.jpg","img/object_images/hat06.jpg","1","1","1","1","0","0","0.724332900019363","0.917645100038499","0.713144900044426","1","1","1","1","1","1","1","1","1"
"260058","img/object_images/hat06.jpg","img/object_images/piggy_bank01.jpg","img/object_images/tool19.jpg","1","1","1","0","1","1","0.713144900044426","0.724332900019363","0.704098699847236","1","1","1","1","1","1","1","1","1"
"260058","img/object_images/tool19.jpg","img/object_images/hat06.jpg","img/object_images/bottle10.jpg","1","1","1","1","0","1","0.704098699847236","0.713144900044426","0.57393219997175","1","1","1","1","1","1","1","1","1"
"260058","img/object_images/bottle10.jpg","img/object_images/tool19.jpg","img/object_images/WoodBox01.jpg","1","1","1","1","1","0","0.57393219997175","0.704098699847236","0.594131399877369","1","1","1","1","1","1","1","1","1"
"260058","img/object_images/WoodBox01.jpg","img/object_images/bottle10.jpg","img/object_images/boat02.jpg","1","1","1","0","1","1","0.594131399877369","0.57393219997175","0.647117499960586","1","1","1","1","1","1","1","1","1"
"260058","img/object_images/boat02.jpg","img/object_images/WoodBox01.jpg","img/object_images/helmet04.jpg","1","1","1","1","0","1","0.647117499960586","0.594131399877369","0.574835099978372","1","1","1","1","1","1","1","1","1"
"260058","img/object_images/helmet04.jpg","img/object_images/boat02.jpg","img/object_images/boat_toy10.jpg","1","1","1","1","1","0","0.574835099978372","0.647117499960586","0.672220400068909","1","1","1","1","1","1","1","1","1"
"260058","img/object_images/boat_toy10.jpg","img/object_images/helmet04.jpg","img/object_images/pen05.jpg","1","1","1","0","1","0","0.672220400068909","0.574835099978372","0.665784500073642","1","1","1","1","1","1","1","1","1"
"260058","img/object_images/pen05.jpg","img/object_images/boat_toy10.jpg","img/object_images/hot_air_balloon02.jpg","1","1","1","0","0","0","0.665784500073642","0.672220400068909","0.538217300083488","1","1","1","1","1","1","1","1","1"
"260058","img/object_images/hot_air_balloon02.jpg","img/object_images/pen05.jpg","img/object_images/chair03.jpg","1","1","1","0","0","0","0.538217300083488","0.665784500073642","0.568590099923313","1","1","1","1","1","1","1","1","1"
"260058","img/object_images/chair03.jpg","img/object_images/hot_air_balloon02.jpg","img/object_images/perfume02.jpg","1","1","1","0","0","0","0.568590099923313","0.538217300083488","0.528133599786088","1","1","1","1","1","1","1","1","1"
"260058","img/object_images/perfume02.jpg","img/object_images/chair03.jpg","img/object_images/fan02.jpg","1","1","1","0","0","0","0.528133599786088","0.568590099923313","1.01068369997665","1","1","1","1","1","1","1","1","1"
"260058","img/object_images/fan02.jpg","img/object_images/perfume02.jpg","img/object_images/coloring_pencil02.jpg","1","1","1","0","0","0","1.01068369997665","0.528133599786088","0.516581499949098","1","1","1","1","1","1","1","1","1"
"260058","img/object_images/coloring_pencil02.jpg","img/object_images/fan02.jpg","img/object_images/wagon_cart03.jpg","1","1","0","0","0","1","0.516581499949098","1.01068369997665","0.983850999968126","1","1","1","1","1","1","1","1","1"
"260058","img/object_images/wagon_cart03.jpg","img/object_images/coloring_pencil02.jpg","img/object_images/audio_port01.jpg","0","1","1","1","0","1","0.983850999968126","0.516581499949098","0.542237000074238","1","1","1","1","1","1","1","1","1"
"260058","img/object_images/audio_port01.jpg","img/object_images/wagon_cart03.jpg","img/object_images/camera_lens01.jpg","1","0","1","1","1","1","0.542237000074238","0.983850999968126","0.486681399866939","1","1","1","1","1","1","1","1","1"
"260058","img/object_images/camera_lens01.jpg","img/object_images/audio_port01.jpg","img/object_images/cellphone03.jpg","1","1","1","1","1","0","0.486681399866939","0.542237000074238","0.781499600037932","1","1","1","1","1","1","1","1","1"
"260058","img/object_images/cellphone03.jpg","img/object_images/camera_lens01.jpg","img/object_images/bicycle01.jpg","1","1","1","0","1","1","0.781499600037932","0.486681399866939","0.6141524000559","1","1","1","1","1","1","1","1","1"
"260058","img/object_images/bicycle01.jpg","img/object_images/cellphone03.jpg","img/object_images/toaster01.jpg","1","1","1","1","0","1","0.6141524000559","0.781499600037932","0.523344499990344","1","1","1","1","1","1","1","1","1"
"260058","img/object_images/toaster01.jpg","img/object_images/bicycle01.jpg","img/object_images/toilet_paper_dispenser01.jpg","1","1","1","1","1","1","0.523344499990344","0.6141524000559","0.600100200157613","1","1","1","1","1","1","1","1","1"
"260058","img/object_images/toilet_paper_dispenser01.jpg","img/object_images/toaster01.jpg",NA,"1","1",NA,"1","1",NA,"0.600100200157613","0.523344499990344",NA,"1","1",NA,"1","1",NA,"1","1",NA
"260058","img/object_images/shoes10.jpg",NA,"img/object_images/hair_brush05.jpg","0",NA,"1","0",NA,"1","0.90821860008873",NA,"0.490242999978364","1",NA,"1","1",NA,"1","1",NA,"1"
"260058","img/object_images/hair_brush05.jpg","img/object_images/shoes10.jpg","img/object_images/binoculars03.jpg","1","0","1","1","0","1","0.490242999978364","0.90821860008873","0.553003499982879","1","1","1","1","1","1","1","1","1"
"260058","img/object_images/binoculars03.jpg","img/object_images/hair_brush05.jpg","img/object_images/fan05.jpg","1","1","1","1","1","0","0.553003499982879","0.490242999978364","0.836930199991912","1","1","1","1","1","1","1","1","1"
"260058","img/object_images/fan05.jpg","img/object_images/binoculars03.jpg","img/object_images/car04.jpg","1","1","1","0","1","0","0.836930199991912","0.553003499982879","0.752841599984095","1","1","1","1","1","1","1","1","1"
"260058","img/object_images/car04.jpg","img/object_images/fan05.jpg","img/object_images/bag06.jpg","1","1","1","0","0","1","0.752841599984095","0.836930199991912","0.472840799950063","1","1","1","1","1","1","1","1","1"
"260058","img/object_images/bag06.jpg","img/object_images/car04.jpg","img/object_images/rock03.jpg","1","1","0","1","0","0","0.472840799950063","0.752841599984095","0.466098800068721","1","1","1","1","1","1","1","1","1"
"260058","img/object_images/rock03.jpg","img/object_images/bag06.jpg","img/object_images/ice_tray03.jpg","0","1","1","0","1","1","0.466098800068721","0.472840799950063","0.552213500021026","1","1","1","1","1","1","1","1","1"
"260058","img/object_images/ice_tray03.jpg","img/object_images/rock03.jpg","img/object_images/ladle02.jpg","1","0","1","1","0","0","0.552213500021026","0.466098800068721","0.711279800161719","1","1","1","1","1","1","1","1","1"
"260058","img/object_images/ladle02.jpg","img/object_images/ice_tray03.jpg","img/object_images/toaster02.jpg","1","1","1","0","1","1","0.711279800161719","0.552213500021026","0.531292700208724","1","1","1","1","1","1","1","1","1"
"260058","img/object_images/toaster02.jpg","img/object_images/ladle02.jpg","img/object_images/belt01.jpg","1","1","1","1","0","0","0.531292700208724","0.711279800161719","0.539163400186226","1","1","1","1","1","1","1","1","1"
"260058","img/object_images/belt01.jpg","img/object_images/toaster02.jpg","img/object_images/shower_head03.jpg","1","1","1","0","1","1","0.539163400186226","0.531292700208724","0.586169499903917","1","1","1","1","1","1","1","1","1"
"260058","img/object_images/shower_head03.jpg","img/object_images/belt01.jpg","img/object_images/lemon_squeezer02.jpg","1","1","1","1","0","1","0.586169499903917","0.539163400186226","0.54626420000568","1","1","1","1","1","1","1","1","1"
"260058","img/object_images/lemon_squeezer02.jpg","img/object_images/shower_head03.jpg","img/object_images/dress03.jpg","1","1","1","1","1","1","0.54626420000568","0.586169499903917","0.63156700017862","1","1","1","1","1","1","1","1","1"
"260058","img/object_images/dress03.jpg","img/object_images/lemon_squeezer02.jpg","img/object_images/car03.jpg","1","1","1","1","1","0","0.63156700017862","0.54626420000568","0.537939600180835","1","1","1","1","1","1","1","1","1"
"260058","img/object_images/car03.jpg","img/object_images/dress03.jpg","img/object_images/cards01.jpg","1","1","1","0","1","0","0.537939600180835","0.63156700017862","0.705637000035495","1","1","1","1","1","1","1","1","1"
"260058","img/object_images/cards01.jpg","img/object_images/car03.jpg","img/object_images/cutting_board01.jpg","1","1","1","0","0","1","0.705637000035495","0.537939600180835","0.473434699932113","1","1","1","1","1","1","1","1","1"
"260058","img/object_images/cutting_board01.jpg","img/object_images/cards01.jpg","img/object_images/key02.jpg","1","1","1","1","0","1","0.473434699932113","0.705637000035495","0.454839199781418","1","1","1","1","1","1","1","1","1"
"260058","img/object_images/key02.jpg","img/object_images/cutting_board01.jpg","img/object_images/chair04.jpg","1","1","1","1","1","1","0.454839199781418","0.473434699932113","0.434032700024545","1","1","1","1","1","1","1","1","1"
"260058","img/object_images/chair04.jpg","img/object_images/key02.jpg","img/object_images/tool11.jpg","1","1","1","1","1","1","0.434032700024545","0.454839199781418","0.47158919996582","1","1","1","1","1","1","1","1","1"
"260058","img/object_images/tool11.jpg","img/object_images/chair04.jpg","img/object_images/mask01.jpg","1","1","1","1","1","0","0.47158919996582","0.434032700024545","0.545259500155225","1","1","1","1","1","1","1","1","1"
"260058","img/object_images/mask01.jpg","img/object_images/tool11.jpg","img/object_images/tv01.jpg","1","1","1","0","1","0","0.545259500155225","0.47158919996582","0.620247799903154","1","1","1","1","1","1","1","1","1"
"260058","img/object_images/tv01.jpg","img/object_images/mask01.jpg","img/object_images/jewel01.jpg","1","1","1","0","0","0","0.620247799903154","0.545259500155225","0.541866299929097","1","1","1","1","1","1","1","1","1"
"260058","img/object_images/jewel01.jpg","img/object_images/tv01.jpg","img/object_images/razor01.jpg","1","1","1","0","0","0","0.541866299929097","0.620247799903154","0.721576699987054","1","1","1","1","1","1","1","1","1"
"260058","img/object_images/razor01.jpg","img/object_images/jewel01.jpg","img/object_images/jewelry07.jpg","1","1","1","0","0","1","0.721576699987054","0.541866299929097","0.456974700093269","1","1","1","1","1","1","1","1","1"
"260058","img/object_images/jewelry07.jpg","img/object_images/razor01.jpg","img/object_images/yarn02.jpg","1","1","1","1","0","0","0.456974700093269","0.721576699987054","0.798941999906674","1","1","1","1","1","1","1","1","1"
"260058","img/object_images/yarn02.jpg","img/object_images/jewelry07.jpg","img/object_images/MeasuringCup01.jpg","1","1","1","0","1","1","0.798941999906674","0.456974700093269","0.647096700035036","1","1","1","1","1","1","1","1","1"
"260058","img/object_images/MeasuringCup01.jpg","img/object_images/yarn02.jpg","img/object_images/satellite01.jpg","1","1","1","1","0","0","0.647096700035036","0.798941999906674","0.544976799981669","1","1","1","1","1","1","1","1","1"
"260058","img/object_images/satellite01.jpg","img/object_images/MeasuringCup01.jpg","img/object_images/WitchHat02.jpg","1","1","1","0","1","1","0.544976799981669","0.647096700035036","0.49312620004639","1","1","1","1","1","1","1","1","1"
"260058","img/object_images/WitchHat02.jpg","img/object_images/satellite01.jpg","img/object_images/slinky_toy01.jpg","1","1","1","1","0","1","0.49312620004639","0.544976799981669","0.501419200096279","1","1","1","1","1","1","1","1","1"
"260058","img/object_images/slinky_toy01.jpg","img/object_images/WitchHat02.jpg","img/object_images/ribbon01.jpg","1","1","1","1","1","0","0.501419200096279","0.49312620004639","0.754102000035346","1","1","1","1","1","1","1","1","1"
"260058","img/object_images/ribbon01.jpg","img/object_images/slinky_toy01.jpg","img/object_images/screwdriver01.jpg","1","1","1","0","1","0","0.754102000035346","0.501419200096279","0.643767300061882","1","1","1","1","1","1","1","1","1"
"260058","img/object_images/screwdriver01.jpg","img/object_images/ribbon01.jpg",NA,"1","1",NA,"0","0",NA,"0.643767300061882","0.754102000035346",NA,"1","1",NA,"1","1",NA,"1","1",NA
"260058","img/object_images/bottle06.jpg",NA,"img/object_images/nut_cracker01.jpg","1",NA,"1","0",NA,"1","0.536469399929047",NA,"0.608127699932083","1",NA,"1","1",NA,"1","1",NA,"1"
"260058","img/object_images/nut_cracker01.jpg","img/object_images/bottle06.jpg","img/object_images/water_gun01.jpg","1","1","1","1","0","1","0.608127699932083","0.536469399929047","0.607839299831539","1","1","1","1","1","1","1","1","1"
"260058","img/object_images/water_gun01.jpg","img/object_images/nut_cracker01.jpg","img/object_images/phone04.jpg","1","1","1","1","1","1","0.607839299831539","0.608127699932083","0.532452200073749","1","1","1","1","1","1","1","1","1"
"260058","img/object_images/phone04.jpg","img/object_images/water_gun01.jpg","img/object_images/belt03.jpg","1","1","1","1","1","0","0.532452200073749","0.607839299831539","0.656235900009051","1","1","1","1","1","1","1","1","1"
"260058","img/object_images/belt03.jpg","img/object_images/phone04.jpg","img/object_images/headset02.jpg","1","1","0","0","1","0","0.656235900009051","0.532452200073749","0.841291799908504","1","1","1","1","1","1","1","1","1"
"260058","img/object_images/headset02.jpg","img/object_images/belt03.jpg","img/object_images/fan01.jpg","0","1","1","0","0","0","0.841291799908504","0.656235900009051","0.940324200084433","1","1","1","1","1","1","1","1","1"
"260058","img/object_images/fan01.jpg","img/object_images/headset02.jpg","img/object_images/Safe01.jpg","1","0","1","0","0","1","0.940324200084433","0.841291799908504","0.5477424999699","1","1","1","1","1","1","1","1","1"
"260058","img/object_images/Safe01.jpg","img/object_images/fan01.jpg","img/object_images/pitcher07.jpg","1","1","1","1","0","1","0.5477424999699","0.940324200084433","0.567709500202909","1","1","1","1","1","1","1","1","1"
"260058","img/object_images/pitcher07.jpg","img/object_images/Safe01.jpg","img/object_images/Eyeliner01.jpg","1","1","1","1","1","1","0.567709500202909","0.5477424999699","0.43181400001049","1","1","1","1","1","1","1","1","1"
"260058","img/object_images/Eyeliner01.jpg","img/object_images/pitcher07.jpg","img/object_images/frame01.jpg","1","1","1","1","1","1","0.43181400001049","0.567709500202909","0.368795200018212","1","1","1","1","1","1","1","1","1"
"260058","img/object_images/frame01.jpg","img/object_images/Eyeliner01.jpg","img/object_images/lock03.jpg","1","1","1","1","1","1","0.368795200018212","0.43181400001049","0.429568700026721","1","1","1","1","1","1","1","1","1"
"260058","img/object_images/lock03.jpg","img/object_images/frame01.jpg","img/object_images/egg_basket01.jpg","1","1","1","1","1","1","0.429568700026721","0.368795200018212","0.517507500015199","1","1","1","1","1","1","1","1","1"
"260058","img/object_images/egg_basket01.jpg","img/object_images/lock03.jpg","img/object_images/TreeSlice01.jpg","1","1","1","1","1","1","0.517507500015199","0.429568700026721","0.46949869999662","1","1","1","1","1","1","1","1","1"
"260058","img/object_images/TreeSlice01.jpg","img/object_images/egg_basket01.jpg","img/object_images/badminton01.jpg","1","1","1","1","1","1","0.46949869999662","0.517507500015199","0.456513500073925","1","1","1","1","1","1","1","1","1"
"260058","img/object_images/badminton01.jpg","img/object_images/TreeSlice01.jpg","img/object_images/origami01.jpg","1","1","1","1","1","1","0.456513500073925","0.46949869999662","0.449686700012535","1","1","1","1","1","1","1","1","1"
"260058","img/object_images/origami01.jpg","img/object_images/badminton01.jpg","img/object_images/ToolBag01.jpg","1","1","1","1","1","0","0.449686700012535","0.456513500073925","0.5263513000682","1","1","1","1","1","1","1","1","1"
"260058","img/object_images/ToolBag01.jpg","img/object_images/origami01.jpg","img/object_images/yoga_mat01.jpg","1","1","1","0","1","0","0.5263513000682","0.449686700012535","0.88741199998185","1","1","1","1","1","1","1","1","1"
"260058","img/object_images/yoga_mat01.jpg","img/object_images/ToolBag01.jpg","img/object_images/scale02.jpg","1","1","1","0","0","0","0.88741199998185","0.5263513000682","0.481924300082028","1","1","1","1","1","1","1","1","1"
"260058","img/object_images/scale02.jpg","img/object_images/yoga_mat01.jpg","img/object_images/bucket01.jpg","1","1","1","0","0","1","0.481924300082028","0.88741199998185","0.417702899780124","1","1","1","1","1","1","1","1","1"
"260058","img/object_images/bucket01.jpg","img/object_images/scale02.jpg","img/object_images/helmet03.jpg","1","1","1","1","0","1","0.417702899780124","0.481924300082028","0.537597500020638","1","1","1","1","1","1","1","1","1"
"260058","img/object_images/helmet03.jpg","img/object_images/bucket01.jpg","img/object_images/dice01.jpg","1","1","1","1","1","0","0.537597500020638","0.417702899780124","0.471203099936247","1","1","1","1","1","1","1","1","1"
"260058","img/object_images/dice01.jpg","img/object_images/helmet03.jpg","img/object_images/tennis_racket01.jpg","1","1","1","0","1","1","0.471203099936247","0.537597500020638","0.474013099912554","1","1","1","1","1","1","1","1","1"
"260058","img/object_images/tennis_racket01.jpg","img/object_images/dice01.jpg","img/object_images/Shoes05.jpg","1","1","1","1","0","0","0.474013099912554","0.471203099936247","0.438297899905592","1","1","1","1","1","1","1","1","1"
"260058","img/object_images/Shoes05.jpg","img/object_images/tennis_racket01.jpg","img/object_images/bookmark01.jpg","1","1","1","0","1","0","0.438297899905592","0.474013099912554","0.643297200091183","1","1","1","1","1","1","1","1","1"
"260058","img/object_images/bookmark01.jpg","img/object_images/Shoes05.jpg","img/object_images/note_book02.jpg","1","1","1","0","0","0","0.643297200091183","0.438297899905592","0.624553399858996","1","1","1","1","1","1","1","1","1"
"260058","img/object_images/note_book02.jpg","img/object_images/bookmark01.jpg","img/object_images/piano03.jpg","1","1","1","0","0","0","0.624553399858996","0.643297200091183","0.553308399859816","1","1","1","1","1","1","1","1","1"
"260058","img/object_images/piano03.jpg","img/object_images/note_book02.jpg","img/object_images/trumpet01.jpg","1","1","1","0","0","0","0.553308399859816","0.624553399858996","0.523550400044769","1","1","1","1","1","1","1","1","1"
"260058","img/object_images/trumpet01.jpg","img/object_images/piano03.jpg","img/object_images/usb03.jpg","1","1","1","0","0","0","0.523550400044769","0.553308399859816","0.333987700054422","1","1","1","1","1","1","1","1","1"
"260058","img/object_images/usb03.jpg","img/object_images/trumpet01.jpg","img/object_images/joystick03.jpg","1","1","1","0","0","1","0.333987700054422","0.523550400044769","0.350170600228012","1","1","1","1","1","1","1","1","1"
"260058","img/object_images/joystick03.jpg","img/object_images/usb03.jpg","img/object_images/jewel02.jpg","1","1","1","1","0","0","0.350170600228012","0.333987700054422","0.5859727000352","1","1","1","1","1","1","1","1","1"
"260058","img/object_images/jewel02.jpg","img/object_images/joystick03.jpg","img/object_images/shovel01.jpg","1","1","1","0","1","0","0.5859727000352","0.350170600228012","0.661782699869946","1","1","1","1","1","1","1","1","1"
"260058","img/object_images/shovel01.jpg","img/object_images/jewel02.jpg",NA,"1","1",NA,"0","0",NA,"0.661782699869946","0.5859727000352",NA,"1","1",NA,"1","1",NA,"1","1",NA
"260058","img/object_images/toy08.jpg",NA,"img/object_images/video_game01.jpg","1",NA,"1","0",NA,"1","0.924309700028971",NA,"0.531995399855077","1",NA,"1","1",NA,"1","1",NA,"1"
"260058","img/object_images/video_game01.jpg","img/object_images/toy08.jpg","img/object_images/basket04.jpg","1","1","1","1","0","1","0.531995399855077","0.924309700028971","0.593236199812964","1","1","1","1","1","1","1","1","1"
"260058","img/object_images/basket04.jpg","img/object_images/video_game01.jpg","img/object_images/shower_head01.jpg","1","1","1","1","1","1","0.593236199812964","0.531995399855077","0.476088600000367","1","1","1","1","1","1","1","1","1"
"260058","img/object_images/shower_head01.jpg","img/object_images/basket04.jpg","img/object_images/mail_box01.jpg","1","1","1","1","1","0","0.476088600000367","0.593236199812964","0.643358600093052","1","1","1","1","1","1","1","1","1"
"260058","img/object_images/mail_box01.jpg","img/object_images/shower_head01.jpg","img/object_images/keyboard02.jpg","1","1","1","0","1","1","0.643358600093052","0.476088600000367","0.367497200146317","1","1","1","1","1","1","1","1","1"
"260058","img/object_images/keyboard02.jpg","img/object_images/mail_box01.jpg","img/object_images/knit04.jpg","1","1","1","1","0","1","0.367497200146317","0.643358600093052","0.438337799860165","1","1","1","1","1","1","1","1","1"
"260058","img/object_images/knit04.jpg","img/object_images/keyboard02.jpg","img/object_images/phone02.jpg","1","1","1","1","1","1","0.438337799860165","0.367497200146317","0.543892600107938","1","1","1","1","1","1","1","1","1"
"260058","img/object_images/phone02.jpg","img/object_images/knit04.jpg","img/object_images/matches02.jpg","1","1","0","1","1","0","0.543892600107938","0.438337799860165","0.378721999935806","1","1","1","1","1","1","1","1","1"
"260058","img/object_images/matches02.jpg","img/object_images/phone02.jpg","img/object_images/hand_grip_exerciser01.jpg","0","1","0","0","1","0","0.378721999935806","0.543892600107938","0.972413700073957","1","1","1","1","1","1","1","1","1"
"260058","img/object_images/hand_grip_exerciser01.jpg","img/object_images/matches02.jpg","img/object_images/tool18.jpg","0","0","1","0","0","0","0.972413700073957","0.378721999935806","0.569159399950877","1","1","1","1","1","1","1","1","1"
"260058","img/object_images/tool18.jpg","img/object_images/hand_grip_exerciser01.jpg","img/object_images/stereo02.jpg","1","0","1","0","0","0","0.569159399950877","0.972413700073957","0.505389099940658","1","1","1","1","1","1","1","1","1"
"260058","img/object_images/stereo02.jpg","img/object_images/tool18.jpg","img/object_images/flashlight03.jpg","1","1","1","0","0","0","0.505389099940658","0.569159399950877","0.690035700099543","1","1","1","1","1","1","1","1","1"
"260058","img/object_images/flashlight03.jpg","img/object_images/stereo02.jpg","img/object_images/remover01.jpg","1","1","1","0","0","1","0.690035700099543","0.505389099940658","0.484415200073272","1","1","1","1","1","1","1","1","1"
"260058","img/object_images/remover01.jpg","img/object_images/flashlight03.jpg","img/object_images/backpack01.jpg","1","1","1","1","0","0","0.484415200073272","0.690035700099543","0.626511200098321","1","1","1","1","1","1","1","1","1"
"260058","img/object_images/backpack01.jpg","img/object_images/remover01.jpg","img/object_images/knife02.jpg","1","1","1","0","1","0","0.626511200098321","0.484415200073272","0.522609099978581","1","1","1","1","1","1","1","1","1"
"260058","img/object_images/knife02.jpg","img/object_images/backpack01.jpg","img/object_images/sponge03.jpg","1","1","1","0","0","1","0.522609099978581","0.626511200098321","0.473472400102764","1","1","1","1","1","1","1","1","1"
"260058","img/object_images/sponge03.jpg","img/object_images/knife02.jpg","img/object_images/knit03.jpg","1","1","1","1","0","1","0.473472400102764","0.522609099978581","0.460489599965513","1","1","1","1","1","1","1","1","1"
"260058","img/object_images/knit03.jpg","img/object_images/sponge03.jpg","img/object_images/paper_cup02.jpg","1","1","1","1","1","1","0.460489599965513","0.473472400102764","0.508616800187156","1","1","1","1","1","1","1","1","1"
"260058","img/object_images/paper_cup02.jpg","img/object_images/knit03.jpg","img/object_images/Statue01.jpg","1","1","1","1","1","1","0.508616800187156","0.460489599965513","0.50412549986504","1","1","1","1","1","1","1","1","1"
"260058","img/object_images/Statue01.jpg","img/object_images/paper_cup02.jpg","img/object_images/camera03.jpg","1","1","1","1","1","0","0.50412549986504","0.508616800187156","0.53478500014171","1","1","1","1","1","1","1","1","1"
"260058","img/object_images/camera03.jpg","img/object_images/Statue01.jpg","img/object_images/car01.jpg","1","1","1","0","1","1","0.53478500014171","0.50412549986504","0.464184599928558","1","1","1","1","1","1","1","1","1"
"260058","img/object_images/car01.jpg","img/object_images/camera03.jpg","img/object_images/dresser03.jpg","1","1","1","1","0","0","0.464184599928558","0.53478500014171","0.744754000101238","1","1","1","1","1","1","1","1","1"
"260058","img/object_images/dresser03.jpg","img/object_images/car01.jpg","img/object_images/remote_controller01.jpg","1","1","1","0","1","1","0.744754000101238","0.464184599928558","0.604031400056556","1","1","1","1","1","1","1","1","1"
"260058","img/object_images/remote_controller01.jpg","img/object_images/dresser03.jpg","img/object_images/kite01.jpg","1","1","1","1","0","1","0.604031400056556","0.744754000101238","0.495544700184837","1","1","1","1","1","1","1","1","1"
"260058","img/object_images/kite01.jpg","img/object_images/remote_controller01.jpg","img/object_images/jacket04.jpg","1","1","1","1","1","0","0.495544700184837","0.604031400056556","0.56037599989213","1","1","1","1","1","1","1","1","1"
"260058","img/object_images/jacket04.jpg","img/object_images/kite01.jpg","img/object_images/blender02.jpg","1","1","1","0","1","1","0.56037599989213","0.495544700184837","0.495100700063631","1","1","1","1","1","1","1","1","1"
"260058","img/object_images/blender02.jpg","img/object_images/jacket04.jpg","img/object_images/boat04.jpg","1","1","1","1","0","0","0.495100700063631","0.56037599989213","0.582012600032613","1","1","1","1","1","1","1","1","1"
"260058","img/object_images/boat04.jpg","img/object_images/blender02.jpg","img/object_images/curtain02.jpg","1","1","0","0","1","0","0.582012600032613","0.495100700063631","0.747261899989098","1","1","1","1","1","1","1","1","1"
"260058","img/object_images/curtain02.jpg","img/object_images/boat04.jpg","img/object_images/bottle07.jpg","0","1","1","0","0","1","0.747261899989098","0.582012600032613","0.511180000146851","1","1","1","1","1","1","1","1","1"
"260058","img/object_images/bottle07.jpg","img/object_images/curtain02.jpg","img/object_images/gloves02.jpg","1","0","1","1","0","0","0.511180000146851","0.747261899989098","0.6697937999852","1","1","1","1","1","1","1","1","1"
"260058","img/object_images/gloves02.jpg","img/object_images/bottle07.jpg","img/object_images/hoverboard01.jpg","1","1","1","0","1","0","0.6697937999852","0.511180000146851","0.931967099895701","1","1","1","1","1","1","1","1","1"
"260058","img/object_images/hoverboard01.jpg","img/object_images/gloves02.jpg",NA,"1","1",NA,"0","0",NA,"0.931967099895701","0.6697937999852",NA,"1","1",NA,"1","1",NA,"1","1",NA
"260058","img/object_images/knife01.jpg",NA,"img/object_images/Candle_Holder01.jpg","1",NA,"1","1",NA,"0","1.25457109999843",NA,"0.679320099996403","1",NA,"1","1",NA,"1","1",NA,"1"
"260058","img/object_images/Candle_Holder01.jpg","img/object_images/knife01.jpg","img/object_images/floss01.jpg","1","1","1","0","1","1","0.679320099996403","1.25457109999843","0.467614900087938","1","1","1","1","1","1","1","1","1"
"260058","img/object_images/floss01.jpg","img/object_images/Candle_Holder01.jpg","img/object_images/hammer02.jpg","1","1","1","1","0","0","0.467614900087938","0.679320099996403","0.567615100182593","1","1","1","1","1","1","1","1","1"
"260058","img/object_images/hammer02.jpg","img/object_images/floss01.jpg","img/object_images/socks01.jpg","1","1","1","0","1","1","0.567615100182593","0.467614900087938","0.442291100043803","1","1","1","1","1","1","1","1","1"
"260058","img/object_images/socks01.jpg","img/object_images/hammer02.jpg","img/object_images/bow_tie03.jpg","1","1","1","1","0","1","0.442291100043803","0.567615100182593","0.470737600000575","1","1","1","1","1","1","1","1","1"
"260058","img/object_images/bow_tie03.jpg","img/object_images/socks01.jpg","img/object_images/sink_filter01 (1).jpg","1","1","1","1","1","0","0.470737600000575","0.442291100043803","0.599328099982813","1","1","1","1","1","1","1","1","1"
"260058","img/object_images/sink_filter01 (1).jpg","img/object_images/bow_tie03.jpg","img/object_images/Confetti 01.jpg","1","1","1","0","1","0","0.599328099982813","0.470737600000575","0.431705400114879","1","1","1","1","1","1","1","1","1"
"260058","img/object_images/Confetti 01.jpg","img/object_images/sink_filter01 (1).jpg","img/object_images/duster01.jpg","1","1","1","0","0","0","0.431705400114879","0.599328099982813","0.509656300069764","1","1","1","1","1","1","1","1","1"
"260058","img/object_images/duster01.jpg","img/object_images/Confetti 01.jpg","img/object_images/tool13.jpg","1","1","1","0","0","1","0.509656300069764","0.431705400114879","0.685403699986637","1","1","1","1","1","1","1","1","1"
"260058","img/object_images/tool13.jpg","img/object_images/duster01.jpg","img/object_images/candle02.jpg","1","1","0","1","0","0","0.685403699986637","0.509656300069764","0.764134299941361","1","1","1","1","1","1","1","1","1"
"260058","img/object_images/candle02.jpg","img/object_images/tool13.jpg","img/object_images/perfume01.jpg","0","1","1","0","1","0","0.764134299941361","0.685403699986637","0.525482399854809","1","1","1","1","1","1","1","1","1"
"260058","img/object_images/perfume01.jpg","img/object_images/candle02.jpg","img/object_images/dust_pan01.jpg","1","0","1","0","0","1","0.525482399854809","0.764134299941361","0.571601199917495","1","1","1","1","1","1","1","1","1"
"260058","img/object_images/dust_pan01.jpg","img/object_images/perfume01.jpg","img/object_images/lemon_squeezer01.jpg","1","1","1","1","0","1","0.571601199917495","0.525482399854809","0.443821399938315","1","1","1","1","1","1","1","1","1"
"260058","img/object_images/lemon_squeezer01.jpg","img/object_images/dust_pan01.jpg","img/object_images/video_game02.jpg","1","1","1","1","1","1","0.443821399938315","0.571601199917495","0.529423599829897","1","1","1","1","1","1","1","1","1"
"260058","img/object_images/video_game02.jpg","img/object_images/lemon_squeezer01.jpg","img/object_images/hat09.jpg","1","1","1","1","1","0","0.529423599829897","0.443821399938315","0.497612599981949","1","1","1","1","1","1","1","1","1"
"260058","img/object_images/hat09.jpg","img/object_images/video_game02.jpg","img/object_images/sign02.jpg","1","1","1","0","1","0","0.497612599981949","0.529423599829897","0.506210500141606","1","1","1","1","1","1","1","1","1"
"260058","img/object_images/sign02.jpg","img/object_images/hat09.jpg","img/object_images/tool20.jpg","1","1","0","0","0","0","0.506210500141606","0.497612599981949","0.741597499931231","1","1","1","1","1","1","1","1","1"
"260058","img/object_images/tool20.jpg","img/object_images/sign02.jpg","img/object_images/ruler02.jpg","0","1","1","0","0","1","0.741597499931231","0.506210500141606","0.591053700074553","1","1","1","1","1","1","1","1","1"
"260058","img/object_images/ruler02.jpg","img/object_images/tool20.jpg","img/object_images/bag04.jpg","1","0","1","1","0","0","0.591053700074553","0.741597499931231","0.533702899934724","1","1","1","1","1","1","1","1","1"
"260058","img/object_images/bag04.jpg","img/object_images/ruler02.jpg","img/object_images/cup01.jpg","1","1","1","0","1","0","0.533702899934724","0.591053700074553","0.45511810015887","1","1","1","1","1","1","1","1","1"
"260058","img/object_images/cup01.jpg","img/object_images/bag04.jpg","img/object_images/glasses03.jpg","1","1","1","0","0","0","0.45511810015887","0.533702899934724","0.451378399971873","1","1","1","1","1","1","1","1","1"
"260058","img/object_images/glasses03.jpg","img/object_images/cup01.jpg","img/object_images/clipboard01.jpg","1","1","1","0","0","1","0.451378399971873","0.45511810015887","0.382983500137925","1","1","1","1","1","1","1","1","1"
"260058","img/object_images/clipboard01.jpg","img/object_images/glasses03.jpg","img/object_images/office_supplies01.jpg","1","1","1","1","0","1","0.382983500137925","0.451378399971873","0.623922500060871","1","1","1","1","1","1","1","1","1"
"260058","img/object_images/office_supplies01.jpg","img/object_images/clipboard01.jpg","img/object_images/pen06.jpg","1","1","1","1","1","0","0.623922500060871","0.382983500137925","0.561293500009924","1","1","1","1","1","1","1","1","1"
"260058","img/object_images/pen06.jpg","img/object_images/office_supplies01.jpg","img/object_images/board01.jpg","1","1","1","0","1","1","0.561293500009924","0.623922500060871","0.631558499997482","1","1","1","1","1","1","1","1","1"
"260058","img/object_images/board01.jpg","img/object_images/pen06.jpg","img/object_images/razor02.jpg","1","1","1","1","0","1","0.631558499997482","0.561293500009924","0.882184700109065","1","1","1","1","1","1","1","1","1"
"260058","img/object_images/razor02.jpg","img/object_images/board01.jpg","img/object_images/camera05.jpg","1","1","1","1","1","0","0.882184700109065","0.631558499997482","0.58147930004634","1","1","1","1","1","1","1","1","1"
"260058","img/object_images/camera05.jpg","img/object_images/razor02.jpg","img/object_images/spray_can01.jpg","1","1","0","0","1","0","0.58147930004634","0.882184700109065","1.13244819990359","1","1","1","1","1","1","1","1","1"
"260058","img/object_images/spray_can01.jpg","img/object_images/camera05.jpg","img/object_images/hat13.jpg","0","1","1","0","0","1","1.13244819990359","0.58147930004634","0.703908600145951","1","1","1","1","1","1","1","1","1"
"260058","img/object_images/hat13.jpg","img/object_images/spray_can01.jpg","img/object_images/pan03.jpg","1","0","1","1","0","1","0.703908600145951","1.13244819990359","0.49900670000352","1","1","1","1","1","1","1","1","1"
"260058","img/object_images/pan03.jpg","img/object_images/hat13.jpg","img/object_images/vase02.jpg","1","1","1","1","1","1","0.49900670000352","0.703908600145951","0.547500899992883","1","1","1","1","1","1","1","1","1"
"260058","img/object_images/vase02.jpg","img/object_images/pan03.jpg",NA,"1","1",NA,"1","1",NA,"0.547500899992883","0.49900670000352",NA,"1","1",NA,"1","1",NA,"1","1",NA
"260058","img/object_images/chair01.jpg",NA,"img/object_images/couch04.jpg","0",NA,"1","0",NA,"1","1.18889840017073",NA,"0.598456799983978","1",NA,"1","1",NA,"1","1",NA,"1"
"260058","img/object_images/couch04.jpg","img/object_images/chair01.jpg","img/object_images/container01.jpg","1","0","1","1","0","0","0.598456799983978","1.18889840017073","0.515521899797022","1","1","1","1","1","1","1","1","1"
"260058","img/object_images/container01.jpg","img/object_images/couch04.jpg","img/object_images/pot01.jpg","1","1","1","0","1","0","0.515521899797022","0.598456799983978","0.439827799797058","1","1","1","1","1","1","1","1","1"
"260058","img/object_images/pot01.jpg","img/object_images/container01.jpg","img/object_images/guitar01.jpg","1","1","1","0","0","1","0.439827799797058","0.515521899797022","0.458458400098607","1","1","1","1","1","1","1","1","1"
"260058","img/object_images/guitar01.jpg","img/object_images/pot01.jpg","img/object_images/decorative02.jpg","1","1","1","1","0","0","0.458458400098607","0.439827799797058","0.498903200030327","1","1","1","1","1","1","1","1","1"
"260058","img/object_images/decorative02.jpg","img/object_images/guitar01.jpg","img/object_images/soap01.jpg","1","1","0","0","1","0","0.498903200030327","0.458458400098607","0.369257099926472","1","1","1","1","1","1","1","1","1"
"260058","img/object_images/soap01.jpg","img/object_images/decorative02.jpg","img/object_images/lantern01.jpg","0","1","1","0","0","1","0.369257099926472","0.498903200030327","0.470897200051695","1","1","1","1","1","1","1","1","1"
"260058","img/object_images/lantern01.jpg","img/object_images/soap01.jpg","img/object_images/drone02.jpg","1","0","1","1","0","0","0.470897200051695","0.369257099926472","0.568462300114334","1","1","1","1","1","1","1","1","1"
"260058","img/object_images/drone02.jpg","img/object_images/lantern01.jpg","img/object_images/airfryer01.jpg","1","1","1","0","1","0","0.568462300114334","0.470897200051695","0.591550599783659","1","1","1","1","1","1","1","1","1"
"260058","img/object_images/airfryer01.jpg","img/object_images/drone02.jpg","img/object_images/lamp01.jpg","1","1","1","0","0","1","0.591550599783659","0.568462300114334","0.339195899898186","1","1","1","1","1","1","1","1","1"
"260058","img/object_images/lamp01.jpg","img/object_images/airfryer01.jpg","img/object_images/helmet05.jpg","1","1","1","1","0","1","0.339195899898186","0.591550599783659","0.516842499841005","1","1","1","1","1","1","1","1","1"
"260058","img/object_images/helmet05.jpg","img/object_images/lamp01.jpg","img/object_images/bottle12.jpg","1","1","1","1","1","1","0.516842499841005","0.339195899898186","0.626046400051564","1","1","1","1","1","1","1","1","1"
"260058","img/object_images/bottle12.jpg","img/object_images/helmet05.jpg","img/object_images/ironing_table02.jpg","1","1","1","1","1","0","0.626046400051564","0.516842499841005","0.671959799947217","1","1","1","1","1","1","1","1","1"
"260058","img/object_images/ironing_table02.jpg","img/object_images/bottle12.jpg","img/object_images/razor03.jpg","1","1","1","0","1","0","0.671959799947217","0.626046400051564","0.72965359990485","1","1","1","1","1","1","1","1","1"
"260058","img/object_images/razor03.jpg","img/object_images/ironing_table02.jpg","img/object_images/gloves05.jpg","1","1","1","0","0","1","0.72965359990485","0.671959799947217","0.656028799945489","1","1","1","1","1","1","1","1","1"
"260058","img/object_images/gloves05.jpg","img/object_images/razor03.jpg","img/object_images/brief_case01.jpg","1","1","1","1","0","0","0.656028799945489","0.72965359990485","0.559355899924412","1","1","1","1","1","1","1","1","1"
"260058","img/object_images/brief_case01.jpg","img/object_images/gloves05.jpg","img/object_images/car02.jpg","1","1","1","0","1","0","0.559355899924412","0.656028799945489","0.53568819980137","1","1","1","1","1","1","1","1","1"
"260058","img/object_images/car02.jpg","img/object_images/brief_case01.jpg","img/object_images/pitcher03.jpg","1","1","1","0","0","1","0.53568819980137","0.559355899924412","0.554662699811161","1","1","1","1","1","1","1","1","1"
"260058","img/object_images/pitcher03.jpg","img/object_images/car02.jpg","img/object_images/toilet_paper01.jpg","1","1","1","1","0","1","0.554662699811161","0.53568819980137","0.669345800066367","1","1","1","1","1","1","1","1","1"
"260058","img/object_images/toilet_paper01.jpg","img/object_images/pitcher03.jpg","img/object_images/Wisk01.jpg","1","1","1","1","1","1","0.669345800066367","0.554662699811161","0.435998299857602","1","1","1","1","1","1","1","1","1"
"260058","img/object_images/Wisk01.jpg","img/object_images/toilet_paper01.jpg","img/object_images/ball01.jpg","1","1","1","1","1","1","0.435998299857602","0.669345800066367","0.529207700164989","1","1","1","1","1","1","1","1","1"
"260058","img/object_images/ball01.jpg","img/object_images/Wisk01.jpg","img/object_images/brief_case02.jpg","1","1","1","1","1","1","0.529207700164989","0.435998299857602","0.495948299998417","1","1","1","1","1","1","1","1","1"
"260058","img/object_images/brief_case02.jpg","img/object_images/ball01.jpg","img/object_images/video_game06.jpg","1","1","1","1","1","0","0.495948299998417","0.529207700164989","0.707251799991354","1","1","1","1","1","1","1","1","1"
"260058","img/object_images/video_game06.jpg","img/object_images/brief_case02.jpg","img/object_images/hat02.jpg","1","1","1","0","1","0","0.707251799991354","0.495948299998417","0.495870399987325","1","1","1","1","1","1","1","1","1"
"260058","img/object_images/hat02.jpg","img/object_images/video_game06.jpg","img/object_images/Woopie01.jpg","1","1","1","0","0","1","0.495870399987325","0.707251799991354","0.554083399940282","1","1","1","1","1","1","1","1","1"
"260058","img/object_images/Woopie01.jpg","img/object_images/hat02.jpg","img/object_images/basketball_hoop02.jpg","1","1","0","1","0","0","0.554083399940282","0.495870399987325","0.722830699989572","1","1","1","1","1","1","1","1","1"
"260058","img/object_images/basketball_hoop02.jpg","img/object_images/Woopie01.jpg","img/object_images/toy_train02.jpg","0","1","1","0","1","1","0.722830699989572","0.554083399940282","0.607105700066313","1","1","1","1","1","1","1","1","1"
"260058","img/object_images/toy_train02.jpg","img/object_images/basketball_hoop02.jpg","img/object_images/broom01.jpg","1","0","1","1","0","1","0.607105700066313","0.722830699989572","0.617123800097033","1","1","1","1","1","1","1","1","1"
"260058","img/object_images/broom01.jpg","img/object_images/toy_train02.jpg","img/object_images/Recycling01.jpg","1","1","1","1","1","1","0.617123800097033","0.607105700066313","0.521088199922815","1","1","1","1","1","1","1","1","1"
"260058","img/object_images/Recycling01.jpg","img/object_images/broom01.jpg","img/object_images/tie01.jpg","1","1","1","1","1","0","0.521088199922815","0.617123800097033","0.836610299767926","1","1","1","1","1","1","1","1","1"
"260058","img/object_images/tie01.jpg","img/object_images/Recycling01.jpg","img/object_images/cochlear_implant01.jpg","1","1","1","0","1","0","0.836610299767926","0.521088199922815","0.719125999836251","1","1","1","1","1","1","1","1","1"
"260058","img/object_images/cochlear_implant01.jpg","img/object_images/tie01.jpg",NA,"1","1",NA,"0","0",NA,"0.719125999836251","0.836610299767926",NA,"1","1",NA,"1","1",NA,"1","1",NA
