"participant_id","object","surpAcc","memory_surp_responses","memory_surp_rt","keep_surp_memory_trial_based_on_rt","surp_block_num","exclude_block","number_of_surp_resp_items_used","num_blocks_excluded"
"260026","img/object_images/WoodBox01.jpg","1","s","1.65170120005496",1,1,0,2,0
"260026","img/object_images/knife02.jpg","1","k","1.10127049998846",1,1,0,2,0
"260026","img/object_images/MetalWire01.jpg","1","k","1.07765309995739",1,1,0,2,0
"260026","img/object_images/vase01.jpg","0","s","2.1155464000185",1,1,0,2,0
"260026","img/object_images/clip02.jpg","0","k","1.44320350000635",1,1,0,2,0
"260026","img/object_images/toaster01.jpg","1","s","1.13060849998146",1,1,0,2,0
"260026","img/object_images/pitcher02.jpg","1","k","1.21217189996969",1,1,0,2,0
"260026","img/object_images/bird_house02.jpg","1","k","0.9650127000059",1,1,0,2,0
"260026","img/object_images/book03.jpg","1","k","0.922500199987553",1,1,0,2,0
"260026","img/object_images/broom01.jpg","0","k","1.3245850999956",1,1,0,2,0
"260026","img/object_images/shower_head01.jpg","1","k","1.48628840001766",1,1,0,2,0
"260026","img/object_images/guitar02.jpg","1","s","0.781990599993151",1,1,0,2,0
"260026","img/object_images/video_game02.jpg","0","s","1.07096250000177",1,1,0,2,0
"260026","img/object_images/jewel04.jpg","0","s","1.46086930000456",1,1,0,2,0
"260026","img/object_images/hair_brush02.jpg","1","s","1.31784039997729",1,1,0,2,0
"260026","img/object_images/ornament01.jpg","1","s","0.871144199976698",1,1,0,2,0
"260026","img/object_images/crown02.jpg","1","k","0.968107099994086",1,1,0,2,0
"260026","img/object_images/ToolBag01.jpg","1","s","1.29468260001158",1,1,0,2,0
"260026","img/object_images/Vest02.jpg","0","k","0.916350699961186",1,1,0,2,0
"260026","img/object_images/Thermometer01.jpg","1","s","0.874479999998584",1,1,0,2,0
"260026","img/object_images/perfume02.jpg","0","s","0.915827499993611",1,1,0,2,0
"260026","img/object_images/cellphone03.jpg","1","s","0.827709599980153",1,1,0,2,0
"260026","img/object_images/flashlight03.jpg","1","s","0.969423100003041",1,1,0,2,0
"260026","img/object_images/ruler02.jpg","0","s","2.11140880000312",1,1,0,2,0
"260026","img/object_images/dress03.jpg","1","s","1.23471240000799",1,1,0,2,0
"260026","img/object_images/mask01.jpg","1","s","0.780832000018563",1,1,0,2,0
"260026","img/object_images/Traffic Sign 01.jpg","1","k","1.62197620002553",1,1,0,2,0
"260026","img/object_images/pot01.jpg","0","s","1.07683560001897",1,1,0,2,0
"260026","img/object_images/razor01.jpg","1","k","1.11987970001064",1,1,0,2,0
"260026","img/object_images/matches02.jpg","1","k","1.39803179999581",1,1,0,2,0
"260026","img/object_images/key02.jpg","1","k","1.01500269997632",1,1,0,2,0
"260026","img/object_images/pen03.jpg","1","s","1.06394779996481",1,1,0,2,0
"260026","img/object_images/knife01.jpg","0","s","1.16106010001386",1,1,0,2,0
"260026","img/object_images/knife04.jpg","0","s","1.2352375999908",1,1,0,2,0
"260026","img/object_images/microphone03.jpg","1","s","0.95840230002068",1,1,0,2,0
"260026","img/object_images/purse04.jpg","0","s","1.48185129999183",1,1,0,2,0
"260026","img/object_images/brief_case02.jpg","0","k","1.37451969995163",1,1,0,2,0
"260026","img/object_images/accardion01.jpg","1","s","1.48464110004716",1,1,0,2,0
"260026","img/object_images/bottle05.jpg","1","k","1.42861309996806",1,1,0,2,0
"260026","img/object_images/fan01.jpg","1","s","1.04105800000252",1,1,0,2,0
"260026","img/object_images/bow_tie03.jpg","1","k","1.94805260002613",1,1,0,2,0
"260026","img/object_images/sink01.jpg","1","s","1.13246250001248",1,1,0,2,0
"260026","img/object_images/tv01.jpg","0","k","1.68965559999924",1,1,0,2,0
"260026","img/object_images/Lint_Roller02.jpg","0","s","0.697610299976077",1,1,0,2,0
"260026","img/object_images/scarf01.jpg","0","k","1.26363289996516",1,1,0,2,0
"260026","img/object_images/bow_tie01.jpg","0","s","1.241283499985",1,1,0,2,0
"260026","img/object_images/boat04.jpg","0","s","1.35061880003195",1,1,0,2,0
"260026","img/object_images/knit05.jpg","1","s","0.823500700003933",1,1,0,2,0
"260026","img/object_images/soap01.jpg","1","s","0.649264300009236",1,2,0,2,0
"260026","img/object_images/lemon_squeezer02.jpg","1","s","1.1605062999879",1,2,0,2,0
"260026","img/object_images/pitcher01.jpg","1","s","0.836704300018027",1,2,0,2,0
"260026","img/object_images/microscope01.jpg","0","s","1.3401016999851",1,2,0,2,0
"260026","img/object_images/curtain02.jpg","1","k","1.3044769000262",1,2,0,2,0
"260026","img/object_images/bath_tub01.jpg","1","s","0.910230999987107",1,2,0,2,0
"260026","img/object_images/ice_tray03.jpg","0","s","1.37749639997492",1,2,0,2,0
"260026","img/object_images/clip04.jpg","1","s","0.961749500012957",1,2,0,2,0
"260026","img/object_images/tool11.jpg","1","k","1.18254740000702",1,2,0,2,0
"260026","img/object_images/ironing_table01.jpg","1","s","1.04438719997415",1,2,0,2,0
"260026","img/object_images/trash_can05.jpg","0","s","2.33420240000123",1,2,0,2,0
"260026","img/object_images/hole_puncher01.jpg","1","s","1.46642730000895",1,2,0,2,0
"260026","img/object_images/boat_toy10.jpg","0","s","0.84286609996343",1,2,0,2,0
"260026","img/object_images/mail_box02.jpg","1","k","1.08925679995446",1,2,0,2,0
"260026","img/object_images/slinky_toy01.jpg","0","s","1.02646169997752",1,2,0,2,0
"260026","img/object_images/glasses03.jpg","0","s","1.16668529994786",1,2,0,2,0
"260026","img/object_images/tie02.jpg","1","s","0.971058600000106",1,2,0,2,0
"260026","img/object_images/hat13.jpg","0","k","1.06731890002266",1,2,0,2,0
"260026","img/object_images/hammer03.jpg","1","k","1.37297460000264",1,2,0,2,0
"260026","img/object_images/board01.jpg","0","s","1.84663769998588",1,2,0,2,0
"260026","img/object_images/surf_board01.jpg","1","s","1.25390830001561",1,2,0,2,0
"260026","img/object_images/pan01.jpg","1","s","0.963506400003098",1,2,0,2,0
"260026","img/object_images/pen05.jpg","0","s","1.66760399995837",1,2,0,2,0
"260026","img/object_images/ball02.jpg","0","s","0.965184100030456",1,2,0,2,0
"260026","img/object_images/Witchhat01.jpg","0","k","1.29965719999745",1,2,0,2,0
"260026","img/object_images/crutches02.jpg","1","s","1.49344140000176",1,2,0,2,0
"260026","img/object_images/note_book02.jpg","1","s","1.18837680004071",1,2,0,2,0
"260026","img/object_images/retainer01.jpg","1","s","1.50792740000179",1,2,0,2,0
"260026","img/object_images/backpack01.jpg","0","s","0.78928620001534",1,2,0,2,0
"260026","img/object_images/vase02.jpg","0","s","1.33673280000221",1,2,0,2,0
"260026","img/object_images/tool07.jpg","1","s","1.39870390004944",1,2,0,2,0
"260026","img/object_images/WitchHat02.jpg","1","s","0.887495399976615",1,2,0,2,0
"260026","img/object_images/ear_bud01.jpg","1","s","0.819667299976572",1,2,0,2,0
"260026","img/object_images/toothbrush01.jpg","1","s","0.782584499975201",1,2,0,2,0
"260026","img/object_images/gift_box02.jpg","1","s","0.769937999953981",1,2,0,2,0
"260026","img/object_images/wallet02.jpg","1","k","1.22064469999168",1,2,0,2,0
"260026","img/object_images/robe01.jpg","1","s","1.02881290001096",1,2,0,2,0
"260026","img/object_images/knit01.jpg","1","s","2.21877420000965",1,2,0,2,0
"260026","img/object_images/tripod01.jpg","0","s","0.970567799988203",1,2,0,2,0
"260026","img/object_images/acoustic_capo01.jpg","0","s","0.721583599981386",1,2,0,2,0
"260026","img/object_images/airfryer01.jpg","0","s","0.917917600017972",1,2,0,2,0
"260026","img/object_images/lemon_squeezer01.jpg","1","s","1.20589030004339",1,2,0,2,0
"260026","img/object_images/dice01.jpg","1","s","1.23832290002611",1,2,0,2,0
"260026","img/object_images/pen01.jpg","1","s","1.0231370999827",1,2,0,2,0
"260026","img/object_images/TreeSlice01.jpg","1","s","0.992966099991463",1,2,0,2,0
"260026","img/object_images/gauze01.jpg","1","s","0.75570640002843",1,2,0,2,0
"260026","img/object_images/projector01.jpg","1","s","0.773286600015126",1,2,0,2,0
"260026","img/object_images/helmet01.jpg","1","s","1.29351859999588",1,2,0,2,0
"260026","img/object_images/spatula02.jpg","1","k","1.52955639996799",1,3,0,2,0
"260026","img/object_images/jewelry01.jpg","1","s","1.14581680000992",1,3,0,2,0
"260026","img/object_images/tool02.jpg","1","s","0.802516399999149",1,3,0,2,0
"260026","img/object_images/Tin01.jpg","0","s","1.10215160000371",1,3,0,2,0
"260026","img/object_images/Ring02.jpg","0","s","1.44275119999656",1,3,0,2,0
"260026","img/object_images/kite01.jpg","0","s","1.09276299999328",1,3,0,2,0
"260026","img/object_images/floppy_disk02.jpg","1","s","1.08777440001722",1,3,0,2,0
"260026","img/object_images/video_game06.jpg","1","s","0.925054799998179",1,3,0,2,0
"260026","img/object_images/exfoliater_brush01.jpg","1","s","1.03742920001969",1,3,0,2,0
"260026","img/object_images/lock03.jpg","1","s","1.80282219999935",1,3,0,2,0
"260026","img/object_images/toy08.jpg","0","s","0.680748899991158",1,3,0,2,0
"260026","img/object_images/TrashCan02.jpg","1","s","0.682362199993804",1,3,0,2,0
"260026","img/object_images/bookmark01.jpg","1","s","1.06732360000024",1,3,0,2,0
"260026","img/object_images/book01.jpg","1","s","0.773449900036212",1,3,0,2,0
"260026","img/object_images/Candle_Holder01.jpg","0","s","0.718475999950897",1,3,0,2,0
"260026","img/object_images/bucket02.jpg","0","k","0.960214000020642",1,3,0,2,0
"260026","img/object_images/computer_mouse01.jpg","1","s","1.09422550001182",1,3,0,2,0
"260026","img/object_images/Violin01.jpg","0","k","1.93404369999189",1,3,0,2,0
"260026","img/object_images/book02.jpg","1","s","0.840207000030205",1,3,0,2,0
"260026","img/object_images/yarn02.jpg","1","k","0.992018299992196",1,3,0,2,0
"260026","img/object_images/note_book01.jpg","0","k","1.03197509999154",1,3,0,2,0
"260026","img/object_images/toy01.jpg","0","s","0.810163499962073",1,3,0,2,0
"260026","img/object_images/gloves05.jpg","0","s","1.09290930000134",1,3,0,2,0
"260026","img/object_images/sleeping_bag01.jpg","1","s","1.06833979999647",1,3,0,2,0
"260026","img/object_images/sink_filter01 (1).jpg","1","s","1.59599090000847",1,3,0,2,0
"260026","img/object_images/combs01.jpg","0","s","0.87069299997529",1,3,0,2,0
"260026","img/object_images/audio_port01.jpg","1","k","1.37308530003065",1,3,0,2,0
"260026","img/object_images/camera05.jpg","1","s","1.18082089995733",1,3,0,2,0
"260026","img/object_images/bottle02.jpg","1","k","1.58430410001893",1,3,0,2,0
"260026","img/object_images/tool08.jpg","1","s","1.34143219998805",1,3,0,2,0
"260026","img/object_images/MeasuringCup01.jpg","1","s","0.945791300036944",1,3,0,2,0
"260026","img/object_images/stereo02.jpg","1","s","1.14605949999532",1,3,0,2,0
"260026","img/object_images/fan04.jpg","0","s","1.58164580003358",1,3,0,2,0
"260026","img/object_images/dog_leash01.jpg","0","s","1.21538639999926",1,3,0,2,0
"260026","img/object_images/shovel01.jpg","0","s","1.16365579998819",1,3,0,2,0
"260026","img/object_images/bottle12.jpg","1","s","1.09456789999967",1,3,0,2,0
"260026","img/object_images/blender01.jpg","0","k","1.65548570000101",1,3,0,2,0
"260026","img/object_images/candle02.jpg","0","s","1.45004339999286",1,3,0,2,0
"260026","img/object_images/water_gun01.jpg","0","s","1.26398909999989",1,3,0,2,0
"260026","img/object_images/hoverboard01.jpg","0","k","1.13194450002629",1,3,0,2,0
"260026","img/object_images/clock02.jpg","0","s","0.93061320000561",1,3,0,2,0
"260026","img/object_images/bag04.jpg","1","s","0.827443699992727",1,3,0,2,0
"260026","img/object_images/toy03.jpg","1","s","0.89370620000409",1,3,0,2,0
"260026","img/object_images/origami01.jpg","1","s","1.01924630004214",1,3,0,2,0
"260026","img/object_images/backpack03.jpg","1","k","1.09019309998257",1,3,0,2,0
"260026","img/object_images/trumpet01.jpg","0","k","1.44942560000345",1,3,0,2,0
"260026","img/object_images/toy_train02.jpg","1","s","0.93436750001274",1,3,0,2,0
"260026","img/object_images/basket02.jpg","0","s","1.06055319996085",1,3,0,2,0
"260026","img/object_images/video_game07.jpg","0","k","1.33225310000125",1,4,0,2,0
"260026","img/object_images/Statue01.jpg","0","s","1.07340260001365",1,4,0,2,0
"260026","img/object_images/bag_pipes01.jpg","1","s","1.58648410002934",1,4,0,2,0
"260026","img/object_images/bow01.jpg","1","k","1.35443329997361",1,4,0,2,0
"260026","img/object_images/Staples01.jpg","1","k","1.28105859999778",1,4,0,2,0
"260026","img/object_images/water_scooter01.jpg","0","k","1.18962250003824",1,4,0,2,0
"260026","img/object_images/mirror01.jpg","0","s","1.64526070002466",1,4,0,2,0
"260026","img/object_images/jewel02.jpg","1","s","1.27089020004496",1,4,0,2,0
"260026","img/object_images/Trowel01.jpg","1","s","0.912301699980162",1,4,0,2,0
"260026","img/object_images/Pottery01.jpg","0","s","1.55643579998286",1,4,0,2,0
"260026","img/object_images/hair_brush05.jpg","1","s","0.899383999989368",1,4,0,2,0
"260026","img/object_images/couch03.jpg","0","k","1.11142440000549",1,4,0,2,0
"260026","img/object_images/bottle09.jpg","1","s","1.04300080001121",1,4,0,2,0
"260026","img/object_images/joystick03.jpg","1","s","1.6433516999823",1,4,0,2,0
"260026","img/object_images/bicycle_lock01.jpg","1","k","1.29498290002812",1,4,0,2,0
"260026","img/object_images/chain01.jpg","1","k","1.08531689998927",1,4,0,2,0
"260026","img/object_images/hat02.jpg","1","s","1.04919609997887",1,4,0,2,0
"260026","img/object_images/motorcycle01.jpg","1","s","1.1946512000286",1,4,0,2,0
"260026","img/object_images/pitcher05.jpg","0","k","1.3700203000335",1,4,0,2,0
"260026","img/object_images/ball01.jpg","0","s","1.51320069999201",1,4,0,2,0
"260026","img/object_images/jacket04.jpg","0","s","1.17222800001036",1,4,0,2,0
"260026","img/object_images/bottle01.jpg","0","s","1.3324165000231",1,4,0,2,0
"260026","img/object_images/golf_ball03.jpg","1","k","1.15388749999693",1,4,0,2,0
"260026","img/object_images/bean_bag02.jpg","1","k","1.79790509998566",1,4,0,2,0
"260026","img/object_images/flask01.jpg","0","k","1.03261229995405",1,4,0,2,0
"260026","img/object_images/yo_yo01.jpg","1","k","1.083625499974",1,4,0,2,0
"260026","img/object_images/basket04.jpg","1","s","1.11321420001332",1,4,0,2,0
"260026","img/object_images/brief_case01.jpg","1","s","0.627221799979452",1,4,0,2,0
"260026","img/object_images/Wisk01.jpg","1","k","1.09400380001171",1,4,0,2,0
"260026","img/object_images/egg_slicer01.jpg","1","k","1.28177090000827",1,4,0,2,0
"260026","img/object_images/piggy_bank01.jpg","0","s","1.19439100002637",1,4,0,2,0
"260026","img/object_images/tool18.jpg","1","k","1.00014010001905",1,4,0,2,0
"260026","img/object_images/chair05.jpg","1","s","1.19987429998582",1,4,0,2,0
"260026","img/object_images/cards01.jpg","0","s","0.925217399955727",1,4,0,2,0
"260026","img/object_images/colander01.jpg","0","s","0.826792299980298",1,4,0,2,0
"260026","img/object_images/knit03.jpg","1","s","1.24201789998915",1,4,0,2,0
"260026","img/object_images/judge_gavel01.jpg","1","s","0.767446999961976",1,4,0,2,0
"260026","img/object_images/handcuffs01.jpg","1","k","1.64924409997184",1,4,0,2,0
"260026","img/object_images/container01.jpg","0","k","1.42316669999855",1,4,0,2,0
"260026","img/object_images/lighter01.jpg","0","k","1.36921430000803",1,4,0,2,0
"260026","img/object_images/speaker01.jpg","1","s","1.44884199998342",1,4,0,2,0
"260026","img/object_images/usb03.jpg","1","k","1.90661439998075",1,4,0,2,0
"260026","img/object_images/chess_piece02.jpg","0","k","1.13819259998854",1,4,0,2,0
"260026","img/object_images/chair02.jpg","1","s","0.576109000016004",1,4,0,2,0
"260026","img/object_images/hammer01.jpg","1","s","1.15516510000452",1,4,0,2,0
"260026","img/object_images/lamp01.jpg","0","s","0.764097000006586",1,4,0,2,0
"260026","img/object_images/guitar01.jpg","0","s","0.989408999972511",1,4,0,2,0
"260026","img/object_images/Woopie01.jpg","1","s","1.31051139999181",1,4,0,2,0
"260026","img/object_images/shoes08.jpg","0","s","0.820809900003951",1,5,0,2,0
"260026","img/object_images/tennis_racket01.jpg","1","s","1.0373513000086",1,5,0,2,0
"260026","img/object_images/coloring_pencil01.jpg","1","k","0.769468899990898",1,5,0,2,0
"260026","img/object_images/grater01.jpg","0","s","0.878620499977842",1,5,0,2,0
"260026","img/object_images/office_supplies01.jpg","1","k","1.14024889998836",1,5,0,2,0
"260026","img/object_images/bag06.jpg","1","s","1.38773120002588",1,5,0,2,0
"260026","img/object_images/paint_brush04.jpg","0","k","1.23345230001723",1,5,0,2,0
"260026","img/object_images/watch01.jpg","0","k","0.983325299981516",1,5,0,2,0
"260026","img/object_images/lid01.jpg","0","s","0.891649099998176",1,5,0,2,0
"260026","img/object_images/lawn_mower01.jpg","0","s","0.922375600028317",1,5,0,2,0
"260026","img/object_images/jewelry09.jpg","0","k","1.36304849997396",1,5,0,2,0
"260026","img/object_images/bottle10.jpg","0","s","1.22642349998932",1,5,0,2,0
"260026","img/object_images/bow_tie02.jpg","1","s","1.06279920000816",1,5,0,2,0
"260026","img/object_images/jewel01.jpg","1","s","0.882445499999449",1,5,0,2,0
"260026","img/object_images/faucet01.jpg","1","s","0.94317649997538",1,5,0,2,0
"260026","img/object_images/socks02.jpg","1","k","1.02953529998194",1,5,0,2,0
"260026","img/object_images/couch04.jpg","1","s","1.12484720000066",1,5,0,2,0
"260026","img/object_images/tie01.jpg","1","s","0.902497200004291",1,5,0,2,0
"260026","img/object_images/balloon01.jpg","0","k","1.22861479996936",1,5,0,2,0
"260026","img/object_images/pitcher03.jpg","1","s","1.10524659999646",1,5,0,2,0
"260026","img/object_images/hammer02.jpg","1","k","1.09256680001272",1,5,0,2,0
"260026","img/object_images/coloring_pencil02.jpg","0","k","1.76643449999392",1,5,0,2,0
"260026","img/object_images/shoes10.jpg","0","s","1.10258280002745",1,5,0,2,0
"260026","img/object_images/camera07.jpg","0","k","0.991758699994534",1,5,0,2,0
"260026","img/object_images/dresser03.jpg","0","k","0.928847300005145",1,5,0,2,0
"260026","img/object_images/sign02.jpg","0","s","0.980510299967136",1,5,0,2,0
"260026","img/object_images/socks01.jpg","0","s","1.02414689998841",1,5,0,2,0
"260026","img/object_images/toy04.jpg","0","s","3.08469829999376",1,5,0,2,0
"260026","img/object_images/headset02.jpg","1","k","1.98854499997105",1,5,0,2,0
"260026","img/object_images/helmet03.jpg","1","s","1.27629900001921",1,5,0,2,0
"260026","img/object_images/Kitchen_Towel.jpg","1","k","0.784770200029016",1,5,0,2,0
"260026","img/object_images/bell03.jpg","0","k","1.11376040003961",1,5,0,2,0
"260026","img/object_images/vga_port 01.jpg","1","s","1.21408409997821",1,5,0,2,0
"260026","img/object_images/badminton01.jpg","1","s","1.08099749998655",1,5,0,2,0
"260026","img/object_images/phone02.jpg","0","k","0.842697100015357",1,5,0,2,0
"260026","img/object_images/lock01.jpg","1","s","1.1902517999988",1,5,0,2,0
"260026","img/object_images/pitcher09.jpg","1","k","1.07293610001216",1,5,0,2,0
"260026","img/object_images/razor02.jpg","1","k","1.01291089999722",1,5,0,2,0
"260026","img/object_images/binoculars03.jpg","0","k","0.988958799978718",1,5,0,2,0
"260026","img/object_images/Vacuum01.jpg","1","s","0.995707799971569",1,5,0,2,0
"260026","img/object_images/laptop01.jpg","1","s","0.621342700032983",1,5,0,2,0
"260026","img/object_images/car04.jpg","1","k","0.847376299963798",1,5,0,2,0
"260026","img/object_images/lock04.jpg","0","s","1.15743560000556",1,5,0,2,0
"260026","img/object_images/fan05.jpg","0","s","1.44841140002245",1,5,0,2,0
"260026","img/object_images/video_game01.jpg","0","s","1.16106459998991",1,5,0,2,0
"260026","img/object_images/tool13.jpg","0","s","1.18033419997664",1,5,0,2,0
"260026","img/object_images/helmet05.jpg","1","s","1.146023600013",1,5,0,2,0
"260026","img/object_images/clip03.jpg","0","s","1.35812759998953",1,5,0,2,0
"260026","img/object_images/fork02.jpg","1","k","1.02377189998515",1,6,0,2,0
"260026","img/object_images/trash_can03.jpg","1","k","2.36851219995879",1,6,0,2,0
"260026","img/object_images/paper_cup01.jpg","0","s","0.567878099973314",1,6,0,2,0
"260026","img/object_images/cup03.jpg","1","k","0.657743499963544",1,6,0,2,0
"260026","img/object_images/keyboard02.jpg","0","s","0.474325600021984",1,6,0,2,0
"260026","img/object_images/jewelry07.jpg","1","k","1.28857850003988",1,6,0,2,0
"260026","img/object_images/spray_can01.jpg","0","k","1.31915310001932",1,6,0,2,0
"260026","img/object_images/hot_air_balloon02.jpg","0","s","0.901930499996524",1,6,0,2,0
"260026","img/object_images/chair04.jpg","1","s","0.795614900009241",1,6,0,2,0
"260026","img/object_images/tool19.jpg","1","k","0.816806199960411",1,6,0,2,0
"260026","img/object_images/shoes12.jpg","1","k","1.09444680000888",1,6,0,2,0
"260026","img/object_images/drone02.jpg","1","k","1.1561927999719",1,6,0,2,0
"260026","img/object_images/shoes07.jpg","0","k","0.989950699964538",1,6,0,2,0
"260026","img/object_images/blender02.jpg","1","k","0.811716000025626",1,6,0,2,0
"260026","img/object_images/soap03.jpg","0","s","0.672844999993686",1,6,0,2,0
"260026","img/object_images/camera_lens01.jpg","0","s","0.867536599980667",1,6,0,2,0
"260026","img/object_images/umbrella01.jpg","0","s","1.09851530002197",1,6,0,2,0
"260026","img/object_images/cutting_board01.jpg","0","s","0.952510300034192",1,6,0,2,0
"260026","img/object_images/paper_cup02.jpg","1","s","0.847959600039758",1,6,0,2,0
"260026","img/object_images/gift_box05.jpg","0","s","0.848486899980344",1,6,0,2,0
"260026","img/object_images/glasses07.jpg","1","s","0.573263800004497",1,6,0,2,0
"260026","img/object_images/hair_dryer01.jpg","0","s","0.913376299955416",1,6,0,2,0
"260026","img/object_images/rock02.jpg","1","k","1.0775985000073",1,6,0,2,0
"260026","img/object_images/bucket01.jpg","1","s","2.24883980001323",1,6,0,2,0
"260026","img/object_images/toaster02.jpg","0","s","0.722641700005624",1,6,0,2,0
"260026","img/object_images/pitcher07.jpg","1","k","1.15335599996615",1,6,0,2,0
"260026","img/object_images/computer_mouse02.jpg","0","s","1.22091060003731",1,6,0,2,0
"260026","img/object_images/fridge03.jpg","1","s","0.733175300003495",1,6,0,2,0
"260026","img/object_images/toy05.jpg","1","s","0.607994000019971",1,6,0,2,0
"260026","img/object_images/hair_brush01.jpg","1","s","0.519665599975269",1,6,0,2,0
"260026","img/object_images/piano03.jpg","1","s","0.79346880002413",1,6,0,2,0
"260026","img/object_images/funnel01.jpg","0","k","0.911486500001047",1,6,0,2,0
"260026","img/object_images/hand_grip_exerciser01.jpg","1","s","0.914561100013088",1,6,0,2,0
"260026","img/object_images/shower_head03.jpg","0","s","0.756173400033731",1,6,0,2,0
"260026","img/object_images/Eyeliner01.jpg","0","s","0.975117000052705",1,6,0,2,0
"260026","img/object_images/purse01.jpg","0","s","1.24396120000165",1,6,0,2,0
"260026","img/object_images/perfume01.jpg","0","s","1.44750249997014",1,6,0,2,0
"260026","img/object_images/ironing_table02.jpg","0","s","1.29097299999557",1,6,0,2,0
"260026","img/object_images/car02.jpg","0","s","0.867497000028379",1,6,0,2,0
"260026","img/object_images/remote_controller01.jpg","1","s","0.790535699983593",1,6,0,2,0
"260026","img/object_images/scale02.jpg","1","s","1.69886669999687",1,6,0,2,0
"260026","img/object_images/tool06.jpg","0","s","0.87074380001286",1,6,0,2,0
"260026","img/object_images/Sprayer01.jpg","0","k","2.33513730001869",1,6,0,2,0
"260026","img/object_images/usb02.jpg","1","k","1.3498976000119",1,6,0,2,0
"260026","img/object_images/jewel03.jpg","1","k","1.07320600003004",1,6,0,2,0
"260026","img/object_images/belt01.jpg","1","k","1.16304270003457",1,6,0,2,0
"260026","img/object_images/tray01.jpg","1","s","1.42113899998367",1,6,0,2,0
"260026","img/object_images/ribbon01.jpg","1","k","1.29297049995512",1,6,0,2,0
"260026","img/object_images/cochlear_implant01.jpg","1","k","1.06516300002113",1,7,0,2,0
"260026","img/object_images/stapler.jpg","0","s","1.01183400000446",1,7,0,2,0
"260026","img/object_images/chair06.jpg","1","k","0.832560699956957",1,7,0,2,0
"260026","img/object_images/rock03.jpg","0","s","0.81896369997412",1,7,0,2,0
"260026","img/object_images/mail_box01.jpg","0","s","1.58900670002913",1,7,0,2,0
"260026","img/object_images/basketball_hoop02.jpg","0","k","1.54891339997994",1,7,0,2,0
"260026","img/object_images/pen06.jpg","0","s","1.00961670000106",1,7,0,2,0
"260026","img/object_images/hat09.jpg","1","s","0.881366799992975",1,7,0,2,0
"260026","img/object_images/hair_clips01.jpg","0","k","1.31580929999473",1,7,0,2,0
"260026","img/object_images/yoga_mat01.jpg","1","s","1.00887419999344",1,7,0,2,0
"260026","img/object_images/Oven01.jpg","1","k","1.28330670000287",1,7,0,2,0
"260026","img/object_images/bottle06.jpg","1","s","1.85254069999792",1,7,0,2,0
"260026","img/object_images/boat02.jpg","0","k","1.18884499999695",1,7,0,2,0
"260026","img/object_images/box03.jpg","0","k","1.86024750000797",1,7,0,2,0
"260026","img/object_images/fork03.jpg","1","s","1.28876059997128",1,7,0,2,0
"260026","img/object_images/jacket03.jpg","1","k","1.12548679998145",1,7,0,2,0
"260026","img/object_images/wire02.jpg","0","s","1.17159679997712",1,7,0,2,0
"260026","img/object_images/frame01.jpg","0","k","1.00509450002573",1,7,0,2,0
"260026","img/object_images/car03.jpg","1","k","0.778889900015201",1,7,0,2,0
"260026","img/object_images/ring03.jpg","0","s","0.997423900000285",1,7,0,2,0
"260026","img/object_images/chair03.jpg","1","s","0.841599200037308",1,7,0,2,0
"260026","img/object_images/cup01.jpg","1","s","0.847880500019528",1,7,0,2,0
"260026","img/object_images/screwdriver01.jpg","0","s","0.776305799954571",1,7,0,2,0
"260026","img/object_images/compass01.jpg","1","k","0.759970200015232",1,7,0,2,0
"260026","img/object_images/gloves02.jpg","1","s","0.796281399962027",1,7,0,2,0
"260026","img/object_images/Confetti 01.jpg","0","k","0.748263000044972",1,7,0,2,0
"260026","img/object_images/decorative02.jpg","1","s","0.732577299990226",1,7,0,2,0
"260026","img/object_images/fan02.jpg","0","s","0.829037499963306",1,7,0,2,0
"260026","img/object_images/tv02.jpg","1","s","0.92726510000648",1,7,0,2,0
"260026","img/object_images/duster01.jpg","0","k","1.01395420002518",1,7,0,2,0
"260026","img/object_images/clipboard01.jpg","1","s","0.649581199977547",1,7,0,2,0
"260026","img/object_images/measuring_tape02.jpg","1","s","0.858349099988118",1,7,0,2,0
"260026","img/object_images/handkerchief01.jpg","1","s","1.0820773000014",1,7,0,2,0
"260026","img/object_images/camera03.jpg","1","s","0.791049199993722",1,7,0,2,0
"260026","img/object_images/stove01.jpg","1","k","0.995164000021759",1,7,0,2,0
"260026","img/object_images/outlet01.jpg","0","s","0.613904800033197",1,7,0,2,0
"260026","img/object_images/video_game03.jpg","0","k","1.08955480001168",1,7,0,2,0
"260026","img/object_images/Stool01.jpg","1","s","0.727409599989187",1,7,0,2,0
"260026","img/object_images/bell02.jpg","0","k","1.13167400000384",1,7,0,2,0
"260026","img/object_images/towel02.jpg","1","s","0.659093800000846",1,7,0,2,0
"260026","img/object_images/towels01.jpg","1","k","1.08090910001192",1,7,0,2,0
"260026","img/object_images/glasses06.jpg","0","k","0.999803900020197",1,7,0,2,0
"260026","img/object_images/bicycle01.jpg","0","s","0.700057899986859",1,7,0,2,0
"260026","img/object_images/tennis_racket02.jpg","0","k","0.8040544000105",1,7,0,2,0
"260026","img/object_images/remover01.jpg","0","s","0.603794599999674",1,7,0,2,0
"260026","img/object_images/razor03.jpg","1","s","1.0093381999759",1,7,0,2,0
"260026","img/object_images/car01.jpg","0","s","0.945778599998448",1,7,0,2,0
"260026","img/object_images/floss02.jpg","1","s","0.823525299958419",1,7,0,2,0
"260026","img/object_images/drone01.jpg","1","k","1.03756059997249",1,8,0,2,0
"260026","img/object_images/dresser04.jpg","1","s","1.14790819998598",1,8,0,2,0
"260026","img/object_images/pot01 (1).jpg","0","s","1.11734270001762",1,8,0,2,0
"260026","img/object_images/helmet02.jpg","0","k","1.10860609996598",1,8,0,2,0
"260026","img/object_images/Recycling01.jpg","1","k","0.99460190004902",1,8,0,2,0
"260026","img/object_images/wagon_cart03.jpg","1","s","1.26567039999645",1,8,0,2,0
"260026","img/object_images/tool20.jpg","1","s","0.79249650001293",1,8,0,2,0
"260026","img/object_images/pan03.jpg","1","k","0.848749700002372",1,8,0,2,0
"260026","img/object_images/gift_box03.jpg","0","s","1.0038663999876",1,8,0,2,0
"260026","img/object_images/helmet04.jpg","1","s","1.12462140002754",1,8,0,2,0
"260026","img/object_images/skate_board01.jpg","1","k","1.52484650001861",1,8,0,2,0
"260026","img/object_images/blanket01.jpg","0","k","1.15324010001495",1,8,0,2,0
"260026","img/object_images/scoreboard01.jpg","1","s","1.39303049998125",1,8,0,2,0
"260026","img/object_images/knit04.jpg","1","k","1.24459040001966",1,8,0,2,0
"260026","img/object_images/cellphone02.jpg","1","s","1.34991789999185",1,8,0,2,0
"260026","img/object_images/pillows01.jpg","0","k","1.21265140001196",1,8,0,2,0
"260026","img/object_images/fire_extinguisher01.jpg","1","k","0.898731400026008",1,8,0,2,0
"260026","img/object_images/bottle07.jpg","1","k","0.941770500037819",1,8,0,2,0
"260026","img/object_images/hat06.jpg","1","s","0.994952799985185",1,8,0,2,0
"260026","img/object_images/dust_pan01.jpg","0","k","0.86867480003275",1,8,0,2,0
"260026","img/object_images/toilet_paper_dispenser01.jpg","1","k","0.953528100042604",1,8,0,2,0
"260026","img/object_images/sponge03.jpg","1","s","1.74809050001204",1,8,0,2,0
"260026","img/object_images/laptop03.jpg","1","s","1.8948681000038",1,8,0,2,0
"260026","img/object_images/Screws01.jpg","0","k","1.39973220002139",1,8,0,2,0
"260026","img/object_images/shovel03.jpg","1","k","1.2577811999945",1,8,0,2,0
"260026","img/object_images/frisbee01.jpg","0","s","0.872422799991909",1,8,0,2,0
"260026","img/object_images/chess_piece01.jpg","1","k","0.954570900008548",1,8,0,2,0
"260026","img/object_images/egg_basket01.jpg","0","s","1.27398820000235",1,8,0,2,0
"260026","img/object_images/floss01.jpg","1","s","0.908082699985243",1,8,0,2,0
"260026","img/object_images/satellite01.jpg","0","s","0.668628000013996",1,8,0,2,0
"260026","img/object_images/gift_box04.jpg","0","k","0.742585200001486",1,8,0,2,0
"260026","img/object_images/couch01.jpg","1","s","0.774749499978498",1,8,0,2,0
"260026","img/object_images/chair01.jpg","0","s","0.723390900006052",1,8,0,2,0
"260026","img/object_images/phone04.jpg","1","k","1.02807850000681",1,8,0,2,0
"260026","img/object_images/dart01.jpg","0","k","1.03724069998134",1,8,0,2,0
"260026","img/object_images/airfryer02.jpg","0","s","1.08181810000679",1,8,0,2,0
"260026","img/object_images/toilet_paper01.jpg","1","k","1.03439330001129",1,8,0,2,0
"260026","img/object_images/belt03.jpg","1","k","1.25535469996976",1,8,0,2,0
"260026","img/object_images/floppy_disk03.jpg","1","k","1.9714775000466",1,8,0,2,0
"260026","img/object_images/cellphone01.jpg","0","s","1.16340520000085",1,8,0,2,0
"260026","img/object_images/calculator01.jpg","0","s","0.842498500016518",1,8,0,2,0
"260026","img/object_images/Safe01.jpg","1","k","0.914132300007623",1,8,0,2,0
"260026","img/object_images/nut_cracker01.jpg","1","k","1.16925679997075",1,8,0,2,0
"260026","img/object_images/tool09.jpg","0","s","1.50477379997028",1,8,0,2,0
"260026","img/object_images/gift_box01.jpg","1","k","1.24688550003339",1,8,0,2,0
"260026","img/object_images/Shoes05.jpg","0","s","1.35803769994527",1,8,0,2,0
"260026","img/object_images/lantern01.jpg","0","s","0.66748230002122",1,8,0,2,0
"260026","img/object_images/ladle02.jpg","1","k","1.01525120000588",1,8,0,2,0
