"participant_id","current_trial_object","pre_trial_object","post_trial_object","current_trial_accuracy","pre_trial_accuracy","post_trial_accuracy","current_trial_congruency","pre_trial_congruency","post_trial_congruency","current_trial_rt","pre_trial_rt","post_trial_rt","current_trial_responded","pre_trial_responded","post_trial_responded","current_trial_legitResponse","pre_trial_legitResponse","post_trial_legitResponse","current_trial_resp_nums","pre_trial_resp_nums","post_trial_resp_nums"
"260007","img/object_images/tennis_racket02.jpg",NA,"img/object_images/pen03.jpg","1",NA,"0","1",NA,"0","0.454814600001555",NA,"0.425579399976414","1",NA,"1","1",NA,"1","1",NA,"1"
"260007","img/object_images/pen03.jpg","img/object_images/tennis_racket02.jpg","img/object_images/microscope01.jpg","0","1","1","0","1","0","0.425579399976414","0.454814600001555","0.616377700003795","1","1","1","1","1","1","1","1","1"
"260007","img/object_images/microscope01.jpg","img/object_images/pen03.jpg","img/object_images/retainer01.jpg","1","0","1","0","0","0","0.616377700003795","0.425579399976414","0.579533600015566","1","1","1","1","1","1","1","1","1"
"260007","img/object_images/retainer01.jpg","img/object_images/microscope01.jpg","img/object_images/chess_piece02.jpg","1","1","1","0","0","1","0.579533600015566","0.616377700003795","0.445529900025576","1","1","1","1","1","1","1","1","1"
"260007","img/object_images/chess_piece02.jpg","img/object_images/retainer01.jpg","img/object_images/hammer03.jpg","1","1","1","1","0","1","0.445529900025576","0.579533600015566","0.473303299979307","1","1","1","1","1","1","1","1","1"
"260007","img/object_images/hammer03.jpg","img/object_images/chess_piece02.jpg","img/object_images/clock02.jpg","1","1","1","1","1","0","0.473303299979307","0.445529900025576","0.54661020002095","1","1","1","1","1","1","1","1","1"
"260007","img/object_images/clock02.jpg","img/object_images/hammer03.jpg","img/object_images/Thermometer01.jpg","1","1","1","0","1","0","0.54661020002095","0.473303299979307","0.512508399959188","1","1","1","1","1","1","1","1","1"
"260007","img/object_images/Thermometer01.jpg","img/object_images/clock02.jpg","img/object_images/motorcycle01.jpg","1","1","1","0","0","1","0.512508399959188","0.54661020002095","0.434883699985221","1","1","1","1","1","1","1","1","1"
"260007","img/object_images/motorcycle01.jpg","img/object_images/Thermometer01.jpg","img/object_images/knit05.jpg","1","1","1","1","0","1","0.434883699985221","0.512508399959188","0.517560400010552","1","1","1","1","1","1","1","1","1"
"260007","img/object_images/knit05.jpg","img/object_images/motorcycle01.jpg","img/object_images/paint_brush04.jpg","1","1","1","1","1","0","0.517560400010552","0.434883699985221","0.593720900011249","1","1","1","1","1","1","1","1","1"
"260007","img/object_images/paint_brush04.jpg","img/object_images/knit05.jpg","img/object_images/clip03.jpg","1","1","1","0","1","0","0.593720900011249","0.517560400010552","0.607692599995062","1","1","1","1","1","1","1","1","1"
"260007","img/object_images/clip03.jpg","img/object_images/paint_brush04.jpg","img/object_images/pitcher01.jpg","1","1","1","0","0","0","0.607692599995062","0.593720900011249","0.550803799997084","1","1","1","1","1","1","1","1","1"
"260007","img/object_images/pitcher01.jpg","img/object_images/clip03.jpg","img/object_images/wire02.jpg","1","1","1","0","0","1","0.550803799997084","0.607692599995062","0.492105000012089","1","1","1","1","1","1","1","1","1"
"260007","img/object_images/wire02.jpg","img/object_images/pitcher01.jpg","img/object_images/floppy_disk03.jpg","1","1","1","1","0","1","0.492105000012089","0.550803799997084","0.516614399966784","1","1","1","1","1","1","1","1","1"
"260007","img/object_images/floppy_disk03.jpg","img/object_images/wire02.jpg","img/object_images/cellphone01.jpg","1","1","1","1","1","1","0.516614399966784","0.492105000012089","0.479242699977476","1","1","1","1","1","1","1","1","1"
"260007","img/object_images/cellphone01.jpg","img/object_images/floppy_disk03.jpg","img/object_images/crutches02.jpg","1","1","1","1","1","0","0.479242699977476","0.516614399966784","0.614338200015482","1","1","1","1","1","1","1","1","1"
"260007","img/object_images/crutches02.jpg","img/object_images/cellphone01.jpg","img/object_images/book03.jpg","1","1","1","0","1","1","0.614338200015482","0.479242699977476","0.474437299999408","1","1","1","1","1","1","1","1","1"
"260007","img/object_images/book03.jpg","img/object_images/crutches02.jpg","img/object_images/ear_bud01.jpg","1","1","1","1","0","1","0.474437299999408","0.614338200015482","0.534020899969619","1","1","1","1","1","1","1","1","1"
"260007","img/object_images/ear_bud01.jpg","img/object_images/book03.jpg","img/object_images/knife04.jpg","1","1","1","1","1","1","0.534020899969619","0.474437299999408","0.541894899972249","1","1","1","1","1","1","1","1","1"
"260007","img/object_images/knife04.jpg","img/object_images/ear_bud01.jpg","img/object_images/lid01.jpg","1","1","1","1","1","1","0.541894899972249","0.534020899969619","0.570951300032903","1","1","1","1","1","1","1","1","1"
"260007","img/object_images/lid01.jpg","img/object_images/knife04.jpg","img/object_images/Staples01.jpg","1","1","1","1","1","1","0.570951300032903","0.541894899972249","0.585563500004355","1","1","1","1","1","1","1","1","1"
"260007","img/object_images/Staples01.jpg","img/object_images/lid01.jpg","img/object_images/bell02.jpg","1","1","1","1","1","0","0.585563500004355","0.570951300032903","0.605221199977677","1","1","1","1","1","1","1","1","1"
"260007","img/object_images/bell02.jpg","img/object_images/Staples01.jpg","img/object_images/compass01.jpg","1","1","1","0","1","1","0.605221199977677","0.585563500004355","0.714059099962469","1","1","1","1","1","1","1","1","1"
"260007","img/object_images/compass01.jpg","img/object_images/bell02.jpg","img/object_images/pillows01.jpg","1","1","1","1","0","1","0.714059099962469","0.605221199977677","0.558393599989358","1","1","1","1","1","1","1","1","1"
"260007","img/object_images/pillows01.jpg","img/object_images/compass01.jpg","img/object_images/Oven01.jpg","1","1","1","1","1","1","0.558393599989358","0.714059099962469","0.553028599999379","1","1","1","1","1","1","1","1","1"
"260007","img/object_images/Oven01.jpg","img/object_images/pillows01.jpg","img/object_images/usb02.jpg","1","1","1","1","1","0","0.553028599999379","0.558393599989358","0.655930699955206","1","1","1","1","1","1","1","1","1"
"260007","img/object_images/usb02.jpg","img/object_images/Oven01.jpg","img/object_images/bottle01.jpg","1","1","1","0","1","0","0.655930699955206","0.553028599999379","0.548290300008375","1","1","1","1","1","1","1","1","1"
"260007","img/object_images/bottle01.jpg","img/object_images/usb02.jpg","img/object_images/tv02.jpg","1","1","1","0","0","0","0.548290300008375","0.655930699955206","0.555402899975888","1","1","1","1","1","1","1","1","1"
"260007","img/object_images/tv02.jpg","img/object_images/bottle01.jpg","img/object_images/note_book01.jpg","1","1","1","0","0","0","0.555402899975888","0.548290300008375","0.554649600002449","1","1","1","1","1","1","1","1","1"
"260007","img/object_images/note_book01.jpg","img/object_images/tv02.jpg","img/object_images/chair05.jpg","1","1","1","0","0","0","0.554649600002449","0.555402899975888","0.766982000030112","1","1","1","1","1","1","1","1","1"
"260007","img/object_images/chair05.jpg","img/object_images/note_book01.jpg","img/object_images/floppy_disk02.jpg","1","1","1","0","0","0","0.766982000030112","0.554649600002449","0.585926099971402","1","1","1","1","1","1","1","1","1"
"260007","img/object_images/floppy_disk02.jpg","img/object_images/chair05.jpg",NA,"1","1",NA,"0","0",NA,"0.585926099971402","0.766982000030112",NA,"1","1",NA,"1","1",NA,"1","1",NA
"260007","img/object_images/jewel03.jpg",NA,"img/object_images/hair_brush02.jpg","1",NA,"1","1",NA,"0","0.386162100010552",NA,"0.637961200030986","1",NA,"1","1",NA,"1","1",NA,"1"
"260007","img/object_images/hair_brush02.jpg","img/object_images/jewel03.jpg","img/object_images/vase01.jpg","1","1","1","0","1","0","0.637961200030986","0.386162100010552","0.487344200024381","1","1","1","1","1","1","1","1","1"
"260007","img/object_images/vase01.jpg","img/object_images/hair_brush02.jpg","img/object_images/pitcher05.jpg","1","1","1","0","0","0","0.487344200024381","0.637961200030986","0.532070500019472","1","1","1","1","1","1","1","1","1"
"260007","img/object_images/pitcher05.jpg","img/object_images/vase01.jpg","img/object_images/chess_piece01.jpg","1","1","1","0","0","0","0.532070500019472","0.487344200024381","0.470978599973023","1","1","1","1","1","1","1","1","1"
"260007","img/object_images/chess_piece01.jpg","img/object_images/pitcher05.jpg","img/object_images/laptop03.jpg","1","1","1","0","0","1","0.470978599973023","0.532070500019472","0.410878300026525","1","1","1","1","1","1","1","1","1"
"260007","img/object_images/laptop03.jpg","img/object_images/chess_piece01.jpg","img/object_images/trash_can05.jpg","1","1","1","1","0","1","0.410878300026525","0.470978599973023","0.426977100025397","1","1","1","1","1","1","1","1","1"
"260007","img/object_images/trash_can05.jpg","img/object_images/laptop03.jpg","img/object_images/shoes08.jpg","1","1","1","1","1","1","0.426977100025397","0.410878300026525","0.410570300009567","1","1","1","1","1","1","1","1","1"
"260007","img/object_images/shoes08.jpg","img/object_images/trash_can05.jpg","img/object_images/umbrella01.jpg","1","1","1","1","1","0","0.410570300009567","0.426977100025397","0.53749690001132","1","1","1","1","1","1","1","1","1"
"260007","img/object_images/umbrella01.jpg","img/object_images/shoes08.jpg","img/object_images/microphone03.jpg","1","1","1","0","1","1","0.53749690001132","0.410570300009567","0.336649300006684","1","1","1","1","1","1","1","1","1"
"260007","img/object_images/microphone03.jpg","img/object_images/umbrella01.jpg","img/object_images/stove01.jpg","1","1","1","1","0","0","0.336649300006684","0.53749690001132","0.489084400003776","1","1","1","1","1","1","1","1","1"
"260007","img/object_images/stove01.jpg","img/object_images/microphone03.jpg","img/object_images/chair02.jpg","1","1","1","0","1","1","0.489084400003776","0.336649300006684","0.415219300019089","1","1","1","1","1","1","1","1","1"
"260007","img/object_images/chair02.jpg","img/object_images/stove01.jpg","img/object_images/fan04.jpg","1","1","1","1","0","0","0.415219300019089","0.489084400003776","0.457354200014379","1","1","1","1","1","1","1","1","1"
"260007","img/object_images/fan04.jpg","img/object_images/chair02.jpg","img/object_images/lock01.jpg","1","1","1","0","1","0","0.457354200014379","0.415219300019089","0.451444900012575","1","1","1","1","1","1","1","1","1"
"260007","img/object_images/lock01.jpg","img/object_images/fan04.jpg","img/object_images/Lint_Roller02.jpg","1","1","1","0","0","0","0.451444900012575","0.457354200014379","0.428627500019502","1","1","1","1","1","1","1","1","1"
"260007","img/object_images/Lint_Roller02.jpg","img/object_images/lock01.jpg","img/object_images/trash_can03.jpg","1","1","1","0","0","1","0.428627500019502","0.451444900012575","0.368650799966417","1","1","1","1","1","1","1","1","1"
"260007","img/object_images/trash_can03.jpg","img/object_images/Lint_Roller02.jpg","img/object_images/calculator01.jpg","1","1","1","1","0","1","0.368650799966417","0.428627500019502","0.411270899989176","1","1","1","1","1","1","1","1","1"
"260007","img/object_images/calculator01.jpg","img/object_images/trash_can03.jpg","img/object_images/helmet02.jpg","1","1","0","1","1","0","0.411270899989176","0.368650799966417","0.389469399990048","1","1","1","1","1","1","1","1","1"
"260007","img/object_images/helmet02.jpg","img/object_images/calculator01.jpg","img/object_images/Vest02.jpg","0","1","1","0","1","0","0.389469399990048","0.411270899989176","0.616790800006129","1","1","1","1","1","1","1","1","1"
"260007","img/object_images/Vest02.jpg","img/object_images/helmet02.jpg","img/object_images/towels01.jpg","1","0","1","0","0","0","0.616790800006129","0.389469399990048","0.452871299989056","1","1","1","1","1","1","1","1","1"
"260007","img/object_images/towels01.jpg","img/object_images/Vest02.jpg","img/object_images/laptop01.jpg","1","1","1","0","0","0","0.452871299989056","0.616790800006129","0.478764700004831","1","1","1","1","1","1","1","1","1"
"260007","img/object_images/laptop01.jpg","img/object_images/towels01.jpg","img/object_images/accardion01.jpg","1","1","1","0","0","1","0.478764700004831","0.452871299989056","0.390911299968138","1","1","1","1","1","1","1","1","1"
"260007","img/object_images/accardion01.jpg","img/object_images/laptop01.jpg","img/object_images/toy05.jpg","1","1","1","1","0","0","0.390911299968138","0.478764700004831","0.473447099968325","1","1","1","1","1","1","1","1","1"
"260007","img/object_images/toy05.jpg","img/object_images/accardion01.jpg","img/object_images/gift_box05.jpg","1","1","1","0","1","0","0.473447099968325","0.390911299968138","0.525525400007609","1","1","1","1","1","1","1","1","1"
"260007","img/object_images/gift_box05.jpg","img/object_images/toy05.jpg","img/object_images/spatula02.jpg","1","1","1","0","0","1","0.525525400007609","0.473447099968325","0.35660800000187","1","1","1","1","1","1","1","1","1"
"260007","img/object_images/spatula02.jpg","img/object_images/gift_box05.jpg","img/object_images/bucket02.jpg","1","1","1","1","0","1","0.35660800000187","0.525525400007609","0.495313899999019","1","1","1","1","1","1","1","1","1"
"260007","img/object_images/bucket02.jpg","img/object_images/spatula02.jpg","img/object_images/ball02.jpg","1","1","1","1","1","1","0.495313899999019","0.35660800000187","0.407336400006898","1","1","1","1","1","1","1","1","1"
"260007","img/object_images/ball02.jpg","img/object_images/bucket02.jpg","img/object_images/backpack03.jpg","1","1","1","1","1","1","0.407336400006898","0.495313899999019","0.387808499974199","1","1","1","1","1","1","1","1","1"
"260007","img/object_images/backpack03.jpg","img/object_images/ball02.jpg","img/object_images/combs01.jpg","1","1","1","1","1","1","0.387808499974199","0.407336400006898","0.430103699967731","1","1","1","1","1","1","1","1","1"
"260007","img/object_images/combs01.jpg","img/object_images/backpack03.jpg","img/object_images/surf_board01.jpg","1","1","1","1","1","1","0.430103699967731","0.387808499974199","0.407653999980539","1","1","1","1","1","1","1","1","1"
"260007","img/object_images/surf_board01.jpg","img/object_images/combs01.jpg","img/object_images/robe01.jpg","1","1","1","1","1","1","0.407653999980539","0.430103699967731","0.423683200031519","1","1","1","1","1","1","1","1","1"
"260007","img/object_images/robe01.jpg","img/object_images/surf_board01.jpg","img/object_images/hair_dryer01.jpg","1","1","1","1","1","0","0.423683200031519","0.407653999980539","0.409054399991874","1","1","1","1","1","1","1","1","1"
"260007","img/object_images/hair_dryer01.jpg","img/object_images/robe01.jpg",NA,"1","1",NA,"0","1",NA,"0.409054399991874","0.423683200031519",NA,"1","1",NA,"1","1",NA,"1","1",NA
"260007","img/object_images/knit04.jpg",NA,"img/object_images/knit03.jpg","1",NA,"1","1",NA,"1","0.31806299998425",NA,"0.342651999962982","1",NA,"1","1",NA,"1","1",NA,"1"
"260007","img/object_images/knit03.jpg","img/object_images/knit04.jpg","img/object_images/phone02.jpg","1","1","1","1","1","1","0.342651999962982","0.31806299998425","0.271356099983677","1","1","1","1","1","1","1","1","1"
"260007","img/object_images/phone02.jpg","img/object_images/knit03.jpg","img/object_images/knife02.jpg","1","1","1","1","1","0","0.271356099983677","0.342651999962982","0.385103699984029","1","1","1","1","1","1","1","1","1"
"260007","img/object_images/knife02.jpg","img/object_images/phone02.jpg","img/object_images/tool18.jpg","1","1","0","0","1","0","0.385103699984029","0.271356099983677","0.373385299986694","1","1","1","1","1","1","1","1","2"
"260007","img/object_images/tool18.jpg","img/object_images/knife02.jpg","img/object_images/jacket04.jpg","0","1","0","0","0","0","0.373385299986694","0.385103699984029","0.476319000008516","1","1","1","1","1","1","2","1","2"
"260007","img/object_images/jacket04.jpg","img/object_images/tool18.jpg","img/object_images/curtain02.jpg","0","0","1","0","0","0","0.476319000008516","0.373385299986694","0.510601199988741","1","1","1","1","1","1","2","2","1"
"260007","img/object_images/curtain02.jpg","img/object_images/jacket04.jpg","img/object_images/mail_box01.jpg","1","0","1","0","0","0","0.510601199988741","0.476319000008516","0.400279399997089","1","1","1","1","1","1","1","2","1"
"260007","img/object_images/mail_box01.jpg","img/object_images/curtain02.jpg","img/object_images/stereo02.jpg","1","1","0","0","0","0","0.400279399997089","0.510601199988741","0.349526899983175","1","1","1","1","1","1","1","1","1"
"260007","img/object_images/stereo02.jpg","img/object_images/mail_box01.jpg","img/object_images/Statue01.jpg","0","1","1","0","0","1","0.349526899983175","0.400279399997089","0.462725499994121","1","1","1","1","1","1","1","1","1"
"260007","img/object_images/Statue01.jpg","img/object_images/stereo02.jpg","img/object_images/shower_head01.jpg","1","0","1","1","0","1","0.462725499994121","0.349526899983175","0.367093299981207","1","1","1","1","1","1","1","1","1"
"260007","img/object_images/shower_head01.jpg","img/object_images/Statue01.jpg","img/object_images/car01.jpg","1","1","1","1","1","1","0.367093299981207","0.462725499994121","0.368111699994188","1","1","1","1","1","1","1","1","1"
"260007","img/object_images/car01.jpg","img/object_images/shower_head01.jpg","img/object_images/hoverboard01.jpg","1","1","1","1","1","0","0.368111699994188","0.367093299981207","0.507490000047255","1","1","1","1","1","1","1","1","1"
"260007","img/object_images/hoverboard01.jpg","img/object_images/car01.jpg","img/object_images/hand_grip_exerciser01.jpg","1","1","1","0","1","0","0.507490000047255","0.368111699994188","0.386603999999352","1","1","1","1","1","1","1","1","1"
"260007","img/object_images/hand_grip_exerciser01.jpg","img/object_images/hoverboard01.jpg","img/object_images/basket04.jpg","1","1","1","0","0","1","0.386603999999352","0.507490000047255","0.403771100041922","1","1","1","1","1","1","1","1","1"
"260007","img/object_images/basket04.jpg","img/object_images/hand_grip_exerciser01.jpg","img/object_images/camera03.jpg","1","1","0","1","0","0","0.403771100041922","0.386603999999352","0.371301700011827","1","1","1","1","1","1","1","1","1"
"260007","img/object_images/camera03.jpg","img/object_images/basket04.jpg","img/object_images/gloves02.jpg","0","1","1","0","1","0","0.371301700011827","0.403771100041922","0.525022300018463","1","1","1","1","1","1","1","1","1"
"260007","img/object_images/gloves02.jpg","img/object_images/camera03.jpg","img/object_images/blender02.jpg","1","0","1","0","0","1","0.525022300018463","0.371301700011827","0.387111599964555","1","1","1","1","1","1","1","1","1"
"260007","img/object_images/blender02.jpg","img/object_images/gloves02.jpg","img/object_images/bottle07.jpg","1","1","1","1","0","1","0.387111599964555","0.525022300018463","0.369012399984058","1","1","1","1","1","1","1","1","1"
"260007","img/object_images/bottle07.jpg","img/object_images/blender02.jpg","img/object_images/remover01.jpg","1","1","1","1","1","1","0.369012399984058","0.387111599964555","0.348819100006949","1","1","1","1","1","1","1","1","1"
"260007","img/object_images/remover01.jpg","img/object_images/bottle07.jpg","img/object_images/sponge03.jpg","1","1","1","1","1","1","0.348819100006949","0.369012399984058","0.418181799992453","1","1","1","1","1","1","1","1","1"
"260007","img/object_images/sponge03.jpg","img/object_images/remover01.jpg","img/object_images/keyboard02.jpg","1","1","1","1","1","1","0.418181799992453","0.348819100006949","0.389146600035019","1","1","1","1","1","1","1","1","1"
"260007","img/object_images/keyboard02.jpg","img/object_images/sponge03.jpg","img/object_images/backpack01.jpg","1","1","1","1","1","0","0.389146600035019","0.418181799992453","0.47645040001953","1","1","1","1","1","1","1","1","1"
"260007","img/object_images/backpack01.jpg","img/object_images/keyboard02.jpg","img/object_images/boat04.jpg","1","1","1","0","1","0","0.47645040001953","0.389146600035019","0.455581700021867","1","1","1","1","1","1","1","1","1"
"260007","img/object_images/boat04.jpg","img/object_images/backpack01.jpg","img/object_images/toy08.jpg","1","1","0","0","0","0","0.455581700021867","0.47645040001953","0.398586000024807","1","1","1","1","1","1","1","1","1"
"260007","img/object_images/toy08.jpg","img/object_images/boat04.jpg","img/object_images/dresser03.jpg","0","1","1","0","0","0","0.398586000024807","0.455581700021867","0.563138099969365","1","1","1","1","1","1","1","1","1"
"260007","img/object_images/dresser03.jpg","img/object_images/toy08.jpg","img/object_images/video_game01.jpg","1","0","1","0","0","1","0.563138099969365","0.398586000024807","0.449572100013029","1","1","1","1","1","1","1","1","1"
"260007","img/object_images/video_game01.jpg","img/object_images/dresser03.jpg","img/object_images/matches02.jpg","1","1","1","1","0","0","0.449572100013029","0.563138099969365","0.623588400019798","1","1","1","1","1","1","1","1","1"
"260007","img/object_images/matches02.jpg","img/object_images/video_game01.jpg","img/object_images/flashlight03.jpg","1","1","1","0","1","0","0.623588400019798","0.449572100013029","0.491862899973057","1","1","1","1","1","1","1","1","1"
"260007","img/object_images/flashlight03.jpg","img/object_images/matches02.jpg","img/object_images/paper_cup02.jpg","1","1","1","0","0","1","0.491862899973057","0.623588400019798","0.369277299963869","1","1","1","1","1","1","1","1","1"
"260007","img/object_images/paper_cup02.jpg","img/object_images/flashlight03.jpg","img/object_images/remote_controller01.jpg","1","1","1","1","0","1","0.369277299963869","0.491862899973057","0.397799999976996","1","1","1","1","1","1","1","1","1"
"260007","img/object_images/remote_controller01.jpg","img/object_images/paper_cup02.jpg","img/object_images/kite01.jpg","1","1","1","1","1","1","0.397799999976996","0.369277299963869","0.344676599954255","1","1","1","1","1","1","1","1","1"
"260007","img/object_images/kite01.jpg","img/object_images/remote_controller01.jpg",NA,"1","1",NA,"1","1",NA,"0.344676599954255","0.397799999976996",NA,"1","1",NA,"1","1",NA,"1","1",NA
"260007","img/object_images/video_game07.jpg",NA,"img/object_images/toy04.jpg","1",NA,"1","1",NA,"0","0.438229300023522",NA,"0.480512099980842","1",NA,"1","1",NA,"1","1",NA,"1"
"260007","img/object_images/toy04.jpg","img/object_images/video_game07.jpg","img/object_images/gauze01.jpg","1","1","1","0","1","0","0.480512099980842","0.438229300023522","0.501261600002181","1","1","1","1","1","1","1","1","1"
"260007","img/object_images/gauze01.jpg","img/object_images/toy04.jpg","img/object_images/ornament01.jpg","1","1","1","0","0","1","0.501261600002181","0.480512099980842","0.409735300054308","1","1","1","1","1","1","1","1","1"
"260007","img/object_images/ornament01.jpg","img/object_images/gauze01.jpg","img/object_images/guitar02.jpg","1","1","1","1","0","0","0.409735300054308","0.501261600002181","0.453598799998872","1","1","1","1","1","1","1","1","1"
"260007","img/object_images/guitar02.jpg","img/object_images/ornament01.jpg","img/object_images/Tin01.jpg","1","1","1","0","1","1","0.453598799998872","0.409735300054308","0.398748999985401","1","1","1","1","1","1","1","1","1"
"260007","img/object_images/Tin01.jpg","img/object_images/guitar02.jpg","img/object_images/dart01.jpg","1","1","1","1","0","0","0.398748999985401","0.453598799998872","0.457581599999685","1","1","1","1","1","1","1","1","1"
"260007","img/object_images/dart01.jpg","img/object_images/Tin01.jpg","img/object_images/pot01 (1).jpg","1","1","0","0","1","0","0.457581599999685","0.398748999985401","0.388794800033793","1","1","1","1","1","1","1","1","1"
"260007","img/object_images/pot01 (1).jpg","img/object_images/dart01.jpg","img/object_images/Ring02.jpg","0","1","1","0","0","0","0.388794800033793","0.457581599999685","0.422281300008763","1","1","1","1","1","1","1","1","1"
"260007","img/object_images/Ring02.jpg","img/object_images/pot01 (1).jpg","img/object_images/judge_gavel01.jpg","1","0","1","0","0","1","0.422281300008763","0.388794800033793","0.399662200012244","1","1","1","1","1","1","1","1","1"
"260007","img/object_images/judge_gavel01.jpg","img/object_images/Ring02.jpg","img/object_images/Stool01.jpg","1","1","1","1","0","0","0.399662200012244","0.422281300008763","0.4679953000159","1","1","1","1","1","1","1","1","1"
"260007","img/object_images/Stool01.jpg","img/object_images/judge_gavel01.jpg","img/object_images/fridge03.jpg","1","1","1","0","1","0","0.4679953000159","0.399662200012244","0.495099499996286","1","1","1","1","1","1","1","1","1"
"260007","img/object_images/fridge03.jpg","img/object_images/Stool01.jpg","img/object_images/jewel04.jpg","1","1","1","0","0","0","0.495099499996286","0.4679953000159","0.466564500005916","1","1","1","1","1","1","1","1","1"
"260007","img/object_images/jewel04.jpg","img/object_images/fridge03.jpg","img/object_images/mirror01.jpg","1","1","1","0","0","1","0.466564500005916","0.495099499996286","0.414738600025885","1","1","1","1","1","1","1","1","1"
"260007","img/object_images/mirror01.jpg","img/object_images/jewel04.jpg","img/object_images/shovel03.jpg","1","1","1","1","0","1","0.414738600025885","0.466564500005916","0.443704300036188","1","1","1","1","1","1","1","1","1"
"260007","img/object_images/shovel03.jpg","img/object_images/mirror01.jpg","img/object_images/towel02.jpg","1","1","1","1","1","1","0.443704300036188","0.414738600025885","0.413320499996189","1","1","1","1","1","1","1","1","1"
"260007","img/object_images/towel02.jpg","img/object_images/shovel03.jpg","img/object_images/MetalWire01.jpg","1","1","1","1","1","0","0.413320499996189","0.443704300036188","0.472439000033773","1","1","1","1","1","1","1","1","1"
"260007","img/object_images/MetalWire01.jpg","img/object_images/towel02.jpg","img/object_images/acoustic_capo01.jpg","1","1","1","0","1","1","0.472439000033773","0.413320499996189","0.40634740004316","1","1","1","1","1","1","1","1","1"
"260007","img/object_images/acoustic_capo01.jpg","img/object_images/MetalWire01.jpg","img/object_images/watch01.jpg","1","1","1","1","0","0","0.40634740004316","0.472439000033773","0.478052799997386","1","1","1","1","1","1","1","1","1"
"260007","img/object_images/watch01.jpg","img/object_images/acoustic_capo01.jpg","img/object_images/bow01.jpg","1","1","1","0","1","1","0.478052799997386","0.40634740004316","0.434087700035889","1","1","1","1","1","1","1","1","1"
"260007","img/object_images/bow01.jpg","img/object_images/watch01.jpg","img/object_images/toy03.jpg","1","1","1","1","0","1","0.434087700035889","0.478052799997386","0.412881400028709","1","1","1","1","1","1","1","1","1"
"260007","img/object_images/toy03.jpg","img/object_images/bow01.jpg","img/object_images/outlet01.jpg","1","1","1","1","1","0","0.412881400028709","0.434087700035889","0.469792500021867","1","1","1","1","1","1","1","1","1"
"260007","img/object_images/outlet01.jpg","img/object_images/toy03.jpg","img/object_images/tool09.jpg","1","1","1","0","1","1","0.469792500021867","0.412881400028709","0.396153400011826","1","1","1","1","1","1","1","1","1"
"260007","img/object_images/tool09.jpg","img/object_images/outlet01.jpg","img/object_images/Vacuum01.jpg","1","1","1","1","0","0","0.396153400011826","0.469792500021867","0.45781310001621","1","1","1","1","1","1","1","1","1"
"260007","img/object_images/Vacuum01.jpg","img/object_images/tool09.jpg","img/object_images/stapler.jpg","1","1","1","0","1","1","0.45781310001621","0.396153400011826","0.400190800020937","1","1","1","1","1","1","1","1","1"
"260007","img/object_images/stapler.jpg","img/object_images/Vacuum01.jpg","img/object_images/bird_house02.jpg","1","1","1","1","0","1","0.400190800020937","0.45781310001621","0.352131999970879","1","1","1","1","1","1","1","1","1"
"260007","img/object_images/bird_house02.jpg","img/object_images/stapler.jpg","img/object_images/helmet01.jpg","1","1","1","1","1","0","0.352131999970879","0.400190800020937","0.421942699991632","1","1","1","1","1","1","1","1","1"
"260007","img/object_images/helmet01.jpg","img/object_images/bird_house02.jpg","img/object_images/bottle05.jpg","1","1","0","0","1","0","0.421942699991632","0.352131999970879","0.381897099956404","1","1","1","1","1","1","1","1","1"
"260007","img/object_images/bottle05.jpg","img/object_images/helmet01.jpg","img/object_images/frisbee01.jpg","0","1","1","0","0","1","0.381897099956404","0.421942699991632","0.393794799980242","1","1","1","1","1","1","1","1","1"
"260007","img/object_images/frisbee01.jpg","img/object_images/bottle05.jpg","img/object_images/sink01.jpg","1","0","1","1","0","0","0.393794799980242","0.381897099956404","0.525179099990055","1","1","1","1","1","1","1","1","1"
"260007","img/object_images/sink01.jpg","img/object_images/frisbee01.jpg","img/object_images/tool02.jpg","1","1","1","0","1","1","0.525179099990055","0.393794799980242","0.445223400020041","1","1","1","1","1","1","1","1","1"
"260007","img/object_images/tool02.jpg","img/object_images/sink01.jpg","img/object_images/crown02.jpg","1","1","1","1","0","1","0.445223400020041","0.525179099990055","0.466411600005813","1","1","1","1","1","1","1","1","1"
"260007","img/object_images/crown02.jpg","img/object_images/tool02.jpg",NA,"1","1",NA,"1","1",NA,"0.466411600005813","0.445223400020041",NA,"1","1",NA,"1","1",NA,"1","1",NA
"260007","img/object_images/TreeSlice01.jpg",NA,"img/object_images/trumpet01.jpg","1",NA,"1","1",NA,"0","0.380110400030389",NA,"0.451225400029216","1",NA,"1","1",NA,"1","1",NA,"1"
"260007","img/object_images/trumpet01.jpg","img/object_images/TreeSlice01.jpg","img/object_images/origami01.jpg","1","1","1","0","1","1","0.451225400029216","0.380110400030389","0.404615200008266","1","1","1","1","1","1","1","1","1"
"260007","img/object_images/origami01.jpg","img/object_images/trumpet01.jpg","img/object_images/helmet03.jpg","1","1","1","1","0","1","0.404615200008266","0.451225400029216","0.403073400026187","1","1","1","1","1","1","1","1","1"
"260007","img/object_images/helmet03.jpg","img/object_images/origami01.jpg","img/object_images/scale02.jpg","1","1","1","1","1","0","0.403073400026187","0.404615200008266","0.515332299983129","1","1","1","1","1","1","1","1","1"
"260007","img/object_images/scale02.jpg","img/object_images/helmet03.jpg","img/object_images/water_gun01.jpg","1","1","1","0","1","1","0.515332299983129","0.403073400026187","0.401290799956769","1","1","1","1","1","1","1","1","1"
"260007","img/object_images/water_gun01.jpg","img/object_images/scale02.jpg","img/object_images/phone04.jpg","1","1","1","1","0","1","0.401290799956769","0.515332299983129","0.419421900005546","1","1","1","1","1","1","1","1","1"
"260007","img/object_images/phone04.jpg","img/object_images/water_gun01.jpg","img/object_images/jewel02.jpg","1","1","1","1","1","0","0.419421900005546","0.401290799956769","0.455873899976723","1","1","1","1","1","1","1","1","1"
"260007","img/object_images/jewel02.jpg","img/object_images/phone04.jpg","img/object_images/Safe01.jpg","1","1","1","0","1","1","0.455873899976723","0.419421900005546","0.423710100003518","1","1","1","1","1","1","1","1","1"
"260007","img/object_images/Safe01.jpg","img/object_images/jewel02.jpg","img/object_images/belt03.jpg","1","1","1","1","0","0","0.423710100003518","0.455873899976723","0.460648399952333","1","1","1","1","1","1","1","1","1"
"260007","img/object_images/belt03.jpg","img/object_images/Safe01.jpg","img/object_images/piano03.jpg","1","1","1","0","1","0","0.460648399952333","0.423710100003518","0.511311399983242","1","1","1","1","1","1","1","1","1"
"260007","img/object_images/piano03.jpg","img/object_images/belt03.jpg","img/object_images/frame01.jpg","1","1","1","0","0","1","0.511311399983242","0.460648399952333","0.436964499996975","1","1","1","1","1","1","1","1","1"
"260007","img/object_images/frame01.jpg","img/object_images/piano03.jpg","img/object_images/dice01.jpg","1","1","0","1","0","0","0.436964499996975","0.511311399983242","0.356270399992354","1","1","1","1","1","1","1","1","1"
"260007","img/object_images/dice01.jpg","img/object_images/frame01.jpg","img/object_images/pitcher07.jpg","0","1","1","0","1","1","0.356270399992354","0.436964499996975","0.422326100000646","1","1","1","1","1","1","1","1","1"
"260007","img/object_images/pitcher07.jpg","img/object_images/dice01.jpg","img/object_images/shovel01.jpg","1","0","1","1","0","0","0.422326100000646","0.356270399992354","0.42598729999736","1","1","1","1","1","1","1","1","1"
"260007","img/object_images/shovel01.jpg","img/object_images/pitcher07.jpg","img/object_images/note_book02.jpg","1","1","1","0","1","0","0.42598729999736","0.422326100000646","0.40709799999604","1","1","1","1","1","1","1","1","1"
"260007","img/object_images/note_book02.jpg","img/object_images/shovel01.jpg","img/object_images/fan01.jpg","1","1","1","0","0","0","0.40709799999604","0.42598729999736","0.389014800020959","1","1","1","1","1","1","1","1","1"
"260007","img/object_images/fan01.jpg","img/object_images/note_book02.jpg","img/object_images/lock03.jpg","1","1","1","0","0","1","0.389014800020959","0.40709799999604","0.391746999986935","1","1","1","1","1","1","1","1","1"
"260007","img/object_images/lock03.jpg","img/object_images/fan01.jpg","img/object_images/egg_basket01.jpg","1","1","1","1","0","1","0.391746999986935","0.389014800020959","0.415431600005832","1","1","1","1","1","1","1","1","1"
"260007","img/object_images/egg_basket01.jpg","img/object_images/lock03.jpg","img/object_images/joystick03.jpg","1","1","1","1","1","1","0.415431600005832","0.391746999986935","0.434038300008979","1","1","1","1","1","1","1","1","1"
"260007","img/object_images/joystick03.jpg","img/object_images/egg_basket01.jpg","img/object_images/headset02.jpg","1","1","1","1","1","0","0.434038300008979","0.415431600005832","0.516355100029614","1","1","1","1","1","1","1","1","1"
"260007","img/object_images/headset02.jpg","img/object_images/joystick03.jpg","img/object_images/nut_cracker01.jpg","1","1","1","0","1","1","0.516355100029614","0.434038300008979","0.412728500028607","1","1","1","1","1","1","1","1","1"
"260007","img/object_images/nut_cracker01.jpg","img/object_images/headset02.jpg","img/object_images/ToolBag01.jpg","1","1","1","1","0","0","0.412728500028607","0.516355100029614","0.477347499981988","1","1","1","1","1","1","1","1","1"
"260007","img/object_images/ToolBag01.jpg","img/object_images/nut_cracker01.jpg","img/object_images/bottle06.jpg","1","1","1","0","1","0","0.477347499981988","0.412728500028607","0.511901999998372","1","1","1","1","1","1","1","1","1"
"260007","img/object_images/bottle06.jpg","img/object_images/ToolBag01.jpg","img/object_images/Shoes05.jpg","1","1","1","0","0","0","0.511901999998372","0.477347499981988","0.429536100011319","1","1","1","1","1","1","1","1","1"
"260007","img/object_images/Shoes05.jpg","img/object_images/bottle06.jpg","img/object_images/yoga_mat01.jpg","1","1","0","0","0","0","0.429536100011319","0.511901999998372","0.422638399992138","1","1","1","1","1","1","1","1","2"
"260007","img/object_images/yoga_mat01.jpg","img/object_images/Shoes05.jpg","img/object_images/tennis_racket01.jpg","0","1","1","0","0","1","0.422638399992138","0.429536100011319","0.485544600000139","1","1","1","1","1","1","2","1","1"
"260007","img/object_images/tennis_racket01.jpg","img/object_images/yoga_mat01.jpg","img/object_images/bucket01.jpg","1","0","1","1","0","1","0.485544600000139","0.422638399992138","0.455629599979147","1","1","1","1","1","1","1","2","1"
"260007","img/object_images/bucket01.jpg","img/object_images/tennis_racket01.jpg","img/object_images/Eyeliner01.jpg","1","1","1","1","1","1","0.455629599979147","0.485544600000139","0.445823899994139","1","1","1","1","1","1","1","1","1"
"260007","img/object_images/Eyeliner01.jpg","img/object_images/bucket01.jpg","img/object_images/badminton01.jpg","1","1","1","1","1","1","0.445823899994139","0.455629599979147","0.371215899998788","1","1","1","1","1","1","1","1","1"
"260007","img/object_images/badminton01.jpg","img/object_images/Eyeliner01.jpg","img/object_images/bookmark01.jpg","1","1","1","1","1","0","0.371215899998788","0.445823899994139","0.435162400011904","1","1","1","1","1","1","1","1","1"
"260007","img/object_images/bookmark01.jpg","img/object_images/badminton01.jpg","img/object_images/usb03.jpg","1","1","1","0","1","0","0.435162400011904","0.371215899998788","0.55853430001298","1","1","1","1","1","1","1","1","1"
"260007","img/object_images/usb03.jpg","img/object_images/bookmark01.jpg",NA,"1","1",NA,"0","0",NA,"0.55853430001298","0.435162400011904",NA,"1","1",NA,"1","1",NA,"1","1",NA
"260007","img/object_images/airfryer02.jpg",NA,"img/object_images/mail_box02.jpg","1",NA,"1","1",NA,"1","0.36269669997273",NA,"0.377870000025723","1",NA,"1","1",NA,"1","1",NA,"1"
"260007","img/object_images/mail_box02.jpg","img/object_images/airfryer02.jpg","img/object_images/tripod01.jpg","1","1","1","1","1","1","0.377870000025723","0.36269669997273","0.347522199968807","1","1","1","1","1","1","1","1","1"
"260007","img/object_images/tripod01.jpg","img/object_images/mail_box02.jpg","img/object_images/shoes12.jpg","1","1","1","1","1","1","0.347522199968807","0.377870000025723","0.334179900004528","1","1","1","1","1","1","1","1","1"
"260007","img/object_images/shoes12.jpg","img/object_images/tripod01.jpg","img/object_images/scarf01.jpg","1","1","1","1","1","1","0.334179900004528","0.347522199968807","0.393107300042175","1","1","1","1","1","1","1","1","1"
"260007","img/object_images/scarf01.jpg","img/object_images/shoes12.jpg","img/object_images/computer_mouse02.jpg","1","1","0","1","1","0","0.393107300042175","0.334179900004528","0.347312500001863","1","1","1","1","1","1","1","1","1"
"260007","img/object_images/computer_mouse02.jpg","img/object_images/scarf01.jpg","img/object_images/soap03.jpg","0","1","1","0","1","0","0.347312500001863","0.393107300042175","0.488552000024356","1","1","1","1","1","1","1","1","1"
"260007","img/object_images/soap03.jpg","img/object_images/computer_mouse02.jpg","img/object_images/bell03.jpg","1","0","1","0","0","0","0.488552000024356","0.347312500001863","0.478693999990355","1","1","1","1","1","1","1","1","1"
"260007","img/object_images/bell03.jpg","img/object_images/soap03.jpg","img/object_images/Trowel01.jpg","1","1","1","0","0","0","0.478693999990355","0.488552000024356","0.405335900024511","1","1","1","1","1","1","1","1","1"
"260007","img/object_images/Trowel01.jpg","img/object_images/bell03.jpg","img/object_images/floss02.jpg","1","1","1","0","0","1","0.405335900024511","0.478693999990355","0.440569899976254","1","1","1","1","1","1","1","1","1"
"260007","img/object_images/floss02.jpg","img/object_images/Trowel01.jpg","img/object_images/blender01.jpg","1","1","1","1","0","0","0.440569899976254","0.405335900024511","0.492819499981124","1","1","1","1","1","1","1","1","1"
"260007","img/object_images/blender01.jpg","img/object_images/floss02.jpg","img/object_images/toy01.jpg","1","1","1","0","1","1","0.492819499981124","0.440569899976254","0.356063299987","1","1","1","1","1","1","1","1","1"
"260007","img/object_images/toy01.jpg","img/object_images/blender01.jpg","img/object_images/clip04.jpg","1","1","1","1","0","1","0.356063299987","0.492819499981124","0.36125479999464","1","1","1","1","1","1","1","1","1"
"260007","img/object_images/clip04.jpg","img/object_images/toy01.jpg","img/object_images/couch01.jpg","1","1","1","1","1","0","0.36125479999464","0.356063299987","0.477111899992451","1","1","1","1","1","1","1","1","1"
"260007","img/object_images/couch01.jpg","img/object_images/clip04.jpg","img/object_images/pitcher09.jpg","1","1","1","0","1","1","0.477111899992451","0.36125479999464","0.391741800005548","1","1","1","1","1","1","1","1","1"
"260007","img/object_images/pitcher09.jpg","img/object_images/couch01.jpg","img/object_images/chair06.jpg","1","1","0","1","0","0","0.391741800005548","0.477111899992451","0.40718520001974","1","1","1","1","1","1","1","1","1"
"260007","img/object_images/chair06.jpg","img/object_images/pitcher09.jpg","img/object_images/hair_brush01.jpg","0","1","1","0","1","1","0.40718520001974","0.391741800005548","0.40961299999617","1","1","1","1","1","1","1","1","1"
"260007","img/object_images/hair_brush01.jpg","img/object_images/chair06.jpg","img/object_images/rock02.jpg","1","0","1","1","0","0","0.40961299999617","0.40718520001974","0.513749400037341","1","1","1","1","1","1","1","1","1"
"260007","img/object_images/rock02.jpg","img/object_images/hair_brush01.jpg","img/object_images/toothbrush01.jpg","1","1","1","0","1","0","0.513749400037341","0.40961299999617","0.492330299981404","1","1","1","1","1","1","1","1","1"
"260007","img/object_images/toothbrush01.jpg","img/object_images/rock02.jpg","img/object_images/book02.jpg","1","1","1","0","0","1","0.492330299981404","0.513749400037341","0.408624499978032","1","1","1","1","1","1","1","1","1"
"260007","img/object_images/book02.jpg","img/object_images/toothbrush01.jpg","img/object_images/box03.jpg","1","1","1","1","0","0","0.408624499978032","0.492330299981404","0.496107399987523","1","1","1","1","1","1","1","1","1"
"260007","img/object_images/box03.jpg","img/object_images/book02.jpg","img/object_images/video_game03.jpg","1","1","1","0","1","1","0.496107399987523","0.408624499978032","0.453763399971649","1","1","1","1","1","1","1","1","2"
"260007","img/object_images/video_game03.jpg","img/object_images/box03.jpg","img/object_images/bag_pipes01.jpg","1","1","1","1","0","1","0.453763399971649","0.496107399987523","0.402111100032926","1","1","1","1","1","1","2","1","1"
"260007","img/object_images/bag_pipes01.jpg","img/object_images/video_game03.jpg","img/object_images/chain01.jpg","1","1","1","1","1","0","0.402111100032926","0.453763399971649","0.503163799992763","1","1","1","1","1","1","1","2","1"
"260007","img/object_images/chain01.jpg","img/object_images/bag_pipes01.jpg","img/object_images/pen01.jpg","1","1","1","0","1","0","0.503163799992763","0.402111100032926","0.426444399985485","1","1","1","1","1","1","1","1","1"
"260007","img/object_images/pen01.jpg","img/object_images/chain01.jpg","img/object_images/drone01.jpg","1","1","1","0","0","1","0.426444399985485","0.503163799992763","0.454545200045686","1","1","1","1","1","1","1","1","1"
"260007","img/object_images/drone01.jpg","img/object_images/pen01.jpg","img/object_images/computer_mouse01.jpg","1","1","1","1","0","1","0.454545200045686","0.426444399985485","0.45839280000655","1","1","1","1","1","1","1","1","1"
"260007","img/object_images/computer_mouse01.jpg","img/object_images/drone01.jpg","img/object_images/Violin01.jpg","1","1","1","1","1","0","0.45839280000655","0.454545200045686","0.635416299977805","1","1","1","1","1","1","1","1","2"
"260007","img/object_images/Violin01.jpg","img/object_images/computer_mouse01.jpg","img/object_images/fork02.jpg","1","1","1","0","1","0","0.635416299977805","0.45839280000655","0.499356599990278","1","1","1","1","1","1","2","1","1"
"260007","img/object_images/fork02.jpg","img/object_images/Violin01.jpg","img/object_images/egg_slicer01.jpg","1","1","1","0","0","1","0.499356599990278","0.635416299977805","0.446001600008458","1","1","1","1","1","1","1","2","1"
"260007","img/object_images/egg_slicer01.jpg","img/object_images/fork02.jpg","img/object_images/skate_board01.jpg","1","1","1","1","0","0","0.446001600008458","0.499356599990278","0.496455900021829","1","1","1","1","1","1","1","1","1"
"260007","img/object_images/skate_board01.jpg","img/object_images/egg_slicer01.jpg","img/object_images/tool06.jpg","1","1","1","0","1","0","0.496455900021829","0.446001600008458","0.430510399979539","1","1","1","1","1","1","1","1","1"
"260007","img/object_images/tool06.jpg","img/object_images/skate_board01.jpg",NA,"1","1",NA,"0","0",NA,"0.430510399979539","0.496455900021829",NA,"1","1",NA,"1","1",NA,"1","1",NA
"260007","img/object_images/rock03.jpg",NA,"img/object_images/hair_brush05.jpg","1",NA,"1","0",NA,"1","0.442659299995285",NA,"0.375104599981569","1",NA,"1","1",NA,"1","1",NA,"1"
"260007","img/object_images/hair_brush05.jpg","img/object_images/rock03.jpg","img/object_images/razor01.jpg","1","1","1","1","0","0","0.375104599981569","0.442659299995285","0.410962200025096","1","1","1","1","1","1","1","1","1"
"260007","img/object_images/razor01.jpg","img/object_images/hair_brush05.jpg","img/object_images/shower_head03.jpg","1","1","1","0","1","1","0.410962200025096","0.375104599981569","0.456419099995401","1","1","1","1","1","1","1","1","1"
"260007","img/object_images/shower_head03.jpg","img/object_images/razor01.jpg","img/object_images/ribbon01.jpg","1","1","1","1","0","0","0.456419099995401","0.410962200025096","0.513905300002079","1","1","1","1","1","1","1","1","1"
"260007","img/object_images/ribbon01.jpg","img/object_images/shower_head03.jpg","img/object_images/fan05.jpg","1","1","1","0","1","0","0.513905300002079","0.456419099995401","0.492937500006519","1","1","1","1","1","1","1","1","1"
"260007","img/object_images/fan05.jpg","img/object_images/ribbon01.jpg","img/object_images/cutting_board01.jpg","1","1","1","0","0","1","0.492937500006519","0.513905300002079","0.431186500005424","1","1","1","1","1","1","1","1","1"
"260007","img/object_images/cutting_board01.jpg","img/object_images/fan05.jpg","img/object_images/jewelry07.jpg","1","1","1","1","0","1","0.431186500005424","0.492937500006519","0.396239100024104","1","1","1","1","1","1","1","1","1"
"260007","img/object_images/jewelry07.jpg","img/object_images/cutting_board01.jpg","img/object_images/bag06.jpg","1","1","1","1","1","1","0.396239100024104","0.431186500005424","0.4723921000259","1","1","1","1","1","1","1","1","1"
"260007","img/object_images/bag06.jpg","img/object_images/jewelry07.jpg","img/object_images/screwdriver01.jpg","1","1","1","1","1","0","0.4723921000259","0.396239100024104","0.458266499976162","1","1","1","1","1","1","1","1","1"
"260007","img/object_images/screwdriver01.jpg","img/object_images/bag06.jpg","img/object_images/shoes10.jpg","1","1","1","0","1","0","0.458266499976162","0.4723921000259","0.409524900023826","1","1","1","1","1","1","1","1","1"
"260007","img/object_images/shoes10.jpg","img/object_images/screwdriver01.jpg","img/object_images/ladle02.jpg","1","1","1","0","0","0","0.409524900023826","0.458266499976162","0.449137600022368","1","1","1","1","1","1","1","1","1"
"260007","img/object_images/ladle02.jpg","img/object_images/shoes10.jpg","img/object_images/tv01.jpg","1","1","1","0","0","0","0.449137600022368","0.409524900023826","0.505591699969955","1","1","1","1","1","1","1","1","1"
"260007","img/object_images/tv01.jpg","img/object_images/ladle02.jpg","img/object_images/yarn02.jpg","1","1","1","0","0","0","0.505591699969955","0.449137600022368","0.456294200033881","1","1","1","1","1","1","1","1","1"
"260007","img/object_images/yarn02.jpg","img/object_images/tv01.jpg","img/object_images/car04.jpg","1","1","1","0","0","0","0.456294200033881","0.505591699969955","0.438831000006758","1","1","1","1","1","1","1","1","1"
"260007","img/object_images/car04.jpg","img/object_images/yarn02.jpg","img/object_images/lemon_squeezer02.jpg","1","1","1","0","0","1","0.438831000006758","0.456294200033881","0.431523300008848","1","1","1","1","1","1","1","1","1"
"260007","img/object_images/lemon_squeezer02.jpg","img/object_images/car04.jpg","img/object_images/chair04.jpg","1","1","1","1","0","1","0.431523300008848","0.438831000006758","0.40432770003099","1","1","1","1","1","1","1","1","1"
"260007","img/object_images/chair04.jpg","img/object_images/lemon_squeezer02.jpg","img/object_images/toaster02.jpg","1","1","1","1","1","1","0.40432770003099","0.431523300008848","0.428062900027726","1","1","1","1","1","1","1","1","1"
"260007","img/object_images/toaster02.jpg","img/object_images/chair04.jpg","img/object_images/MeasuringCup01.jpg","1","1","1","1","1","1","0.428062900027726","0.40432770003099","0.388394000008702","1","1","1","1","1","1","1","1","1"
"260007","img/object_images/MeasuringCup01.jpg","img/object_images/toaster02.jpg","img/object_images/WitchHat02.jpg","1","1","1","1","1","1","0.388394000008702","0.428062900027726","0.43461070000194","1","1","1","1","1","1","1","1","1"
"260007","img/object_images/WitchHat02.jpg","img/object_images/MeasuringCup01.jpg","img/object_images/slinky_toy01.jpg","1","1","1","1","1","1","0.43461070000194","0.388394000008702","0.410951900004875","1","1","1","1","1","1","1","1","1"
"260007","img/object_images/slinky_toy01.jpg","img/object_images/WitchHat02.jpg","img/object_images/satellite01.jpg","1","1","1","1","1","0","0.410951900004875","0.43461070000194","0.637026700016577","1","1","1","1","1","1","1","1","1"
"260007","img/object_images/satellite01.jpg","img/object_images/slinky_toy01.jpg","img/object_images/car03.jpg","1","1","0","0","1","0","0.637026700016577","0.410951900004875","0.365309499960858","1","1","1","1","1","1","1","1","1"
"260007","img/object_images/car03.jpg","img/object_images/satellite01.jpg","img/object_images/belt01.jpg","0","1","1","0","0","0","0.365309499960858","0.637026700016577","0.491601399960928","1","1","1","1","1","1","1","1","1"
"260007","img/object_images/belt01.jpg","img/object_images/car03.jpg","img/object_images/ice_tray03.jpg","1","0","1","0","0","1","0.491601399960928","0.365309499960858","0.477196199994069","1","1","1","1","1","1","1","1","1"
"260007","img/object_images/ice_tray03.jpg","img/object_images/belt01.jpg","img/object_images/binoculars03.jpg","1","1","1","1","0","1","0.477196199994069","0.491601399960928","0.460601400001906","1","1","1","1","1","1","1","1","1"
"260007","img/object_images/binoculars03.jpg","img/object_images/ice_tray03.jpg","img/object_images/jewel01.jpg","1","1","0","1","1","0","0.460601400001906","0.477196199994069","0.400331599987112","1","1","1","1","1","1","1","1","1"
"260007","img/object_images/jewel01.jpg","img/object_images/binoculars03.jpg","img/object_images/dress03.jpg","0","1","1","0","1","1","0.400331599987112","0.460601400001906","0.412788400019053","1","1","1","1","1","1","1","1","1"
"260007","img/object_images/dress03.jpg","img/object_images/jewel01.jpg","img/object_images/key02.jpg","1","0","1","1","0","1","0.412788400019053","0.400331599987112","0.392257199971937","1","1","1","1","1","1","1","1","1"
"260007","img/object_images/key02.jpg","img/object_images/dress03.jpg","img/object_images/tool11.jpg","1","1","1","1","1","1","0.392257199971937","0.412788400019053","0.384612500027288","1","1","1","1","1","1","1","1","1"
"260007","img/object_images/tool11.jpg","img/object_images/key02.jpg","img/object_images/mask01.jpg","1","1","1","1","1","0","0.384612500027288","0.392257199971937","0.39006549998885","1","1","1","1","1","1","1","1","1"
"260007","img/object_images/mask01.jpg","img/object_images/tool11.jpg","img/object_images/cards01.jpg","1","1","1","0","1","0","0.39006549998885","0.384612500027288","0.448593200009782","1","1","1","1","1","1","1","1","1"
"260007","img/object_images/cards01.jpg","img/object_images/mask01.jpg",NA,"1","1",NA,"0","0",NA,"0.448593200009782","0.39006549998885",NA,"1","1",NA,"1","1",NA,"1","1",NA
"260007","img/object_images/Witchhat01.jpg",NA,"img/object_images/handkerchief01.jpg","1",NA,"1","1",NA,"0","0.462434799992479",NA,"0.484782100014854","1",NA,"1","1",NA,"1","1",NA,"1"
"260007","img/object_images/handkerchief01.jpg","img/object_images/Witchhat01.jpg","img/object_images/gift_box02.jpg","1","1","1","0","1","1","0.484782100014854","0.462434799992479","0.381620500003919","1","1","1","1","1","1","1","1","1"
"260007","img/object_images/gift_box02.jpg","img/object_images/handkerchief01.jpg","img/object_images/golf_ball03.jpg","1","1","1","1","0","1","0.381620500003919","0.484782100014854","0.342524799983948","1","1","1","1","1","1","1","1","1"
"260007","img/object_images/golf_ball03.jpg","img/object_images/gift_box02.jpg","img/object_images/camera07.jpg","1","1","1","1","1","1","0.342524799983948","0.381620500003919","0.41036229999736","1","1","1","1","1","1","1","1","1"
"260007","img/object_images/camera07.jpg","img/object_images/golf_ball03.jpg","img/object_images/Screws01.jpg","1","1","1","1","1","1","0.41036229999736","0.342524799983948","0.40768120001303","1","1","1","1","1","1","1","1","1"
"260007","img/object_images/Screws01.jpg","img/object_images/camera07.jpg","img/object_images/ironing_table01.jpg","1","1","0","1","1","0","0.40768120001303","0.41036229999736","0.382893699978013","1","1","1","1","1","1","1","1","1"
"260007","img/object_images/ironing_table01.jpg","img/object_images/Screws01.jpg","img/object_images/wallet02.jpg","0","1","1","0","1","1","0.382893699978013","0.40768120001303","0.32037210004637","1","1","1","1","1","1","1","1","1"
"260007","img/object_images/wallet02.jpg","img/object_images/ironing_table01.jpg","img/object_images/sleeping_bag01.jpg","1","0","1","1","0","0","0.32037210004637","0.382893699978013","0.352784999995492","1","1","1","1","1","1","1","1","1"
"260007","img/object_images/sleeping_bag01.jpg","img/object_images/wallet02.jpg","img/object_images/pitcher02.jpg","1","1","1","0","1","1","0.352784999995492","0.32037210004637","0.363355200039223","1","1","1","1","1","1","1","1","1"
"260007","img/object_images/pitcher02.jpg","img/object_images/sleeping_bag01.jpg","img/object_images/measuring_tape02.jpg","1","1","1","1","0","1","0.363355200039223","0.352784999995492","0.465191999974195","1","1","1","1","1","1","1","1","1"
"260007","img/object_images/measuring_tape02.jpg","img/object_images/pitcher02.jpg","img/object_images/lock04.jpg","1","1","1","1","1","1","0.465191999974195","0.363355200039223","0.36067159997765","1","1","1","1","1","1","1","1","1"
"260007","img/object_images/lock04.jpg","img/object_images/measuring_tape02.jpg","img/object_images/gift_box01.jpg","1","1","1","1","1","1","0.36067159997765","0.465191999974195","0.361872700043023","1","1","1","1","1","1","1","1","1"
"260007","img/object_images/gift_box01.jpg","img/object_images/lock04.jpg","img/object_images/dresser04.jpg","1","1","0","1","1","0","0.361872700043023","0.36067159997765","0.338975599966943","1","1","1","1","1","1","1","1","1"
"260007","img/object_images/dresser04.jpg","img/object_images/gift_box01.jpg","img/object_images/paper_cup01.jpg","0","1","0","0","1","0","0.338975599966943","0.361872700043023","0.437775400001556","1","1","1","1","1","1","1","1","2"
"260007","img/object_images/paper_cup01.jpg","img/object_images/dresser04.jpg","img/object_images/bow_tie01.jpg","0","0","1","0","0","0","0.437775400001556","0.338975599966943","0.509034099988639","1","1","1","1","1","1","2","1","1"
"260007","img/object_images/bow_tie01.jpg","img/object_images/paper_cup01.jpg","img/object_images/jacket03.jpg","1","0","1","0","0","0","0.509034099988639","0.437775400001556","0.526136800006498","1","1","1","1","1","1","1","2","1"
"260007","img/object_images/jacket03.jpg","img/object_images/bow_tie01.jpg","img/object_images/socks02.jpg","1","1","0","0","0","0","0.526136800006498","0.509034099988639","0.379438999982085","1","1","1","1","1","1","1","1","1"
"260007","img/object_images/socks02.jpg","img/object_images/jacket03.jpg","img/object_images/clip02.jpg","0","1","1","0","0","1","0.379438999982085","0.526136800006498","0.413946799992118","1","1","1","1","1","1","1","1","1"
"260007","img/object_images/clip02.jpg","img/object_images/socks02.jpg","img/object_images/balloon01.jpg","1","0","1","1","0","0","0.413946799992118","0.379438999982085","0.48864210001193","1","1","1","1","1","1","1","1","1"
"260007","img/object_images/balloon01.jpg","img/object_images/clip02.jpg","img/object_images/funnel01.jpg","1","1","1","0","1","0","0.48864210001193","0.413946799992118","0.515367799962405","1","1","1","1","1","1","1","1","1"
"260007","img/object_images/funnel01.jpg","img/object_images/balloon01.jpg","img/object_images/jewelry01.jpg","1","1","1","0","0","1","0.515367799962405","0.48864210001193","0.382371499959845","1","1","1","1","1","1","1","1","1"
"260007","img/object_images/jewelry01.jpg","img/object_images/funnel01.jpg","img/object_images/lawn_mower01.jpg","1","1","1","1","0","1","0.382371499959845","0.515367799962405","0.399441899964586","1","1","1","1","1","1","1","1","1"
"260007","img/object_images/lawn_mower01.jpg","img/object_images/jewelry01.jpg","img/object_images/gift_box03.jpg","1","1","1","1","1","0","0.399441899964586","0.382371499959845","0.449399599980097","1","1","1","1","1","1","1","1","1"
"260007","img/object_images/gift_box03.jpg","img/object_images/lawn_mower01.jpg","img/object_images/couch03.jpg","1","1","1","0","1","0","0.449399599980097","0.399441899964586","0.424185399955604","1","1","1","1","1","1","1","1","1"
"260007","img/object_images/couch03.jpg","img/object_images/gift_box03.jpg","img/object_images/vga_port 01.jpg","1","1","1","0","0","0","0.424185399955604","0.449399599980097","0.425694600038696","1","1","1","1","1","1","1","1","1"
"260007","img/object_images/vga_port 01.jpg","img/object_images/couch03.jpg","img/object_images/fork03.jpg","1","1","1","0","0","1","0.425694600038696","0.424185399955604","0.404727799992543","1","1","1","1","1","1","1","1","1"
"260007","img/object_images/fork03.jpg","img/object_images/vga_port 01.jpg","img/object_images/grater01.jpg","1","1","1","1","0","1","0.404727799992543","0.425694600038696","0.407987899961881","1","1","1","1","1","1","1","1","1"
"260007","img/object_images/grater01.jpg","img/object_images/fork03.jpg","img/object_images/bow_tie02.jpg","1","1","1","1","1","0","0.407987899961881","0.404727799992543","0.517559800005984","1","1","1","1","1","1","1","1","1"
"260007","img/object_images/bow_tie02.jpg","img/object_images/grater01.jpg","img/object_images/bath_tub01.jpg","1","1","1","0","1","0","0.517559800005984","0.407987899961881","0.494800799991935","1","1","1","1","1","1","1","1","1"
"260007","img/object_images/bath_tub01.jpg","img/object_images/bow_tie02.jpg","img/object_images/coloring_pencil01.jpg","1","1","1","0","0","1","0.494800799991935","0.517559800005984","0.422863599960692","1","1","1","1","1","1","1","1","1"
"260007","img/object_images/coloring_pencil01.jpg","img/object_images/bath_tub01.jpg","img/object_images/hammer01.jpg","1","1","1","1","0","0","0.422863599960692","0.494800799991935","0.433582799974829","1","1","1","1","1","1","1","1","1"
"260007","img/object_images/hammer01.jpg","img/object_images/coloring_pencil01.jpg",NA,"1","1",NA,"0","1",NA,"0.433582799974829","0.422863599960692",NA,"1","1",NA,"1","1",NA,"1","1",NA
"260007","img/object_images/lemon_squeezer01.jpg",NA,"img/object_images/hammer02.jpg","1",NA,"1","1",NA,"0","0.410211400012486",NA,"0.507059499970637","1",NA,"1","1",NA,"1","1",NA,"1"
"260007","img/object_images/hammer02.jpg","img/object_images/lemon_squeezer01.jpg","img/object_images/sign02.jpg","1","1","1","0","1","0","0.507059499970637","0.410211400012486","0.466822999995202","1","1","1","1","1","1","1","1","1"
"260007","img/object_images/sign02.jpg","img/object_images/hammer02.jpg","img/object_images/bow_tie03.jpg","1","1","1","0","0","1","0.466822999995202","0.507059499970637","0.447483500000089","1","1","1","1","1","1","1","1","1"
"260007","img/object_images/bow_tie03.jpg","img/object_images/sign02.jpg","img/object_images/cup01.jpg","1","1","0","1","0","0","0.447483500000089","0.466822999995202","0.410193899995647","1","1","1","1","1","1","1","1","1"
"260007","img/object_images/cup01.jpg","img/object_images/bow_tie03.jpg","img/object_images/glasses03.jpg","0","1","1","0","1","0","0.410193899995647","0.447483500000089","0.395599500043318","1","1","1","1","1","1","1","1","1"
"260007","img/object_images/glasses03.jpg","img/object_images/cup01.jpg","img/object_images/tool20.jpg","1","0","1","0","0","0","0.395599500043318","0.410193899995647","0.468086100008804","1","1","1","1","1","1","1","1","1"
"260007","img/object_images/tool20.jpg","img/object_images/glasses03.jpg","img/object_images/clipboard01.jpg","1","1","1","0","0","1","0.468086100008804","0.395599500043318","0.364206100057345","1","1","1","1","1","1","1","1","1"
"260007","img/object_images/clipboard01.jpg","img/object_images/tool20.jpg","img/object_images/video_game02.jpg","1","1","1","1","0","1","0.364206100057345","0.468086100008804","0.389036000007764","1","1","1","1","1","1","1","1","1"
"260007","img/object_images/video_game02.jpg","img/object_images/clipboard01.jpg","img/object_images/razor02.jpg","1","1","1","1","1","1","0.389036000007764","0.364206100057345","0.397347500023898","1","1","1","1","1","1","1","1","1"
"260007","img/object_images/razor02.jpg","img/object_images/video_game02.jpg","img/object_images/perfume01.jpg","1","1","1","1","1","0","0.397347500023898","0.389036000007764","0.515122400014661","1","1","1","1","1","1","1","1","1"
"260007","img/object_images/perfume01.jpg","img/object_images/razor02.jpg","img/object_images/knife01.jpg","1","1","1","0","1","1","0.515122400014661","0.397347500023898","0.452514700009488","1","1","1","1","1","1","1","1","1"
"260007","img/object_images/knife01.jpg","img/object_images/perfume01.jpg","img/object_images/Confetti 01.jpg","1","1","1","1","0","0","0.452514700009488","0.515122400014661","0.44264069997007","1","1","1","1","1","1","1","1","1"
"260007","img/object_images/Confetti 01.jpg","img/object_images/knife01.jpg","img/object_images/Candle_Holder01.jpg","1","1","1","0","1","0","0.44264069997007","0.452514700009488","0.527561999973841","1","1","1","1","1","1","1","1","1"
"260007","img/object_images/Candle_Holder01.jpg","img/object_images/Confetti 01.jpg","img/object_images/socks01.jpg","1","1","1","0","0","1","0.527561999973841","0.44264069997007","0.383467200037558","1","1","1","1","1","1","1","1","1"
"260007","img/object_images/socks01.jpg","img/object_images/Candle_Holder01.jpg","img/object_images/board01.jpg","1","1","1","1","0","1","0.383467200037558","0.527561999973841","0.432742199976928","1","1","1","1","1","1","1","1","1"
"260007","img/object_images/board01.jpg","img/object_images/socks01.jpg","img/object_images/hat13.jpg","1","1","1","1","1","1","0.432742199976928","0.383467200037558","0.390345000021625","1","1","1","1","1","1","1","1","1"
"260007","img/object_images/hat13.jpg","img/object_images/board01.jpg","img/object_images/ruler02.jpg","1","1","0","1","1","1","0.390345000021625","0.432742199976928",NA,"1","1","0","1","1","0","1","1","0"
"260007","img/object_images/ruler02.jpg","img/object_images/hat13.jpg","img/object_images/candle02.jpg","0","1","0","1","1","0",NA,"0.390345000021625","0.550371100020129","0","1","1","0","1","1","0","1","1"
"260007","img/object_images/candle02.jpg","img/object_images/ruler02.jpg","img/object_images/office_supplies01.jpg","0","0","1","0","1","1","0.550371100020129",NA,"0.46482630004175","1","0","1","1","0","1","1","0","1"
"260007","img/object_images/office_supplies01.jpg","img/object_images/candle02.jpg","img/object_images/dust_pan01.jpg","1","0","1","1","0","1","0.46482630004175","0.550371100020129","0.485842499998398","1","1","1","1","1","1","1","1","1"
"260007","img/object_images/dust_pan01.jpg","img/object_images/office_supplies01.jpg","img/object_images/pen06.jpg","1","1","0","1","1","0","0.485842499998398","0.46482630004175","0.402840199996717","1","1","1","1","1","1","1","1","1"
"260007","img/object_images/pen06.jpg","img/object_images/dust_pan01.jpg","img/object_images/camera05.jpg","0","1","1","0","1","0","0.402840199996717","0.485842499998398","0.610667500004638","1","1","1","1","1","1","1","1","1"
"260007","img/object_images/camera05.jpg","img/object_images/pen06.jpg","img/object_images/sink_filter01 (1).jpg","1","0","1","0","0","0","0.610667500004638","0.402840199996717","0.50127310003154","1","1","1","1","1","1","1","1","1"
"260007","img/object_images/sink_filter01 (1).jpg","img/object_images/camera05.jpg","img/object_images/floss01.jpg","1","1","1","0","0","1","0.50127310003154","0.610667500004638","0.465796999982558","1","1","1","1","1","1","1","1","1"
"260007","img/object_images/floss01.jpg","img/object_images/sink_filter01 (1).jpg","img/object_images/duster01.jpg","1","1","1","1","0","0","0.465796999982558","0.50127310003154","0.485634399985429","1","1","1","1","1","1","1","1","1"
"260007","img/object_images/duster01.jpg","img/object_images/floss01.jpg","img/object_images/pan03.jpg","1","1","1","0","1","1","0.485634399985429","0.465796999982558","0.510122900013812","1","1","1","1","1","1","1","1","1"
"260007","img/object_images/pan03.jpg","img/object_images/duster01.jpg","img/object_images/hat09.jpg","1","1","1","1","0","0","0.510122900013812","0.485634399985429","0.487475499976426","1","1","1","1","1","1","1","1","1"
"260007","img/object_images/hat09.jpg","img/object_images/pan03.jpg","img/object_images/vase02.jpg","1","1","1","0","1","1","0.487475499976426","0.510122900013812","0.441955399990547","1","1","1","1","1","1","1","1","1"
"260007","img/object_images/vase02.jpg","img/object_images/hat09.jpg","img/object_images/tool13.jpg","1","1","1","1","0","1","0.441955399990547","0.487475499976426","0.436502900032792","1","1","1","1","1","1","1","1","1"
"260007","img/object_images/tool13.jpg","img/object_images/vase02.jpg","img/object_images/bag04.jpg","1","1","1","1","1","0","0.436502900032792","0.441955399990547","0.465775599994231","1","1","1","1","1","1","1","1","1"
"260007","img/object_images/bag04.jpg","img/object_images/tool13.jpg","img/object_images/spray_can01.jpg","1","1","1","0","1","0","0.465775599994231","0.436502900032792","0.391834500012919","1","1","1","1","1","1","1","1","1"
"260007","img/object_images/spray_can01.jpg","img/object_images/bag04.jpg",NA,"1","1",NA,"0","0",NA,"0.391834500012919","0.465775599994231",NA,"1","1",NA,"1","1",NA,"1","1",NA
"260007","img/object_images/tray01.jpg",NA,"img/object_images/book01.jpg","1",NA,"1","1",NA,"1","0.361888899991754",NA,"0.371350899979006","1",NA,"1","1",NA,"1","1",NA,"1"
"260007","img/object_images/book01.jpg","img/object_images/tray01.jpg","img/object_images/hole_puncher01.jpg","1","1","1","1","1","1","0.371350899979006","0.361888899991754","0.38316730002407","1","1","1","1","1","1","1","1","1"
"260007","img/object_images/hole_puncher01.jpg","img/object_images/book01.jpg","img/object_images/projector01.jpg","1","1","1","1","1","0","0.38316730002407","0.371350899979006","0.573400399996899","1","1","1","1","1","1","1","1","1"
"260007","img/object_images/projector01.jpg","img/object_images/hole_puncher01.jpg","img/object_images/glasses06.jpg","1","1","1","0","1","1","0.573400399996899","0.38316730002407","0.41799450002145","1","1","1","1","1","1","1","1","1"
"260007","img/object_images/glasses06.jpg","img/object_images/projector01.jpg","img/object_images/colander01.jpg","1","1","0","1","0","0","0.41799450002145","0.573400399996899","0.388599099998828","1","1","1","1","1","1","1","1","1"
"260007","img/object_images/colander01.jpg","img/object_images/glasses06.jpg","img/object_images/bicycle_lock01.jpg","0","1","0","0","1","0","0.388599099998828","0.41799450002145","0.412497800018173","1","1","1","1","1","1","1","1","1"
"260007","img/object_images/bicycle_lock01.jpg","img/object_images/colander01.jpg","img/object_images/TrashCan02.jpg","0","0","1","0","0","1","0.412497800018173","0.388599099998828","0.401776399987284","1","1","1","1","1","1","1","1","1"
"260007","img/object_images/TrashCan02.jpg","img/object_images/bicycle_lock01.jpg","img/object_images/blanket01.jpg","1","0","1","1","0","1","0.401776399987284","0.412497800018173","0.39609939994989","1","1","1","1","1","1","1","1","1"
"260007","img/object_images/blanket01.jpg","img/object_images/TrashCan02.jpg","img/object_images/fire_extinguisher01.jpg","1","1","1","1","1","0","0.39609939994989","0.401776399987284","0.467602199991234","1","1","1","1","1","1","1","1","1"
"260007","img/object_images/fire_extinguisher01.jpg","img/object_images/blanket01.jpg","img/object_images/gift_box04.jpg","1","1","1","0","1","0","0.467602199991234","0.39609939994989","0.47703619999811","1","1","1","1","1","1","1","1","1"
"260007","img/object_images/gift_box04.jpg","img/object_images/fire_extinguisher01.jpg","img/object_images/hair_clips01.jpg","1","1","1","0","0","1","0.47703619999811","0.467602199991234","0.413835100014694","1","1","1","1","1","1","1","1","1"
"260007","img/object_images/hair_clips01.jpg","img/object_images/gift_box04.jpg","img/object_images/Sprayer01.jpg","1","1","1","1","0","0","0.413835100014694","0.47703619999811","0.487505599972792","1","1","1","1","1","1","1","1","1"
"260007","img/object_images/Sprayer01.jpg","img/object_images/hair_clips01.jpg","img/object_images/ring03.jpg","1","1","1","0","1","1","0.487505599972792","0.413835100014694","0.537555400049314","1","1","1","1","1","1","1","1","1"
"260007","img/object_images/ring03.jpg","img/object_images/Sprayer01.jpg","img/object_images/speaker01.jpg","1","1","1","1","0","1","0.537555400049314","0.487505599972792","0.473477700026706","1","1","1","1","1","1","1","1","1"
"260007","img/object_images/speaker01.jpg","img/object_images/ring03.jpg","img/object_images/basket02.jpg","1","1","1","1","1","0","0.473477700026706","0.537555400049314","0.397573399997782","1","1","1","1","1","1","1","1","1"
"260007","img/object_images/basket02.jpg","img/object_images/speaker01.jpg","img/object_images/tool07.jpg","1","1","1","0","1","0","0.397573399997782","0.473477700026706","0.359031800006051","1","1","1","1","1","1","1","1","1"
"260007","img/object_images/tool07.jpg","img/object_images/basket02.jpg","img/object_images/handcuffs01.jpg","1","1","1","0","0","0","0.359031800006051","0.397573399997782","0.413773899956141","1","1","1","1","1","1","1","1","1"
"260007","img/object_images/handcuffs01.jpg","img/object_images/tool07.jpg","img/object_images/Kitchen_Towel.jpg","1","1","1","0","0","0","0.413773899956141","0.359031800006051","0.524546600005124","1","1","1","1","1","1","1","1","1"
"260007","img/object_images/Kitchen_Towel.jpg","img/object_images/handcuffs01.jpg","img/object_images/yo_yo01.jpg","1","1","1","0","0","0","0.524546600005124","0.413773899956141","0.410906100005377","1","1","1","1","1","1","1","1","1"
"260007","img/object_images/yo_yo01.jpg","img/object_images/Kitchen_Towel.jpg","img/object_images/jewelry09.jpg","1","1","1","0","0","1","0.410906100005377","0.524546600005124","0.40013209998142","1","1","1","1","1","1","1","1","1"
"260007","img/object_images/jewelry09.jpg","img/object_images/yo_yo01.jpg","img/object_images/Traffic Sign 01.jpg","1","1","1","1","0","0","0.40013209998142","0.410906100005377","0.418479400046635","1","1","1","1","1","1","1","1","1"
"260007","img/object_images/Traffic Sign 01.jpg","img/object_images/jewelry09.jpg","img/object_images/tool08.jpg","1","1","1","0","1","0","0.418479400046635","0.40013209998142","0.378934900043532","1","1","1","1","1","1","1","1","1"
"260007","img/object_images/tool08.jpg","img/object_images/Traffic Sign 01.jpg","img/object_images/Pottery01.jpg","1","1","1","0","0","0","0.378934900043532","0.418479400046635","0.484580699994694","1","1","1","1","1","1","1","1","1"
"260007","img/object_images/Pottery01.jpg","img/object_images/tool08.jpg","img/object_images/cellphone02.jpg","1","1","1","0","0","1","0.484580699994694","0.378934900043532","0.387652999954298","1","1","1","1","1","1","1","1","1"
"260007","img/object_images/cellphone02.jpg","img/object_images/Pottery01.jpg","img/object_images/purse01.jpg","1","1","1","1","0","1","0.387652999954298","0.484580699994694","0.413835200015455","1","1","1","1","1","1","1","1","1"
"260007","img/object_images/purse01.jpg","img/object_images/cellphone02.jpg","img/object_images/exfoliater_brush01.jpg","1","1","0","1","1","0","0.413835200015455","0.387652999954298","0.395805500040296","1","1","1","1","1","1","1","1","1"
"260007","img/object_images/exfoliater_brush01.jpg","img/object_images/purse01.jpg","img/object_images/cup03.jpg","0","1","1","0","1","1","0.395805500040296","0.413835200015455","0.451825900003314","1","1","1","1","1","1","1","1","1"
"260007","img/object_images/cup03.jpg","img/object_images/exfoliater_brush01.jpg","img/object_images/lighter01.jpg","1","0","1","1","0","1","0.451825900003314","0.395805500040296","0.398939999984577","1","1","1","1","1","1","1","1","1"
"260007","img/object_images/lighter01.jpg","img/object_images/cup03.jpg","img/object_images/faucet01.jpg","1","1","1","1","1","0","0.398939999984577","0.451825900003314","0.494571699993685","1","1","1","1","1","1","1","1","1"
"260007","img/object_images/faucet01.jpg","img/object_images/lighter01.jpg","img/object_images/pan01.jpg","1","1","1","0","1","1","0.494571699993685","0.398939999984577","0.375676500028931","1","1","1","1","1","1","1","1","1"
"260007","img/object_images/pan01.jpg","img/object_images/faucet01.jpg","img/object_images/glasses07.jpg","1","1","1","1","0","1","0.375676500028931","0.494571699993685","0.410654700011946","1","1","1","1","1","1","1","1","1"
"260007","img/object_images/glasses07.jpg","img/object_images/pan01.jpg",NA,"1","1",NA,"1","1",NA,"0.410654700011946","0.375676500028931",NA,"1","1",NA,"1","1",NA,"1","1",NA
"260007","img/object_images/video_game06.jpg",NA,"img/object_images/car02.jpg","1",NA,"1","0",NA,"0","0.435562299971934",NA,"0.415532800019719","1",NA,"1","1",NA,"1","1",NA,"1"
"260007","img/object_images/car02.jpg","img/object_images/video_game06.jpg","img/object_images/gloves05.jpg","1","1","1","0","0","1","0.415532800019719","0.435562299971934","0.575729200034402","1","1","1","1","1","1","1","1","1"
"260007","img/object_images/gloves05.jpg","img/object_images/car02.jpg","img/object_images/bottle12.jpg","1","1","1","1","0","1","0.575729200034402","0.415532800019719","0.316651100001764","1","1","1","1","1","1","1","1","1"
"260007","img/object_images/bottle12.jpg","img/object_images/gloves05.jpg","img/object_images/broom01.jpg","1","1","1","1","1","1","0.316651100001764","0.575729200034402","0.376990500022657","1","1","1","1","1","1","1","1","1"
"260007","img/object_images/broom01.jpg","img/object_images/bottle12.jpg","img/object_images/chair01.jpg","1","1","1","1","1","0","0.376990500022657","0.316651100001764","0.444676699989941","1","1","1","1","1","1","1","1","1"
"260007","img/object_images/chair01.jpg","img/object_images/broom01.jpg","img/object_images/lamp01.jpg","1","1","1","0","1","1","0.444676699989941","0.376990500022657","0.29942039999878","1","1","1","1","1","1","1","1","1"
"260007","img/object_images/lamp01.jpg","img/object_images/chair01.jpg","img/object_images/tie01.jpg","1","1","0","1","0","0","0.29942039999878","0.444676699989941","0.302741700026672","1","1","1","1","1","1","1","1","1"
"260007","img/object_images/tie01.jpg","img/object_images/lamp01.jpg","img/object_images/airfryer01.jpg","0","1","1","0","1","0","0.302741700026672","0.29942039999878","0.484268200001679","1","1","1","1","1","1","1","1","1"
"260007","img/object_images/airfryer01.jpg","img/object_images/tie01.jpg","img/object_images/brief_case01.jpg","1","0","1","0","0","0","0.484268200001679","0.302741700026672","0.470967899949756","1","1","1","1","1","1","1","1","1"
"260007","img/object_images/brief_case01.jpg","img/object_images/airfryer01.jpg","img/object_images/couch04.jpg","1","1","1","0","0","1","0.470967899949756","0.484268200001679","0.372260299976915","1","1","1","1","1","1","1","1","1"
"260007","img/object_images/couch04.jpg","img/object_images/brief_case01.jpg","img/object_images/Recycling01.jpg","1","1","1","1","0","1","0.372260299976915","0.470967899949756","0.405068699968979","1","1","1","1","1","1","1","1","1"
"260007","img/object_images/Recycling01.jpg","img/object_images/couch04.jpg","img/object_images/ironing_table02.jpg","1","1","1","1","1","0","0.405068699968979","0.372260299976915","0.522224800020922","1","1","1","1","1","1","1","1","1"
"260007","img/object_images/ironing_table02.jpg","img/object_images/Recycling01.jpg","img/object_images/decorative02.jpg","1","1","1","0","1","0","0.522224800020922","0.405068699968979","0.483432499982882","1","1","1","1","1","1","1","1","1"
"260007","img/object_images/decorative02.jpg","img/object_images/ironing_table02.jpg","img/object_images/Wisk01.jpg","1","1","1","0","0","1","0.483432499982882","0.522224800020922","0.39824489998864","1","1","1","1","1","1","1","1","1"
"260007","img/object_images/Wisk01.jpg","img/object_images/decorative02.jpg","img/object_images/pot01.jpg","1","1","1","1","0","0","0.39824489998864","0.483432499982882","0.441369900014251","1","1","1","1","1","1","1","1","1"
"260007","img/object_images/pot01.jpg","img/object_images/Wisk01.jpg","img/object_images/pitcher03.jpg","1","1","1","0","1","1","0.441369900014251","0.39824489998864","0.389607499993872","1","1","1","1","1","1","1","1","1"
"260007","img/object_images/pitcher03.jpg","img/object_images/pot01.jpg","img/object_images/cochlear_implant01.jpg","1","1","1","1","0","0","0.389607499993872","0.441369900014251","0.524447100004181","1","1","1","1","1","1","1","1","1"
"260007","img/object_images/cochlear_implant01.jpg","img/object_images/pitcher03.jpg","img/object_images/ball01.jpg","1","1","1","0","1","1","0.524447100004181","0.389607499993872","0.354745500022545","1","1","1","1","1","1","1","1","1"
"260007","img/object_images/ball01.jpg","img/object_images/cochlear_implant01.jpg","img/object_images/lantern01.jpg","1","1","1","1","0","1","0.354745500022545","0.524447100004181","0.367914100002963","1","1","1","1","1","1","1","1","1"
"260007","img/object_images/lantern01.jpg","img/object_images/ball01.jpg","img/object_images/container01.jpg","1","1","1","1","1","0","0.367914100002963","0.354745500022545","0.497306199977174","1","1","1","1","1","1","1","1","1"
"260007","img/object_images/container01.jpg","img/object_images/lantern01.jpg","img/object_images/toilet_paper01.jpg","1","1","1","0","1","1","0.497306199977174","0.367914100002963","0.413662299979478","1","1","1","1","1","1","1","1","1"
"260007","img/object_images/toilet_paper01.jpg","img/object_images/container01.jpg","img/object_images/brief_case02.jpg","1","1","1","1","0","1","0.413662299979478","0.497306199977174","0.410501000005752","1","1","1","1","1","1","1","1","1"
"260007","img/object_images/brief_case02.jpg","img/object_images/toilet_paper01.jpg","img/object_images/helmet05.jpg","1","1","1","1","1","1","0.410501000005752","0.413662299979478","0.415289599972311","1","1","1","1","1","1","1","1","1"
"260007","img/object_images/helmet05.jpg","img/object_images/brief_case02.jpg","img/object_images/basketball_hoop02.jpg","1","1","1","1","1","0","0.415289599972311","0.410501000005752","0.472452300018631","1","1","1","1","1","1","1","1","1"
"260007","img/object_images/basketball_hoop02.jpg","img/object_images/helmet05.jpg","img/object_images/hat02.jpg","1","1","1","0","1","0","0.472452300018631","0.415289599972311","0.433682400034741","1","1","1","1","1","1","1","1","1"
"260007","img/object_images/hat02.jpg","img/object_images/basketball_hoop02.jpg","img/object_images/toy_train02.jpg","1","1","1","0","0","1","0.433682400034741","0.472452300018631","0.401855800009798","1","1","1","1","1","1","1","1","1"
"260007","img/object_images/toy_train02.jpg","img/object_images/hat02.jpg","img/object_images/drone02.jpg","1","1","1","1","0","0","0.401855800009798","0.433682400034741","0.459586000011768","1","1","1","1","1","1","1","1","1"
"260007","img/object_images/drone02.jpg","img/object_images/toy_train02.jpg","img/object_images/Woopie01.jpg","1","1","1","0","1","1","0.459586000011768","0.401855800009798","0.434792199986987","1","1","1","1","1","1","1","1","1"
"260007","img/object_images/Woopie01.jpg","img/object_images/drone02.jpg","img/object_images/guitar01.jpg","1","1","1","1","0","1","0.434792199986987","0.459586000011768","0.384246699977666","1","1","1","1","1","1","1","1","1"
"260007","img/object_images/guitar01.jpg","img/object_images/Woopie01.jpg","img/object_images/soap01.jpg","1","1","1","1","1","0","0.384246699977666","0.434792199986987","0.420007000037003","1","1","1","1","1","1","1","1","1"
"260007","img/object_images/soap01.jpg","img/object_images/guitar01.jpg","img/object_images/razor03.jpg","1","1","1","0","1","0","0.420007000037003","0.384246699977666","0.456903499958571","1","1","1","1","1","1","1","1","1"
"260007","img/object_images/razor03.jpg","img/object_images/soap01.jpg",NA,"1","1",NA,"0","0",NA,"0.456903499958571","0.420007000037003",NA,"1","1",NA,"1","1",NA,"1","1",NA
"260007","img/object_images/WoodBox01.jpg",NA,"img/object_images/hot_air_balloon02.jpg","1",NA,"1","0",NA,"0","0.425586900033522",NA,"0.474976100027561","1",NA,"1","1",NA,"1","1",NA,"1"
"260007","img/object_images/hot_air_balloon02.jpg","img/object_images/WoodBox01.jpg","img/object_images/coloring_pencil02.jpg","1","1","1","0","0","0","0.474976100027561","0.425586900033522","0.518575699999928","1","1","1","1","1","1","1","1","1"
"260007","img/object_images/coloring_pencil02.jpg","img/object_images/hot_air_balloon02.jpg","img/object_images/audio_port01.jpg","1","1","1","0","0","1","0.518575699999928","0.474976100027561","0.459281000017654","1","1","1","1","1","1","1","1","1"
"260007","img/object_images/audio_port01.jpg","img/object_images/coloring_pencil02.jpg","img/object_images/tie02.jpg","1","1","1","1","0","0","0.459281000017654","0.518575699999928","0.432493200001772","1","1","1","1","1","1","1","1","1"
"260007","img/object_images/tie02.jpg","img/object_images/audio_port01.jpg","img/object_images/knit01.jpg","1","1","1","0","1","0","0.432493200001772","0.459281000017654","0.453893099969719","1","1","1","1","1","1","1","1","1"
"260007","img/object_images/knit01.jpg","img/object_images/tie02.jpg","img/object_images/bottle02.jpg","1","1","1","0","0","1","0.453893099969719","0.432493200001772","0.431256300013047","1","1","1","1","1","1","1","1","1"
"260007","img/object_images/bottle02.jpg","img/object_images/knit01.jpg","img/object_images/toilet_paper_dispenser01.jpg","1","1","1","1","0","1","0.431256300013047","0.453893099969719","0.399810700037051","1","1","1","1","1","1","1","1","1"
"260007","img/object_images/toilet_paper_dispenser01.jpg","img/object_images/bottle02.jpg","img/object_images/cellphone03.jpg","1","1","1","1","1","0","0.399810700037051","0.431256300013047","0.428932600014377","1","1","1","1","1","1","1","1","1"
"260007","img/object_images/cellphone03.jpg","img/object_images/toilet_paper_dispenser01.jpg","img/object_images/boat02.jpg","1","1","1","0","1","1","0.428932600014377","0.399810700037051","0.368374600016978","1","1","1","1","1","1","1","1","1"
"260007","img/object_images/boat02.jpg","img/object_images/cellphone03.jpg","img/object_images/fan02.jpg","1","1","1","1","0","0","0.368374600016978","0.428932600014377","0.476873000035994","1","1","1","1","1","1","1","1","1"
"260007","img/object_images/fan02.jpg","img/object_images/boat02.jpg","img/object_images/pen05.jpg","1","1","1","0","1","0","0.476873000035994","0.368374600016978","0.418435300001875","1","1","1","1","1","1","1","1","1"
"260007","img/object_images/pen05.jpg","img/object_images/fan02.jpg","img/object_images/scoreboard01.jpg","1","1","1","0","0","1","0.418435300001875","0.476873000035994","0.445560100022703","1","1","1","1","1","1","1","1","1"
"260007","img/object_images/scoreboard01.jpg","img/object_images/pen05.jpg","img/object_images/perfume02.jpg","1","1","1","1","0","0","0.445560100022703","0.418435300001875","0.449280100001488","1","1","1","1","1","1","1","1","1"
"260007","img/object_images/perfume02.jpg","img/object_images/scoreboard01.jpg","img/object_images/bottle10.jpg","1","1","1","0","1","1","0.449280100001488","0.445560100022703","0.349483700003475","1","1","1","1","1","1","1","1","1"
"260007","img/object_images/bottle10.jpg","img/object_images/perfume02.jpg","img/object_images/bicycle01.jpg","1","1","1","1","0","1","0.349483700003475","0.449280100001488","0.408561100019142","1","1","1","1","1","1","1","1","1"
"260007","img/object_images/bicycle01.jpg","img/object_images/bottle10.jpg","img/object_images/shoes07.jpg","1","1","0","1","1","0","0.408561100019142","0.349483700003475","0.410117299994454","1","1","1","1","1","1","1","1","1"
"260007","img/object_images/shoes07.jpg","img/object_images/bicycle01.jpg","img/object_images/water_scooter01.jpg","0","1","1","0","1","1","0.410117299994454","0.408561100019142","0.408165999979246","1","1","1","1","1","1","1","1","1"
"260007","img/object_images/water_scooter01.jpg","img/object_images/shoes07.jpg","img/object_images/bottle09.jpg","1","0","1","1","0","0","0.408165999979246","0.410117299994454","0.47555110004032","1","1","1","1","1","1","1","1","1"
"260007","img/object_images/bottle09.jpg","img/object_images/water_scooter01.jpg","img/object_images/helmet04.jpg","1","1","1","0","1","1","0.47555110004032","0.408165999979246","0.410781599988695","1","1","1","1","1","1","1","1","1"
"260007","img/object_images/helmet04.jpg","img/object_images/bottle09.jpg","img/object_images/chair03.jpg","1","1","1","1","0","0","0.410781599988695","0.47555110004032","0.423022799950559","1","1","1","1","1","1","1","1","1"
"260007","img/object_images/chair03.jpg","img/object_images/helmet04.jpg","img/object_images/boat_toy10.jpg","1","1","1","0","1","0","0.423022799950559","0.410781599988695","0.387609800032806","1","1","1","1","1","1","1","1","1"
"260007","img/object_images/boat_toy10.jpg","img/object_images/chair03.jpg","img/object_images/camera_lens01.jpg","1","1","1","0","0","1","0.387609800032806","0.423022799950559","0.411831100005656","1","1","1","1","1","1","1","1","1"
"260007","img/object_images/camera_lens01.jpg","img/object_images/boat_toy10.jpg","img/object_images/piggy_bank01.jpg","1","1","1","1","0","1","0.411831100005656","0.387609800032806","0.412290700012818","1","1","1","1","1","1","1","1","1"
"260007","img/object_images/piggy_bank01.jpg","img/object_images/camera_lens01.jpg","img/object_images/purse04.jpg","1","1","1","1","1","1","0.412290700012818","0.411831100005656","0.378814900002908","1","1","1","1","1","1","1","1","1"
"260007","img/object_images/purse04.jpg","img/object_images/piggy_bank01.jpg","img/object_images/tool19.jpg","1","1","1","1","1","1","0.378814900002908","0.412290700012818","0.368512000015471","1","1","1","1","1","1","1","1","1"
"260007","img/object_images/tool19.jpg","img/object_images/purse04.jpg","img/object_images/hat06.jpg","1","1","1","1","1","0","0.368512000015471","0.378814900002908","0.429423500027042","1","1","1","1","1","1","1","1","1"
"260007","img/object_images/hat06.jpg","img/object_images/tool19.jpg","img/object_images/flask01.jpg","1","1","0","0","1","0","0.429423500027042","0.368512000015471","0.42532120004762","1","1","1","1","1","1","1","1","1"
"260007","img/object_images/flask01.jpg","img/object_images/hat06.jpg","img/object_images/wagon_cart03.jpg","0","1","1","0","0","1","0.42532120004762","0.429423500027042","0.407430600025691","1","1","1","1","1","1","1","1","1"
"260007","img/object_images/wagon_cart03.jpg","img/object_images/flask01.jpg","img/object_images/bean_bag02.jpg","1","0","1","1","0","1","0.407430600025691","0.42532120004762","0.438805300043896","1","1","1","1","1","1","1","1","1"
"260007","img/object_images/bean_bag02.jpg","img/object_images/wagon_cart03.jpg","img/object_images/toaster01.jpg","1","1","1","1","1","1","0.438805300043896","0.407430600025691","0.40193829999771","1","1","1","1","1","1","1","1","1"
"260007","img/object_images/toaster01.jpg","img/object_images/bean_bag02.jpg","img/object_images/dog_leash01.jpg","1","1","1","1","1","0","0.40193829999771","0.438805300043896","0.433840700017754","1","1","1","1","1","1","1","1","1"
"260007","img/object_images/dog_leash01.jpg","img/object_images/toaster01.jpg",NA,"1","1",NA,"0","1",NA,"0.433840700017754","0.40193829999771",NA,"1","1",NA,"1","1",NA,"1","1",NA
