"participant_id","current_trial_object","pre_trial_object","post_trial_object","current_trial_accuracy","pre_trial_accuracy","post_trial_accuracy","current_trial_congruency","pre_trial_congruency","post_trial_congruency","current_trial_rt","pre_trial_rt","post_trial_rt","current_trial_responded","pre_trial_responded","post_trial_responded","current_trial_legitResponse","pre_trial_legitResponse","post_trial_legitResponse","current_trial_resp_nums","pre_trial_resp_nums","post_trial_resp_nums"
"260042","img/object_images/Staples01.jpg",NA,"img/object_images/tv02.jpg","1",NA,"1","1",NA,"0","0.414333299966529",NA,"0.50291040004231","1",NA,"1","1",NA,"1","1",NA,"1"
"260042","img/object_images/tv02.jpg","img/object_images/Staples01.jpg","img/object_images/pitcher01.jpg","1","1","1","0","1","0","0.50291040004231","0.414333299966529","0.485916499979794","1","1","1","1","1","1","1","1","1"
"260042","img/object_images/pitcher01.jpg","img/object_images/tv02.jpg","img/object_images/cellphone01.jpg","1","1","1","0","0","1","0.485916499979794","0.50291040004231","0.472308700205758","1","1","1","1","1","1","1","1","1"
"260042","img/object_images/cellphone01.jpg","img/object_images/pitcher01.jpg","img/object_images/note_book01.jpg","1","1","1","1","0","0","0.472308700205758","0.485916499979794","0.536234799772501","1","1","1","1","1","1","1","1","1"
"260042","img/object_images/note_book01.jpg","img/object_images/cellphone01.jpg","img/object_images/floppy_disk03.jpg","1","1","1","0","1","1","0.536234799772501","0.472308700205758","0.480204300023615","1","1","1","1","1","1","1","1","1"
"260042","img/object_images/floppy_disk03.jpg","img/object_images/note_book01.jpg","img/object_images/wire02.jpg","1","1","1","1","0","1","0.480204300023615","0.536234799772501","0.401200000196695","1","1","1","1","1","1","1","1","1"
"260042","img/object_images/wire02.jpg","img/object_images/floppy_disk03.jpg","img/object_images/motorcycle01.jpg","1","1","1","1","1","1","0.401200000196695","0.480204300023615","0.420126300072298","1","1","1","1","1","1","1","1","1"
"260042","img/object_images/motorcycle01.jpg","img/object_images/wire02.jpg","img/object_images/Oven01.jpg","1","1","1","1","1","1","0.420126300072298","0.401200000196695","0.47283919993788","1","1","1","1","1","1","1","1","1"
"260042","img/object_images/Oven01.jpg","img/object_images/motorcycle01.jpg","img/object_images/paint_brush04.jpg","1","1","1","1","1","0","0.47283919993788","0.420126300072298","0.463258099975064","1","1","1","1","1","1","1","1","1"
"260042","img/object_images/paint_brush04.jpg","img/object_images/Oven01.jpg","img/object_images/knit05.jpg","1","1","1","0","1","1","0.463258099975064","0.47283919993788","0.419831500155851","1","1","1","1","1","1","1","1","1"
"260042","img/object_images/knit05.jpg","img/object_images/paint_brush04.jpg","img/object_images/bottle01.jpg","1","1","1","1","0","0","0.419831500155851","0.463258099975064","0.557822899892926","1","1","1","1","1","1","1","1","1"
"260042","img/object_images/bottle01.jpg","img/object_images/knit05.jpg","img/object_images/retainer01.jpg","1","1","1","0","1","0","0.557822899892926","0.419831500155851","0.485706100007519","1","1","1","1","1","1","1","1","1"
"260042","img/object_images/retainer01.jpg","img/object_images/bottle01.jpg","img/object_images/pillows01.jpg","1","1","1","0","0","1","0.485706100007519","0.557822899892926","0.391704399837181","1","1","1","1","1","1","1","1","1"
"260042","img/object_images/pillows01.jpg","img/object_images/retainer01.jpg","img/object_images/clip03.jpg","1","1","1","1","0","0","0.391704399837181","0.485706100007519","0.436395299853757","1","1","1","1","1","1","1","1","1"
"260042","img/object_images/clip03.jpg","img/object_images/pillows01.jpg","img/object_images/hammer03.jpg","1","1","1","0","1","1","0.436395299853757","0.391704399837181","0.529301399830729","1","1","1","1","1","1","1","1","1"
"260042","img/object_images/hammer03.jpg","img/object_images/clip03.jpg","img/object_images/clock02.jpg","1","1","1","1","0","0","0.529301399830729","0.436395299853757","0.537842500023544","1","1","1","1","1","1","1","1","1"
"260042","img/object_images/clock02.jpg","img/object_images/hammer03.jpg","img/object_images/compass01.jpg","1","1","1","0","1","1","0.537842500023544","0.529301399830729","0.439547499874607","1","1","1","1","1","1","1","1","1"
"260042","img/object_images/compass01.jpg","img/object_images/clock02.jpg","img/object_images/tennis_racket02.jpg","1","1","1","1","0","1","0.439547499874607","0.537842500023544","0.629050400108099","1","1","1","1","1","1","1","1","1"
"260042","img/object_images/tennis_racket02.jpg","img/object_images/compass01.jpg","img/object_images/microscope01.jpg","1","1","1","1","1","0","0.629050400108099","0.439547499874607","0.524077800102532","1","1","1","1","1","1","1","1","1"
"260042","img/object_images/microscope01.jpg","img/object_images/tennis_racket02.jpg","img/object_images/lid01.jpg","1","1","1","0","1","1","0.524077800102532","0.629050400108099","0.459112300071865","1","1","1","1","1","1","1","1","1"
"260042","img/object_images/lid01.jpg","img/object_images/microscope01.jpg","img/object_images/floppy_disk02.jpg","1","1","1","1","0","0","0.459112300071865","0.524077800102532","0.533255499787629","1","1","1","1","1","1","1","1","1"
"260042","img/object_images/floppy_disk02.jpg","img/object_images/lid01.jpg","img/object_images/Thermometer01.jpg","1","1","1","0","1","0","0.533255499787629","0.459112300071865","0.518647900084034","1","1","1","1","1","1","1","1","1"
"260042","img/object_images/Thermometer01.jpg","img/object_images/floppy_disk02.jpg","img/object_images/usb02.jpg","1","1","1","0","0","0","0.518647900084034","0.533255499787629","0.577442199923098","1","1","1","1","1","1","1","1","1"
"260042","img/object_images/usb02.jpg","img/object_images/Thermometer01.jpg","img/object_images/crutches02.jpg","1","1","1","0","0","0","0.577442199923098","0.518647900084034","0.532454799860716","1","1","1","1","1","1","1","1","1"
"260042","img/object_images/crutches02.jpg","img/object_images/usb02.jpg","img/object_images/chess_piece02.jpg","1","1","1","0","0","1","0.532454799860716","0.577442199923098","0.443117100046948","1","1","1","1","1","1","1","1","1"
"260042","img/object_images/chess_piece02.jpg","img/object_images/crutches02.jpg","img/object_images/pen03.jpg","1","1","1","1","0","0","0.443117100046948","0.532454799860716","0.516767699969932","1","1","1","1","1","1","1","1","1"
"260042","img/object_images/pen03.jpg","img/object_images/chess_piece02.jpg","img/object_images/bell02.jpg","1","1","1","0","1","0","0.516767699969932","0.443117100046948","0.542871299898252","1","1","1","1","1","1","1","1","1"
"260042","img/object_images/bell02.jpg","img/object_images/pen03.jpg","img/object_images/book03.jpg","1","1","1","0","0","1","0.542871299898252","0.516767699969932","0.566394299967214","1","1","1","1","1","1","1","1","1"
"260042","img/object_images/book03.jpg","img/object_images/bell02.jpg","img/object_images/chair05.jpg","1","1","1","1","0","0","0.566394299967214","0.542871299898252","0.479094000067562","1","1","1","1","1","1","1","1","1"
"260042","img/object_images/chair05.jpg","img/object_images/book03.jpg","img/object_images/ear_bud01.jpg","1","1","1","0","1","1","0.479094000067562","0.566394299967214","0.407149000093341","1","1","1","1","1","1","1","1","1"
"260042","img/object_images/ear_bud01.jpg","img/object_images/chair05.jpg","img/object_images/knife04.jpg","1","1","1","1","0","1","0.407149000093341","0.479094000067562","0.567865699995309","1","1","1","1","1","1","1","1","1"
"260042","img/object_images/knife04.jpg","img/object_images/ear_bud01.jpg",NA,"1","1",NA,"1","1",NA,"0.567865699995309","0.407149000093341",NA,"1","1",NA,"1","1",NA,"1","1",NA
"260042","img/object_images/clipboard01.jpg",NA,"img/object_images/cup01.jpg","1",NA,"1","1",NA,"0","0.373018000042066",NA,"0.426405399804935","1",NA,"1","1",NA,"1","1",NA,"1"
"260042","img/object_images/cup01.jpg","img/object_images/clipboard01.jpg","img/object_images/office_supplies01.jpg","1","1","1","0","1","1","0.426405399804935","0.373018000042066","0.401274699950591","1","1","1","1","1","1","1","1","1"
"260042","img/object_images/office_supplies01.jpg","img/object_images/cup01.jpg","img/object_images/sign02.jpg","1","1","1","1","0","0","0.401274699950591","0.426405399804935","0.485628800000995","1","1","1","1","1","1","1","1","1"
"260042","img/object_images/sign02.jpg","img/object_images/office_supplies01.jpg","img/object_images/sink_filter01 (1).jpg","1","1","0","0","1","0","0.485628800000995","0.401274699950591","0.45237119984813","1","1","1","1","1","1","1","1","2"
"260042","img/object_images/sink_filter01 (1).jpg","img/object_images/sign02.jpg","img/object_images/socks01.jpg","0","1","1","0","0","1","0.45237119984813","0.485628800000995","0.52033430011943","1","1","1","1","1","1","2","1","1"
"260042","img/object_images/socks01.jpg","img/object_images/sink_filter01 (1).jpg","img/object_images/tool20.jpg","1","0","1","1","0","0","0.52033430011943","0.45237119984813","0.446116499835625","1","1","1","1","1","1","1","2","1"
"260042","img/object_images/tool20.jpg","img/object_images/socks01.jpg","img/object_images/bow_tie03.jpg","1","1","1","0","1","1","0.446116499835625","0.52033430011943","0.405672099906951","1","1","1","1","1","1","1","1","1"
"260042","img/object_images/bow_tie03.jpg","img/object_images/tool20.jpg","img/object_images/perfume01.jpg","1","1","1","1","0","0","0.405672099906951","0.446116499835625","0.527489600004628","1","1","1","1","1","1","1","1","1"
"260042","img/object_images/perfume01.jpg","img/object_images/bow_tie03.jpg","img/object_images/hat09.jpg","1","1","1","0","1","0","0.527489600004628","0.405672099906951","0.488433900056407","1","1","1","1","1","1","1","1","1"
"260042","img/object_images/hat09.jpg","img/object_images/perfume01.jpg","img/object_images/candle02.jpg","1","1","1","0","0","0","0.488433900056407","0.527489600004628","0.490019199904054","1","1","1","1","1","1","1","1","1"
"260042","img/object_images/candle02.jpg","img/object_images/hat09.jpg","img/object_images/floss01.jpg","1","1","1","0","0","1","0.490019199904054","0.488433900056407","0.46821039984934","1","1","1","1","1","1","1","1","1"
"260042","img/object_images/floss01.jpg","img/object_images/candle02.jpg","img/object_images/tool13.jpg","1","1","1","1","0","1","0.46821039984934","0.490019199904054","0.365011099958792","1","1","1","1","1","1","1","1","1"
"260042","img/object_images/tool13.jpg","img/object_images/floss01.jpg","img/object_images/duster01.jpg","1","1","1","1","1","0","0.365011099958792","0.46821039984934","0.48666110006161","1","1","1","1","1","1","1","1","1"
"260042","img/object_images/duster01.jpg","img/object_images/tool13.jpg","img/object_images/knife01.jpg","1","1","1","0","1","1","0.48666110006161","0.365011099958792","0.432106599910185","1","1","1","1","1","1","1","1","1"
"260042","img/object_images/knife01.jpg","img/object_images/duster01.jpg","img/object_images/pen06.jpg","1","1","1","1","0","0","0.432106599910185","0.48666110006161","0.485826800111681","1","1","1","1","1","1","1","1","1"
"260042","img/object_images/pen06.jpg","img/object_images/knife01.jpg","img/object_images/video_game02.jpg","1","1","1","0","1","1","0.485826800111681","0.432106599910185","0.470067699905485","1","1","1","1","1","1","1","1","1"
"260042","img/object_images/video_game02.jpg","img/object_images/pen06.jpg","img/object_images/vase02.jpg","1","1","1","1","0","1","0.470067699905485","0.485826800111681","0.525391299976036","1","1","1","1","1","1","1","1","1"
"260042","img/object_images/vase02.jpg","img/object_images/video_game02.jpg","img/object_images/dust_pan01.jpg","1","1","1","1","1","1","0.525391299976036","0.470067699905485","0.456195800099522","1","1","1","1","1","1","1","1","1"
"260042","img/object_images/dust_pan01.jpg","img/object_images/vase02.jpg","img/object_images/glasses03.jpg","1","1","1","1","1","0","0.456195800099522","0.525391299976036","0.567099999869242","1","1","1","1","1","1","1","1","1"
"260042","img/object_images/glasses03.jpg","img/object_images/dust_pan01.jpg","img/object_images/hat13.jpg","1","1","1","0","1","1","0.567099999869242","0.456195800099522","0.44568599993363","1","1","1","1","1","1","1","1","1"
"260042","img/object_images/hat13.jpg","img/object_images/glasses03.jpg","img/object_images/Candle_Holder01.jpg","1","1","1","1","0","0","0.44568599993363","0.567099999869242","0.421671099960804","1","1","1","1","1","1","1","1","1"
"260042","img/object_images/Candle_Holder01.jpg","img/object_images/hat13.jpg","img/object_images/camera05.jpg","1","1","1","0","1","0","0.421671099960804","0.44568599993363","0.486955099971965","1","1","1","1","1","1","1","1","1"
"260042","img/object_images/camera05.jpg","img/object_images/Candle_Holder01.jpg","img/object_images/razor02.jpg","1","1","1","0","0","1","0.486955099971965","0.421671099960804","0.42335469997488","1","1","1","1","1","1","1","1","1"
"260042","img/object_images/razor02.jpg","img/object_images/camera05.jpg","img/object_images/lemon_squeezer01.jpg","1","1","1","1","0","1","0.42335469997488","0.486955099971965","0.446399700129405","1","1","1","1","1","1","1","1","1"
"260042","img/object_images/lemon_squeezer01.jpg","img/object_images/razor02.jpg","img/object_images/Confetti 01.jpg","1","1","1","1","1","0","0.446399700129405","0.42335469997488","0.485353699885309","1","1","1","1","1","1","1","1","1"
"260042","img/object_images/Confetti 01.jpg","img/object_images/lemon_squeezer01.jpg","img/object_images/hammer02.jpg","1","1","1","0","1","0","0.485353699885309","0.446399700129405","0.603661100147292","1","1","1","1","1","1","1","1","1"
"260042","img/object_images/hammer02.jpg","img/object_images/Confetti 01.jpg","img/object_images/spray_can01.jpg","1","1","1","0","0","0","0.603661100147292","0.485353699885309","0.454618499847129","1","1","1","1","1","1","1","1","1"
"260042","img/object_images/spray_can01.jpg","img/object_images/hammer02.jpg","img/object_images/ruler02.jpg","1","1","1","0","0","1","0.454618499847129","0.603661100147292","0.425675899954513","1","1","1","1","1","1","1","1","1"
"260042","img/object_images/ruler02.jpg","img/object_images/spray_can01.jpg","img/object_images/bag04.jpg","1","1","0","1","0","0","0.425675899954513","0.454618499847129","0.390636999858543","1","1","1","1","1","1","1","1","2"
"260042","img/object_images/bag04.jpg","img/object_images/ruler02.jpg","img/object_images/pan03.jpg","0","1","1","0","1","1","0.390636999858543","0.425675899954513","0.3663289998658","1","1","1","1","1","1","2","1","1"
"260042","img/object_images/pan03.jpg","img/object_images/bag04.jpg","img/object_images/board01.jpg","1","0","1","1","0","1","0.3663289998658","0.390636999858543","0.408274600049481","1","1","1","1","1","1","1","2","1"
"260042","img/object_images/board01.jpg","img/object_images/pan03.jpg",NA,"1","1",NA,"1","1",NA,"0.408274600049481","0.3663289998658",NA,"1","1",NA,"1","1",NA,"1","1",NA
"260042","img/object_images/knit04.jpg",NA,"img/object_images/backpack01.jpg","1",NA,"1","1",NA,"0","0.468638299964368",NA,"0.587992099812254","1",NA,"1","1",NA,"1","1",NA,"1"
"260042","img/object_images/backpack01.jpg","img/object_images/knit04.jpg","img/object_images/blender02.jpg","1","1","1","0","1","1","0.587992099812254","0.468638299964368","0.45172440004535","1","1","1","1","1","1","1","1","1"
"260042","img/object_images/blender02.jpg","img/object_images/backpack01.jpg","img/object_images/basket04.jpg","1","1","1","1","0","1","0.45172440004535","0.587992099812254","0.366435900097713","1","1","1","1","1","1","1","1","1"
"260042","img/object_images/basket04.jpg","img/object_images/blender02.jpg","img/object_images/hoverboard01.jpg","1","1","1","1","1","0","0.366435900097713","0.45172440004535","0.656844000099227","1","1","1","1","1","1","1","1","1"
"260042","img/object_images/hoverboard01.jpg","img/object_images/basket04.jpg","img/object_images/boat04.jpg","1","1","0","0","1","0","0.656844000099227","0.366435900097713","0.406909799901769","1","1","1","1","1","1","1","1","2"
"260042","img/object_images/boat04.jpg","img/object_images/hoverboard01.jpg","img/object_images/knife02.jpg","0","1","1","0","0","0","0.406909799901769","0.656844000099227","0.4921782000456","1","1","1","1","1","1","2","1","1"
"260042","img/object_images/knife02.jpg","img/object_images/boat04.jpg","img/object_images/car01.jpg","1","0","1","0","0","1","0.4921782000456","0.406909799901769","0.370490100001916","1","1","1","1","1","1","1","2","1"
"260042","img/object_images/car01.jpg","img/object_images/knife02.jpg","img/object_images/phone02.jpg","1","1","1","1","0","1","0.370490100001916","0.4921782000456","0.449731099884957","1","1","1","1","1","1","1","1","1"
"260042","img/object_images/phone02.jpg","img/object_images/car01.jpg","img/object_images/gloves02.jpg","1","1","1","1","1","0","0.449731099884957","0.370490100001916","0.57743850001134","1","1","1","1","1","1","1","1","1"
"260042","img/object_images/gloves02.jpg","img/object_images/phone02.jpg","img/object_images/shower_head01.jpg","1","1","1","0","1","1","0.57743850001134","0.449731099884957","0.443849100032821","1","1","1","1","1","1","1","1","1"
"260042","img/object_images/shower_head01.jpg","img/object_images/gloves02.jpg","img/object_images/jacket04.jpg","1","1","1","1","0","0","0.443849100032821","0.57743850001134","0.479160499991849","1","1","1","1","1","1","1","1","1"
"260042","img/object_images/jacket04.jpg","img/object_images/shower_head01.jpg","img/object_images/tool18.jpg","1","1","1","0","1","0","0.479160499991849","0.443849100032821","0.483629899797961","1","1","1","1","1","1","1","1","1"
"260042","img/object_images/tool18.jpg","img/object_images/jacket04.jpg","img/object_images/remover01.jpg","1","1","1","0","0","1","0.483629899797961","0.479160499991849","0.477928099920973","1","1","1","1","1","1","1","1","1"
"260042","img/object_images/remover01.jpg","img/object_images/tool18.jpg","img/object_images/kite01.jpg","1","1","1","1","0","1","0.477928099920973","0.483629899797961","0.422213400015607","1","1","1","1","1","1","1","1","1"
"260042","img/object_images/kite01.jpg","img/object_images/remover01.jpg","img/object_images/dresser03.jpg","1","1","1","1","1","0","0.422213400015607","0.477928099920973","0.478478899924084","1","1","1","1","1","1","1","1","1"
"260042","img/object_images/dresser03.jpg","img/object_images/kite01.jpg","img/object_images/keyboard02.jpg","1","1","1","0","1","1","0.478478899924084","0.422213400015607","0.418786900117993","1","1","1","1","1","1","1","1","1"
"260042","img/object_images/keyboard02.jpg","img/object_images/dresser03.jpg","img/object_images/bottle07.jpg","1","1","1","1","0","1","0.418786900117993","0.478478899924084","0.387648000149056","1","1","1","1","1","1","1","1","1"
"260042","img/object_images/bottle07.jpg","img/object_images/keyboard02.jpg","img/object_images/sponge03.jpg","1","1","1","1","1","1","0.387648000149056","0.418786900117993","0.431869700085372","1","1","1","1","1","1","1","1","1"
"260042","img/object_images/sponge03.jpg","img/object_images/bottle07.jpg","img/object_images/matches02.jpg","1","1","1","1","1","0","0.431869700085372","0.387648000149056","0.576448800042272","1","1","1","1","1","1","1","1","1"
"260042","img/object_images/matches02.jpg","img/object_images/sponge03.jpg","img/object_images/Statue01.jpg","1","1","1","0","1","1","0.576448800042272","0.431869700085372","0.441776700085029","1","1","1","1","1","1","1","1","1"
"260042","img/object_images/Statue01.jpg","img/object_images/matches02.jpg","img/object_images/stereo02.jpg","1","1","1","1","0","0","0.441776700085029","0.576448800042272","0.52315520006232","1","1","1","1","1","1","1","1","1"
"260042","img/object_images/stereo02.jpg","img/object_images/Statue01.jpg","img/object_images/toy08.jpg","1","1","1","0","1","0","0.52315520006232","0.441776700085029","0.571038299938664","1","1","1","1","1","1","1","1","1"
"260042","img/object_images/toy08.jpg","img/object_images/stereo02.jpg","img/object_images/remote_controller01.jpg","1","1","1","0","0","1","0.571038299938664","0.52315520006232","0.472921999869868","1","1","1","1","1","1","1","1","1"
"260042","img/object_images/remote_controller01.jpg","img/object_images/toy08.jpg","img/object_images/paper_cup02.jpg","1","1","1","1","0","1","0.472921999869868","0.571038299938664","0.362133300164714","1","1","1","1","1","1","1","1","1"
"260042","img/object_images/paper_cup02.jpg","img/object_images/remote_controller01.jpg","img/object_images/mail_box01.jpg","1","1","1","1","1","0","0.362133300164714","0.472921999869868","0.552770199952647","1","1","1","1","1","1","1","1","1"
"260042","img/object_images/mail_box01.jpg","img/object_images/paper_cup02.jpg","img/object_images/flashlight03.jpg","1","1","1","0","1","0","0.552770199952647","0.362133300164714","0.424455899978057","1","1","1","1","1","1","1","1","1"
"260042","img/object_images/flashlight03.jpg","img/object_images/mail_box01.jpg","img/object_images/camera03.jpg","1","1","1","0","0","0","0.424455899978057","0.552770199952647","0.432719600154087","1","1","1","1","1","1","1","1","1"
"260042","img/object_images/camera03.jpg","img/object_images/flashlight03.jpg","img/object_images/curtain02.jpg","1","1","1","0","0","0","0.432719600154087","0.424455899978057","0.548644499853253","1","1","1","1","1","1","1","1","1"
"260042","img/object_images/curtain02.jpg","img/object_images/camera03.jpg","img/object_images/video_game01.jpg","1","1","1","0","0","1","0.548644499853253","0.432719600154087","0.42367050005123","1","1","1","1","1","1","1","1","1"
"260042","img/object_images/video_game01.jpg","img/object_images/curtain02.jpg","img/object_images/hand_grip_exerciser01.jpg","1","1","1","1","0","0","0.42367050005123","0.548644499853253","0.53493979992345","1","1","1","1","1","1","1","1","1"
"260042","img/object_images/hand_grip_exerciser01.jpg","img/object_images/video_game01.jpg","img/object_images/knit03.jpg","1","1","1","0","1","1","0.53493979992345","0.42367050005123","0.42988929990679","1","1","1","1","1","1","1","1","1"
"260042","img/object_images/knit03.jpg","img/object_images/hand_grip_exerciser01.jpg",NA,"1","1",NA,"1","0",NA,"0.42988929990679","0.53493979992345",NA,"1","1",NA,"1","1",NA,"1","1",NA
"260042","img/object_images/toilet_paper_dispenser01.jpg",NA,"img/object_images/purse04.jpg","1",NA,"1","1",NA,"1","0.359057300025597",NA,"0.407629700144753","1",NA,"1","1",NA,"1","1",NA,"1"
"260042","img/object_images/purse04.jpg","img/object_images/toilet_paper_dispenser01.jpg","img/object_images/cellphone03.jpg","1","1","1","1","1","0","0.407629700144753","0.359057300025597","0.599478699965402","1","1","1","1","1","1","1","1","1"
"260042","img/object_images/cellphone03.jpg","img/object_images/purse04.jpg","img/object_images/perfume02.jpg","1","1","1","0","1","0","0.599478699965402","0.407629700144753","0.482372999889776","1","1","1","1","1","1","1","1","1"
"260042","img/object_images/perfume02.jpg","img/object_images/cellphone03.jpg","img/object_images/scoreboard01.jpg","1","1","1","0","0","1","0.482372999889776","0.599478699965402","0.380670699989423","1","1","1","1","1","1","1","1","1"
"260042","img/object_images/scoreboard01.jpg","img/object_images/perfume02.jpg","img/object_images/chair03.jpg","1","1","1","1","0","0","0.380670699989423","0.482372999889776","0.563210200052708","1","1","1","1","1","1","1","1","1"
"260042","img/object_images/chair03.jpg","img/object_images/scoreboard01.jpg","img/object_images/hat06.jpg","1","1","1","0","1","0","0.563210200052708","0.380670699989423","0.436337999999523","1","1","1","1","1","1","1","1","1"
"260042","img/object_images/hat06.jpg","img/object_images/chair03.jpg","img/object_images/tool19.jpg","1","1","1","0","0","1","0.436337999999523","0.563210200052708","0.36482400004752","1","1","1","1","1","1","1","1","1"
"260042","img/object_images/tool19.jpg","img/object_images/hat06.jpg","img/object_images/flask01.jpg","1","1","1","1","0","0","0.36482400004752","0.436337999999523","0.50096739991568","1","1","1","1","1","1","1","1","1"
"260042","img/object_images/flask01.jpg","img/object_images/tool19.jpg","img/object_images/bottle09.jpg","1","1","1","0","1","0","0.50096739991568","0.36482400004752","0.515728200087324","1","1","1","1","1","1","1","1","1"
"260042","img/object_images/bottle09.jpg","img/object_images/flask01.jpg","img/object_images/bean_bag02.jpg","1","1","1","0","0","1","0.515728200087324","0.50096739991568","0.492555999895558","1","1","1","1","1","1","1","1","1"
"260042","img/object_images/bean_bag02.jpg","img/object_images/bottle09.jpg","img/object_images/toaster01.jpg","1","1","1","1","0","1","0.492555999895558","0.515728200087324","0.408468399895355","1","1","1","1","1","1","1","1","1"
"260042","img/object_images/toaster01.jpg","img/object_images/bean_bag02.jpg","img/object_images/pen05.jpg","1","1","1","1","1","0","0.408468399895355","0.492555999895558","0.437146299984306","1","1","1","1","1","1","1","1","1"
"260042","img/object_images/pen05.jpg","img/object_images/toaster01.jpg","img/object_images/wagon_cart03.jpg","1","1","1","0","1","1","0.437146299984306","0.408468399895355","0.424749500118196","1","1","1","1","1","1","1","1","1"
"260042","img/object_images/wagon_cart03.jpg","img/object_images/pen05.jpg","img/object_images/dog_leash01.jpg","1","1","0","1","0","0","0.424749500118196","0.437146299984306","0.396254300139844","1","1","1","1","1","1","1","1","1"
"260042","img/object_images/dog_leash01.jpg","img/object_images/wagon_cart03.jpg","img/object_images/camera_lens01.jpg","0","1","1","0","1","1","0.396254300139844","0.424749500118196","0.424274800112471","1","1","1","1","1","1","1","1","1"
"260042","img/object_images/camera_lens01.jpg","img/object_images/dog_leash01.jpg","img/object_images/water_scooter01.jpg","1","0","1","1","0","1","0.424274800112471","0.396254300139844","0.462306099943817","1","1","1","1","1","1","1","1","1"
"260042","img/object_images/water_scooter01.jpg","img/object_images/camera_lens01.jpg","img/object_images/tie02.jpg","1","1","1","1","1","0","0.462306099943817","0.424274800112471","0.555024599889293","1","1","1","1","1","1","1","1","1"
"260042","img/object_images/tie02.jpg","img/object_images/water_scooter01.jpg","img/object_images/boat02.jpg","1","1","1","0","1","1","0.555024599889293","0.462306099943817","0.507459799991921","1","1","1","1","1","1","1","1","1"
"260042","img/object_images/boat02.jpg","img/object_images/tie02.jpg","img/object_images/helmet04.jpg","1","1","1","1","0","1","0.507459799991921","0.555024599889293","0.574552600039169","1","1","1","1","1","1","1","1","1"
"260042","img/object_images/helmet04.jpg","img/object_images/boat02.jpg","img/object_images/boat_toy10.jpg","1","1","1","1","1","0","0.574552600039169","0.507459799991921","0.538952599978074","1","1","1","1","1","1","1","1","1"
"260042","img/object_images/boat_toy10.jpg","img/object_images/helmet04.jpg","img/object_images/hot_air_balloon02.jpg","1","1","1","0","1","0","0.538952599978074","0.574552600039169","0.466837099986151","1","1","1","1","1","1","1","1","1"
"260042","img/object_images/hot_air_balloon02.jpg","img/object_images/boat_toy10.jpg","img/object_images/fan02.jpg","1","1","1","0","0","0","0.466837099986151","0.538952599978074","0.522185300011188","1","1","1","1","1","1","1","1","1"
"260042","img/object_images/fan02.jpg","img/object_images/hot_air_balloon02.jpg","img/object_images/WoodBox01.jpg","1","1","1","0","0","0","0.522185300011188","0.466837099986151","0.512279100017622","1","1","1","1","1","1","1","1","1"
"260042","img/object_images/WoodBox01.jpg","img/object_images/fan02.jpg","img/object_images/piggy_bank01.jpg","1","1","1","0","0","1","0.512279100017622","0.522185300011188","0.364526899997145","1","1","1","1","1","1","1","1","1"
"260042","img/object_images/piggy_bank01.jpg","img/object_images/WoodBox01.jpg","img/object_images/bottle10.jpg","1","1","1","1","0","1","0.364526899997145","0.512279100017622","0.451133999973536","1","1","1","1","1","1","1","1","1"
"260042","img/object_images/bottle10.jpg","img/object_images/piggy_bank01.jpg","img/object_images/bottle02.jpg","1","1","1","1","1","1","0.451133999973536","0.364526899997145","0.435324900085106","1","1","1","1","1","1","1","1","1"
"260042","img/object_images/bottle02.jpg","img/object_images/bottle10.jpg","img/object_images/audio_port01.jpg","1","1","1","1","1","1","0.435324900085106","0.451133999973536","0.426679400028661","1","1","1","1","1","1","1","1","1"
"260042","img/object_images/audio_port01.jpg","img/object_images/bottle02.jpg","img/object_images/shoes07.jpg","1","1","1","1","1","0","0.426679400028661","0.435324900085106","0.386318599805236","1","1","1","1","1","1","1","1","1"
"260042","img/object_images/shoes07.jpg","img/object_images/audio_port01.jpg","img/object_images/coloring_pencil02.jpg","1","1","1","0","1","0","0.386318599805236","0.426679400028661","0.450666200136766","1","1","1","1","1","1","1","1","1"
"260042","img/object_images/coloring_pencil02.jpg","img/object_images/shoes07.jpg","img/object_images/knit01.jpg","1","1","1","0","0","0","0.450666200136766","0.386318599805236","0.380604399833828","1","1","1","1","1","1","1","1","1"
"260042","img/object_images/knit01.jpg","img/object_images/coloring_pencil02.jpg","img/object_images/bicycle01.jpg","1","1","0","0","0","1","0.380604399833828","0.450666200136766","0.286100900033489","1","1","1","1","1","1","1","1","1"
"260042","img/object_images/bicycle01.jpg","img/object_images/knit01.jpg",NA,"0","1",NA,"1","0",NA,"0.286100900033489","0.380604399833828",NA,"1","1",NA,"1","1",NA,"1","1",NA
"260042","img/object_images/dart01.jpg",NA,"img/object_images/judge_gavel01.jpg","1",NA,"1","0",NA,"1","0.480759300058708",NA,"0.340099999913946","1",NA,"1","1",NA,"1","1",NA,"1"
"260042","img/object_images/judge_gavel01.jpg","img/object_images/dart01.jpg","img/object_images/stapler.jpg","1","1","1","1","0","1","0.340099999913946","0.480759300058708","0.443878999911249","1","1","1","1","1","1","1","1","1"
"260042","img/object_images/stapler.jpg","img/object_images/judge_gavel01.jpg","img/object_images/mirror01.jpg","1","1","1","1","1","1","0.443878999911249","0.340099999913946","0.348513500066474","1","1","1","1","1","1","1","1","1"
"260042","img/object_images/mirror01.jpg","img/object_images/stapler.jpg","img/object_images/watch01.jpg","1","1","1","1","1","0","0.348513500066474","0.443878999911249","0.566978600108996","1","1","1","1","1","1","1","1","1"
"260042","img/object_images/watch01.jpg","img/object_images/mirror01.jpg","img/object_images/crown02.jpg","1","1","1","0","1","1","0.566978600108996","0.348513500066474","0.460127400001511","1","1","1","1","1","1","1","1","1"
"260042","img/object_images/crown02.jpg","img/object_images/watch01.jpg","img/object_images/helmet01.jpg","1","1","1","1","0","0","0.460127400001511","0.566978600108996","0.470099900150672","1","1","1","1","1","1","1","1","1"
"260042","img/object_images/helmet01.jpg","img/object_images/crown02.jpg","img/object_images/frisbee01.jpg","1","1","1","0","1","1","0.470099900150672","0.460127400001511","0.420556399971247","1","1","1","1","1","1","1","1","1"
"260042","img/object_images/frisbee01.jpg","img/object_images/helmet01.jpg","img/object_images/bow01.jpg","1","1","1","1","0","1","0.420556399971247","0.470099900150672","0.474261300172657","1","1","1","1","1","1","1","1","1"
"260042","img/object_images/bow01.jpg","img/object_images/frisbee01.jpg","img/object_images/tool02.jpg","1","1","1","1","1","1","0.474261300172657","0.420556399971247","0.479997900081798","1","1","1","1","1","1","1","1","1"
"260042","img/object_images/tool02.jpg","img/object_images/bow01.jpg","img/object_images/towel02.jpg","1","1","1","1","1","1","0.479997900081798","0.474261300172657","0.429713199846447","1","1","1","1","1","1","1","1","1"
"260042","img/object_images/towel02.jpg","img/object_images/tool02.jpg","img/object_images/toy04.jpg","1","1","1","1","1","0","0.429713199846447","0.479997900081798","0.518439499894157","1","1","1","1","1","1","1","1","1"
"260042","img/object_images/toy04.jpg","img/object_images/towel02.jpg","img/object_images/MetalWire01.jpg","1","1","1","0","1","0","0.518439499894157","0.429713199846447","0.391821000026539","1","1","1","1","1","1","1","1","1"
"260042","img/object_images/MetalWire01.jpg","img/object_images/toy04.jpg","img/object_images/bird_house02.jpg","1","1","1","0","0","1","0.391821000026539","0.518439499894157","0.383902200032026","1","1","1","1","1","1","1","1","1"
"260042","img/object_images/bird_house02.jpg","img/object_images/MetalWire01.jpg","img/object_images/gauze01.jpg","1","1","1","1","0","0","0.383902200032026","0.391821000026539","0.467022600118071","1","1","1","1","1","1","1","1","1"
"260042","img/object_images/gauze01.jpg","img/object_images/bird_house02.jpg","img/object_images/sink01.jpg","1","1","1","0","1","0","0.467022600118071","0.383902200032026","0.507874200120568","1","1","1","1","1","1","1","1","1"
"260042","img/object_images/sink01.jpg","img/object_images/gauze01.jpg","img/object_images/shovel03.jpg","1","1","1","0","0","1","0.507874200120568","0.467022600118071","0.37443930003792","1","1","1","1","1","1","1","1","1"
"260042","img/object_images/shovel03.jpg","img/object_images/sink01.jpg","img/object_images/outlet01.jpg","1","1","1","1","0","0","0.37443930003792","0.507874200120568","0.441726800054312","1","1","1","1","1","1","1","1","1"
"260042","img/object_images/outlet01.jpg","img/object_images/shovel03.jpg","img/object_images/Vacuum01.jpg","1","1","1","0","1","0","0.441726800054312","0.37443930003792","0.482856899965554","1","1","1","1","1","1","1","1","1"
"260042","img/object_images/Vacuum01.jpg","img/object_images/outlet01.jpg","img/object_images/video_game07.jpg","1","1","1","0","0","1","0.482856899965554","0.441726800054312","0.4387837999966","1","1","1","1","1","1","1","1","1"
"260042","img/object_images/video_game07.jpg","img/object_images/Vacuum01.jpg","img/object_images/guitar02.jpg","1","1","1","1","0","0","0.4387837999966","0.482856899965554","0.389144900022075","1","1","1","1","1","1","1","1","1"
"260042","img/object_images/guitar02.jpg","img/object_images/video_game07.jpg","img/object_images/pot01 (1).jpg","1","1","1","0","1","0","0.389144900022075","0.4387837999966","0.437079800060019","1","1","1","1","1","1","1","1","1"
"260042","img/object_images/pot01 (1).jpg","img/object_images/guitar02.jpg","img/object_images/bottle05.jpg","1","1","1","0","0","0","0.437079800060019","0.389144900022075","0.535976300016046","1","1","1","1","1","1","1","1","1"
"260042","img/object_images/bottle05.jpg","img/object_images/pot01 (1).jpg","img/object_images/toy03.jpg","1","1","1","0","0","1","0.535976300016046","0.437079800060019","0.484101099893451","1","1","1","1","1","1","1","1","1"
"260042","img/object_images/toy03.jpg","img/object_images/bottle05.jpg","img/object_images/tool09.jpg","1","1","1","1","0","1","0.484101099893451","0.535976300016046","0.448014399968088","1","1","1","1","1","1","1","1","1"
"260042","img/object_images/tool09.jpg","img/object_images/toy03.jpg","img/object_images/Ring02.jpg","1","1","1","1","1","0","0.448014399968088","0.484101099893451","0.421668199822307","1","1","1","1","1","1","1","1","1"
"260042","img/object_images/Ring02.jpg","img/object_images/tool09.jpg","img/object_images/fridge03.jpg","1","1","1","0","1","0","0.421668199822307","0.448014399968088","0.552517800126225","1","1","1","1","1","1","1","1","1"
"260042","img/object_images/fridge03.jpg","img/object_images/Ring02.jpg","img/object_images/acoustic_capo01.jpg","1","1","1","0","0","1","0.552517800126225","0.421668199822307","0.460220499895513","1","1","1","1","1","1","1","1","1"
"260042","img/object_images/acoustic_capo01.jpg","img/object_images/fridge03.jpg","img/object_images/Stool01.jpg","1","1","1","1","0","0","0.460220499895513","0.552517800126225","0.556903599994257","1","1","1","1","1","1","1","1","1"
"260042","img/object_images/Stool01.jpg","img/object_images/acoustic_capo01.jpg","img/object_images/Tin01.jpg","1","1","1","0","1","1","0.556903599994257","0.460220499895513","0.436755700036883","1","1","1","1","1","1","1","1","1"
"260042","img/object_images/Tin01.jpg","img/object_images/Stool01.jpg","img/object_images/jewel04.jpg","1","1","1","1","0","0","0.436755700036883","0.556903599994257","0.482063200091943","1","1","1","1","1","1","1","1","1"
"260042","img/object_images/jewel04.jpg","img/object_images/Tin01.jpg","img/object_images/ornament01.jpg","1","1","1","0","1","1","0.482063200091943","0.436755700036883","0.462584499968216","1","1","1","1","1","1","1","1","1"
"260042","img/object_images/ornament01.jpg","img/object_images/jewel04.jpg",NA,"1","1",NA,"1","0",NA,"0.462584499968216","0.482063200091943",NA,"1","1",NA,"1","1",NA,"1","1",NA
"260042","img/object_images/wallet02.jpg",NA,"img/object_images/Screws01.jpg","1",NA,"1","1",NA,"1","0.425201200181618",NA,"0.446851599961519","1",NA,"1","1",NA,"1","1",NA,"1"
"260042","img/object_images/Screws01.jpg","img/object_images/wallet02.jpg","img/object_images/golf_ball03.jpg","1","1","1","1","1","1","0.446851599961519","0.425201200181618","0.369573200121522","1","1","1","1","1","1","1","1","1"
"260042","img/object_images/golf_ball03.jpg","img/object_images/Screws01.jpg","img/object_images/paper_cup01.jpg","1","1","1","1","1","0","0.369573200121522","0.446851599961519","0.521609700052068","1","1","1","1","1","1","1","1","1"
"260042","img/object_images/paper_cup01.jpg","img/object_images/golf_ball03.jpg","img/object_images/jewelry01.jpg","1","1","1","0","1","1","0.521609700052068","0.369573200121522","0.385765200015158","1","1","1","1","1","1","1","1","1"
"260042","img/object_images/jewelry01.jpg","img/object_images/paper_cup01.jpg","img/object_images/hammer01.jpg","1","1","0","1","0","0","0.385765200015158","0.521609700052068","0.363354800036177","1","1","1","1","1","1","1","1","1"
"260042","img/object_images/hammer01.jpg","img/object_images/jewelry01.jpg","img/object_images/fork03.jpg","0","1","1","0","1","1","0.363354800036177","0.385765200015158","0.383535499917343","1","1","1","1","1","1","1","1","1"
"260042","img/object_images/fork03.jpg","img/object_images/hammer01.jpg","img/object_images/gift_box01.jpg","1","0","1","1","0","1","0.383535499917343","0.363354800036177","0.351860800059512","1","1","1","1","1","1","1","1","1"
"260042","img/object_images/gift_box01.jpg","img/object_images/fork03.jpg","img/object_images/coloring_pencil01.jpg","1","1","1","1","1","1","0.351860800059512","0.383535499917343","0.424727400066331","1","1","1","1","1","1","1","1","1"
"260042","img/object_images/coloring_pencil01.jpg","img/object_images/gift_box01.jpg","img/object_images/pitcher02.jpg","1","1","1","1","1","1","0.424727400066331","0.351860800059512","0.423668599920347","1","1","1","1","1","1","1","1","1"
"260042","img/object_images/pitcher02.jpg","img/object_images/coloring_pencil01.jpg","img/object_images/funnel01.jpg","1","1","1","1","1","0","0.423668599920347","0.424727400066331","0.438734999857843","1","1","1","1","1","1","1","1","1"
"260042","img/object_images/funnel01.jpg","img/object_images/pitcher02.jpg","img/object_images/clip02.jpg","1","1","1","0","1","1","0.438734999857843","0.423668599920347","0.440517099807039","1","1","1","1","1","1","1","1","1"
"260042","img/object_images/clip02.jpg","img/object_images/funnel01.jpg","img/object_images/handkerchief01.jpg","1","1","1","1","0","0","0.440517099807039","0.438734999857843","0.473924499936402","1","1","1","1","1","1","1","1","1"
"260042","img/object_images/handkerchief01.jpg","img/object_images/clip02.jpg","img/object_images/Witchhat01.jpg","1","1","1","0","1","1","0.473924499936402","0.440517099807039","0.433964499970898","1","1","1","1","1","1","1","1","1"
"260042","img/object_images/Witchhat01.jpg","img/object_images/handkerchief01.jpg","img/object_images/bow_tie02.jpg","1","1","1","1","0","0","0.433964499970898","0.473924499936402","0.533821699908003","1","1","1","1","1","1","1","1","1"
"260042","img/object_images/bow_tie02.jpg","img/object_images/Witchhat01.jpg","img/object_images/balloon01.jpg","1","1","0","0","1","0","0.533821699908003","0.433964499970898","0.417994300136343","1","1","1","1","1","1","1","1","2"
"260042","img/object_images/balloon01.jpg","img/object_images/bow_tie02.jpg","img/object_images/ironing_table01.jpg","0","1","1","0","0","0","0.417994300136343","0.533821699908003","0.532555099809542","1","1","1","1","1","1","2","1","1"
"260042","img/object_images/ironing_table01.jpg","img/object_images/balloon01.jpg","img/object_images/dresser04.jpg","1","0","1","0","0","0","0.532555099809542","0.417994300136343","0.517766299890354","1","1","1","1","1","1","1","2","1"
"260042","img/object_images/dresser04.jpg","img/object_images/ironing_table01.jpg","img/object_images/measuring_tape02.jpg","1","1","1","0","0","1","0.517766299890354","0.532555099809542","0.626128599978983","1","1","1","1","1","1","1","1","1"
"260042","img/object_images/measuring_tape02.jpg","img/object_images/dresser04.jpg","img/object_images/lock04.jpg","1","1","1","1","0","1","0.626128599978983","0.517766299890354","0.369534600060433","1","1","1","1","1","1","1","1","1"
"260042","img/object_images/lock04.jpg","img/object_images/measuring_tape02.jpg","img/object_images/gift_box03.jpg","1","1","1","1","1","0","0.369534600060433","0.626128599978983","0.51946510002017","1","1","1","1","1","1","1","1","1"
"260042","img/object_images/gift_box03.jpg","img/object_images/lock04.jpg","img/object_images/lawn_mower01.jpg","1","1","1","0","1","1","0.51946510002017","0.369534600060433","0.484829399967566","1","1","1","1","1","1","1","1","1"
"260042","img/object_images/lawn_mower01.jpg","img/object_images/gift_box03.jpg","img/object_images/vga_port 01.jpg","1","1","1","1","0","0","0.484829399967566","0.51946510002017","0.465776599943638","1","1","1","1","1","1","1","1","1"
"260042","img/object_images/vga_port 01.jpg","img/object_images/lawn_mower01.jpg","img/object_images/grater01.jpg","1","1","1","0","1","1","0.465776599943638","0.484829399967566","0.51558420015499","1","1","1","1","1","1","1","1","1"
"260042","img/object_images/grater01.jpg","img/object_images/vga_port 01.jpg","img/object_images/jacket03.jpg","1","1","1","1","0","0","0.51558420015499","0.465776599943638","0.532784000039101","1","1","1","1","1","1","1","1","1"
"260042","img/object_images/jacket03.jpg","img/object_images/grater01.jpg","img/object_images/couch03.jpg","1","1","1","0","1","0","0.532784000039101","0.51558420015499","0.468922300031409","1","1","1","1","1","1","1","1","1"
"260042","img/object_images/couch03.jpg","img/object_images/jacket03.jpg","img/object_images/socks02.jpg","1","1","1","0","0","0","0.468922300031409","0.532784000039101","0.451361399842426","1","1","1","1","1","1","1","1","1"
"260042","img/object_images/socks02.jpg","img/object_images/couch03.jpg","img/object_images/gift_box02.jpg","1","1","1","0","0","1","0.451361399842426","0.468922300031409","0.348922599805519","1","1","1","1","1","1","1","1","1"
"260042","img/object_images/gift_box02.jpg","img/object_images/socks02.jpg","img/object_images/bath_tub01.jpg","1","1","1","1","0","0","0.348922599805519","0.451361399842426","0.428077999968082","1","1","1","1","1","1","1","1","1"
"260042","img/object_images/bath_tub01.jpg","img/object_images/gift_box02.jpg","img/object_images/bow_tie01.jpg","1","1","1","0","1","0","0.428077999968082","0.348922599805519","0.553539700107649","1","1","1","1","1","1","1","1","1"
"260042","img/object_images/bow_tie01.jpg","img/object_images/bath_tub01.jpg","img/object_images/camera07.jpg","1","1","1","0","0","1","0.553539700107649","0.428077999968082","0.396115399897099","1","1","1","1","1","1","1","1","1"
"260042","img/object_images/camera07.jpg","img/object_images/bow_tie01.jpg","img/object_images/sleeping_bag01.jpg","1","1","0","1","0","0","0.396115399897099","0.553539700107649","0.501433999976143","1","1","1","1","1","1","1","1","1"
"260042","img/object_images/sleeping_bag01.jpg","img/object_images/camera07.jpg",NA,"0","1",NA,"0","1",NA,"0.501433999976143","0.396115399897099",NA,"1","1",NA,"1","1",NA,"1","1",NA
"260042","img/object_images/WitchHat02.jpg",NA,"img/object_images/ice_tray03.jpg","1",NA,"1","1",NA,"1","0.371954299975187",NA,"0.388016000157222","1",NA,"1","1",NA,"1","1",NA,"1"
"260042","img/object_images/ice_tray03.jpg","img/object_images/WitchHat02.jpg","img/object_images/cards01.jpg","1","1","1","1","1","0","0.388016000157222","0.371954299975187","0.755971200065687","1","1","1","1","1","1","1","1","1"
"260042","img/object_images/cards01.jpg","img/object_images/ice_tray03.jpg","img/object_images/binoculars03.jpg","1","1","1","0","1","1","0.755971200065687","0.388016000157222","0.36034859996289","1","1","1","1","1","1","1","1","1"
"260042","img/object_images/binoculars03.jpg","img/object_images/cards01.jpg","img/object_images/rock03.jpg","1","1","1","1","0","0","0.36034859996289","0.755971200065687","0.516022899886593","1","1","1","1","1","1","1","1","1"
"260042","img/object_images/rock03.jpg","img/object_images/binoculars03.jpg","img/object_images/dress03.jpg","1","1","1","0","1","1","0.516022899886593","0.36034859996289","0.422882300103083","1","1","1","1","1","1","1","1","1"
"260042","img/object_images/dress03.jpg","img/object_images/rock03.jpg","img/object_images/fan05.jpg","1","1","0","1","0","0","0.422882300103083","0.516022899886593","0.490667599951848","1","1","1","1","1","1","1","1","2"
"260042","img/object_images/fan05.jpg","img/object_images/dress03.jpg","img/object_images/chair04.jpg","0","1","1","0","1","1","0.490667599951848","0.422882300103083","0.403956399997696","1","1","1","1","1","1","2","1","1"
"260042","img/object_images/chair04.jpg","img/object_images/fan05.jpg","img/object_images/MeasuringCup01.jpg","1","0","1","1","0","1","0.403956399997696","0.490667599951848","0.443353899987414","1","1","1","1","1","1","1","2","1"
"260042","img/object_images/MeasuringCup01.jpg","img/object_images/chair04.jpg","img/object_images/cutting_board01.jpg","1","1","1","1","1","1","0.443353899987414","0.403956399997696","0.307937999954447","1","1","1","1","1","1","1","1","1"
"260042","img/object_images/cutting_board01.jpg","img/object_images/MeasuringCup01.jpg","img/object_images/bag06.jpg","1","1","1","1","1","1","0.307937999954447","0.443353899987414","0.417770399944857","1","1","1","1","1","1","1","1","1"
"260042","img/object_images/bag06.jpg","img/object_images/cutting_board01.jpg","img/object_images/jewel01.jpg","1","1","1","1","1","0","0.417770399944857","0.307937999954447","0.545463900081813","1","1","1","1","1","1","1","1","1"
"260042","img/object_images/jewel01.jpg","img/object_images/bag06.jpg","img/object_images/shoes10.jpg","1","1","1","0","1","0","0.545463900081813","0.417770399944857","0.476417300058529","1","1","1","1","1","1","1","1","1"
"260042","img/object_images/shoes10.jpg","img/object_images/jewel01.jpg","img/object_images/screwdriver01.jpg","1","1","1","0","0","0","0.476417300058529","0.545463900081813","0.508476600050926","1","1","1","1","1","1","1","1","1"
"260042","img/object_images/screwdriver01.jpg","img/object_images/shoes10.jpg","img/object_images/ladle02.jpg","1","1","1","0","0","0","0.508476600050926","0.476417300058529","0.428367299959064","1","1","1","1","1","1","1","1","1"
"260042","img/object_images/ladle02.jpg","img/object_images/screwdriver01.jpg","img/object_images/yarn02.jpg","1","1","1","0","0","0","0.428367299959064","0.508476600050926","0.422132600098848","1","1","1","1","1","1","1","1","1"
"260042","img/object_images/yarn02.jpg","img/object_images/ladle02.jpg","img/object_images/car03.jpg","1","1","1","0","0","0","0.422132600098848","0.428367299959064","0.492071400163695","1","1","1","1","1","1","1","1","1"
"260042","img/object_images/car03.jpg","img/object_images/yarn02.jpg","img/object_images/shower_head03.jpg","1","1","1","0","0","1","0.492071400163695","0.422132600098848","0.34969549998641","1","1","1","1","1","1","1","1","1"
"260042","img/object_images/shower_head03.jpg","img/object_images/car03.jpg","img/object_images/mask01.jpg","1","1","1","1","0","0","0.34969549998641","0.492071400163695","0.462311400100589","1","1","1","1","1","1","1","1","1"
"260042","img/object_images/mask01.jpg","img/object_images/shower_head03.jpg","img/object_images/lemon_squeezer02.jpg","1","1","1","0","1","1","0.462311400100589","0.34969549998641","0.40746199991554","1","1","1","1","1","1","1","1","1"
"260042","img/object_images/lemon_squeezer02.jpg","img/object_images/mask01.jpg","img/object_images/slinky_toy01.jpg","1","1","1","1","0","1","0.40746199991554","0.462311400100589","0.500959800090641","1","1","1","1","1","1","1","1","1"
"260042","img/object_images/slinky_toy01.jpg","img/object_images/lemon_squeezer02.jpg","img/object_images/key02.jpg","1","1","1","1","1","1","0.500959800090641","0.40746199991554","0.468881299952045","1","1","1","1","1","1","1","1","1"
"260042","img/object_images/key02.jpg","img/object_images/slinky_toy01.jpg","img/object_images/satellite01.jpg","1","1","1","1","1","0","0.468881299952045","0.500959800090641","0.500672499882057","1","1","1","1","1","1","1","1","1"
"260042","img/object_images/satellite01.jpg","img/object_images/key02.jpg","img/object_images/car04.jpg","1","1","1","0","1","0","0.500672499882057","0.468881299952045","0.439715099986643","1","1","1","1","1","1","1","1","1"
"260042","img/object_images/car04.jpg","img/object_images/satellite01.jpg","img/object_images/tv01.jpg","1","1","1","0","0","0","0.439715099986643","0.500672499882057","0.446025300072506","1","1","1","1","1","1","1","1","1"
"260042","img/object_images/tv01.jpg","img/object_images/car04.jpg","img/object_images/belt01.jpg","1","1","1","0","0","0","0.446025300072506","0.439715099986643","0.405865400098264","1","1","1","1","1","1","1","1","1"
"260042","img/object_images/belt01.jpg","img/object_images/tv01.jpg","img/object_images/ribbon01.jpg","1","1","1","0","0","0","0.405865400098264","0.446025300072506","0.488763600122184","1","1","1","1","1","1","1","1","1"
"260042","img/object_images/ribbon01.jpg","img/object_images/belt01.jpg","img/object_images/razor01.jpg","1","1","1","0","0","0","0.488763600122184","0.405865400098264","0.587236599996686","1","1","1","1","1","1","1","1","1"
"260042","img/object_images/razor01.jpg","img/object_images/ribbon01.jpg","img/object_images/jewelry07.jpg","1","1","1","0","0","1","0.587236599996686","0.488763600122184","0.435470200143754","1","1","1","1","1","1","1","1","1"
"260042","img/object_images/jewelry07.jpg","img/object_images/razor01.jpg","img/object_images/toaster02.jpg","1","1","1","1","0","1","0.435470200143754","0.587236599996686","0.441846799803898","1","1","1","1","1","1","1","1","1"
"260042","img/object_images/toaster02.jpg","img/object_images/jewelry07.jpg","img/object_images/hair_brush05.jpg","1","1","1","1","1","1","0.441846799803898","0.435470200143754","0.464843199821189","1","1","1","1","1","1","1","1","1"
"260042","img/object_images/hair_brush05.jpg","img/object_images/toaster02.jpg","img/object_images/tool11.jpg","1","1","1","1","1","1","0.464843199821189","0.441846799803898","0.456196599872783","1","1","1","1","1","1","1","1","1"
"260042","img/object_images/tool11.jpg","img/object_images/hair_brush05.jpg",NA,"1","1",NA,"1","1",NA,"0.456196599872783","0.464843199821189",NA,"1","1",NA,"1","1",NA,"1","1",NA
"260042","img/object_images/soap01.jpg",NA,"img/object_images/airfryer01.jpg","1",NA,"0","0",NA,"0","0.518866900121793",NA,NA,"1",NA,"0","1",NA,"0","1",NA,"0"
"260042","img/object_images/airfryer01.jpg","img/object_images/soap01.jpg","img/object_images/lantern01.jpg","0","1","0","0","0","1",NA,"0.518866900121793",NA,"0","1","0","0","1","0","0","1","0"
"260042","img/object_images/lantern01.jpg","img/object_images/airfryer01.jpg","img/object_images/couch04.jpg","0","0","1","1","0","1",NA,NA,"0.419473699992523","0","0","1","0","0","1","0","0","1"
"260042","img/object_images/couch04.jpg","img/object_images/lantern01.jpg","img/object_images/cochlear_implant01.jpg","1","0","0","1","1","0","0.419473699992523",NA,NA,"1","0","0","1","0","0","1","0","0"
"260042","img/object_images/cochlear_implant01.jpg","img/object_images/couch04.jpg","img/object_images/pot01.jpg","0","1","0","0","1","0",NA,"0.419473699992523",NA,"0","1","0","0","1","0","0","1","0"
"260042","img/object_images/pot01.jpg","img/object_images/cochlear_implant01.jpg","img/object_images/razor03.jpg","0","0","0","0","0","0",NA,NA,"0.507780800107867","0","0","1","0","0","1","0","0","1"
"260042","img/object_images/razor03.jpg","img/object_images/pot01.jpg","img/object_images/hat02.jpg","0","0","1","0","0","0","0.507780800107867",NA,"0.474254499888048","1","0","1","1","0","1","1","0","1"
"260042","img/object_images/hat02.jpg","img/object_images/razor03.jpg","img/object_images/drone02.jpg","1","0","0","0","0","0","0.474254499888048","0.507780800107867",NA,"1","1","0","1","1","0","1","1","0"
"260042","img/object_images/drone02.jpg","img/object_images/hat02.jpg","img/object_images/gloves05.jpg","0","1","1","0","0","1",NA,"0.474254499888048","0.470357500016689","0","1","1","0","1","1","0","1","1"
"260042","img/object_images/gloves05.jpg","img/object_images/drone02.jpg","img/object_images/chair01.jpg","1","0","0","1","0","0","0.470357500016689",NA,NA,"1","0","0","1","0","0","1","0","0"
"260042","img/object_images/chair01.jpg","img/object_images/gloves05.jpg","img/object_images/helmet05.jpg","0","1","0","0","1","1",NA,"0.470357500016689",NA,"0","1","0","0","1","0","0","1","0"
"260042","img/object_images/helmet05.jpg","img/object_images/chair01.jpg","img/object_images/brief_case01.jpg","0","0","1","1","0","0",NA,NA,"0.512492399895564","0","0","1","0","0","1","0","0","1"
"260042","img/object_images/brief_case01.jpg","img/object_images/helmet05.jpg","img/object_images/Wisk01.jpg","1","0","0","0","1","1","0.512492399895564",NA,NA,"1","0","0","1","0","0","1","0","0"
"260042","img/object_images/Wisk01.jpg","img/object_images/brief_case01.jpg","img/object_images/tie01.jpg","0","1","1","1","0","0",NA,"0.512492399895564","0.465507599990815","0","1","1","0","1","1","0","1","1"
"260042","img/object_images/tie01.jpg","img/object_images/Wisk01.jpg","img/object_images/guitar01.jpg","1","0","0","0","1","1","0.465507599990815",NA,NA,"1","0","0","1","0","0","1","0","0"
"260042","img/object_images/guitar01.jpg","img/object_images/tie01.jpg","img/object_images/basketball_hoop02.jpg","0","1","0","1","0","0",NA,"0.465507599990815",NA,"0","1","0","0","1","0","0","1","0"
"260042","img/object_images/basketball_hoop02.jpg","img/object_images/guitar01.jpg","img/object_images/decorative02.jpg","0","0","0","0","1","0",NA,NA,NA,"0","0","0","0","0","0","0","0","0"
"260042","img/object_images/decorative02.jpg","img/object_images/basketball_hoop02.jpg","img/object_images/lamp01.jpg","0","0","1","0","0","1",NA,NA,"0.447720300173387","0","0","1","0","0","1","0","0","1"
"260042","img/object_images/lamp01.jpg","img/object_images/decorative02.jpg","img/object_images/toy_train02.jpg","1","0","1","1","0","1","0.447720300173387",NA,"0.448865400161594","1","0","1","1","0","1","1","0","1"
"260042","img/object_images/toy_train02.jpg","img/object_images/lamp01.jpg","img/object_images/ironing_table02.jpg","1","1","1","1","1","0","0.448865400161594","0.447720300173387","0.647284399950877","1","1","1","1","1","1","1","1","1"
"260042","img/object_images/ironing_table02.jpg","img/object_images/toy_train02.jpg","img/object_images/toilet_paper01.jpg","1","1","1","0","1","1","0.647284399950877","0.448865400161594","0.389082999899983","1","1","1","1","1","1","1","1","1"
"260042","img/object_images/toilet_paper01.jpg","img/object_images/ironing_table02.jpg","img/object_images/container01.jpg","1","1","1","1","0","0","0.389082999899983","0.647284399950877","0.532634800067171","1","1","1","1","1","1","1","1","1"
"260042","img/object_images/container01.jpg","img/object_images/toilet_paper01.jpg","img/object_images/pitcher03.jpg","1","1","0","0","1","1","0.532634800067171","0.389082999899983",NA,"1","1","0","1","1","0","1","1","0"
"260042","img/object_images/pitcher03.jpg","img/object_images/container01.jpg","img/object_images/broom01.jpg","0","1","1","1","0","1",NA,"0.532634800067171","0.586165300104767","0","1","1","0","1","1","0","1","1"
"260042","img/object_images/broom01.jpg","img/object_images/pitcher03.jpg","img/object_images/video_game06.jpg","1","0","0","1","1","0","0.586165300104767",NA,NA,"1","0","0","1","0","0","1","0","0"
"260042","img/object_images/video_game06.jpg","img/object_images/broom01.jpg","img/object_images/Woopie01.jpg","0","1","0","0","1","1",NA,"0.586165300104767",NA,"0","1","0","0","1","0","0","1","0"
"260042","img/object_images/Woopie01.jpg","img/object_images/video_game06.jpg","img/object_images/Recycling01.jpg","0","0","1","1","0","1",NA,NA,"0.441590299829841","0","0","1","0","0","1","0","0","1"
"260042","img/object_images/Recycling01.jpg","img/object_images/Woopie01.jpg","img/object_images/brief_case02.jpg","1","0","1","1","1","1","0.441590299829841",NA,"0.402572799939662","1","0","1","1","0","1","1","0","1"
"260042","img/object_images/brief_case02.jpg","img/object_images/Recycling01.jpg","img/object_images/car02.jpg","1","1","0","1","1","0","0.402572799939662","0.441590299829841","0.495322000002488","1","1","1","1","1","1","1","1","1"
"260042","img/object_images/car02.jpg","img/object_images/brief_case02.jpg","img/object_images/bottle12.jpg","0","1","0","0","1","1","0.495322000002488","0.402572799939662",NA,"1","1","0","1","1","0","1","1","0"
"260042","img/object_images/bottle12.jpg","img/object_images/car02.jpg","img/object_images/ball01.jpg","0","0","0","1","0","1",NA,"0.495322000002488",NA,"0","1","0","0","1","0","0","1","0"
"260042","img/object_images/ball01.jpg","img/object_images/bottle12.jpg",NA,"0","0",NA,"1","1",NA,NA,NA,NA,"0","0",NA,"0","0",NA,"0","0",NA
"260042","img/object_images/trash_can05.jpg",NA,"img/object_images/laptop03.jpg","1",NA,"1","1",NA,"1","0.395700599998236",NA,"0.394121299963444","1",NA,"1","1",NA,"1","1",NA,"1"
"260042","img/object_images/laptop03.jpg","img/object_images/trash_can05.jpg","img/object_images/calculator01.jpg","1","1","1","1","1","1","0.394121299963444","0.395700599998236","0.331928900210187","1","1","1","1","1","1","1","1","1"
"260042","img/object_images/calculator01.jpg","img/object_images/laptop03.jpg","img/object_images/backpack03.jpg","1","1","1","1","1","1","0.331928900210187","0.394121299963444","0.389586499892175","1","1","1","1","1","1","1","1","1"
"260042","img/object_images/backpack03.jpg","img/object_images/calculator01.jpg","img/object_images/chess_piece01.jpg","1","1","1","1","1","0","0.389586499892175","0.331928900210187","0.447294000070542","1","1","1","1","1","1","1","1","1"
"260042","img/object_images/chess_piece01.jpg","img/object_images/backpack03.jpg","img/object_images/helmet02.jpg","1","1","1","0","1","0","0.447294000070542","0.389586499892175","0.460379099939018","1","1","1","1","1","1","1","1","1"
"260042","img/object_images/helmet02.jpg","img/object_images/chess_piece01.jpg","img/object_images/Lint_Roller02.jpg","1","1","1","0","0","0","0.460379099939018","0.447294000070542","0.345548500074074","1","1","1","1","1","1","1","1","1"
"260042","img/object_images/Lint_Roller02.jpg","img/object_images/helmet02.jpg","img/object_images/ball02.jpg","1","1","1","0","0","1","0.345548500074074","0.460379099939018","0.411245199851692","1","1","1","1","1","1","1","1","1"
"260042","img/object_images/ball02.jpg","img/object_images/Lint_Roller02.jpg","img/object_images/trash_can03.jpg","1","1","1","1","0","1","0.411245199851692","0.345548500074074","0.376569099957123","1","1","1","1","1","1","1","1","1"
"260042","img/object_images/trash_can03.jpg","img/object_images/ball02.jpg","img/object_images/hair_brush02.jpg","1","1","1","1","1","0","0.376569099957123","0.411245199851692","0.482924500014633","1","1","1","1","1","1","1","1","1"
"260042","img/object_images/hair_brush02.jpg","img/object_images/trash_can03.jpg","img/object_images/fan04.jpg","1","1","1","0","1","0","0.482924500014633","0.376569099957123","0.422070799861103","1","1","1","1","1","1","1","1","1"
"260042","img/object_images/fan04.jpg","img/object_images/hair_brush02.jpg","img/object_images/robe01.jpg","1","1","1","0","0","1","0.422070799861103","0.482924500014633","0.461214700015262","1","1","1","1","1","1","1","1","1"
"260042","img/object_images/robe01.jpg","img/object_images/fan04.jpg","img/object_images/spatula02.jpg","1","1","1","1","0","1","0.461214700015262","0.422070799861103","0.375996900023893","1","1","1","1","1","1","1","1","1"
"260042","img/object_images/spatula02.jpg","img/object_images/robe01.jpg","img/object_images/microphone03.jpg","1","1","1","1","1","1","0.375996900023893","0.461214700015262","0.424189200159162","1","1","1","1","1","1","1","1","1"
"260042","img/object_images/microphone03.jpg","img/object_images/spatula02.jpg","img/object_images/toy05.jpg","1","1","0","1","1","0","0.424189200159162","0.375996900023893","0.467629000078887","1","1","1","1","1","1","1","1","2"
"260042","img/object_images/toy05.jpg","img/object_images/microphone03.jpg","img/object_images/combs01.jpg","0","1","1","0","1","1","0.467629000078887","0.424189200159162","0.411148899933323","1","1","1","1","1","1","2","1","1"
"260042","img/object_images/combs01.jpg","img/object_images/toy05.jpg","img/object_images/gift_box05.jpg","1","0","1","1","0","0","0.411148899933323","0.467629000078887","0.485189800150692","1","1","1","1","1","1","1","2","1"
"260042","img/object_images/gift_box05.jpg","img/object_images/combs01.jpg","img/object_images/Vest02.jpg","1","1","1","0","1","0","0.485189800150692","0.411148899933323","0.504207900026813","1","1","1","1","1","1","1","1","1"
"260042","img/object_images/Vest02.jpg","img/object_images/gift_box05.jpg","img/object_images/bucket02.jpg","1","1","1","0","0","1","0.504207900026813","0.485189800150692","0.393288499908522","1","1","1","1","1","1","1","1","1"
"260042","img/object_images/bucket02.jpg","img/object_images/Vest02.jpg","img/object_images/stove01.jpg","1","1","1","1","0","0","0.393288499908522","0.504207900026813","0.491306100040674","1","1","1","1","1","1","1","1","1"
"260042","img/object_images/stove01.jpg","img/object_images/bucket02.jpg","img/object_images/hair_dryer01.jpg","1","1","1","0","1","0","0.491306100040674","0.393288499908522","0.473172800149769","1","1","1","1","1","1","1","1","1"
"260042","img/object_images/hair_dryer01.jpg","img/object_images/stove01.jpg","img/object_images/pitcher05.jpg","1","1","0","0","0","0","0.473172800149769","0.491306100040674","0.338827400002629","1","1","1","1","1","1","1","1","1"
"260042","img/object_images/pitcher05.jpg","img/object_images/hair_dryer01.jpg","img/object_images/surf_board01.jpg","0","1","1","0","0","1","0.338827400002629","0.473172800149769","0.473166800104082","1","1","1","1","1","1","1","1","1"
"260042","img/object_images/surf_board01.jpg","img/object_images/pitcher05.jpg","img/object_images/lock01.jpg","1","0","0","1","0","0","0.473166800104082","0.338827400002629","0.353170699905604","1","1","1","1","1","1","1","1","1"
"260042","img/object_images/lock01.jpg","img/object_images/surf_board01.jpg","img/object_images/chair02.jpg","0","1","1","0","1","1","0.353170699905604","0.473166800104082","0.506447999970987","1","1","1","1","1","1","1","1","1"
"260042","img/object_images/chair02.jpg","img/object_images/lock01.jpg","img/object_images/shoes08.jpg","1","0","1","1","0","1","0.506447999970987","0.353170699905604","0.477360900025815","1","1","1","1","1","1","1","1","1"
"260042","img/object_images/shoes08.jpg","img/object_images/chair02.jpg","img/object_images/jewel03.jpg","1","1","1","1","1","1","0.477360900025815","0.506447999970987","0.442105399910361","1","1","1","1","1","1","1","1","1"
"260042","img/object_images/jewel03.jpg","img/object_images/shoes08.jpg","img/object_images/accardion01.jpg","1","1","1","1","1","1","0.442105399910361","0.477360900025815","0.41081460006535","1","1","1","1","1","1","1","1","1"
"260042","img/object_images/accardion01.jpg","img/object_images/jewel03.jpg","img/object_images/towels01.jpg","1","1","0","1","1","0","0.41081460006535","0.442105399910361","0.400323400041088","1","1","1","1","1","1","1","1","1"
"260042","img/object_images/towels01.jpg","img/object_images/accardion01.jpg","img/object_images/laptop01.jpg","0","1","1","0","1","0","0.400323400041088","0.41081460006535","0.571509500034153","1","1","1","1","1","1","1","1","1"
"260042","img/object_images/laptop01.jpg","img/object_images/towels01.jpg","img/object_images/vase01.jpg","1","0","1","0","0","0","0.571509500034153","0.400323400041088","0.545279800193384","1","1","1","1","1","1","1","1","1"
"260042","img/object_images/vase01.jpg","img/object_images/laptop01.jpg","img/object_images/umbrella01.jpg","1","1","1","0","0","0","0.545279800193384","0.571509500034153","0.448422699933872","1","1","1","1","1","1","1","1","1"
"260042","img/object_images/umbrella01.jpg","img/object_images/vase01.jpg",NA,"1","1",NA,"0","0",NA,"0.448422699933872","0.545279800193384",NA,"1","1",NA,"1","1",NA,"1","1",NA
"260042","img/object_images/Kitchen_Towel.jpg",NA,"img/object_images/blanket01.jpg","1",NA,"1","0",NA,"1","0.754885699832812",NA,"1.74410889996216","1",NA,"1","1",NA,"1","1",NA,"1"
"260042","img/object_images/blanket01.jpg","img/object_images/Kitchen_Towel.jpg","img/object_images/faucet01.jpg","1","1","1","1","0","0","1.74410889996216","0.754885699832812","0.502157700015232","1","1","1","1","1","1","1","1","1"
"260042","img/object_images/faucet01.jpg","img/object_images/blanket01.jpg","img/object_images/Traffic Sign 01.jpg","1","1","1","0","1","0","0.502157700015232","1.74410889996216","0.396536499960348","1","1","1","1","1","1","1","1","1"
"260042","img/object_images/Traffic Sign 01.jpg","img/object_images/faucet01.jpg","img/object_images/projector01.jpg","1","1","1","0","0","0","0.396536499960348","0.502157700015232","0.455889800097793","1","1","1","1","1","1","1","1","1"
"260042","img/object_images/projector01.jpg","img/object_images/Traffic Sign 01.jpg","img/object_images/hole_puncher01.jpg","1","1","1","0","0","1","0.455889800097793","0.396536499960348","0.310251099988818","1","1","1","1","1","1","1","1","1"
"260042","img/object_images/hole_puncher01.jpg","img/object_images/projector01.jpg","img/object_images/cellphone02.jpg","1","1","1","1","0","1","0.310251099988818","0.455889800097793","0.410168699920178","1","1","1","1","1","1","1","1","1"
"260042","img/object_images/cellphone02.jpg","img/object_images/hole_puncher01.jpg","img/object_images/jewelry09.jpg","1","1","1","1","1","1","0.410168699920178","0.310251099988818","0.413191600004211","1","1","1","1","1","1","1","1","1"
"260042","img/object_images/jewelry09.jpg","img/object_images/cellphone02.jpg","img/object_images/ring03.jpg","1","1","1","1","1","1","0.413191600004211","0.410168699920178","0.375050599919632","1","1","1","1","1","1","1","1","1"
"260042","img/object_images/ring03.jpg","img/object_images/jewelry09.jpg","img/object_images/exfoliater_brush01.jpg","1","1","0","1","1","0","0.375050599919632","0.413191600004211","0.448508000001311","1","1","1","1","1","1","1","1","2"
"260042","img/object_images/exfoliater_brush01.jpg","img/object_images/ring03.jpg","img/object_images/tool07.jpg","0","1","0","0","1","0","0.448508000001311","0.375050599919632","0.414476000005379","1","1","1","1","1","1","2","1","1"
"260042","img/object_images/tool07.jpg","img/object_images/exfoliater_brush01.jpg","img/object_images/book01.jpg","0","0","1","0","0","1","0.414476000005379","0.448508000001311","0.421380500076339","1","1","1","1","1","1","1","2","1"
"260042","img/object_images/book01.jpg","img/object_images/tool07.jpg","img/object_images/glasses07.jpg","1","0","1","1","0","1","0.421380500076339","0.414476000005379","0.439169899793342","1","1","1","1","1","1","1","1","1"
"260042","img/object_images/glasses07.jpg","img/object_images/book01.jpg","img/object_images/tray01.jpg","1","1","1","1","1","1","0.439169899793342","0.421380500076339","0.411750999977812","1","1","1","1","1","1","1","1","1"
"260042","img/object_images/tray01.jpg","img/object_images/glasses07.jpg","img/object_images/lighter01.jpg","1","1","1","1","1","1","0.411750999977812","0.439169899793342","0.410925100091845","1","1","1","1","1","1","1","1","1"
"260042","img/object_images/lighter01.jpg","img/object_images/tray01.jpg","img/object_images/tool08.jpg","1","1","0","1","1","0","0.410925100091845","0.411750999977812","0.384151000063866","1","1","1","1","1","1","1","1","1"
"260042","img/object_images/tool08.jpg","img/object_images/lighter01.jpg","img/object_images/colander01.jpg","0","1","1","0","1","0","0.384151000063866","0.410925100091845","0.463193299947307","1","1","1","1","1","1","1","1","1"
"260042","img/object_images/colander01.jpg","img/object_images/tool08.jpg","img/object_images/Sprayer01.jpg","1","0","0","0","0","0","0.463193299947307","0.384151000063866","0.388025499880314","1","1","1","1","1","1","1","1","1"
"260042","img/object_images/Sprayer01.jpg","img/object_images/colander01.jpg","img/object_images/hair_clips01.jpg","0","1","1","0","0","1","0.388025499880314","0.463193299947307","0.423312100116163","1","1","1","1","1","1","1","1","1"
"260042","img/object_images/hair_clips01.jpg","img/object_images/Sprayer01.jpg","img/object_images/glasses06.jpg","1","0","1","1","0","1","0.423312100116163","0.388025499880314","0.386860499856994","1","1","1","1","1","1","1","1","1"
"260042","img/object_images/glasses06.jpg","img/object_images/hair_clips01.jpg","img/object_images/speaker01.jpg","1","1","1","1","1","1","0.386860499856994","0.423312100116163","0.418873899849132","1","1","1","1","1","1","1","1","1"
"260042","img/object_images/speaker01.jpg","img/object_images/glasses06.jpg","img/object_images/TrashCan02.jpg","1","1","1","1","1","1","0.418873899849132","0.386860499856994","0.42907499987632","1","1","1","1","1","1","1","1","1"
"260042","img/object_images/TrashCan02.jpg","img/object_images/speaker01.jpg","img/object_images/purse01.jpg","1","1","1","1","1","1","0.42907499987632","0.418873899849132","0.528674799948931","1","1","1","1","1","1","1","1","1"
"260042","img/object_images/purse01.jpg","img/object_images/TrashCan02.jpg","img/object_images/gift_box04.jpg","1","1","1","1","1","0","0.528674799948931","0.42907499987632","0.521099000005051","1","1","1","1","1","1","1","1","1"
"260042","img/object_images/gift_box04.jpg","img/object_images/purse01.jpg","img/object_images/fire_extinguisher01.jpg","1","1","1","0","1","0","0.521099000005051","0.528674799948931","0.439903900027275","1","1","1","1","1","1","1","1","1"
"260042","img/object_images/fire_extinguisher01.jpg","img/object_images/gift_box04.jpg","img/object_images/basket02.jpg","1","1","1","0","0","0","0.439903900027275","0.521099000005051","0.492613600101322","1","1","1","1","1","1","1","1","1"
"260042","img/object_images/basket02.jpg","img/object_images/fire_extinguisher01.jpg","img/object_images/pan01.jpg","1","1","1","0","0","1","0.492613600101322","0.439903900027275","0.491298000095412","1","1","1","1","1","1","1","1","1"
"260042","img/object_images/pan01.jpg","img/object_images/basket02.jpg","img/object_images/Pottery01.jpg","1","1","1","1","0","0","0.491298000095412","0.492613600101322","0.5659862998873","1","1","1","1","1","1","1","1","1"
"260042","img/object_images/Pottery01.jpg","img/object_images/pan01.jpg","img/object_images/bicycle_lock01.jpg","1","1","1","0","1","0","0.5659862998873","0.491298000095412","0.415102300001308","1","1","1","1","1","1","1","1","1"
"260042","img/object_images/bicycle_lock01.jpg","img/object_images/Pottery01.jpg","img/object_images/yo_yo01.jpg","1","1","1","0","0","0","0.415102300001308","0.5659862998873","0.608452999964356","1","1","1","1","1","1","1","1","1"
"260042","img/object_images/yo_yo01.jpg","img/object_images/bicycle_lock01.jpg","img/object_images/handcuffs01.jpg","1","1","1","0","0","0","0.608452999964356","0.415102300001308","0.379503800068051","1","1","1","1","1","1","1","1","1"
"260042","img/object_images/handcuffs01.jpg","img/object_images/yo_yo01.jpg","img/object_images/cup03.jpg","1","1","1","0","0","1","0.379503800068051","0.608452999964356","0.426658500218764","1","1","1","1","1","1","1","1","1"
"260042","img/object_images/cup03.jpg","img/object_images/handcuffs01.jpg",NA,"1","1",NA,"1","0",NA,"0.426658500218764","0.379503800068051",NA,"1","1",NA,"1","1",NA,"1","1",NA
"260042","img/object_images/yoga_mat01.jpg",NA,"img/object_images/joystick03.jpg","0",NA,"1","0",NA,"1","0.714670400135219",NA,"0.371362699894235","1",NA,"1","1",NA,"1","1",NA,"1"
"260042","img/object_images/joystick03.jpg","img/object_images/yoga_mat01.jpg","img/object_images/bookmark01.jpg","1","0","1","1","0","0","0.371362699894235","0.714670400135219","0.514462300110608","1","1","1","1","1","1","1","1","1"
"260042","img/object_images/bookmark01.jpg","img/object_images/joystick03.jpg","img/object_images/trumpet01.jpg","1","1","1","0","1","0","0.514462300110608","0.371362699894235","0.408853499917314","1","1","1","1","1","1","1","1","1"
"260042","img/object_images/trumpet01.jpg","img/object_images/bookmark01.jpg","img/object_images/TreeSlice01.jpg","1","1","1","0","0","1","0.408853499917314","0.514462300110608","0.442754700081423","1","1","1","1","1","1","1","1","1"
"260042","img/object_images/TreeSlice01.jpg","img/object_images/trumpet01.jpg","img/object_images/nut_cracker01.jpg","1","1","1","1","0","1","0.442754700081423","0.408853499917314","0.361633699852973","1","1","1","1","1","1","1","1","1"
"260042","img/object_images/nut_cracker01.jpg","img/object_images/TreeSlice01.jpg","img/object_images/tennis_racket01.jpg","1","1","1","1","1","1","0.361633699852973","0.442754700081423","0.53047199989669","1","1","1","1","1","1","1","1","1"
"260042","img/object_images/tennis_racket01.jpg","img/object_images/nut_cracker01.jpg","img/object_images/pitcher07.jpg","1","1","1","1","1","1","0.53047199989669","0.361633699852973","0.439742900198326","1","1","1","1","1","1","1","1","1"
"260042","img/object_images/pitcher07.jpg","img/object_images/tennis_racket01.jpg","img/object_images/piano03.jpg","1","1","0","1","1","0","0.439742900198326","0.53047199989669","0.383888599928468","1","1","1","1","1","1","1","1","1"
"260042","img/object_images/piano03.jpg","img/object_images/pitcher07.jpg","img/object_images/badminton01.jpg","0","1","1","0","1","1","0.383888599928468","0.439742900198326","0.433087900048122","1","1","1","1","1","1","1","1","1"
"260042","img/object_images/badminton01.jpg","img/object_images/piano03.jpg","img/object_images/phone04.jpg","1","0","1","1","0","1","0.433087900048122","0.383888599928468","0.515664800070226","1","1","1","1","1","1","1","1","1"
"260042","img/object_images/phone04.jpg","img/object_images/badminton01.jpg","img/object_images/Safe01.jpg","1","1","1","1","1","1","0.515664800070226","0.433087900048122","0.4413932999596","1","1","1","1","1","1","1","1","1"
"260042","img/object_images/Safe01.jpg","img/object_images/phone04.jpg","img/object_images/lock03.jpg","1","1","1","1","1","1","0.4413932999596","0.515664800070226","0.409928499953821","1","1","1","1","1","1","1","1","1"
"260042","img/object_images/lock03.jpg","img/object_images/Safe01.jpg","img/object_images/water_gun01.jpg","1","1","1","1","1","1","0.409928499953821","0.4413932999596","0.399332700064406","1","1","1","1","1","1","1","1","1"
"260042","img/object_images/water_gun01.jpg","img/object_images/lock03.jpg","img/object_images/dice01.jpg","1","1","1","1","1","0","0.399332700064406","0.409928499953821","0.517988899955526","1","1","1","1","1","1","1","1","1"
"260042","img/object_images/dice01.jpg","img/object_images/water_gun01.jpg","img/object_images/belt03.jpg","1","1","0","0","1","0","0.517988899955526","0.399332700064406","0.394815299892798","1","1","1","1","1","1","1","1","1"
"260042","img/object_images/belt03.jpg","img/object_images/dice01.jpg","img/object_images/Shoes05.jpg","0","1","1","0","0","0","0.394815299892798","0.517988899955526","0.508598299929872","1","1","1","1","1","1","1","1","1"
"260042","img/object_images/Shoes05.jpg","img/object_images/belt03.jpg","img/object_images/fan01.jpg","1","0","0","0","0","0","0.508598299929872","0.394815299892798","0.406588200014085","1","1","1","1","1","1","1","1","1"
"260042","img/object_images/fan01.jpg","img/object_images/Shoes05.jpg","img/object_images/shovel01.jpg","0","1","0","0","0","0","0.406588200014085","0.508598299929872","0.356741399969906","1","1","1","1","1","1","1","1","1"
"260042","img/object_images/shovel01.jpg","img/object_images/fan01.jpg","img/object_images/origami01.jpg","0","0","1","0","0","1","0.356741399969906","0.406588200014085","0.390188599936664","1","1","1","1","1","1","1","1","1"
"260042","img/object_images/origami01.jpg","img/object_images/shovel01.jpg","img/object_images/scale02.jpg","1","0","1","1","0","0","0.390188599936664","0.356741399969906","0.519028299953789","1","1","1","1","1","1","1","1","1"
"260042","img/object_images/scale02.jpg","img/object_images/origami01.jpg","img/object_images/headset02.jpg","1","1","1","0","1","0","0.519028299953789","0.390188599936664","0.538184799952433","1","1","1","1","1","1","1","1","1"
"260042","img/object_images/headset02.jpg","img/object_images/scale02.jpg","img/object_images/egg_basket01.jpg","1","1","1","0","0","1","0.538184799952433","0.519028299953789","0.408772099995986","1","1","1","1","1","1","1","1","1"
"260042","img/object_images/egg_basket01.jpg","img/object_images/headset02.jpg","img/object_images/bottle06.jpg","1","1","1","1","0","0","0.408772099995986","0.538184799952433","0.383704899810255","1","1","1","1","1","1","1","1","1"
"260042","img/object_images/bottle06.jpg","img/object_images/egg_basket01.jpg","img/object_images/jewel02.jpg","1","1","1","0","1","0","0.383704899810255","0.408772099995986","0.655703899916261","1","1","1","1","1","1","1","1","1"
"260042","img/object_images/jewel02.jpg","img/object_images/bottle06.jpg","img/object_images/helmet03.jpg","1","1","1","0","0","1","0.655703899916261","0.383704899810255","0.425014999927953","1","1","1","1","1","1","1","1","1"
"260042","img/object_images/helmet03.jpg","img/object_images/jewel02.jpg","img/object_images/usb03.jpg","1","1","1","1","0","0","0.425014999927953","0.655703899916261","0.472559000132605","1","1","1","1","1","1","1","1","1"
"260042","img/object_images/usb03.jpg","img/object_images/helmet03.jpg","img/object_images/Eyeliner01.jpg","1","1","1","0","1","1","0.472559000132605","0.425014999927953","0.418302699923515","1","1","1","1","1","1","1","1","1"
"260042","img/object_images/Eyeliner01.jpg","img/object_images/usb03.jpg","img/object_images/frame01.jpg","1","1","1","1","0","1","0.418302699923515","0.472559000132605","0.425695500103757","1","1","1","1","1","1","1","1","1"
"260042","img/object_images/frame01.jpg","img/object_images/Eyeliner01.jpg","img/object_images/note_book02.jpg","1","1","0","1","1","0","0.425695500103757","0.418302699923515","0.398409500019625","1","1","1","1","1","1","1","1","2"
"260042","img/object_images/note_book02.jpg","img/object_images/frame01.jpg","img/object_images/ToolBag01.jpg","0","1","1","0","1","0","0.398409500019625","0.425695500103757","0.452497699996457","1","1","1","1","1","1","2","1","1"
"260042","img/object_images/ToolBag01.jpg","img/object_images/note_book02.jpg","img/object_images/bucket01.jpg","1","0","1","0","0","1","0.452497699996457","0.398409500019625","0.586461500031874","1","1","1","1","1","1","1","2","1"
"260042","img/object_images/bucket01.jpg","img/object_images/ToolBag01.jpg",NA,"1","1",NA,"1","0",NA,"0.586461500031874","0.452497699996457",NA,"1","1",NA,"1","1",NA,"1","1",NA
"260042","img/object_images/egg_slicer01.jpg",NA,"img/object_images/pitcher09.jpg","1",NA,"1","1",NA,"1","0.38903610012494",NA,"0.366777299903333","1",NA,"1","1",NA,"1","1",NA,"1"
"260042","img/object_images/pitcher09.jpg","img/object_images/egg_slicer01.jpg","img/object_images/toothbrush01.jpg","1","1","1","1","1","0","0.366777299903333","0.38903610012494","0.465985600138083","1","1","1","1","1","1","1","1","1"
"260042","img/object_images/toothbrush01.jpg","img/object_images/pitcher09.jpg","img/object_images/shoes12.jpg","1","1","1","0","1","1","0.465985600138083","0.366777299903333","0.344126299954951","1","1","1","1","1","1","1","1","1"
"260042","img/object_images/shoes12.jpg","img/object_images/toothbrush01.jpg","img/object_images/toy01.jpg","1","1","1","1","0","1","0.344126299954951","0.465985600138083","0.412863399833441","1","1","1","1","1","1","1","1","1"
"260042","img/object_images/toy01.jpg","img/object_images/shoes12.jpg","img/object_images/skate_board01.jpg","1","1","1","1","1","0","0.412863399833441","0.344126299954951","0.615255700191483","1","1","1","1","1","1","1","1","1"
"260042","img/object_images/skate_board01.jpg","img/object_images/toy01.jpg","img/object_images/bell03.jpg","1","1","1","0","1","0","0.615255700191483","0.412863399833441","0.422078299801797","1","1","1","1","1","1","1","1","1"
"260042","img/object_images/bell03.jpg","img/object_images/skate_board01.jpg","img/object_images/airfryer02.jpg","1","1","1","0","0","1","0.422078299801797","0.615255700191483","0.429689999902621","1","1","1","1","1","1","1","1","1"
"260042","img/object_images/airfryer02.jpg","img/object_images/bell03.jpg","img/object_images/chair06.jpg","1","1","1","1","0","0","0.429689999902621","0.422078299801797","0.451364699983969","1","1","1","1","1","1","1","1","1"
"260042","img/object_images/chair06.jpg","img/object_images/airfryer02.jpg","img/object_images/box03.jpg","1","1","1","0","1","0","0.451364699983969","0.429689999902621","0.656563200056553","1","1","1","1","1","1","1","1","1"
"260042","img/object_images/box03.jpg","img/object_images/chair06.jpg","img/object_images/Violin01.jpg","1","1","1","0","0","0","0.656563200056553","0.451364699983969","0.472091200063005","1","1","1","1","1","1","1","1","1"
"260042","img/object_images/Violin01.jpg","img/object_images/box03.jpg","img/object_images/pen01.jpg","1","1","0","0","0","0","0.472091200063005","0.656563200056553","0.530395100126043","1","1","1","1","1","1","1","1","1"
"260042","img/object_images/pen01.jpg","img/object_images/Violin01.jpg","img/object_images/computer_mouse01.jpg","0","1","1","0","0","1","0.530395100126043","0.472091200063005","0.450894400011748","1","1","1","1","1","1","1","1","1"
"260042","img/object_images/computer_mouse01.jpg","img/object_images/pen01.jpg","img/object_images/floss02.jpg","1","0","1","1","0","1","0.450894400011748","0.530395100126043","0.405978000024334","1","1","1","1","1","1","1","1","1"
"260042","img/object_images/floss02.jpg","img/object_images/computer_mouse01.jpg","img/object_images/book02.jpg","1","1","1","1","1","1","0.405978000024334","0.450894400011748","0.348771800054237","1","1","1","1","1","1","1","1","1"
"260042","img/object_images/book02.jpg","img/object_images/floss02.jpg","img/object_images/bag_pipes01.jpg","1","1","1","1","1","1","0.348771800054237","0.405978000024334","0.371213000034913","1","1","1","1","1","1","1","1","1"
"260042","img/object_images/bag_pipes01.jpg","img/object_images/book02.jpg","img/object_images/tripod01.jpg","1","1","1","1","1","1","0.371213000034913","0.348771800054237","0.394828099990264","1","1","1","1","1","1","1","1","1"
"260042","img/object_images/tripod01.jpg","img/object_images/bag_pipes01.jpg","img/object_images/mail_box02.jpg","1","1","1","1","1","1","0.394828099990264","0.371213000034913","0.651468999916688","1","1","1","1","1","1","1","1","1"
"260042","img/object_images/mail_box02.jpg","img/object_images/tripod01.jpg","img/object_images/hair_brush01.jpg","1","1","1","1","1","1","0.651468999916688","0.394828099990264","0.397287799976766","1","1","1","1","1","1","1","1","1"
"260042","img/object_images/hair_brush01.jpg","img/object_images/mail_box02.jpg","img/object_images/fork02.jpg","1","1","1","1","1","0","0.397287799976766","0.651468999916688","0.332465199986473","1","1","1","1","1","1","1","1","1"
"260042","img/object_images/fork02.jpg","img/object_images/hair_brush01.jpg","img/object_images/clip04.jpg","1","1","1","0","1","1","0.332465199986473","0.397287799976766","0.37455639988184","1","1","1","1","1","1","1","1","1"
"260042","img/object_images/clip04.jpg","img/object_images/fork02.jpg","img/object_images/Trowel01.jpg","1","1","1","1","0","0","0.37455639988184","0.332465199986473","0.556312299799174","1","1","1","1","1","1","1","1","1"
"260042","img/object_images/Trowel01.jpg","img/object_images/clip04.jpg","img/object_images/video_game03.jpg","1","1","1","0","1","1","0.556312299799174","0.37455639988184","0.378506399923936","1","1","1","1","1","1","1","1","1"
"260042","img/object_images/video_game03.jpg","img/object_images/Trowel01.jpg","img/object_images/scarf01.jpg","1","1","1","1","0","1","0.378506399923936","0.556312299799174","0.431942200055346","1","1","1","1","1","1","1","1","1"
"260042","img/object_images/scarf01.jpg","img/object_images/video_game03.jpg","img/object_images/couch01.jpg","1","1","1","1","1","0","0.431942200055346","0.378506399923936","0.477816900005564","1","1","1","1","1","1","1","1","1"
"260042","img/object_images/couch01.jpg","img/object_images/scarf01.jpg","img/object_images/soap03.jpg","1","1","1","0","1","0","0.477816900005564","0.431942200055346","0.431253500049934","1","1","1","1","1","1","1","1","1"
"260042","img/object_images/soap03.jpg","img/object_images/couch01.jpg","img/object_images/drone01.jpg","1","1","1","0","0","1","0.431253500049934","0.477816900005564","0.410706000169739","1","1","1","1","1","1","1","1","1"
"260042","img/object_images/drone01.jpg","img/object_images/soap03.jpg","img/object_images/rock02.jpg","1","1","1","1","0","0","0.410706000169739","0.431253500049934","0.39059769990854","1","1","1","1","1","1","1","1","1"
"260042","img/object_images/rock02.jpg","img/object_images/drone01.jpg","img/object_images/blender01.jpg","1","1","1","0","1","0","0.39059769990854","0.410706000169739","0.595346899935976","1","1","1","1","1","1","1","1","1"
"260042","img/object_images/blender01.jpg","img/object_images/rock02.jpg","img/object_images/computer_mouse02.jpg","1","1","1","0","0","0","0.595346899935976","0.39059769990854","0.500688399886712","1","1","1","1","1","1","1","1","1"
"260042","img/object_images/computer_mouse02.jpg","img/object_images/blender01.jpg","img/object_images/chain01.jpg","1","1","1","0","0","0","0.500688399886712","0.595346899935976","0.417812400031835","1","1","1","1","1","1","1","1","1"
"260042","img/object_images/chain01.jpg","img/object_images/computer_mouse02.jpg","img/object_images/tool06.jpg","1","1","1","0","0","0","0.417812400031835","0.500688399886712","0.533919899957255","1","1","1","1","1","1","1","1","1"
"260042","img/object_images/tool06.jpg","img/object_images/chain01.jpg",NA,"1","1",NA,"0","0",NA,"0.533919899957255","0.417812400031835",NA,"1","1",NA,"1","1",NA,"1","1",NA
