"participant_id","current_trial_object","pre_trial_object","post_trial_object","current_trial_accuracy","pre_trial_accuracy","post_trial_accuracy","current_trial_congruency","pre_trial_congruency","post_trial_congruency","current_trial_rt","pre_trial_rt","post_trial_rt","current_trial_responded","pre_trial_responded","post_trial_responded","current_trial_legitResponse","pre_trial_legitResponse","post_trial_legitResponse","current_trial_resp_nums","pre_trial_resp_nums","post_trial_resp_nums"
"260023","img/object_images/flask01.jpg",NA,"img/object_images/chair03.jpg","1",NA,"1","0",NA,"0","0.771791700040922",NA,"0.485692400019616","1",NA,"1","1",NA,"1","1",NA,"1"
"260023","img/object_images/chair03.jpg","img/object_images/flask01.jpg","img/object_images/boat02.jpg","1","1","1","0","0","1","0.485692400019616","0.771791700040922","0.415231100050732","1","1","1","1","1","1","1","1","1"
"260023","img/object_images/boat02.jpg","img/object_images/chair03.jpg","img/object_images/hat06.jpg","1","1","1","1","0","0","0.415231100050732","0.485692400019616","0.445969399996102","1","1","1","1","1","1","1","1","1"
"260023","img/object_images/hat06.jpg","img/object_images/boat02.jpg","img/object_images/bicycle01.jpg","1","1","1","0","1","1","0.445969399996102","0.415231100050732","0.553078199969605","1","1","1","1","1","1","1","1","1"
"260023","img/object_images/bicycle01.jpg","img/object_images/hat06.jpg","img/object_images/WoodBox01.jpg","1","1","1","1","0","0","0.553078199969605","0.445969399996102","0.758609100012109","1","1","1","1","1","1","1","1","1"
"260023","img/object_images/WoodBox01.jpg","img/object_images/bicycle01.jpg","img/object_images/fan02.jpg","1","1","1","0","1","0","0.758609100012109","0.553078199969605","0.617866799933836","1","1","1","1","1","1","1","1","1"
"260023","img/object_images/fan02.jpg","img/object_images/WoodBox01.jpg","img/object_images/toilet_paper_dispenser01.jpg","1","1","1","0","0","1","0.617866799933836","0.758609100012109","0.500596400001086","1","1","1","1","1","1","1","1","1"
"260023","img/object_images/toilet_paper_dispenser01.jpg","img/object_images/fan02.jpg","img/object_images/audio_port01.jpg","1","1","1","1","0","1","0.500596400001086","0.617866799933836","0.50950849999208","1","1","1","1","1","1","1","1","1"
"260023","img/object_images/audio_port01.jpg","img/object_images/toilet_paper_dispenser01.jpg","img/object_images/perfume02.jpg","1","1","1","1","1","0","0.50950849999208","0.500596400001086","0.626328699989244","1","1","1","1","1","1","1","1","1"
"260023","img/object_images/perfume02.jpg","img/object_images/audio_port01.jpg","img/object_images/wagon_cart03.jpg","1","1","1","0","1","1","0.626328699989244","0.50950849999208","0.548498900025152","1","1","1","1","1","1","1","1","1"
"260023","img/object_images/wagon_cart03.jpg","img/object_images/perfume02.jpg","img/object_images/bean_bag02.jpg","1","1","1","1","0","1","0.548498900025152","0.626328699989244","0.509697000030428","1","1","1","1","1","1","1","1","1"
"260023","img/object_images/bean_bag02.jpg","img/object_images/wagon_cart03.jpg","img/object_images/bottle09.jpg","1","1","1","1","1","0","0.509697000030428","0.548498900025152","0.591582900029607","1","1","1","1","1","1","1","1","1"
"260023","img/object_images/bottle09.jpg","img/object_images/bean_bag02.jpg","img/object_images/cellphone03.jpg","1","1","1","0","1","0","0.591582900029607","0.509697000030428","0.654990499955602","1","1","1","1","1","1","1","1","1"
"260023","img/object_images/cellphone03.jpg","img/object_images/bottle09.jpg","img/object_images/scoreboard01.jpg","1","1","1","0","0","1","0.654990499955602","0.591582900029607","0.567608900018968","1","1","1","1","1","1","1","1","1"
"260023","img/object_images/scoreboard01.jpg","img/object_images/cellphone03.jpg","img/object_images/toaster01.jpg","1","1","1","1","0","1","0.567608900018968","0.654990499955602","0.645376399974339","1","1","1","1","1","1","1","1","1"
"260023","img/object_images/toaster01.jpg","img/object_images/scoreboard01.jpg","img/object_images/hot_air_balloon02.jpg","1","1","1","1","1","0","0.645376399974339","0.567608900018968","0.566900399979204","1","1","1","1","1","1","1","1","1"
"260023","img/object_images/hot_air_balloon02.jpg","img/object_images/toaster01.jpg","img/object_images/bottle02.jpg","1","1","1","0","1","1","0.566900399979204","0.645376399974339","0.54156109993346","1","1","1","1","1","1","1","1","1"
"260023","img/object_images/bottle02.jpg","img/object_images/hot_air_balloon02.jpg","img/object_images/camera_lens01.jpg","1","1","1","1","0","1","0.54156109993346","0.566900399979204","0.504458099952899","1","1","1","1","1","1","1","1","1"
"260023","img/object_images/camera_lens01.jpg","img/object_images/bottle02.jpg","img/object_images/boat_toy10.jpg","1","1","1","1","1","0","0.504458099952899","0.54156109993346","0.569536899914965","1","1","1","1","1","1","1","1","1"
"260023","img/object_images/boat_toy10.jpg","img/object_images/camera_lens01.jpg","img/object_images/pen05.jpg","1","1","1","0","1","0","0.569536899914965","0.504458099952899","0.844696799991652","1","1","1","1","1","1","1","1","1"
"260023","img/object_images/pen05.jpg","img/object_images/boat_toy10.jpg","img/object_images/water_scooter01.jpg","1","1","1","0","0","1","0.844696799991652","0.569536899914965","0.531780799967237","1","1","1","1","1","1","1","1","1"
"260023","img/object_images/water_scooter01.jpg","img/object_images/pen05.jpg","img/object_images/tie02.jpg","1","1","1","1","0","0","0.531780799967237","0.844696799991652","0.583857100107707","1","1","1","1","1","1","1","1","1"
"260023","img/object_images/tie02.jpg","img/object_images/water_scooter01.jpg","img/object_images/purse04.jpg","1","1","1","0","1","1","0.583857100107707","0.531780799967237","0.492915600072592","1","1","1","1","1","1","1","1","1"
"260023","img/object_images/purse04.jpg","img/object_images/tie02.jpg","img/object_images/helmet04.jpg","1","1","1","1","0","1","0.492915600072592","0.583857100107707","0.750893299933523","1","1","1","1","1","1","1","1","1"
"260023","img/object_images/helmet04.jpg","img/object_images/purse04.jpg","img/object_images/coloring_pencil02.jpg","1","1","1","1","1","0","0.750893299933523","0.492915600072592","0.616192799992859","1","1","1","1","1","1","1","1","1"
"260023","img/object_images/coloring_pencil02.jpg","img/object_images/helmet04.jpg","img/object_images/bottle10.jpg","1","1","1","0","1","1","0.616192799992859","0.750893299933523","0.46507679997012","1","1","1","1","1","1","1","1","1"
"260023","img/object_images/bottle10.jpg","img/object_images/coloring_pencil02.jpg","img/object_images/tool19.jpg","1","1","1","1","0","1","0.46507679997012","0.616192799992859","0.494511900003999","1","1","1","1","1","1","1","1","1"
"260023","img/object_images/tool19.jpg","img/object_images/bottle10.jpg","img/object_images/knit01.jpg","1","1","1","1","1","0","0.494511900003999","0.46507679997012","0.706647500046529","1","1","1","1","1","1","1","1","1"
"260023","img/object_images/knit01.jpg","img/object_images/tool19.jpg","img/object_images/piggy_bank01.jpg","1","1","1","0","1","1","0.706647500046529","0.494511900003999","0.490450099925511","1","1","1","1","1","1","1","1","1"
"260023","img/object_images/piggy_bank01.jpg","img/object_images/knit01.jpg","img/object_images/shoes07.jpg","1","1","1","1","0","0","0.490450099925511","0.706647500046529","0.533156799967401","1","1","1","1","1","1","1","1","1"
"260023","img/object_images/shoes07.jpg","img/object_images/piggy_bank01.jpg","img/object_images/dog_leash01.jpg","1","1","1","0","1","0","0.533156799967401","0.490450099925511","0.581757300067693","1","1","1","1","1","1","1","1","1"
"260023","img/object_images/dog_leash01.jpg","img/object_images/shoes07.jpg",NA,"1","1",NA,"0","0",NA,"0.581757300067693","0.533156799967401",NA,"1","1",NA,"1","1",NA,"1","1",NA
"260023","img/object_images/belt03.jpg",NA,"img/object_images/jewel02.jpg","1",NA,"1","0",NA,"0","0.537832499947399",NA,"0.579012500005774","1",NA,"1","1",NA,"1","1",NA,"1"
"260023","img/object_images/jewel02.jpg","img/object_images/belt03.jpg","img/object_images/pitcher07.jpg","1","1","1","0","0","1","0.579012500005774","0.537832499947399","0.362688099965453","1","1","1","1","1","1","1","1","1"
"260023","img/object_images/pitcher07.jpg","img/object_images/jewel02.jpg","img/object_images/fan01.jpg","1","1","1","1","0","0","0.362688099965453","0.579012500005774","0.472559600020759","1","1","1","1","1","1","1","1","1"
"260023","img/object_images/fan01.jpg","img/object_images/pitcher07.jpg","img/object_images/water_gun01.jpg","1","1","1","0","1","1","0.472559600020759","0.362688099965453","0.409593000076711","1","1","1","1","1","1","1","1","1"
"260023","img/object_images/water_gun01.jpg","img/object_images/fan01.jpg","img/object_images/phone04.jpg","1","1","1","1","0","1","0.409593000076711","0.472559600020759","0.400772000080906","1","1","1","1","1","1","1","1","1"
"260023","img/object_images/phone04.jpg","img/object_images/water_gun01.jpg","img/object_images/yoga_mat01.jpg","1","1","1","1","1","0","0.400772000080906","0.409593000076711","0.431685399962589","1","1","1","1","1","1","1","1","1"
"260023","img/object_images/yoga_mat01.jpg","img/object_images/phone04.jpg","img/object_images/badminton01.jpg","1","1","1","0","1","1","0.431685399962589","0.400772000080906","0.496275800047442","1","1","1","1","1","1","1","1","1"
"260023","img/object_images/badminton01.jpg","img/object_images/yoga_mat01.jpg","img/object_images/helmet03.jpg","1","1","1","1","0","1","0.496275800047442","0.431685399962589","0.437987599987537","1","1","1","1","1","1","1","1","1"
"260023","img/object_images/helmet03.jpg","img/object_images/badminton01.jpg","img/object_images/headset02.jpg","1","1","1","1","1","0","0.437987599987537","0.496275800047442","0.567753799958155","1","1","1","1","1","1","1","1","1"
"260023","img/object_images/headset02.jpg","img/object_images/helmet03.jpg","img/object_images/Eyeliner01.jpg","1","1","1","0","1","1","0.567753799958155","0.437987599987537","0.402093999902718","1","1","1","1","1","1","1","1","1"
"260023","img/object_images/Eyeliner01.jpg","img/object_images/headset02.jpg","img/object_images/origami01.jpg","1","1","1","1","0","1","0.402093999902718","0.567753799958155","0.369400099967606","1","1","1","1","1","1","1","1","1"
"260023","img/object_images/origami01.jpg","img/object_images/Eyeliner01.jpg","img/object_images/tennis_racket01.jpg","1","1","1","1","1","1","0.369400099967606","0.402093999902718","0.404023999930359","1","1","1","1","1","1","1","1","1"
"260023","img/object_images/tennis_racket01.jpg","img/object_images/origami01.jpg","img/object_images/trumpet01.jpg","1","1","1","1","1","0","0.404023999930359","0.369400099967606","0.416717299958691","1","1","1","1","1","1","1","1","1"
"260023","img/object_images/trumpet01.jpg","img/object_images/tennis_racket01.jpg","img/object_images/joystick03.jpg","1","1","1","0","1","1","0.416717299958691","0.404023999930359","0.53194410004653","1","1","1","1","1","1","1","1","1"
"260023","img/object_images/joystick03.jpg","img/object_images/trumpet01.jpg","img/object_images/usb03.jpg","1","1","1","1","0","0","0.53194410004653","0.416717299958691","0.551917500095442","1","1","1","1","1","1","1","1","1"
"260023","img/object_images/usb03.jpg","img/object_images/joystick03.jpg","img/object_images/egg_basket01.jpg","1","1","1","0","1","1","0.551917500095442","0.53194410004653","0.567108399933204","1","1","1","1","1","1","1","1","1"
"260023","img/object_images/egg_basket01.jpg","img/object_images/usb03.jpg","img/object_images/nut_cracker01.jpg","1","1","1","1","0","1","0.567108399933204","0.551917500095442","0.478887500008568","1","1","1","1","1","1","1","1","1"
"260023","img/object_images/nut_cracker01.jpg","img/object_images/egg_basket01.jpg","img/object_images/Shoes05.jpg","1","1","1","1","1","0","0.478887500008568","0.567108399933204","0.673603600007482","1","1","1","1","1","1","1","1","1"
"260023","img/object_images/Shoes05.jpg","img/object_images/nut_cracker01.jpg","img/object_images/piano03.jpg","1","1","1","0","1","0","0.673603600007482","0.478887500008568","0.475953299901448","1","1","1","1","1","1","1","1","1"
"260023","img/object_images/piano03.jpg","img/object_images/Shoes05.jpg","img/object_images/lock03.jpg","1","1","1","0","0","1","0.475953299901448","0.673603600007482","0.483569800038822","1","1","1","1","1","1","1","1","1"
"260023","img/object_images/lock03.jpg","img/object_images/piano03.jpg","img/object_images/dice01.jpg","1","1","1","1","0","0","0.483569800038822","0.475953299901448","0.656161900027655","1","1","1","1","1","1","1","1","1"
"260023","img/object_images/dice01.jpg","img/object_images/lock03.jpg","img/object_images/ToolBag01.jpg","1","1","1","0","1","0","0.656161900027655","0.483569800038822","0.531111199990846","1","1","1","1","1","1","1","1","1"
"260023","img/object_images/ToolBag01.jpg","img/object_images/dice01.jpg","img/object_images/frame01.jpg","1","1","1","0","0","1","0.531111199990846","0.656161900027655","0.407764000003226","1","1","1","1","1","1","1","1","1"
"260023","img/object_images/frame01.jpg","img/object_images/ToolBag01.jpg","img/object_images/Safe01.jpg","1","1","1","1","0","1","0.407764000003226","0.531111199990846","0.430564999929629","1","1","1","1","1","1","1","1","1"
"260023","img/object_images/Safe01.jpg","img/object_images/frame01.jpg","img/object_images/TreeSlice01.jpg","1","1","1","1","1","1","0.430564999929629","0.407764000003226","0.451552699902095","1","1","1","1","1","1","1","1","1"
"260023","img/object_images/TreeSlice01.jpg","img/object_images/Safe01.jpg","img/object_images/shovel01.jpg","1","1","1","1","1","0","0.451552699902095","0.430564999929629","0.554578199982643","1","1","1","1","1","1","1","1","1"
"260023","img/object_images/shovel01.jpg","img/object_images/TreeSlice01.jpg","img/object_images/bucket01.jpg","1","1","1","0","1","1","0.554578199982643","0.451552699902095","0.40412490000017","1","1","1","1","1","1","1","1","1"
"260023","img/object_images/bucket01.jpg","img/object_images/shovel01.jpg","img/object_images/bottle06.jpg","1","1","1","1","0","0","0.40412490000017","0.554578199982643","0.554671199992299","1","1","1","1","1","1","1","1","1"
"260023","img/object_images/bottle06.jpg","img/object_images/bucket01.jpg","img/object_images/bookmark01.jpg","1","1","1","0","1","0","0.554671199992299","0.40412490000017","0.516246099956334","1","1","1","1","1","1","1","1","1"
"260023","img/object_images/bookmark01.jpg","img/object_images/bottle06.jpg","img/object_images/scale02.jpg","1","1","1","0","0","0","0.516246099956334","0.554671199992299","0.476842599920928","1","1","1","1","1","1","1","1","1"
"260023","img/object_images/scale02.jpg","img/object_images/bookmark01.jpg","img/object_images/note_book02.jpg","1","1","1","0","0","0","0.476842599920928","0.516246099956334","0.609541399986483","1","1","1","1","1","1","1","1","1"
"260023","img/object_images/note_book02.jpg","img/object_images/scale02.jpg",NA,"1","1",NA,"0","0",NA,"0.609541399986483","0.476842599920928",NA,"1","1",NA,"1","1",NA,"1","1",NA
"260023","img/object_images/gloves02.jpg",NA,"img/object_images/shower_head01.jpg","1",NA,"1","0",NA,"1","0.621380999917164",NA,"0.341228400007822","1",NA,"1","1",NA,"1","1",NA,"1"
"260023","img/object_images/shower_head01.jpg","img/object_images/gloves02.jpg","img/object_images/knit04.jpg","1","1","1","1","0","1","0.341228400007822","0.621380999917164","0.398412800044753","1","1","1","1","1","1","1","1","1"
"260023","img/object_images/knit04.jpg","img/object_images/shower_head01.jpg","img/object_images/remote_controller01.jpg","1","1","1","1","1","1","0.398412800044753","0.341228400007822","0.45251760003157","1","1","1","1","1","1","1","1","1"
"260023","img/object_images/remote_controller01.jpg","img/object_images/knit04.jpg","img/object_images/matches02.jpg","1","1","1","1","1","0","0.45251760003157","0.398412800044753","0.532184200012125","1","1","1","1","1","1","1","1","1"
"260023","img/object_images/matches02.jpg","img/object_images/remote_controller01.jpg","img/object_images/toy08.jpg","1","1","1","0","1","0","0.532184200012125","0.45251760003157","0.52704229997471","1","1","1","1","1","1","1","1","1"
"260023","img/object_images/toy08.jpg","img/object_images/matches02.jpg","img/object_images/boat04.jpg","1","1","1","0","0","0","0.52704229997471","0.532184200012125","0.525202099932358","1","1","1","1","1","1","1","1","1"
"260023","img/object_images/boat04.jpg","img/object_images/toy08.jpg","img/object_images/basket04.jpg","1","1","1","0","0","1","0.525202099932358","0.52704229997471","0.55555089993868","1","1","1","1","1","1","1","1","1"
"260023","img/object_images/basket04.jpg","img/object_images/boat04.jpg","img/object_images/flashlight03.jpg","1","1","1","1","0","0","0.55555089993868","0.525202099932358","0.513578900019638","1","1","1","1","1","1","1","1","1"
"260023","img/object_images/flashlight03.jpg","img/object_images/basket04.jpg","img/object_images/sponge03.jpg","1","1","1","0","1","1","0.513578900019638","0.55555089993868","0.450783100095578","1","1","1","1","1","1","1","1","1"
"260023","img/object_images/sponge03.jpg","img/object_images/flashlight03.jpg","img/object_images/tool18.jpg","1","1","1","1","0","0","0.450783100095578","0.513578900019638","0.530600599944592","1","1","1","1","1","1","1","1","1"
"260023","img/object_images/tool18.jpg","img/object_images/sponge03.jpg","img/object_images/hoverboard01.jpg","1","1","1","0","1","0","0.530600599944592","0.450783100095578","0.476845900062472","1","1","1","1","1","1","1","1","1"
"260023","img/object_images/hoverboard01.jpg","img/object_images/tool18.jpg","img/object_images/knife02.jpg","1","1","1","0","0","0","0.476845900062472","0.530600599944592","0.514494300005026","1","1","1","1","1","1","1","1","1"
"260023","img/object_images/knife02.jpg","img/object_images/hoverboard01.jpg","img/object_images/bottle07.jpg","1","1","1","0","0","1","0.514494300005026","0.476845900062472","0.451456199982204","1","1","1","1","1","1","1","1","1"
"260023","img/object_images/bottle07.jpg","img/object_images/knife02.jpg","img/object_images/knit03.jpg","1","1","1","1","0","1","0.451456199982204","0.514494300005026","0.442972599994391","1","1","1","1","1","1","1","1","1"
"260023","img/object_images/knit03.jpg","img/object_images/bottle07.jpg","img/object_images/video_game01.jpg","1","1","1","1","1","1","0.442972599994391","0.451456199982204","0.53456840000581","1","1","1","1","1","1","1","1","1"
"260023","img/object_images/video_game01.jpg","img/object_images/knit03.jpg","img/object_images/kite01.jpg","1","1","1","1","1","1","0.53456840000581","0.442972599994391","0.567508299951442","1","1","1","1","1","1","1","1","1"
"260023","img/object_images/kite01.jpg","img/object_images/video_game01.jpg","img/object_images/backpack01.jpg","1","1","0","1","1","0","0.567508299951442","0.53456840000581","0.375104999984615","1","1","1","1","1","1","1","1","1"
"260023","img/object_images/backpack01.jpg","img/object_images/kite01.jpg","img/object_images/phone02.jpg","0","1","1","0","1","1","0.375104999984615","0.567508299951442","0.471222699969076","1","1","1","1","1","1","1","1","1"
"260023","img/object_images/phone02.jpg","img/object_images/backpack01.jpg","img/object_images/hand_grip_exerciser01.jpg","1","0","1","1","0","0","0.471222699969076","0.375104999984615","0.537446999922395","1","1","1","1","1","1","1","1","1"
"260023","img/object_images/hand_grip_exerciser01.jpg","img/object_images/phone02.jpg","img/object_images/curtain02.jpg","1","1","1","0","1","0","0.537446999922395","0.471222699969076","0.449583200039342","1","1","1","1","1","1","1","1","1"
"260023","img/object_images/curtain02.jpg","img/object_images/hand_grip_exerciser01.jpg","img/object_images/Statue01.jpg","1","1","1","0","0","1","0.449583200039342","0.537446999922395","0.45055420009885","1","1","1","1","1","1","1","1","1"
"260023","img/object_images/Statue01.jpg","img/object_images/curtain02.jpg","img/object_images/mail_box01.jpg","1","1","1","1","0","0","0.45055420009885","0.449583200039342","0.490130200050771","1","1","1","1","1","1","1","1","1"
"260023","img/object_images/mail_box01.jpg","img/object_images/Statue01.jpg","img/object_images/stereo02.jpg","1","1","1","0","1","0","0.490130200050771","0.45055420009885","0.43691199994646","1","1","1","1","1","1","1","1","1"
"260023","img/object_images/stereo02.jpg","img/object_images/mail_box01.jpg","img/object_images/remover01.jpg","1","1","1","0","0","1","0.43691199994646","0.490130200050771","0.482729699928313","1","1","1","1","1","1","1","1","1"
"260023","img/object_images/remover01.jpg","img/object_images/stereo02.jpg","img/object_images/blender02.jpg","1","1","1","1","0","1","0.482729699928313","0.43691199994646","0.641568999970332","1","1","1","1","1","1","1","1","1"
"260023","img/object_images/blender02.jpg","img/object_images/remover01.jpg","img/object_images/dresser03.jpg","1","1","1","1","1","0","0.641568999970332","0.482729699928313","0.592365599935874","1","1","1","1","1","1","1","1","1"
"260023","img/object_images/dresser03.jpg","img/object_images/blender02.jpg","img/object_images/keyboard02.jpg","1","1","1","0","1","1","0.592365599935874","0.641568999970332","0.685697400011122","1","1","1","1","1","1","1","1","1"
"260023","img/object_images/keyboard02.jpg","img/object_images/dresser03.jpg","img/object_images/camera03.jpg","1","1","1","1","0","0","0.685697400011122","0.592365599935874","0.579308800050057","1","1","1","1","1","1","1","1","1"
"260023","img/object_images/camera03.jpg","img/object_images/keyboard02.jpg","img/object_images/jacket04.jpg","1","1","1","0","1","0","0.579308800050057","0.685697400011122","0.525824500015005","1","1","1","1","1","1","1","1","1"
"260023","img/object_images/jacket04.jpg","img/object_images/camera03.jpg","img/object_images/car01.jpg","1","1","1","0","0","1","0.525824500015005","0.579308800050057","0.457413199939765","1","1","1","1","1","1","1","1","1"
"260023","img/object_images/car01.jpg","img/object_images/jacket04.jpg","img/object_images/paper_cup02.jpg","1","1","1","1","0","1","0.457413199939765","0.525824500015005","0.457056400016882","1","1","1","1","1","1","1","1","1"
"260023","img/object_images/paper_cup02.jpg","img/object_images/car01.jpg",NA,"1","1",NA,"1","1",NA,"0.457056400016882","0.457413199939765",NA,"1","1",NA,"1","1",NA,"1","1",NA
"260023","img/object_images/Vacuum01.jpg",NA,"img/object_images/gauze01.jpg","1",NA,"1","0",NA,"0","0.60111990000587",NA,"0.623426000005566","1",NA,"1","1",NA,"1","1",NA,"1"
"260023","img/object_images/gauze01.jpg","img/object_images/Vacuum01.jpg","img/object_images/towel02.jpg","1","1","1","0","0","1","0.623426000005566","0.60111990000587","0.39707280008588","1","1","1","1","1","1","1","1","1"
"260023","img/object_images/towel02.jpg","img/object_images/gauze01.jpg","img/object_images/mirror01.jpg","1","1","1","1","0","1","0.39707280008588","0.623426000005566","0.3622968000127","1","1","1","1","1","1","1","1","1"
"260023","img/object_images/mirror01.jpg","img/object_images/towel02.jpg","img/object_images/pot01 (1).jpg","1","1","1","1","1","0","0.3622968000127","0.39707280008588","0.463594899978489","1","1","1","1","1","1","1","1","1"
"260023","img/object_images/pot01 (1).jpg","img/object_images/mirror01.jpg","img/object_images/shovel03.jpg","1","1","1","0","1","1","0.463594899978489","0.3622968000127","0.421438200050034","1","1","1","1","1","1","1","1","1"
"260023","img/object_images/shovel03.jpg","img/object_images/pot01 (1).jpg","img/object_images/toy03.jpg","1","1","1","1","0","1","0.421438200050034","0.463594899978489","0.431719199987128","1","1","1","1","1","1","1","1","1"
"260023","img/object_images/toy03.jpg","img/object_images/shovel03.jpg","img/object_images/sink01.jpg","1","1","1","1","1","0","0.431719199987128","0.421438200050034","0.497839899966493","1","1","1","1","1","1","1","1","1"
"260023","img/object_images/sink01.jpg","img/object_images/toy03.jpg","img/object_images/outlet01.jpg","1","1","1","0","1","0","0.497839899966493","0.431719199987128","0.469059400027618","1","1","1","1","1","1","1","1","1"
"260023","img/object_images/outlet01.jpg","img/object_images/sink01.jpg","img/object_images/toy04.jpg","1","1","1","0","0","0","0.469059400027618","0.497839899966493","0.452731799916364","1","1","1","1","1","1","1","1","1"
"260023","img/object_images/toy04.jpg","img/object_images/outlet01.jpg","img/object_images/bird_house02.jpg","1","1","1","0","0","1","0.452731799916364","0.469059400027618","0.606488600024022","1","1","1","1","1","1","1","1","1"
"260023","img/object_images/bird_house02.jpg","img/object_images/toy04.jpg","img/object_images/Ring02.jpg","1","1","1","1","0","0","0.606488600024022","0.452731799916364","0.474135300028138","1","1","1","1","1","1","1","1","1"
"260023","img/object_images/Ring02.jpg","img/object_images/bird_house02.jpg","img/object_images/tool02.jpg","1","1","1","0","1","1","0.474135300028138","0.606488600024022","0.352996699977666","1","1","1","1","1","1","1","1","1"
"260023","img/object_images/tool02.jpg","img/object_images/Ring02.jpg","img/object_images/guitar02.jpg","1","1","1","1","0","0","0.352996699977666","0.474135300028138","0.498586599947885","1","1","1","1","1","1","1","1","1"
"260023","img/object_images/guitar02.jpg","img/object_images/tool02.jpg","img/object_images/stapler.jpg","1","1","1","0","1","1","0.498586599947885","0.352996699977666","0.399313999922015","1","1","1","1","1","1","1","1","1"
"260023","img/object_images/stapler.jpg","img/object_images/guitar02.jpg","img/object_images/video_game07.jpg","1","1","1","1","0","1","0.399313999922015","0.498586599947885","0.441201800014824","1","1","1","1","1","1","1","1","1"
"260023","img/object_images/video_game07.jpg","img/object_images/stapler.jpg","img/object_images/judge_gavel01.jpg","1","1","1","1","1","1","0.441201800014824","0.399313999922015","0.384019799996167","1","1","1","1","1","1","1","1","1"
"260023","img/object_images/judge_gavel01.jpg","img/object_images/video_game07.jpg","img/object_images/crown02.jpg","1","1","1","1","1","1","0.384019799996167","0.441201800014824","0.412028999999166","1","1","1","1","1","1","1","1","1"
"260023","img/object_images/crown02.jpg","img/object_images/judge_gavel01.jpg","img/object_images/acoustic_capo01.jpg","1","1","1","1","1","1","0.412028999999166","0.384019799996167","0.363164699985646","1","1","1","1","1","1","1","1","1"
"260023","img/object_images/acoustic_capo01.jpg","img/object_images/crown02.jpg","img/object_images/frisbee01.jpg","1","1","1","1","1","1","0.363164699985646","0.412028999999166","0.50047229998745","1","1","1","1","1","1","1","1","1"
"260023","img/object_images/frisbee01.jpg","img/object_images/acoustic_capo01.jpg","img/object_images/tool09.jpg","1","1","0","1","1","1","0.50047229998745","0.363164699985646","0.828891000011936","1","1","1","1","1","1","1","1","1"
"260023","img/object_images/tool09.jpg","img/object_images/frisbee01.jpg","img/object_images/ornament01.jpg","0","1","1","1","1","1","0.828891000011936","0.50047229998745","0.397147999959998","1","1","1","1","1","1","1","1","1"
"260023","img/object_images/ornament01.jpg","img/object_images/tool09.jpg","img/object_images/MetalWire01.jpg","1","0","1","1","1","0","0.397147999959998","0.828891000011936","0.494339299970306","1","1","1","1","1","1","1","1","1"
"260023","img/object_images/MetalWire01.jpg","img/object_images/ornament01.jpg","img/object_images/bow01.jpg","1","1","1","0","1","1","0.494339299970306","0.397147999959998","0.425626000040211","1","1","1","1","1","1","1","1","1"
"260023","img/object_images/bow01.jpg","img/object_images/MetalWire01.jpg","img/object_images/dart01.jpg","1","1","1","1","0","0","0.425626000040211","0.494339299970306","0.56531949993223","1","1","1","1","1","1","1","1","1"
"260023","img/object_images/dart01.jpg","img/object_images/bow01.jpg","img/object_images/fridge03.jpg","1","1","0","0","1","0","0.56531949993223","0.425626000040211","0.452650099992752","1","1","1","1","1","1","1","1","1"
"260023","img/object_images/fridge03.jpg","img/object_images/dart01.jpg","img/object_images/Stool01.jpg","0","1","1","0","0","0","0.452650099992752","0.56531949993223","0.559392499970272","1","1","1","1","1","1","1","1","1"
"260023","img/object_images/Stool01.jpg","img/object_images/fridge03.jpg","img/object_images/Tin01.jpg","1","0","1","0","0","1","0.559392499970272","0.452650099992752","0.432701300014742","1","1","1","1","1","1","1","1","1"
"260023","img/object_images/Tin01.jpg","img/object_images/Stool01.jpg","img/object_images/bottle05.jpg","1","1","0","1","0","0","0.432701300014742","0.559392499970272","0.462204799987376","1","1","1","1","1","1","1","1","2"
"260023","img/object_images/bottle05.jpg","img/object_images/Tin01.jpg","img/object_images/helmet01.jpg","0","1","1","0","1","0","0.462204799987376","0.432701300014742","0.549875699914992","1","1","1","1","1","1","2","1","1"
"260023","img/object_images/helmet01.jpg","img/object_images/bottle05.jpg","img/object_images/jewel04.jpg","1","0","1","0","0","0","0.549875699914992","0.462204799987376","0.477304300060496","1","1","1","1","1","1","1","2","1"
"260023","img/object_images/jewel04.jpg","img/object_images/helmet01.jpg","img/object_images/watch01.jpg","1","1","1","0","0","0","0.477304300060496","0.549875699914992","0.534163399948739","1","1","1","1","1","1","1","1","1"
"260023","img/object_images/watch01.jpg","img/object_images/jewel04.jpg",NA,"1","1",NA,"0","0",NA,"0.534163399948739","0.477304300060496",NA,"1","1",NA,"1","1",NA,"1","1",NA
"260023","img/object_images/brief_case01.jpg",NA,"img/object_images/helmet05.jpg","1",NA,"1","0",NA,"1","0.499161400017329",NA,"0.435518200043589","1",NA,"1","1",NA,"1","1",NA,"1"
"260023","img/object_images/helmet05.jpg","img/object_images/brief_case01.jpg","img/object_images/guitar01.jpg","1","1","1","1","0","1","0.435518200043589","0.499161400017329","0.408199999947101","1","1","1","1","1","1","1","1","1"
"260023","img/object_images/guitar01.jpg","img/object_images/helmet05.jpg","img/object_images/drone02.jpg","1","1","0","1","1","0","0.408199999947101","0.435518200043589","0.375101999961771","1","1","1","1","1","1","1","1","1"
"260023","img/object_images/drone02.jpg","img/object_images/guitar01.jpg","img/object_images/decorative02.jpg","0","1","1","0","1","0","0.375101999961771","0.408199999947101","0.596104800002649","1","1","1","1","1","1","1","1","1"
"260023","img/object_images/decorative02.jpg","img/object_images/drone02.jpg","img/object_images/Recycling01.jpg","1","0","1","0","0","1","0.596104800002649","0.375101999961771","0.33166040002834","1","1","1","1","1","1","1","1","1"
"260023","img/object_images/Recycling01.jpg","img/object_images/decorative02.jpg","img/object_images/pitcher03.jpg","1","1","1","1","0","1","0.33166040002834","0.596104800002649","0.348901299992576","1","1","1","1","1","1","1","1","1"
"260023","img/object_images/pitcher03.jpg","img/object_images/Recycling01.jpg","img/object_images/hat02.jpg","1","1","1","1","1","0","0.348901299992576","0.33166040002834","0.389901699963957","1","1","1","1","1","1","1","1","1"
"260023","img/object_images/hat02.jpg","img/object_images/pitcher03.jpg","img/object_images/container01.jpg","1","1","0","0","1","0","0.389901699963957","0.348901299992576","0.375617200043052","1","1","1","1","1","1","1","1","1"
"260023","img/object_images/container01.jpg","img/object_images/hat02.jpg","img/object_images/pot01.jpg","0","1","1","0","0","0","0.375617200043052","0.389901699963957","0.544973099953495","1","1","1","1","1","1","1","1","1"
"260023","img/object_images/pot01.jpg","img/object_images/container01.jpg","img/object_images/razor03.jpg","1","0","1","0","0","0","0.544973099953495","0.375617200043052","0.380843200022355","1","1","1","1","1","1","1","1","1"
"260023","img/object_images/razor03.jpg","img/object_images/pot01.jpg","img/object_images/tie01.jpg","1","1","1","0","0","0","0.380843200022355","0.544973099953495","0.38241309998557","1","1","1","1","1","1","1","1","1"
"260023","img/object_images/tie01.jpg","img/object_images/razor03.jpg","img/object_images/airfryer01.jpg","1","1","1","0","0","0","0.38241309998557","0.380843200022355","0.546957200043835","1","1","1","1","1","1","1","1","1"
"260023","img/object_images/airfryer01.jpg","img/object_images/tie01.jpg","img/object_images/car02.jpg","1","1","0","0","0","0","0.546957200043835","0.38241309998557","0.312095300061628","1","1","1","1","1","1","1","1","1"
"260023","img/object_images/car02.jpg","img/object_images/airfryer01.jpg","img/object_images/brief_case02.jpg","0","1","1","0","0","1","0.312095300061628","0.546957200043835","0.388982900069095","1","1","1","1","1","1","1","1","1"
"260023","img/object_images/brief_case02.jpg","img/object_images/car02.jpg","img/object_images/toy_train02.jpg","1","0","1","1","0","1","0.388982900069095","0.312095300061628","0.354314099997282","1","1","1","1","1","1","1","1","1"
"260023","img/object_images/toy_train02.jpg","img/object_images/brief_case02.jpg","img/object_images/video_game06.jpg","1","1","1","1","1","0","0.354314099997282","0.388982900069095","0.615601200028323","1","1","1","1","1","1","1","1","1"
"260023","img/object_images/video_game06.jpg","img/object_images/toy_train02.jpg","img/object_images/lamp01.jpg","1","1","1","0","1","1","0.615601200028323","0.354314099997282","0.43259370001033","1","1","1","1","1","1","1","1","1"
"260023","img/object_images/lamp01.jpg","img/object_images/video_game06.jpg","img/object_images/cochlear_implant01.jpg","1","1","1","1","0","0","0.43259370001033","0.615601200028323","0.398332600016147","1","1","1","1","1","1","1","1","1"
"260023","img/object_images/cochlear_implant01.jpg","img/object_images/lamp01.jpg","img/object_images/couch04.jpg","1","1","1","0","1","1","0.398332600016147","0.43259370001033","0.382989800069481","1","1","1","1","1","1","1","1","1"
"260023","img/object_images/couch04.jpg","img/object_images/cochlear_implant01.jpg","img/object_images/Woopie01.jpg","1","1","1","1","0","1","0.382989800069481","0.398332600016147","0.454220699961297","1","1","1","1","1","1","1","1","1"
"260023","img/object_images/Woopie01.jpg","img/object_images/couch04.jpg","img/object_images/gloves05.jpg","1","1","1","1","1","1","0.454220699961297","0.382989800069481","0.410436300095171","1","1","1","1","1","1","1","1","1"
"260023","img/object_images/gloves05.jpg","img/object_images/Woopie01.jpg","img/object_images/bottle12.jpg","1","1","1","1","1","1","0.410436300095171","0.454220699961297","0.409998800023459","1","1","1","1","1","1","1","1","1"
"260023","img/object_images/bottle12.jpg","img/object_images/gloves05.jpg","img/object_images/soap01.jpg","1","1","1","1","1","0","0.409998800023459","0.410436300095171","0.466384899918921","1","1","1","1","1","1","1","1","1"
"260023","img/object_images/soap01.jpg","img/object_images/bottle12.jpg","img/object_images/toilet_paper01.jpg","1","1","1","0","1","1","0.466384899918921","0.409998800023459","0.424087199964561","1","1","1","1","1","1","1","1","1"
"260023","img/object_images/toilet_paper01.jpg","img/object_images/soap01.jpg","img/object_images/ironing_table02.jpg","1","1","1","1","0","0","0.424087199964561","0.466384899918921","0.474847599980421","1","1","1","1","1","1","1","1","1"
"260023","img/object_images/ironing_table02.jpg","img/object_images/toilet_paper01.jpg","img/object_images/Wisk01.jpg","1","1","1","0","1","1","0.474847599980421","0.424087199964561","0.427503300015815","1","1","1","1","1","1","1","1","1"
"260023","img/object_images/Wisk01.jpg","img/object_images/ironing_table02.jpg","img/object_images/broom01.jpg","1","1","1","1","0","1","0.427503300015815","0.474847599980421","0.387352499994449","1","1","1","1","1","1","1","1","1"
"260023","img/object_images/broom01.jpg","img/object_images/Wisk01.jpg","img/object_images/chair01.jpg","1","1","1","1","1","0","0.387352499994449","0.427503300015815","0.49438170006033","1","1","1","1","1","1","1","1","1"
"260023","img/object_images/chair01.jpg","img/object_images/broom01.jpg","img/object_images/lantern01.jpg","1","1","1","0","1","1","0.49438170006033","0.387352499994449","0.412972899968736","1","1","1","1","1","1","1","1","1"
"260023","img/object_images/lantern01.jpg","img/object_images/chair01.jpg","img/object_images/ball01.jpg","1","1","1","1","0","1","0.412972899968736","0.49438170006033","0.364373099990189","1","1","1","1","1","1","1","1","1"
"260023","img/object_images/ball01.jpg","img/object_images/lantern01.jpg","img/object_images/basketball_hoop02.jpg","1","1","0","1","1","0","0.364373099990189","0.412972899968736","0.450575200025924","1","1","1","1","1","1","1","1","1"
"260023","img/object_images/basketball_hoop02.jpg","img/object_images/ball01.jpg",NA,"0","1",NA,"0","1",NA,"0.450575200025924","0.364373099990189",NA,"1","1",NA,"1","1",NA,"1","1",NA
"260023","img/object_images/candle02.jpg",NA,"img/object_images/sign02.jpg","1",NA,"1","0",NA,"0","0.482266200007871",NA,"0.576383300009184","1",NA,"1","1",NA,"1","1",NA,"1"
"260023","img/object_images/sign02.jpg","img/object_images/candle02.jpg","img/object_images/hat13.jpg","1","1","1","0","0","1","0.576383300009184","0.482266200007871","0.437955599976704","1","1","1","1","1","1","1","1","1"
"260023","img/object_images/hat13.jpg","img/object_images/sign02.jpg","img/object_images/pen06.jpg","1","1","0","1","0","0","0.437955599976704","0.576383300009184","0.403847100096755","1","1","1","1","1","1","1","1","2"
"260023","img/object_images/pen06.jpg","img/object_images/hat13.jpg","img/object_images/spray_can01.jpg","0","1","1","0","1","0","0.403847100096755","0.437955599976704","0.471302299993113","1","1","1","1","1","1","2","1","1"
"260023","img/object_images/spray_can01.jpg","img/object_images/pen06.jpg","img/object_images/hat09.jpg","1","0","1","0","0","0","0.471302299993113","0.403847100096755","0.504686500062235","1","1","1","1","1","1","1","2","1"
"260023","img/object_images/hat09.jpg","img/object_images/spray_can01.jpg","img/object_images/ruler02.jpg","1","1","1","0","0","1","0.504686500062235","0.471302299993113","0.409062499995343","1","1","1","1","1","1","1","1","1"
"260023","img/object_images/ruler02.jpg","img/object_images/hat09.jpg","img/object_images/perfume01.jpg","1","1","1","1","0","0","0.409062499995343","0.504686500062235","0.377315700054169","1","1","1","1","1","1","1","1","1"
"260023","img/object_images/perfume01.jpg","img/object_images/ruler02.jpg","img/object_images/glasses03.jpg","1","1","1","0","1","0","0.377315700054169","0.409062499995343","0.547342999954708","1","1","1","1","1","1","1","1","1"
"260023","img/object_images/glasses03.jpg","img/object_images/perfume01.jpg","img/object_images/razor02.jpg","1","1","1","0","0","1","0.547342999954708","0.377315700054169","0.410335599910468","1","1","1","1","1","1","1","1","1"
"260023","img/object_images/razor02.jpg","img/object_images/glasses03.jpg","img/object_images/socks01.jpg","1","1","1","1","0","1","0.410335599910468","0.547342999954708","0.430228700046428","1","1","1","1","1","1","1","1","1"
"260023","img/object_images/socks01.jpg","img/object_images/razor02.jpg","img/object_images/board01.jpg","1","1","1","1","1","1","0.430228700046428","0.410335599910468","0.373565700021572","1","1","1","1","1","1","1","1","1"
"260023","img/object_images/board01.jpg","img/object_images/socks01.jpg","img/object_images/knife01.jpg","1","1","1","1","1","1","0.373565700021572","0.430228700046428","0.40517899999395","1","1","1","1","1","1","1","1","1"
"260023","img/object_images/knife01.jpg","img/object_images/board01.jpg","img/object_images/cup01.jpg","1","1","1","1","1","0","0.40517899999395","0.373565700021572","0.546668200055137","1","1","1","1","1","1","1","1","1"
"260023","img/object_images/cup01.jpg","img/object_images/knife01.jpg","img/object_images/Candle_Holder01.jpg","1","1","1","0","1","0","0.546668200055137","0.40517899999395","0.627474599983543","1","1","1","1","1","1","1","1","1"
"260023","img/object_images/Candle_Holder01.jpg","img/object_images/cup01.jpg","img/object_images/lemon_squeezer01.jpg","1","1","1","0","0","1","0.627474599983543","0.546668200055137","0.363906699931249","1","1","1","1","1","1","1","1","1"
"260023","img/object_images/lemon_squeezer01.jpg","img/object_images/Candle_Holder01.jpg","img/object_images/Confetti 01.jpg","1","1","1","1","0","0","0.363906699931249","0.627474599983543","0.717918199952692","1","1","1","1","1","1","1","1","1"
"260023","img/object_images/Confetti 01.jpg","img/object_images/lemon_squeezer01.jpg","img/object_images/bow_tie03.jpg","1","1","1","0","1","1","0.717918199952692","0.363906699931249","0.39049270004034","1","1","1","1","1","1","1","1","1"
"260023","img/object_images/bow_tie03.jpg","img/object_images/Confetti 01.jpg","img/object_images/duster01.jpg","1","1","0","1","0","0","0.39049270004034","0.717918199952692","0.441208500065841","1","1","1","1","1","1","1","1","1"
"260023","img/object_images/duster01.jpg","img/object_images/bow_tie03.jpg","img/object_images/floss01.jpg","0","1","1","0","1","1","0.441208500065841","0.39049270004034","0.396904399967752","1","1","1","1","1","1","1","1","1"
"260023","img/object_images/floss01.jpg","img/object_images/duster01.jpg","img/object_images/pan03.jpg","1","0","1","1","0","1","0.396904399967752","0.441208500065841","0.353986699949019","1","1","1","1","1","1","1","1","1"
"260023","img/object_images/pan03.jpg","img/object_images/floss01.jpg","img/object_images/camera05.jpg","1","1","1","1","1","0","0.353986699949019","0.396904399967752","0.565827599959448","1","1","1","1","1","1","1","1","1"
"260023","img/object_images/camera05.jpg","img/object_images/pan03.jpg","img/object_images/dust_pan01.jpg","1","1","1","0","1","1","0.565827599959448","0.353986699949019","0.515968599938788","1","1","1","1","1","1","1","1","1"
"260023","img/object_images/dust_pan01.jpg","img/object_images/camera05.jpg","img/object_images/tool20.jpg","1","1","1","1","0","0","0.515968599938788","0.565827599959448","0.427446899935603","1","1","1","1","1","1","1","1","1"
"260023","img/object_images/tool20.jpg","img/object_images/dust_pan01.jpg","img/object_images/hammer02.jpg","1","1","0","0","1","0","0.427446899935603","0.515968599938788","0.399062599986792","1","1","1","1","1","1","1","1","1"
"260023","img/object_images/hammer02.jpg","img/object_images/tool20.jpg","img/object_images/video_game02.jpg","0","1","1","0","0","1","0.399062599986792","0.427446899935603","0.392619699938223","1","1","1","1","1","1","1","1","1"
"260023","img/object_images/video_game02.jpg","img/object_images/hammer02.jpg","img/object_images/vase02.jpg","1","0","1","1","0","1","0.392619699938223","0.399062599986792","0.51177729992196","1","1","1","1","1","1","1","1","1"
"260023","img/object_images/vase02.jpg","img/object_images/video_game02.jpg","img/object_images/bag04.jpg","1","1","1","1","1","0","0.51177729992196","0.392619699938223","0.556441199965775","1","1","1","1","1","1","1","1","1"
"260023","img/object_images/bag04.jpg","img/object_images/vase02.jpg","img/object_images/sink_filter01 (1).jpg","1","1","1","0","1","0","0.556441199965775","0.51177729992196","0.512607399956323","1","1","1","1","1","1","1","1","1"
"260023","img/object_images/sink_filter01 (1).jpg","img/object_images/bag04.jpg","img/object_images/clipboard01.jpg","1","1","1","0","0","1","0.512607399956323","0.556441199965775","0.423896300024353","1","1","1","1","1","1","1","1","1"
"260023","img/object_images/clipboard01.jpg","img/object_images/sink_filter01 (1).jpg","img/object_images/tool13.jpg","1","1","1","1","0","1","0.423896300024353","0.512607399956323","0.426023699925281","1","1","1","1","1","1","1","1","1"
"260023","img/object_images/tool13.jpg","img/object_images/clipboard01.jpg","img/object_images/office_supplies01.jpg","1","1","1","1","1","1","0.426023699925281","0.423896300024353","0.483455300098285","1","1","1","1","1","1","1","1","1"
"260023","img/object_images/office_supplies01.jpg","img/object_images/tool13.jpg",NA,"1","1",NA,"1","1",NA,"0.483455300098285","0.426023699925281",NA,"1","1",NA,"1","1",NA,"1","1",NA
"260023","img/object_images/car04.jpg",NA,"img/object_images/cards01.jpg","1",NA,"1","0",NA,"0","0.496399700059555",NA,"0.456784199923277","1",NA,"1","1",NA,"1","1",NA,"1"
"260023","img/object_images/cards01.jpg","img/object_images/car04.jpg","img/object_images/toaster02.jpg","1","1","1","0","0","1","0.456784199923277","0.496399700059555","0.380210499977693","1","1","1","1","1","1","1","1","1"
"260023","img/object_images/toaster02.jpg","img/object_images/cards01.jpg","img/object_images/shower_head03.jpg","1","1","0","1","0","1","0.380210499977693","0.456784199923277","0.370141000021249","1","1","1","1","1","1","1","1","1"
"260023","img/object_images/shower_head03.jpg","img/object_images/toaster02.jpg","img/object_images/bag06.jpg","0","1","1","1","1","1","0.370141000021249","0.380210499977693","0.396352899959311","1","1","1","1","1","1","1","1","1"
"260023","img/object_images/bag06.jpg","img/object_images/shower_head03.jpg","img/object_images/ice_tray03.jpg","1","0","1","1","1","1","0.396352899959311","0.370141000021249","0.359263099962845","1","1","1","1","1","1","1","1","1"
"260023","img/object_images/ice_tray03.jpg","img/object_images/bag06.jpg","img/object_images/car03.jpg","1","1","0","1","1","0","0.359263099962845","0.396352899959311","0.391299600014463","1","1","1","1","1","1","1","1","1"
"260023","img/object_images/car03.jpg","img/object_images/ice_tray03.jpg","img/object_images/razor01.jpg","0","1","1","0","1","0","0.391299600014463","0.359263099962845","0.375545599963516","1","1","1","1","1","1","1","1","1"
"260023","img/object_images/razor01.jpg","img/object_images/car03.jpg","img/object_images/binoculars03.jpg","1","0","1","0","0","1","0.375545599963516","0.391299600014463","0.444849899969995","1","1","1","1","1","1","1","1","1"
"260023","img/object_images/binoculars03.jpg","img/object_images/razor01.jpg","img/object_images/jewel01.jpg","1","1","0","1","0","0","0.444849899969995","0.375545599963516","0.348337200004607","1","1","1","1","1","1","1","1","1"
"260023","img/object_images/jewel01.jpg","img/object_images/binoculars03.jpg","img/object_images/screwdriver01.jpg","0","1","1","0","1","0","0.348337200004607","0.444849899969995","0.412496899953112","1","1","1","1","1","1","1","1","1"
"260023","img/object_images/screwdriver01.jpg","img/object_images/jewel01.jpg","img/object_images/rock03.jpg","1","0","1","0","0","0","0.412496899953112","0.348337200004607","0.555906800087541","1","1","1","1","1","1","1","1","1"
"260023","img/object_images/rock03.jpg","img/object_images/screwdriver01.jpg","img/object_images/lemon_squeezer02.jpg","1","1","1","0","0","1","0.555906800087541","0.412496899953112","0.399947899975814","1","1","1","1","1","1","1","1","1"
"260023","img/object_images/lemon_squeezer02.jpg","img/object_images/rock03.jpg","img/object_images/slinky_toy01.jpg","1","1","1","1","0","1","0.399947899975814","0.555906800087541","0.370613500010222","1","1","1","1","1","1","1","1","1"
"260023","img/object_images/slinky_toy01.jpg","img/object_images/lemon_squeezer02.jpg","img/object_images/shoes10.jpg","1","1","0","1","1","0","0.370613500010222","0.399947899975814","0.429615500033833","1","1","1","1","1","1","1","1","1"
"260023","img/object_images/shoes10.jpg","img/object_images/slinky_toy01.jpg","img/object_images/fan05.jpg","0","1","1","0","1","0","0.429615500033833","0.370613500010222","0.544514599954709","1","1","1","1","1","1","1","1","1"
"260023","img/object_images/fan05.jpg","img/object_images/shoes10.jpg","img/object_images/ribbon01.jpg","1","0","1","0","0","0","0.544514599954709","0.429615500033833","0.694649599958211","1","1","1","1","1","1","1","1","1"
"260023","img/object_images/ribbon01.jpg","img/object_images/fan05.jpg","img/object_images/hair_brush05.jpg","1","1","1","0","0","1","0.694649599958211","0.544514599954709","0.421228899969719","1","1","1","1","1","1","1","1","1"
"260023","img/object_images/hair_brush05.jpg","img/object_images/ribbon01.jpg","img/object_images/yarn02.jpg","1","1","1","1","0","0","0.421228899969719","0.694649599958211","0.535421699983999","1","1","1","1","1","1","1","1","1"
"260023","img/object_images/yarn02.jpg","img/object_images/hair_brush05.jpg","img/object_images/chair04.jpg","1","1","1","0","1","1","0.535421699983999","0.421228899969719","0.398446699953638","1","1","1","1","1","1","1","1","1"
"260023","img/object_images/chair04.jpg","img/object_images/yarn02.jpg","img/object_images/ladle02.jpg","1","1","1","1","0","0","0.398446699953638","0.535421699983999","0.46652679995168","1","1","1","1","1","1","1","1","1"
"260023","img/object_images/ladle02.jpg","img/object_images/chair04.jpg","img/object_images/tool11.jpg","1","1","1","0","1","1","0.46652679995168","0.398446699953638","0.463642199989408","1","1","1","1","1","1","1","1","1"
"260023","img/object_images/tool11.jpg","img/object_images/ladle02.jpg","img/object_images/cutting_board01.jpg","1","1","1","1","0","1","0.463642199989408","0.46652679995168","0.421194599941373","1","1","1","1","1","1","1","1","1"
"260023","img/object_images/cutting_board01.jpg","img/object_images/tool11.jpg","img/object_images/dress03.jpg","1","1","1","1","1","1","0.421194599941373","0.463642199989408","0.388360099983402","1","1","1","1","1","1","1","1","1"
"260023","img/object_images/dress03.jpg","img/object_images/cutting_board01.jpg","img/object_images/satellite01.jpg","1","1","0","1","1","0","0.388360099983402","0.421194599941373","0.466283199959435","1","1","1","1","1","1","1","1","1"
"260023","img/object_images/satellite01.jpg","img/object_images/dress03.jpg","img/object_images/tv01.jpg","0","1","1","0","1","0","0.466283199959435","0.388360099983402","0.473407199955545","1","1","1","1","1","1","1","1","1"
"260023","img/object_images/tv01.jpg","img/object_images/satellite01.jpg","img/object_images/key02.jpg","1","0","1","0","0","1","0.473407199955545","0.466283199959435","0.358057100092992","1","1","1","1","1","1","1","1","1"
"260023","img/object_images/key02.jpg","img/object_images/tv01.jpg","img/object_images/WitchHat02.jpg","1","1","1","1","0","1","0.358057100092992","0.473407199955545","0.497046699980274","1","1","1","1","1","1","1","1","1"
"260023","img/object_images/WitchHat02.jpg","img/object_images/key02.jpg","img/object_images/jewelry07.jpg","1","1","1","1","1","1","0.497046699980274","0.358057100092992","0.471642499906011","1","1","1","1","1","1","1","1","1"
"260023","img/object_images/jewelry07.jpg","img/object_images/WitchHat02.jpg","img/object_images/MeasuringCup01.jpg","1","1","1","1","1","1","0.471642499906011","0.497046699980274","0.440981499967165","1","1","1","1","1","1","1","1","1"
"260023","img/object_images/MeasuringCup01.jpg","img/object_images/jewelry07.jpg","img/object_images/mask01.jpg","1","1","1","1","1","0","0.440981499967165","0.471642499906011","0.454062500037253","1","1","1","1","1","1","1","1","1"
"260023","img/object_images/mask01.jpg","img/object_images/MeasuringCup01.jpg","img/object_images/belt01.jpg","1","1","1","0","1","0","0.454062500037253","0.440981499967165","0.48324940004386","1","1","1","1","1","1","1","1","1"
"260023","img/object_images/belt01.jpg","img/object_images/mask01.jpg",NA,"1","1",NA,"0","0",NA,"0.48324940004386","0.454062500037253",NA,"1","1",NA,"1","1",NA,"1","1",NA
"260023","img/object_images/couch03.jpg",NA,"img/object_images/lock04.jpg","1",NA,"1","0",NA,"1","0.632306799991056",NA,"0.643226999905892","1",NA,"1","1",NA,"1","1",NA,"1"
"260023","img/object_images/lock04.jpg","img/object_images/couch03.jpg","img/object_images/Screws01.jpg","1","1","1","1","0","1","0.643226999905892","0.632306799991056","0.417680800077505","1","1","1","1","1","1","1","1","1"
"260023","img/object_images/Screws01.jpg","img/object_images/lock04.jpg","img/object_images/lawn_mower01.jpg","1","1","1","1","1","1","0.417680800077505","0.643226999905892","0.408201000071131","1","1","1","1","1","1","1","1","1"
"260023","img/object_images/lawn_mower01.jpg","img/object_images/Screws01.jpg","img/object_images/ironing_table01.jpg","1","1","0","1","1","0","0.408201000071131","0.417680800077505","0.377772300038487","1","1","1","1","1","1","1","1","1"
"260023","img/object_images/ironing_table01.jpg","img/object_images/lawn_mower01.jpg","img/object_images/gift_box01.jpg","0","1","1","0","1","1","0.377772300038487","0.408201000071131","0.504336100071669","1","1","1","1","1","1","1","1","1"
"260023","img/object_images/gift_box01.jpg","img/object_images/ironing_table01.jpg","img/object_images/bow_tie02.jpg","1","0","1","1","0","0","0.504336100071669","0.377772300038487","0.494793299934827","1","1","1","1","1","1","1","1","1"
"260023","img/object_images/bow_tie02.jpg","img/object_images/gift_box01.jpg","img/object_images/coloring_pencil01.jpg","1","1","1","0","1","1","0.494793299934827","0.504336100071669","0.376650299993344","1","1","1","1","1","1","1","1","1"
"260023","img/object_images/coloring_pencil01.jpg","img/object_images/bow_tie02.jpg","img/object_images/gift_box03.jpg","1","1","1","1","0","0","0.376650299993344","0.494793299934827","0.717340599978343","1","1","1","1","1","1","1","1","1"
"260023","img/object_images/gift_box03.jpg","img/object_images/coloring_pencil01.jpg","img/object_images/pitcher02.jpg","1","1","1","0","1","1","0.717340599978343","0.376650299993344","0.394750199979171","1","1","1","1","1","1","1","1","1"
"260023","img/object_images/pitcher02.jpg","img/object_images/gift_box03.jpg","img/object_images/grater01.jpg","1","1","1","1","0","1","0.394750199979171","0.717340599978343","0.379362900042906","1","1","1","1","1","1","1","1","1"
"260023","img/object_images/grater01.jpg","img/object_images/pitcher02.jpg","img/object_images/jacket03.jpg","1","1","1","1","1","0","0.379362900042906","0.394750199979171","0.473449500044808","1","1","1","1","1","1","1","1","1"
"260023","img/object_images/jacket03.jpg","img/object_images/grater01.jpg","img/object_images/clip02.jpg","1","1","1","0","1","1","0.473449500044808","0.379362900042906","0.427696899976581","1","1","1","1","1","1","1","1","1"
"260023","img/object_images/clip02.jpg","img/object_images/jacket03.jpg","img/object_images/dresser04.jpg","1","1","1","1","0","0","0.427696899976581","0.473449500044808","0.507617600029334","1","1","1","1","1","1","1","1","1"
"260023","img/object_images/dresser04.jpg","img/object_images/clip02.jpg","img/object_images/camera07.jpg","1","1","1","0","1","1","0.507617600029334","0.427696899976581","0.488646100042388","1","1","1","1","1","1","1","1","1"
"260023","img/object_images/camera07.jpg","img/object_images/dresser04.jpg","img/object_images/measuring_tape02.jpg","1","1","1","1","0","1","0.488646100042388","0.507617600029334","0.425760299898684","1","1","1","1","1","1","1","1","1"
"260023","img/object_images/measuring_tape02.jpg","img/object_images/camera07.jpg","img/object_images/golf_ball03.jpg","1","1","1","1","1","1","0.425760299898684","0.488646100042388","0.380166299990378","1","1","1","1","1","1","1","1","1"
"260023","img/object_images/golf_ball03.jpg","img/object_images/measuring_tape02.jpg","img/object_images/bath_tub01.jpg","1","1","1","1","1","0","0.380166299990378","0.425760299898684","0.61587670003064","1","1","1","1","1","1","1","1","1"
"260023","img/object_images/bath_tub01.jpg","img/object_images/golf_ball03.jpg","img/object_images/sleeping_bag01.jpg","1","1","1","0","1","0","0.61587670003064","0.380166299990378","0.699436399969272","1","1","1","1","1","1","1","1","1"
"260023","img/object_images/sleeping_bag01.jpg","img/object_images/bath_tub01.jpg","img/object_images/handkerchief01.jpg","1","1","1","0","0","0","0.699436399969272","0.61587670003064","0.604321799939498","1","1","1","1","1","1","1","1","1"
"260023","img/object_images/handkerchief01.jpg","img/object_images/sleeping_bag01.jpg","img/object_images/Witchhat01.jpg","1","1","0","0","0","1","0.604321799939498","0.699436399969272","0.491111600073054","1","1","1","1","1","1","1","1","1"
"260023","img/object_images/Witchhat01.jpg","img/object_images/handkerchief01.jpg","img/object_images/paper_cup01.jpg","0","1","1","1","0","0","0.491111600073054","0.604321799939498","0.502793100080453","1","1","1","1","1","1","1","1","1"
"260023","img/object_images/paper_cup01.jpg","img/object_images/Witchhat01.jpg","img/object_images/bow_tie01.jpg","1","0","1","0","1","0","0.502793100080453","0.491111600073054","0.546761199948378","1","1","1","1","1","1","1","1","1"
"260023","img/object_images/bow_tie01.jpg","img/object_images/paper_cup01.jpg","img/object_images/vga_port 01.jpg","1","1","0","0","0","0","0.546761199948378","0.502793100080453","0.70197139994707","1","1","1","1","1","1","1","1","1"
"260023","img/object_images/vga_port 01.jpg","img/object_images/bow_tie01.jpg","img/object_images/socks02.jpg","0","1","1","0","0","0","0.70197139994707","0.546761199948378","0.521512900013477","1","1","1","1","1","1","1","1","1"
"260023","img/object_images/socks02.jpg","img/object_images/vga_port 01.jpg","img/object_images/jewelry01.jpg","1","0","1","0","0","1","0.521512900013477","0.70197139994707","0.467833600006998","1","1","1","1","1","1","1","1","1"
"260023","img/object_images/jewelry01.jpg","img/object_images/socks02.jpg","img/object_images/wallet02.jpg","1","1","1","1","0","1","0.467833600006998","0.521512900013477","0.365572899929248","1","1","1","1","1","1","1","1","1"
"260023","img/object_images/wallet02.jpg","img/object_images/jewelry01.jpg","img/object_images/balloon01.jpg","1","1","1","1","1","0","0.365572899929248","0.467833600006998","0.380751300021075","1","1","1","1","1","1","1","1","1"
"260023","img/object_images/balloon01.jpg","img/object_images/wallet02.jpg","img/object_images/funnel01.jpg","1","1","1","0","1","0","0.380751300021075","0.365572899929248","0.643301400006749","1","1","1","1","1","1","1","1","1"
"260023","img/object_images/funnel01.jpg","img/object_images/balloon01.jpg","img/object_images/hammer01.jpg","1","1","0","0","0","0","0.643301400006749","0.380751300021075",NA,"1","1","0","1","1","0","1","1","0"
"260023","img/object_images/hammer01.jpg","img/object_images/funnel01.jpg","img/object_images/gift_box02.jpg","0","1","1","0","0","1",NA,"0.643301400006749","0.442846200079657","0","1","1","0","1","1","0","1","1"
"260023","img/object_images/gift_box02.jpg","img/object_images/hammer01.jpg","img/object_images/fork03.jpg","1","0","1","1","0","1","0.442846200079657",NA,"0.409843900008127","1","0","1","1","0","1","1","0","1"
"260023","img/object_images/fork03.jpg","img/object_images/gift_box02.jpg",NA,"1","1",NA,"1","1",NA,"0.409843900008127","0.442846200079657",NA,"1","1",NA,"1","1",NA,"1","1",NA
"260023","img/object_images/crutches02.jpg",NA,"img/object_images/paint_brush04.jpg","1",NA,"1","0",NA,"0","0.470347800059244",NA,"0.497359199915081","1",NA,"1","1",NA,"1","1",NA,"1"
"260023","img/object_images/paint_brush04.jpg","img/object_images/crutches02.jpg","img/object_images/pen03.jpg","1","1","1","0","0","0","0.497359199915081","0.470347800059244","0.477674200083129","1","1","1","1","1","1","1","1","1"
"260023","img/object_images/pen03.jpg","img/object_images/paint_brush04.jpg","img/object_images/hammer03.jpg","1","1","1","0","0","1","0.477674200083129","0.497359199915081","0.406494900002144","1","1","1","1","1","1","1","1","1"
"260023","img/object_images/hammer03.jpg","img/object_images/pen03.jpg","img/object_images/book03.jpg","1","1","1","1","0","1","0.406494900002144","0.477674200083129","0.376323100063019","1","1","1","1","1","1","1","1","1"
"260023","img/object_images/book03.jpg","img/object_images/hammer03.jpg","img/object_images/microscope01.jpg","1","1","1","1","1","0","0.376323100063019","0.406494900002144","0.421998200006783","1","1","1","1","1","1","1","1","1"
"260023","img/object_images/microscope01.jpg","img/object_images/book03.jpg","img/object_images/floppy_disk02.jpg","1","1","1","0","1","0","0.421998200006783","0.376323100063019","0.425025000004098","1","1","1","1","1","1","1","1","1"
"260023","img/object_images/floppy_disk02.jpg","img/object_images/microscope01.jpg","img/object_images/floppy_disk03.jpg","1","1","1","0","0","1","0.425025000004098","0.421998200006783","0.454189499956556","1","1","1","1","1","1","1","1","1"
"260023","img/object_images/floppy_disk03.jpg","img/object_images/floppy_disk02.jpg","img/object_images/chair05.jpg","1","1","0","1","0","0","0.454189499956556","0.425025000004098","0.36784149997402","1","1","1","1","1","1","1","1","1"
"260023","img/object_images/chair05.jpg","img/object_images/floppy_disk03.jpg","img/object_images/retainer01.jpg","0","1","1","0","1","0","0.36784149997402","0.454189499956556","0.530813700053841","1","1","1","1","1","1","1","1","1"
"260023","img/object_images/retainer01.jpg","img/object_images/chair05.jpg","img/object_images/knife04.jpg","1","0","1","0","0","1","0.530813700053841","0.36784149997402","0.406587600009516","1","1","1","1","1","1","1","1","1"
"260023","img/object_images/knife04.jpg","img/object_images/retainer01.jpg","img/object_images/bell02.jpg","1","1","1","1","0","0","0.406587600009516","0.530813700053841","0.383264100062661","1","1","1","1","1","1","1","1","1"
"260023","img/object_images/bell02.jpg","img/object_images/knife04.jpg","img/object_images/pitcher01.jpg","1","1","1","0","1","0","0.383264100062661","0.406587600009516","0.582292799954303","1","1","1","1","1","1","1","1","1"
"260023","img/object_images/pitcher01.jpg","img/object_images/bell02.jpg","img/object_images/ear_bud01.jpg","1","1","1","0","0","1","0.582292799954303","0.383264100062661","0.423196899937466","1","1","1","1","1","1","1","1","1"
"260023","img/object_images/ear_bud01.jpg","img/object_images/pitcher01.jpg","img/object_images/Oven01.jpg","1","1","1","1","0","1","0.423196899937466","0.582292799954303","0.447982599958777","1","1","1","1","1","1","1","1","1"
"260023","img/object_images/Oven01.jpg","img/object_images/ear_bud01.jpg","img/object_images/bottle01.jpg","1","1","1","1","1","0","0.447982599958777","0.423196899937466","0.64659879996907","1","1","1","1","1","1","1","1","1"
"260023","img/object_images/bottle01.jpg","img/object_images/Oven01.jpg","img/object_images/lid01.jpg","1","1","1","0","1","1","0.64659879996907","0.447982599958777","0.392751000006683","1","1","1","1","1","1","1","1","1"
"260023","img/object_images/lid01.jpg","img/object_images/bottle01.jpg","img/object_images/pillows01.jpg","1","1","1","1","0","1","0.392751000006683","0.64659879996907","0.406573600019328","1","1","1","1","1","1","1","1","1"
"260023","img/object_images/pillows01.jpg","img/object_images/lid01.jpg","img/object_images/note_book01.jpg","1","1","1","1","1","0","0.406573600019328","0.392751000006683","0.558211000054143","1","1","1","1","1","1","1","1","1"
"260023","img/object_images/note_book01.jpg","img/object_images/pillows01.jpg","img/object_images/cellphone01.jpg","1","1","1","0","1","1","0.558211000054143","0.406573600019328","0.390615600044839","1","1","1","1","1","1","1","1","1"
"260023","img/object_images/cellphone01.jpg","img/object_images/note_book01.jpg","img/object_images/wire02.jpg","1","1","1","1","0","1","0.390615600044839","0.558211000054143","0.402485799975693","1","1","1","1","1","1","1","1","1"
"260023","img/object_images/wire02.jpg","img/object_images/cellphone01.jpg","img/object_images/tennis_racket02.jpg","1","1","1","1","1","1","0.402485799975693","0.390615600044839","0.800117200007662","1","1","1","1","1","1","1","1","1"
"260023","img/object_images/tennis_racket02.jpg","img/object_images/wire02.jpg","img/object_images/clock02.jpg","1","1","1","1","1","0","0.800117200007662","0.402485799975693","0.514871399966069","1","1","1","1","1","1","1","1","1"
"260023","img/object_images/clock02.jpg","img/object_images/tennis_racket02.jpg","img/object_images/tv02.jpg","1","1","1","0","1","0","0.514871399966069","0.800117200007662","0.544235400040634","1","1","1","1","1","1","1","1","1"
"260023","img/object_images/tv02.jpg","img/object_images/clock02.jpg","img/object_images/usb02.jpg","1","1","1","0","0","0","0.544235400040634","0.514871399966069","0.627881800057366","1","1","1","1","1","1","1","1","1"
"260023","img/object_images/usb02.jpg","img/object_images/tv02.jpg","img/object_images/compass01.jpg","1","1","1","0","0","1","0.627881800057366","0.544235400040634","0.469826400047168","1","1","1","1","1","1","1","1","1"
"260023","img/object_images/compass01.jpg","img/object_images/usb02.jpg","img/object_images/clip03.jpg","1","1","1","1","0","0","0.469826400047168","0.627881800057366","0.717400899971835","1","1","1","1","1","1","1","1","1"
"260023","img/object_images/clip03.jpg","img/object_images/compass01.jpg","img/object_images/chess_piece02.jpg","1","1","1","0","1","1","0.717400899971835","0.469826400047168","0.390661500045098","1","1","1","1","1","1","1","1","1"
"260023","img/object_images/chess_piece02.jpg","img/object_images/clip03.jpg","img/object_images/motorcycle01.jpg","1","1","1","1","0","1","0.390661500045098","0.717400899971835","0.354345900006592","1","1","1","1","1","1","1","1","1"
"260023","img/object_images/motorcycle01.jpg","img/object_images/chess_piece02.jpg","img/object_images/Thermometer01.jpg","1","1","1","1","1","0","0.354345900006592","0.390661500045098","0.442608099896461","1","1","1","1","1","1","1","1","1"
"260023","img/object_images/Thermometer01.jpg","img/object_images/motorcycle01.jpg","img/object_images/Staples01.jpg","1","1","1","0","1","1","0.442608099896461","0.354345900006592","0.353313300060108","1","1","1","1","1","1","1","1","1"
"260023","img/object_images/Staples01.jpg","img/object_images/Thermometer01.jpg","img/object_images/knit05.jpg","1","1","1","1","0","1","0.353313300060108","0.442608099896461","0.567285800003447","1","1","1","1","1","1","1","1","1"
"260023","img/object_images/knit05.jpg","img/object_images/Staples01.jpg",NA,"1","1",NA,"1","1",NA,"0.567285800003447","0.353313300060108",NA,"1","1",NA,"1","1",NA,"1","1",NA
"260023","img/object_images/gift_box05.jpg",NA,"img/object_images/pitcher05.jpg","1",NA,"1","0",NA,"0","0.527979899896309",NA,"0.471429400029592","1",NA,"1","1",NA,"1","1",NA,"1"
"260023","img/object_images/pitcher05.jpg","img/object_images/gift_box05.jpg","img/object_images/chair02.jpg","1","1","1","0","0","1","0.471429400029592","0.527979899896309","0.438813799992204","1","1","1","1","1","1","1","1","1"
"260023","img/object_images/chair02.jpg","img/object_images/pitcher05.jpg","img/object_images/accardion01.jpg","1","1","1","1","0","1","0.438813799992204","0.471429400029592","0.374977699946612","1","1","1","1","1","1","1","1","1"
"260023","img/object_images/accardion01.jpg","img/object_images/chair02.jpg","img/object_images/laptop03.jpg","1","1","1","1","1","1","0.374977699946612","0.438813799992204","0.361210400005803","1","1","1","1","1","1","1","1","1"
"260023","img/object_images/laptop03.jpg","img/object_images/accardion01.jpg","img/object_images/Vest02.jpg","1","1","1","1","1","0","0.361210400005803","0.374977699946612","0.546507499995641","1","1","1","1","1","1","1","1","1"
"260023","img/object_images/Vest02.jpg","img/object_images/laptop03.jpg","img/object_images/lock01.jpg","1","1","1","0","1","0","0.546507499995641","0.361210400005803","0.459939599968493","1","1","1","1","1","1","1","1","1"
"260023","img/object_images/lock01.jpg","img/object_images/Vest02.jpg","img/object_images/ball02.jpg","1","1","1","0","0","1","0.459939599968493","0.546507499995641","0.38362610002514","1","1","1","1","1","1","1","1","1"
"260023","img/object_images/ball02.jpg","img/object_images/lock01.jpg","img/object_images/towels01.jpg","1","1","1","1","0","0","0.38362610002514","0.459939599968493","0.464922299957834","1","1","1","1","1","1","1","1","1"
"260023","img/object_images/towels01.jpg","img/object_images/ball02.jpg","img/object_images/bucket02.jpg","1","1","1","0","1","1","0.464922299957834","0.38362610002514","0.458212899975479","1","1","1","1","1","1","1","1","1"
"260023","img/object_images/bucket02.jpg","img/object_images/towels01.jpg","img/object_images/shoes08.jpg","1","1","1","1","0","1","0.458212899975479","0.464922299957834","0.423096499987878","1","1","1","1","1","1","1","1","1"
"260023","img/object_images/shoes08.jpg","img/object_images/bucket02.jpg","img/object_images/trash_can03.jpg","1","1","1","1","1","1","0.423096499987878","0.458212899975479","0.75163519999478","1","1","1","1","1","1","1","1","1"
"260023","img/object_images/trash_can03.jpg","img/object_images/shoes08.jpg","img/object_images/hair_brush02.jpg","1","1","1","1","1","0","0.75163519999478","0.423096499987878","0.59181150002405","1","1","1","1","1","1","1","1","1"
"260023","img/object_images/hair_brush02.jpg","img/object_images/trash_can03.jpg","img/object_images/chess_piece01.jpg","1","1","0","0","1","0","0.59181150002405","0.75163519999478","0.408964800066315","1","1","1","1","1","1","1","1","1"
"260023","img/object_images/chess_piece01.jpg","img/object_images/hair_brush02.jpg","img/object_images/hair_dryer01.jpg","0","1","1","0","0","0","0.408964800066315","0.59181150002405","0.675145099987276","1","1","1","1","1","1","1","1","1"
"260023","img/object_images/hair_dryer01.jpg","img/object_images/chess_piece01.jpg","img/object_images/spatula02.jpg","1","0","1","0","0","1","0.675145099987276","0.408964800066315","0.466637799981982","1","1","1","1","1","1","1","1","1"
"260023","img/object_images/spatula02.jpg","img/object_images/hair_dryer01.jpg","img/object_images/robe01.jpg","1","1","1","1","0","1","0.466637799981982","0.675145099987276","0.344573699985631","1","1","1","1","1","1","1","1","1"
"260023","img/object_images/robe01.jpg","img/object_images/spatula02.jpg","img/object_images/umbrella01.jpg","1","1","0","1","1","0","0.344573699985631","0.466637799981982","0.370837199967355","1","1","1","1","1","1","1","1","1"
"260023","img/object_images/umbrella01.jpg","img/object_images/robe01.jpg","img/object_images/combs01.jpg","0","1","1","0","1","1","0.370837199967355","0.344573699985631","0.34487769997213","1","1","1","1","1","1","1","1","1"
"260023","img/object_images/combs01.jpg","img/object_images/umbrella01.jpg","img/object_images/microphone03.jpg","1","0","1","1","0","1","0.34487769997213","0.370837199967355","0.425974100013264","1","1","1","1","1","1","1","1","1"
"260023","img/object_images/microphone03.jpg","img/object_images/combs01.jpg","img/object_images/laptop01.jpg","1","1","0","1","1","0","0.425974100013264","0.34487769997213","0.371228399919346","1","1","1","1","1","1","1","1","1"
"260023","img/object_images/laptop01.jpg","img/object_images/microphone03.jpg","img/object_images/fan04.jpg","0","1","1","0","1","0","0.371228399919346","0.425974100013264","0.607428699964657","1","1","1","1","1","1","1","1","1"
"260023","img/object_images/fan04.jpg","img/object_images/laptop01.jpg","img/object_images/helmet02.jpg","1","0","1","0","0","0","0.607428699964657","0.371228399919346","0.821419200045057","1","1","1","1","1","1","1","1","1"
"260023","img/object_images/helmet02.jpg","img/object_images/fan04.jpg","img/object_images/backpack03.jpg","1","1","1","0","0","1","0.821419200045057","0.607428699964657","0.538425299921073","1","1","1","1","1","1","1","1","1"
"260023","img/object_images/backpack03.jpg","img/object_images/helmet02.jpg","img/object_images/stove01.jpg","1","1","1","1","0","0","0.538425299921073","0.821419200045057","0.525354399927892","1","1","1","1","1","1","1","1","1"
"260023","img/object_images/stove01.jpg","img/object_images/backpack03.jpg","img/object_images/Lint_Roller02.jpg","1","1","1","0","1","0","0.525354399927892","0.538425299921073","0.656038500019349","1","1","1","1","1","1","1","1","1"
"260023","img/object_images/Lint_Roller02.jpg","img/object_images/stove01.jpg","img/object_images/vase01.jpg","1","1","1","0","0","0","0.656038500019349","0.525354399927892","0.451261000009254","1","1","1","1","1","1","1","1","1"
"260023","img/object_images/vase01.jpg","img/object_images/Lint_Roller02.jpg","img/object_images/trash_can05.jpg","1","1","1","0","0","1","0.451261000009254","0.656038500019349","0.700072600040585","1","1","1","1","1","1","1","1","1"
"260023","img/object_images/trash_can05.jpg","img/object_images/vase01.jpg","img/object_images/surf_board01.jpg","1","1","1","1","0","1","0.700072600040585","0.451261000009254","0.453912000055425","1","1","1","1","1","1","1","1","1"
"260023","img/object_images/surf_board01.jpg","img/object_images/trash_can05.jpg","img/object_images/toy05.jpg","1","1","1","1","1","0","0.453912000055425","0.700072600040585","0.558785400004126","1","1","1","1","1","1","1","1","1"
"260023","img/object_images/toy05.jpg","img/object_images/surf_board01.jpg","img/object_images/jewel03.jpg","1","1","1","0","1","1","0.558785400004126","0.453912000055425","0.426361399935558","1","1","1","1","1","1","1","1","1"
"260023","img/object_images/jewel03.jpg","img/object_images/toy05.jpg","img/object_images/calculator01.jpg","1","1","1","1","0","1","0.426361399935558","0.558785400004126","1.39523050002754","1","1","1","1","1","1","1","1","1"
"260023","img/object_images/calculator01.jpg","img/object_images/jewel03.jpg",NA,"1","1",NA,"1","1",NA,"1.39523050002754","0.426361399935558",NA,"1","1",NA,"1","1",NA,"1","1",NA
"260023","img/object_images/hair_brush01.jpg",NA,"img/object_images/bag_pipes01.jpg","1",NA,"1","1",NA,"1","0.429737000027671",NA,"0.427113200072199","1",NA,"1","1",NA,"1","1",NA,"1"
"260023","img/object_images/bag_pipes01.jpg","img/object_images/hair_brush01.jpg","img/object_images/pitcher09.jpg","1","1","1","1","1","1","0.427113200072199","0.429737000027671","0.345203000004403","1","1","1","1","1","1","1","1","1"
"260023","img/object_images/pitcher09.jpg","img/object_images/bag_pipes01.jpg","img/object_images/soap03.jpg","1","1","1","1","1","0","0.345203000004403","0.427113200072199","0.365023000049405","1","1","1","1","1","1","1","1","1"
"260023","img/object_images/soap03.jpg","img/object_images/pitcher09.jpg","img/object_images/toothbrush01.jpg","1","1","1","0","1","0","0.365023000049405","0.345203000004403","0.507488399976864","1","1","1","1","1","1","1","1","1"
"260023","img/object_images/toothbrush01.jpg","img/object_images/soap03.jpg","img/object_images/tool06.jpg","1","1","1","0","0","0","0.507488399976864","0.365023000049405","0.391080800094642","1","1","1","1","1","1","1","1","1"
"260023","img/object_images/tool06.jpg","img/object_images/toothbrush01.jpg","img/object_images/box03.jpg","1","1","0","0","0","0","0.391080800094642","0.507488399976864","0.372883499949239","1","1","1","1","1","1","1","1","1"
"260023","img/object_images/box03.jpg","img/object_images/tool06.jpg","img/object_images/mail_box02.jpg","0","1","1","0","0","1","0.372883499949239","0.391080800094642","0.398055800003931","1","1","1","1","1","1","1","1","1"
"260023","img/object_images/mail_box02.jpg","img/object_images/box03.jpg","img/object_images/floss02.jpg","1","0","1","1","0","1","0.398055800003931","0.372883499949239","0.420675599947572","1","1","1","1","1","1","1","1","1"
"260023","img/object_images/floss02.jpg","img/object_images/mail_box02.jpg","img/object_images/skate_board01.jpg","1","1","1","1","1","0","0.420675599947572","0.398055800003931","0.391529799904674","1","1","1","1","1","1","1","1","1"
"260023","img/object_images/skate_board01.jpg","img/object_images/floss02.jpg","img/object_images/clip04.jpg","1","1","1","0","1","1","0.391529799904674","0.420675599947572","0.527452600072138","1","1","1","1","1","1","1","1","2"
"260023","img/object_images/clip04.jpg","img/object_images/skate_board01.jpg","img/object_images/bell03.jpg","1","1","1","1","0","0","0.527452600072138","0.391529799904674","0.424703900003806","1","1","1","1","1","1","2","1","1"
"260023","img/object_images/bell03.jpg","img/object_images/clip04.jpg","img/object_images/Trowel01.jpg","1","1","1","0","1","0","0.424703900003806","0.527452600072138","0.354375399998389","1","1","1","1","1","1","1","2","1"
"260023","img/object_images/Trowel01.jpg","img/object_images/bell03.jpg","img/object_images/chain01.jpg","1","1","1","0","0","0","0.354375399998389","0.424703900003806","0.378829499939457","1","1","1","1","1","1","1","1","1"
"260023","img/object_images/chain01.jpg","img/object_images/Trowel01.jpg","img/object_images/drone01.jpg","1","1","1","0","0","1","0.378829499939457","0.354375399998389","0.403353199944831","1","1","1","1","1","1","1","1","1"
"260023","img/object_images/drone01.jpg","img/object_images/chain01.jpg","img/object_images/toy01.jpg","1","1","1","1","0","1","0.403353199944831","0.378829499939457","0.44091100001242","1","1","1","1","1","1","1","1","1"
"260023","img/object_images/toy01.jpg","img/object_images/drone01.jpg","img/object_images/egg_slicer01.jpg","1","1","1","1","1","1","0.44091100001242","0.403353199944831","0.424022900057025","1","1","1","1","1","1","1","1","1"
"260023","img/object_images/egg_slicer01.jpg","img/object_images/toy01.jpg","img/object_images/couch01.jpg","1","1","1","1","1","0","0.424022900057025","0.44091100001242","0.659228200092912","1","1","1","1","1","1","1","1","1"
"260023","img/object_images/couch01.jpg","img/object_images/egg_slicer01.jpg","img/object_images/Violin01.jpg","1","1","1","0","1","0","0.659228200092912","0.424022900057025","0.530565900029615","1","1","1","1","1","1","1","1","1"
"260023","img/object_images/Violin01.jpg","img/object_images/couch01.jpg","img/object_images/video_game03.jpg","1","1","1","0","0","1","0.530565900029615","0.659228200092912","0.397534799994901","1","1","1","1","1","1","1","1","1"
"260023","img/object_images/video_game03.jpg","img/object_images/Violin01.jpg","img/object_images/rock02.jpg","1","1","1","1","0","0","0.397534799994901","0.530565900029615","0.663949899957515","1","1","1","1","1","1","1","1","1"
"260023","img/object_images/rock02.jpg","img/object_images/video_game03.jpg","img/object_images/fork02.jpg","1","1","1","0","1","0","0.663949899957515","0.397534799994901","0.706138300010934","1","1","1","1","1","1","1","1","1"
"260023","img/object_images/fork02.jpg","img/object_images/rock02.jpg","img/object_images/book02.jpg","1","1","1","0","0","1","0.706138300010934","0.663949899957515","0.384312200010754","1","1","1","1","1","1","1","1","1"
"260023","img/object_images/book02.jpg","img/object_images/fork02.jpg","img/object_images/computer_mouse02.jpg","1","1","1","1","0","0","0.384312200010754","0.706138300010934","0.390913699986413","1","1","1","1","1","1","1","1","1"
"260023","img/object_images/computer_mouse02.jpg","img/object_images/book02.jpg","img/object_images/scarf01.jpg","1","1","1","0","1","1","0.390913699986413","0.384312200010754","0.491514199995436","1","1","1","1","1","1","1","1","1"
"260023","img/object_images/scarf01.jpg","img/object_images/computer_mouse02.jpg","img/object_images/tripod01.jpg","1","1","1","1","0","1","0.491514199995436","0.390913699986413","0.316212499979883","1","1","1","1","1","1","1","1","1"
"260023","img/object_images/tripod01.jpg","img/object_images/scarf01.jpg","img/object_images/computer_mouse01.jpg","1","1","0","1","1","1","0.316212499979883","0.491514199995436",NA,"1","1","0","1","1","0","1","1","0"
"260023","img/object_images/computer_mouse01.jpg","img/object_images/tripod01.jpg","img/object_images/chair06.jpg","0","1","1","1","1","0",NA,"0.316212499979883","0.572079700068571","0","1","1","0","1","1","0","1","1"
"260023","img/object_images/chair06.jpg","img/object_images/computer_mouse01.jpg","img/object_images/blender01.jpg","1","0","1","0","1","0","0.572079700068571",NA,"0.566199900000356","1","0","1","1","0","1","1","0","1"
"260023","img/object_images/blender01.jpg","img/object_images/chair06.jpg","img/object_images/shoes12.jpg","1","1","1","0","0","1","0.566199900000356","0.572079700068571","0.903061999939382","1","1","1","1","1","1","1","1","1"
"260023","img/object_images/shoes12.jpg","img/object_images/blender01.jpg","img/object_images/airfryer02.jpg","1","1","1","1","0","1","0.903061999939382","0.566199900000356","0.857230399968103","1","1","1","1","1","1","1","1","1"
"260023","img/object_images/airfryer02.jpg","img/object_images/shoes12.jpg","img/object_images/pen01.jpg","1","1","0","1","1","0","0.857230399968103","0.903061999939382","0.422153700026684","1","1","1","1","1","1","1","1","1"
"260023","img/object_images/pen01.jpg","img/object_images/airfryer02.jpg",NA,"0","1",NA,"0","1",NA,"0.422153700026684","0.857230399968103",NA,"1","1",NA,"1","1",NA,"1","1",NA
"260023","img/object_images/handcuffs01.jpg",NA,"img/object_images/cup03.jpg","1",NA,"1","0",NA,"1","0.453028500080109",NA,"0.409505299990997","1",NA,"1","1",NA,"1","1",NA,"1"
"260023","img/object_images/cup03.jpg","img/object_images/handcuffs01.jpg","img/object_images/hole_puncher01.jpg","1","1","1","1","0","1","0.409505299990997","0.453028500080109","0.37705980008468","1","1","1","1","1","1","1","1","1"
"260023","img/object_images/hole_puncher01.jpg","img/object_images/cup03.jpg","img/object_images/gift_box04.jpg","1","1","0","1","1","0","0.37705980008468","0.409505299990997","0.362759699928574","1","1","1","1","1","1","1","1","1"
"260023","img/object_images/gift_box04.jpg","img/object_images/hole_puncher01.jpg","img/object_images/speaker01.jpg","0","1","1","0","1","1","0.362759699928574","0.37705980008468","0.384453899925575","1","1","1","1","1","1","1","1","1"
"260023","img/object_images/speaker01.jpg","img/object_images/gift_box04.jpg","img/object_images/projector01.jpg","1","0","1","1","0","0","0.384453899925575","0.362759699928574","0.329016499919817","1","1","1","1","1","1","1","1","1"
"260023","img/object_images/projector01.jpg","img/object_images/speaker01.jpg","img/object_images/tool08.jpg","1","1","1","0","1","0","0.329016499919817","0.384453899925575","0.435311600100249","1","1","1","1","1","1","1","1","1"
"260023","img/object_images/tool08.jpg","img/object_images/projector01.jpg","img/object_images/yo_yo01.jpg","1","1","0","0","0","0","0.435311600100249","0.329016499919817","0.428252000012435","1","1","1","1","1","1","1","1","2"
"260023","img/object_images/yo_yo01.jpg","img/object_images/tool08.jpg","img/object_images/fire_extinguisher01.jpg","0","1","1","0","0","0","0.428252000012435","0.435311600100249","0.365474999998696","1","1","1","1","1","1","2","1","1"
"260023","img/object_images/fire_extinguisher01.jpg","img/object_images/yo_yo01.jpg","img/object_images/tool07.jpg","1","0","1","0","0","0","0.365474999998696","0.428252000012435","0.539944699965417","1","1","1","1","1","1","1","2","1"
"260023","img/object_images/tool07.jpg","img/object_images/fire_extinguisher01.jpg","img/object_images/pan01.jpg","1","1","1","0","0","1","0.539944699965417","0.365474999998696","0.464159300085157","1","1","1","1","1","1","1","1","1"
"260023","img/object_images/pan01.jpg","img/object_images/tool07.jpg","img/object_images/Sprayer01.jpg","1","1","1","1","0","0","0.464159300085157","0.539944699965417","0.498315099976026","1","1","1","1","1","1","1","1","1"
"260023","img/object_images/Sprayer01.jpg","img/object_images/pan01.jpg","img/object_images/jewelry09.jpg","1","1","1","0","1","1","0.498315099976026","0.464159300085157","0.45638400001917","1","1","1","1","1","1","1","1","1"
"260023","img/object_images/jewelry09.jpg","img/object_images/Sprayer01.jpg","img/object_images/faucet01.jpg","1","1","1","1","0","0","0.45638400001917","0.498315099976026","0.510873400024138","1","1","1","1","1","1","1","1","1"
"260023","img/object_images/faucet01.jpg","img/object_images/jewelry09.jpg","img/object_images/hair_clips01.jpg","1","1","1","0","1","1","0.510873400024138","0.45638400001917","1.14315170003101","1","1","1","1","1","1","1","1","1"
"260023","img/object_images/hair_clips01.jpg","img/object_images/faucet01.jpg","img/object_images/cellphone02.jpg","1","1","1","1","0","1","1.14315170003101","0.510873400024138","0.512577699963003","1","1","1","1","1","1","1","1","1"
"260023","img/object_images/cellphone02.jpg","img/object_images/hair_clips01.jpg","img/object_images/colander01.jpg","1","1","0","1","1","0","0.512577699963003","1.14315170003101","0.479322300059721","1","1","1","1","1","1","1","1","2"
"260023","img/object_images/colander01.jpg","img/object_images/cellphone02.jpg","img/object_images/exfoliater_brush01.jpg","0","1","1","0","1","0","0.479322300059721","0.512577699963003","0.376929700025357","1","1","1","1","1","1","2","1","1"
"260023","img/object_images/exfoliater_brush01.jpg","img/object_images/colander01.jpg","img/object_images/lighter01.jpg","1","0","1","0","0","1","0.376929700025357","0.479322300059721","0.440381099935621","1","1","1","1","1","1","1","2","1"
"260023","img/object_images/lighter01.jpg","img/object_images/exfoliater_brush01.jpg","img/object_images/purse01.jpg","1","1","1","1","0","1","0.440381099935621","0.376929700025357","0.444156599929556","1","1","1","1","1","1","1","1","1"
"260023","img/object_images/purse01.jpg","img/object_images/lighter01.jpg","img/object_images/glasses07.jpg","1","1","1","1","1","1","0.444156599929556","0.440381099935621","0.786521299974993","1","1","1","1","1","1","1","1","1"
"260023","img/object_images/glasses07.jpg","img/object_images/purse01.jpg","img/object_images/ring03.jpg","1","1","1","1","1","1","0.786521299974993","0.444156599929556","0.762096400023438","1","1","1","1","1","1","1","1","1"
"260023","img/object_images/ring03.jpg","img/object_images/glasses07.jpg","img/object_images/blanket01.jpg","1","1","1","1","1","1","0.762096400023438","0.786521299974993","0.626029699924402","1","1","1","1","1","1","1","1","1"
"260023","img/object_images/blanket01.jpg","img/object_images/ring03.jpg","img/object_images/glasses06.jpg","1","1","1","1","1","1","0.626029699924402","0.762096400023438","0.546668700058945","1","1","1","1","1","1","1","1","1"
"260023","img/object_images/glasses06.jpg","img/object_images/blanket01.jpg","img/object_images/bicycle_lock01.jpg","1","1","1","1","1","0","0.546668700058945","0.626029699924402","0.551451300038025","1","1","1","1","1","1","1","1","1"
"260023","img/object_images/bicycle_lock01.jpg","img/object_images/glasses06.jpg","img/object_images/basket02.jpg","1","1","0","0","1","0","0.551451300038025","0.546668700058945","0.554439300089143","1","1","1","1","1","1","1","1","1"
"260023","img/object_images/basket02.jpg","img/object_images/bicycle_lock01.jpg","img/object_images/Traffic Sign 01.jpg","0","1","1","0","0","0","0.554439300089143","0.551451300038025","0.459359599975869","1","1","1","1","1","1","1","1","1"
"260023","img/object_images/Traffic Sign 01.jpg","img/object_images/basket02.jpg","img/object_images/TrashCan02.jpg","1","0","1","0","0","1","0.459359599975869","0.554439300089143","0.474220299976878","1","1","1","1","1","1","1","1","1"
"260023","img/object_images/TrashCan02.jpg","img/object_images/Traffic Sign 01.jpg","img/object_images/Kitchen_Towel.jpg","1","1","1","1","0","0","0.474220299976878","0.459359599975869","0.510905299917795","1","1","1","1","1","1","1","1","1"
"260023","img/object_images/Kitchen_Towel.jpg","img/object_images/TrashCan02.jpg","img/object_images/tray01.jpg","1","1","1","0","1","1","0.510905299917795","0.474220299976878","0.431575499940664","1","1","1","1","1","1","1","1","1"
"260023","img/object_images/tray01.jpg","img/object_images/Kitchen_Towel.jpg","img/object_images/book01.jpg","1","1","1","1","0","1","0.431575499940664","0.510905299917795","0.847147599910386","1","1","1","1","1","1","1","1","2"
"260023","img/object_images/book01.jpg","img/object_images/tray01.jpg","img/object_images/Pottery01.jpg","1","1","1","1","1","0","0.847147599910386","0.431575499940664","0.608277600025758","1","1","1","1","1","1","2","1","1"
"260023","img/object_images/Pottery01.jpg","img/object_images/book01.jpg",NA,"1","1",NA,"0","1",NA,"0.608277600025758","0.847147599910386",NA,"1","1",NA,"1","1",NA,"1","2",NA
