"participant_id","object","surpAcc","memory_surp_responses","memory_surp_rt","keep_surp_memory_trial_based_on_rt","surp_block_num","exclude_block","number_of_surp_resp_items_used","num_blocks_excluded"
"260062","img/object_images/sink01.jpg","1","s","3.05846159999965",1,1,0,2,0
"260062","img/object_images/pitcher02.jpg","1","s","2.30588650000027",1,1,0,2,0
"260062","img/object_images/cellphone03.jpg","0","s","2.63441320000129",1,1,0,2,0
"260062","img/object_images/vase01.jpg","1","k","2.21805910000148",1,1,0,2,0
"260062","img/object_images/ornament01.jpg","1","s","1.9063397000009",1,1,0,2,0
"260062","img/object_images/knit05.jpg","1","k","2.29186999999911",1,1,0,2,0
"260062","img/object_images/razor01.jpg","1","k","2.51644010000018",1,1,0,2,0
"260062","img/object_images/knife01.jpg","1","s","2.24579260000064",1,1,0,2,0
"260062","img/object_images/scarf01.jpg","1","k","2.37983340000028",1,1,0,2,0
"260062","img/object_images/microphone03.jpg","1","s","2.34707630000048",1,1,0,2,0
"260062","img/object_images/crown02.jpg","1","s","2.2601121000007",1,1,0,2,0
"260062","img/object_images/broom01.jpg","1","k","2.50111810000089",1,1,0,2,0
"260062","img/object_images/boat04.jpg","0","s","2.25642540000081",1,1,0,2,0
"260062","img/object_images/guitar02.jpg","0","k","2.42984780000006",1,1,0,2,0
"260062","img/object_images/matches02.jpg","1","s","2.40713870000036",1,1,0,2,0
"260062","img/object_images/shower_head01.jpg","1","s","1.96985420000055",1,1,0,2,0
"260062","img/object_images/accardion01.jpg","1","k","2.02968859999964",1,1,0,2,0
"260062","img/object_images/pen03.jpg","1","k","2.1385664999998",1,1,0,2,0
"260062","img/object_images/MetalWire01.jpg","1","k","2.10694980000153",1,1,0,2,0
"260062","img/object_images/Thermometer01.jpg","1","k","1.83440680000058",1,1,0,2,0
"260062","img/object_images/clip02.jpg","1","k","2.00708549999945",1,1,0,2,0
"260062","img/object_images/fan01.jpg","1","k","1.80815440000151",1,1,0,2,0
"260062","img/object_images/brief_case02.jpg","1","k","2.1556199000006",1,1,0,2,0
"260062","img/object_images/jewel04.jpg","1","k","1.82216789999984",1,1,0,2,0
"260062","img/object_images/ToolBag01.jpg","0","s","2.10077490000003",1,1,0,2,0
"260062","img/object_images/flashlight03.jpg","1","k","2.22987269999976",1,1,0,2,0
"260062","img/object_images/toaster01.jpg","0","s","2.42001429999982",1,1,0,2,0
"260062","img/object_images/video_game02.jpg","1","k","1.63842820000173",1,1,0,2,0
"260062","img/object_images/purse04.jpg","1","k","2.04351200000019",1,1,0,2,0
"260062","img/object_images/Traffic Sign 01.jpg","0","k","2.15504979999969",1,1,0,2,0
"260062","img/object_images/Lint_Roller02.jpg","1","s","1.82916060000207",1,1,0,2,0
"260062","img/object_images/key02.jpg","1","s","2.19516720000138",1,1,0,2,0
"260062","img/object_images/ruler02.jpg","1","s","1.4759238000006",1,1,0,2,0
"260062","img/object_images/tv01.jpg","0","s","1.95026139999936",1,1,0,2,0
"260062","img/object_images/mask01.jpg","1","k","1.84308419999979",1,1,0,2,0
"260062","img/object_images/bottle05.jpg","1","s","2.25807619999978",1,1,0,2,0
"260062","img/object_images/knife04.jpg","1","s","2.45179870000175",1,1,0,2,0
"260062","img/object_images/bird_house02.jpg","1","s","1.74264250000124",1,1,0,2,0
"260062","img/object_images/knife02.jpg","1","s","2.43553559999964",1,1,0,2,0
"260062","img/object_images/bow_tie03.jpg","1","k","1.75818590000017",1,1,0,2,0
"260062","img/object_images/WoodBox01.jpg","0","k","1.84898700000122",1,1,0,2,0
"260062","img/object_images/hair_brush02.jpg","1","k","1.55263300000115",1,1,0,2,0
"260062","img/object_images/pot01.jpg","1","s","2.45221579999998",1,1,0,2,0
"260062","img/object_images/dress03.jpg","0","k","2.01841080000122",1,1,0,2,0
"260062","img/object_images/book03.jpg","1","s","2.38035479999962",1,1,0,2,0
"260062","img/object_images/perfume02.jpg","1","s","2.75385960000131",1,1,0,2,0
"260062","img/object_images/bow_tie01.jpg","1","k","1.95755610000015",1,1,0,2,0
"260062","img/object_images/Vest02.jpg","1","s","2.28830369999923",1,1,0,2,0
"260062","img/object_images/surf_board01.jpg","0","s","2.43000959999881",1,2,0,2,0
"260062","img/object_images/pen01.jpg","0","k","2.3701953000018",1,2,0,2,0
"260062","img/object_images/boat_toy10.jpg","1","s","2.34772750000047",1,2,0,2,0
"260062","img/object_images/tool07.jpg","1","k","1.66556870000022",1,2,0,2,0
"260062","img/object_images/hat13.jpg","1","s","0.863467600000149",1,2,0,2,0
"260062","img/object_images/robe01.jpg","1","k","2.34222709999995",1,2,0,2,0
"260062","img/object_images/gauze01.jpg","1","s","1.5728377000014",1,2,0,2,0
"260062","img/object_images/glasses03.jpg","0","k","1.79925770000045",1,2,0,2,0
"260062","img/object_images/gift_box02.jpg","1","k","2.92607920000046",1,2,0,2,0
"260062","img/object_images/tripod01.jpg","1","k","2.28067399999964",1,2,0,2,0
"260062","img/object_images/TreeSlice01.jpg","1","s","1.11989069999981",1,2,0,2,0
"260062","img/object_images/vase02.jpg","1","s","1.18206600000121",1,2,0,2,0
"260062","img/object_images/note_book02.jpg","1","k","2.59532840000065",1,2,0,2,0
"260062","img/object_images/dice01.jpg","1","k","2.26625919999969",1,2,0,2,0
"260062","img/object_images/soap01.jpg","1","s","1.9131096000001",1,2,0,2,0
"260062","img/object_images/curtain02.jpg","1","s","2.0036197999998",1,2,0,2,0
"260062","img/object_images/helmet01.jpg","1","s","2.43759920000048",1,2,0,2,0
"260062","img/object_images/ear_bud01.jpg","1","k","1.79007160000037",1,2,0,2,0
"260062","img/object_images/knit01.jpg","1","s","2.66918830000031",1,2,0,2,0
"260062","img/object_images/board01.jpg","1","s","1.24668320000092",1,2,0,2,0
"260062","img/object_images/WitchHat02.jpg","1","k","2.99270699999943",1,2,0,2,0
"260062","img/object_images/wallet02.jpg","1","k","2.42112470000029",1,2,0,2,0
"260062","img/object_images/pan01.jpg","1","s","2.63853080000081",1,2,0,2,0
"260062","img/object_images/pen05.jpg","1","s","3.25686080000014",1,2,0,2,0
"260062","img/object_images/toothbrush01.jpg","1","k","1.67517609999959",1,2,0,2,0
"260062","img/object_images/Witchhat01.jpg","0","k","3.25101259999974",1,2,0,2,0
"260062","img/object_images/ice_tray03.jpg","1","s","3.0606585000005",1,2,0,2,0
"260062","img/object_images/backpack01.jpg","0","k","2.66876170000069",1,2,0,2,0
"260062","img/object_images/lemon_squeezer01.jpg","1","s","2.90719170000011",1,2,0,2,0
"260062","img/object_images/acoustic_capo01.jpg","1","s","3.08166189999974",1,2,0,2,0
"260062","img/object_images/airfryer01.jpg","0","s","4.38094400000045",1,2,0,2,0
"260062","img/object_images/crutches02.jpg","1","s","1.73149960000046",1,2,0,2,0
"260062","img/object_images/bath_tub01.jpg","1","s","2.85821170000054",1,2,0,2,0
"260062","img/object_images/projector01.jpg","0","k","3.97906120000152",1,2,0,2,0
"260062","img/object_images/hole_puncher01.jpg","1","k","3.81822579999971",1,2,0,2,0
"260062","img/object_images/slinky_toy01.jpg","1","s","0.976174100000208",1,2,0,2,0
"260062","img/object_images/tie02.jpg","1","s","2.90511330000118",1,2,0,2,0
"260062","img/object_images/pitcher01.jpg","1","s","1.62923270000101",1,2,0,2,0
"260062","img/object_images/retainer01.jpg","1","k","1.57304139999906",1,2,0,2,0
"260062","img/object_images/ironing_table01.jpg","0","s","2.89364120000027",1,2,0,2,0
"260062","img/object_images/lemon_squeezer02.jpg","1","k","3.00209650000033",1,2,0,2,0
"260062","img/object_images/microscope01.jpg","0","k","3.26839510000173",1,2,0,2,0
"260062","img/object_images/clip04.jpg","1","s","3.44596249999995",1,2,0,2,0
"260062","img/object_images/ball02.jpg","1","s","3.58884170000056",1,2,0,2,0
"260062","img/object_images/trash_can05.jpg","1","k","1.84642209999947",1,2,0,2,0
"260062","img/object_images/hammer03.jpg","1","k","1.94727430000057",1,2,0,2,0
"260062","img/object_images/tool11.jpg","1","k","3.76993820000098",1,2,0,2,0
"260062","img/object_images/mail_box02.jpg","1","s","3.15941870000097",1,2,0,2,0
"260062","img/object_images/toy01.jpg","1","s","2.22570309999901",1,3,0,2,0
"260062","img/object_images/sink_filter01 (1).jpg","1","s","3.05042169999979",1,3,0,2,0
"260062","img/object_images/backpack03.jpg","1","s","3.20710809999946",1,3,0,2,0
"260062","img/object_images/Violin01.jpg","0","s","3.1485816000004",1,3,0,2,0
"260062","img/object_images/book01.jpg","1","k","3.06557219999922",1,3,0,2,0
"260062","img/object_images/fan04.jpg","1","k","2.1360640999992",1,3,0,2,0
"260062","img/object_images/audio_port01.jpg","1","s","3.05441979999887",1,3,0,2,0
"260062","img/object_images/bag04.jpg","1","s","2.31072610000047",1,3,0,2,0
"260062","img/object_images/origami01.jpg","1","k","3.26692830000138",1,3,0,2,0
"260062","img/object_images/bookmark01.jpg","0","k","2.94829930000014",1,3,0,2,0
"260062","img/object_images/stereo02.jpg","0","k","2.89102430000094",1,3,0,2,0
"260062","img/object_images/book02.jpg","1","s","3.41715789999944",1,3,0,2,0
"260062","img/object_images/bucket02.jpg","1","s","3.3409143000008",1,3,0,2,0
"260062","img/object_images/floppy_disk02.jpg","0","k","4.41137180000078",1,3,0,2,0
"260062","img/object_images/trumpet01.jpg","0","s","2.24623249999968",1,3,0,2,0
"260062","img/object_images/dog_leash01.jpg","1","s","2.67157469999984",1,3,0,2,0
"260062","img/object_images/camera05.jpg","1","s","2.54076189999978",1,3,0,2,0
"260062","img/object_images/combs01.jpg","0","s","2.8108785000004",1,3,0,2,0
"260062","img/object_images/yarn02.jpg","1","k","3.62853659999928",1,3,0,2,0
"260062","img/object_images/bottle12.jpg","1","k","3.2656590000006",1,3,0,2,0
"260062","img/object_images/computer_mouse01.jpg","0","s","2.11158539999997",1,3,0,2,0
"260062","img/object_images/hoverboard01.jpg","1","s","3.24662680000074",1,3,0,2,0
"260062","img/object_images/Ring02.jpg","1","s","2.49970020000001",1,3,0,2,0
"260062","img/object_images/video_game06.jpg","0","k","3.96455500000047",1,3,0,2,0
"260062","img/object_images/basket02.jpg","1","s","5.10616840000148",1,3,0,2,0
"260062","img/object_images/jewelry01.jpg","1","k","4.07124339999973",1,3,0,2,0
"260062","img/object_images/MeasuringCup01.jpg","0","s","4.36997060000067",1,3,0,2,0
"260062","img/object_images/blender01.jpg","1","s","4.5672470999998",1,3,0,2,0
"260062","img/object_images/spatula02.jpg","1","s","2.26695499999914",1,3,0,2,0
"260062","img/object_images/sleeping_bag01.jpg","1","s","3.83530649999921",1,3,0,2,0
"260062","img/object_images/toy08.jpg","0","s","3.46149409999998",1,3,0,2,0
"260062","img/object_images/water_gun01.jpg","1","s","1.25356049999937",1,3,0,2,0
"260062","img/object_images/TrashCan02.jpg","1","k","3.48482870000043",1,3,0,2,0
"260062","img/object_images/note_book01.jpg","0","s","3.53461830000197",1,3,0,2,0
"260062","img/object_images/toy03.jpg","1","s","2.13866310000048",1,3,0,2,0
"260062","img/object_images/exfoliater_brush01.jpg","1","s","3.86390150000079",1,3,0,2,0
"260062","img/object_images/bottle02.jpg","1","k","2.18664299999909",1,3,0,2,0
"260062","img/object_images/lock03.jpg","1","s","2.40997199999947",1,3,0,2,0
"260062","img/object_images/clock02.jpg","1","k","1.75603120000051",1,3,0,2,0
"260062","img/object_images/toy_train02.jpg","1","s","3.27464040000086",1,3,0,2,0
"260062","img/object_images/tool08.jpg","0","s","4.85122369999954",1,3,0,2,0
"260062","img/object_images/Tin01.jpg","0","s","2.57629020000059",1,3,0,2,0
"260062","img/object_images/gloves05.jpg","0","k","4.88562560000173",1,3,0,2,0
"260062","img/object_images/candle02.jpg","0","k","2.79207900000074",1,3,0,2,0
"260062","img/object_images/Candle_Holder01.jpg","1","s","1.51329129999976",1,3,0,2,0
"260062","img/object_images/kite01.jpg","1","k","1.94509420000031",1,3,0,2,0
"260062","img/object_images/tool02.jpg","0","s","1.7507009000019",1,3,0,2,0
"260062","img/object_images/shovel01.jpg","1","s","1.53360319999956",1,3,0,2,0
"260062","img/object_images/lamp01.jpg","1","k","2.51060000000143",1,4,0,2,0
"260062","img/object_images/chess_piece02.jpg","1","k","1.46725979999974",1,4,0,2,0
"260062","img/object_images/cards01.jpg","1","k","2.95992390000174",1,4,0,2,0
"260062","img/object_images/lighter01.jpg","0","s","3.50076569999874",1,4,0,2,0
"260062","img/object_images/bicycle_lock01.jpg","0","k","3.3850685999987",1,4,0,2,0
"260062","img/object_images/bag_pipes01.jpg","0","k","4.24073390000012",1,4,0,2,0
"260062","img/object_images/Statue01.jpg","1","k","2.59395570000197",1,4,0,2,0
"260062","img/object_images/couch03.jpg","1","s","1.69849719999911",1,4,0,2,0
"260062","img/object_images/Trowel01.jpg","1","k","2.41797129999941",1,4,0,2,0
"260062","img/object_images/motorcycle01.jpg","1","k","2.62689330000103",1,4,0,2,0
"260062","img/object_images/speaker01.jpg","0","k","2.81416460000037",1,4,0,2,0
"260062","img/object_images/chain01.jpg","0","k","2.99600400000054",1,4,0,2,0
"260062","img/object_images/brief_case01.jpg","1","s","3.1202959000002",1,4,0,2,0
"260062","img/object_images/Pottery01.jpg","1","k","2.22086210000089",1,4,0,2,0
"260062","img/object_images/bottle01.jpg","1","k","2.91042460000062",1,4,0,2,0
"260062","img/object_images/colander01.jpg","1","k","3.40864019999935",1,4,0,2,0
"260062","img/object_images/bow01.jpg","1","k","2.36319279999952",1,4,0,2,0
"260062","img/object_images/mirror01.jpg","1","s","2.73193420000098",1,4,0,2,0
"260062","img/object_images/water_scooter01.jpg","1","k","2.30933759999971",1,4,0,2,0
"260062","img/object_images/flask01.jpg","1","s","2.65043500000138",1,4,0,2,0
"260062","img/object_images/yo_yo01.jpg","1","s","2.41720530000021",1,4,0,2,0
"260062","img/object_images/jewel02.jpg","1","s","1.36909819999892",1,4,0,2,0
"260062","img/object_images/egg_slicer01.jpg","1","s","1.19032139999945",1,4,0,2,0
"260062","img/object_images/jacket04.jpg","1","s","4.99631790000058",1,4,0,2,0
"260062","img/object_images/ball01.jpg","1","s","1.84514230000059",1,4,0,2,0
"260062","img/object_images/bottle09.jpg","1","k","4.17224250000072",1,4,0,2,0
"260062","img/object_images/usb03.jpg","1","s","2.44653749999998",1,4,0,2,0
"260062","img/object_images/guitar01.jpg","1","s","1.11544800000047",1,4,0,2,0
"260062","img/object_images/hammer01.jpg","1","k","3.44912280000062",1,4,0,2,0
"260062","img/object_images/bean_bag02.jpg","0","s","3.32012159999977",1,4,0,2,0
"260062","img/object_images/judge_gavel01.jpg","0","s","2.61620890000086",1,4,0,2,0
"260062","img/object_images/Staples01.jpg","1","s","3.84968480000134",1,4,0,2,0
"260062","img/object_images/knit03.jpg","1","s","2.85665640000116",1,4,0,2,0
"260062","img/object_images/chair02.jpg","1","k","1.8623091999998",1,4,0,2,0
"260062","img/object_images/pitcher05.jpg","1","s","1.55313659999956",1,4,0,2,0
"260062","img/object_images/hair_brush05.jpg","1","k","2.22263569999996",1,4,0,2,0
"260062","img/object_images/container01.jpg","1","k","2.02262419999897",1,4,0,2,0
"260062","img/object_images/Wisk01.jpg","0","k","3.66605710000113",1,4,0,2,0
"260062","img/object_images/tool18.jpg","0","k","3.59226780000063",1,4,0,2,0
"260062","img/object_images/Woopie01.jpg","1","k","3.24258240000017",1,4,0,2,0
"260062","img/object_images/video_game07.jpg","1","s","3.09937940000054",1,4,0,2,0
"260062","img/object_images/handcuffs01.jpg","1","s","3.34172870000111",1,4,0,2,0
"260062","img/object_images/piggy_bank01.jpg","1","s","1.60655419999966",1,4,0,2,0
"260062","img/object_images/chair05.jpg","0","s","3.59246870000061",1,4,0,2,0
"260062","img/object_images/joystick03.jpg","0","s","3.80904040000132",1,4,0,2,0
"260062","img/object_images/hat02.jpg","1","k","3.90617050000037",1,4,0,2,0
"260062","img/object_images/basket04.jpg","1","s","2.76163240000096",1,4,0,2,0
"260062","img/object_images/golf_ball03.jpg","1","s","2.45863960000133",1,4,0,2,0
"260062","img/object_images/grater01.jpg","1","k","3.15478890000122",1,5,0,2,0
"260062","img/object_images/pitcher03.jpg","1","k","4.15382950000094",1,5,0,2,0
"260062","img/object_images/clip03.jpg","1","s","2.64738799999941",1,5,0,2,0
"260062","img/object_images/car04.jpg","0","k","2.08693070000118",1,5,0,2,0
"260062","img/object_images/razor02.jpg","1","k","3.30838260000019",1,5,0,2,0
"260062","img/object_images/bell03.jpg","1","k","3.21312099999886",1,5,0,2,0
"260062","img/object_images/lock04.jpg","1","s","3.48468570000114",1,5,0,2,0
"260062","img/object_images/hammer02.jpg","1","k","2.96613020000041",1,5,0,2,0
"260062","img/object_images/tie01.jpg","1","s","1.33230329999969",1,5,0,2,0
"260062","img/object_images/watch01.jpg","1","k","3.30281429999923",1,5,0,2,0
"260062","img/object_images/office_supplies01.jpg","0","s","3.1031081000001",1,5,0,2,0
"260062","img/object_images/laptop01.jpg","0","k","4.12358219999987",1,5,0,2,0
"260062","img/object_images/socks02.jpg","1","s","1.99340280000069",1,5,0,2,0
"260062","img/object_images/lawn_mower01.jpg","0","k","3.9222993000003",1,5,0,2,0
"260062","img/object_images/binoculars03.jpg","1","s","4.53096499999992",1,5,0,2,0
"260062","img/object_images/fan05.jpg","1","k","1.50171840000075",1,5,0,2,0
"260062","img/object_images/jewelry09.jpg","1","s","2.67030559999876",1,5,0,2,0
"260062","img/object_images/socks01.jpg","0","k","3.10249909999948",1,5,0,2,0
"260062","img/object_images/lid01.jpg","0","k","5.94038990000081",1,5,0,2,0
"260062","img/object_images/coloring_pencil01.jpg","0","s","3.51448069999969",1,5,0,2,0
"260062","img/object_images/coloring_pencil02.jpg","1","k","1.10125929999958",1,5,0,2,0
"260062","img/object_images/helmet03.jpg","1","s","3.02193230000012",1,5,0,2,0
"260062","img/object_images/faucet01.jpg","1","s","3.33705980000013",1,5,0,2,0
"260062","img/object_images/Vacuum01.jpg","0","s","5.14563620000081",1,5,0,2,0
"260062","img/object_images/balloon01.jpg","0","s","4.5263175",1,5,0,2,0
"260062","img/object_images/phone02.jpg","1","k","3.4126655",1,5,0,2,0
"260062","img/object_images/lock01.jpg","1","k","5.41473100000076",1,5,0,2,0
"260062","img/object_images/tennis_racket01.jpg","1","k","2.73867510000127",1,5,0,2,0
"260062","img/object_images/bag06.jpg","1","s","3.99222869999903",1,5,0,2,0
"260062","img/object_images/vga_port 01.jpg","1","k","3.53463270000066",1,5,0,2,0
"260062","img/object_images/headset02.jpg","1","k","2.28364690000126",1,5,0,2,0
"260062","img/object_images/video_game01.jpg","1","k","5.901452099999",1,5,0,2,0
"260062","img/object_images/bow_tie02.jpg","1","s","2.75656760000129",1,5,0,2,0
"260062","img/object_images/pitcher09.jpg","1","s","2.98230119999971",1,5,0,2,0
"260062","img/object_images/toy04.jpg","1","k","2.88372470000104",1,5,0,2,0
"260062","img/object_images/badminton01.jpg","1","s","2.5096265000011",1,5,0,2,0
"260062","img/object_images/dresser03.jpg","1","k","3.35725610000009",1,5,0,2,0
"260062","img/object_images/jewel01.jpg","1","k","1.19870980000087",1,5,0,2,0
"260062","img/object_images/shoes10.jpg","1","s","2.43491200000062",1,5,0,2,0
"260062","img/object_images/camera07.jpg","1","k","4.04568719999952",1,5,0,2,0
"260062","img/object_images/shoes08.jpg","0","k","3.25561290000041",1,5,0,2,0
"260062","img/object_images/tool13.jpg","1","s","3.58315260000018",1,5,0,2,0
"260062","img/object_images/Kitchen_Towel.jpg","1","s","6.97680120000041",1,5,0,2,0
"260062","img/object_images/sign02.jpg","1","k","4.25151160000132",1,5,0,2,0
"260062","img/object_images/couch04.jpg","0","k","3.76733899999999",1,5,0,2,0
"260062","img/object_images/bottle10.jpg","1","s","1.92267739999988",1,5,0,2,0
"260062","img/object_images/helmet05.jpg","1","s","2.90333319999991",1,5,0,2,0
"260062","img/object_images/paint_brush04.jpg","1","s","2.15101110000069",1,5,0,2,0
"260062","img/object_images/blender02.jpg","1","k","3.88349159999962",1,6,0,2,0
"260062","img/object_images/cup03.jpg","1","k","2.36679109999932",1,6,0,2,0
"260062","img/object_images/piano03.jpg","1","s","2.33927709999989",1,6,0,2,0
"260062","img/object_images/toaster02.jpg","0","s","2.50932579999971",1,6,0,2,0
"260062","img/object_images/spray_can01.jpg","1","s","2.84919059999993",1,6,0,2,0
"260062","img/object_images/umbrella01.jpg","0","s","3.67233800000031",1,6,0,2,0
"260062","img/object_images/soap03.jpg","1","s","3.408253900001",1,6,0,2,0
"260062","img/object_images/hand_grip_exerciser01.jpg","0","s","2.75294240000039",1,6,0,2,0
"260062","img/object_images/paper_cup02.jpg","1","s","3.7478626000011",1,6,0,2,0
"260062","img/object_images/shoes07.jpg","1","k","3.14733899999919",1,6,0,2,0
"260062","img/object_images/hot_air_balloon02.jpg","0","k","3.76176300000043",1,6,0,2,0
"260062","img/object_images/computer_mouse02.jpg","0","s","2.9417981000006",1,6,0,2,0
"260062","img/object_images/trash_can03.jpg","0","s","2.73512429999937",1,6,0,2,0
"260062","img/object_images/ironing_table02.jpg","1","k","4.96777620000103",1,6,0,2,0
"260062","img/object_images/Eyeliner01.jpg","1","k","2.03916070000014",1,6,0,2,0
"260062","img/object_images/rock02.jpg","1","k","2.63371639999968",1,6,0,2,0
"260062","img/object_images/fridge03.jpg","1","s","1.45501399999921",1,6,0,2,0
"260062","img/object_images/bucket01.jpg","1","k","3.55515220000052",1,6,0,2,0
"260062","img/object_images/jewelry07.jpg","1","k","1.48835779999899",1,6,0,2,0
"260062","img/object_images/purse01.jpg","0","s","2.81964290000178",1,6,0,2,0
"260062","img/object_images/remote_controller01.jpg","0","s","2.40130660000068",1,6,0,2,0
"260062","img/object_images/shoes12.jpg","0","s","3.85201440000128",1,6,0,2,0
"260062","img/object_images/chair04.jpg","1","s","5.27261880000151",1,6,0,2,0
"260062","img/object_images/usb02.jpg","0","k","5.23026530000061",1,6,0,2,0
"260062","img/object_images/perfume01.jpg","1","s","3.38101910000114",1,6,0,2,0
"260062","img/object_images/cutting_board01.jpg","1","s","3.06136360000164",1,6,0,2,0
"260062","img/object_images/tray01.jpg","1","k","1.10986530000082",1,6,0,2,0
"260062","img/object_images/shower_head03.jpg","1","s","3.96003380000002",1,6,0,2,0
"260062","img/object_images/jewel03.jpg","1","k","2.02196020000156",1,6,0,2,0
"260062","img/object_images/scale02.jpg","1","k","3.98503530000016",1,6,0,2,0
"260062","img/object_images/camera_lens01.jpg","1","k","4.36909580000065",1,6,0,2,0
"260062","img/object_images/Sprayer01.jpg","1","k","3.5694282000004",1,6,0,2,0
"260062","img/object_images/glasses07.jpg","1","k","3.1265383000009",1,6,0,2,0
"260062","img/object_images/tool06.jpg","0","s","3.77210860000014",1,6,0,2,0
"260062","img/object_images/belt01.jpg","1","k","2.67464010000003",1,6,0,2,0
"260062","img/object_images/fork02.jpg","0","k","3.77586250000058",1,6,0,2,0
"260062","img/object_images/toy05.jpg","1","s","5.60778389999905",1,6,0,2,0
"260062","img/object_images/tool19.jpg","0","s","3.17793380000148",1,6,0,2,0
"260062","img/object_images/pitcher07.jpg","1","k","1.17427850000058",1,6,0,2,0
"260062","img/object_images/ribbon01.jpg","1","k","0.924498200000016",1,6,0,2,0
"260062","img/object_images/hair_dryer01.jpg","1","s","4.06784510000034",1,6,0,2,0
"260062","img/object_images/car02.jpg","0","s","4.31768110000121",1,6,0,2,0
"260062","img/object_images/paper_cup01.jpg","0","s","3.42369859999963",1,6,0,2,0
"260062","img/object_images/gift_box05.jpg","0","k","3.134829300001",1,6,0,2,0
"260062","img/object_images/keyboard02.jpg","1","s","3.02691930000037",1,6,0,2,0
"260062","img/object_images/drone02.jpg","1","k","0.948557699999583",1,6,0,2,0
"260062","img/object_images/funnel01.jpg","1","k","4.07013879999977",1,6,0,2,0
"260062","img/object_images/hair_brush01.jpg","0","s","2.32695439999952",1,6,0,2,0
"260062","img/object_images/mail_box01.jpg","0","s","4.07062980000046",1,7,0,2,0
"260062","img/object_images/gloves02.jpg","1","k","4.798527500001",1,7,0,2,0
"260062","img/object_images/hat09.jpg","1","s","1.60127380000085",1,7,0,2,0
"260062","img/object_images/chair03.jpg","1","s","3.38734420000037",1,7,0,2,0
"260062","img/object_images/tv02.jpg","1","s","2.9405082000012",1,7,0,2,0
"260062","img/object_images/rock03.jpg","1","s","2.69573940000009",1,7,0,2,0
"260062","img/object_images/wire02.jpg","1","s","2.32304420000037",1,7,0,2,0
"260062","img/object_images/towels01.jpg","1","k","1.19115700000111",1,7,0,2,0
"260062","img/object_images/frame01.jpg","1","s","1.93926909999936",1,7,0,2,0
"260062","img/object_images/bicycle01.jpg","0","s","3.31038970000009",1,7,0,2,0
"260062","img/object_images/tennis_racket02.jpg","1","s","2.65989760000048",1,7,0,2,0
"260062","img/object_images/bottle06.jpg","1","s","2.7557753000001",1,7,0,2,0
"260062","img/object_images/floss02.jpg","1","s","3.92486220000137",1,7,0,2,0
"260062","img/object_images/car01.jpg","1","s","2.99407059999976",1,7,0,2,0
"260062","img/object_images/stapler.jpg","1","k","3.03131720000056",1,7,0,2,0
"260062","img/object_images/razor03.jpg","0","k","3.26373059999969",1,7,0,2,0
"260062","img/object_images/handkerchief01.jpg","1","s","2.42433840000194",1,7,0,2,0
"260062","img/object_images/compass01.jpg","1","s","3.86239580000074",1,7,0,2,0
"260062","img/object_images/screwdriver01.jpg","0","k","3.19133560000046",1,7,0,2,0
"260062","img/object_images/basketball_hoop02.jpg","0","s","3.69343550000122",1,7,0,2,0
"260062","img/object_images/bell02.jpg","1","s","3.40848870000082",1,7,0,2,0
"260062","img/object_images/outlet01.jpg","0","k","4.25360780000119",1,7,0,2,0
"260062","img/object_images/yoga_mat01.jpg","1","s","2.51125000000138",1,7,0,2,0
"260062","img/object_images/fan02.jpg","1","s","4.58598209999946",1,7,0,2,0
"260062","img/object_images/cup01.jpg","1","s","3.36466930000097",1,7,0,2,0
"260062","img/object_images/cochlear_implant01.jpg","1","s","2.38117239999883",1,7,0,2,0
"260062","img/object_images/box03.jpg","0","s","2.92532179999944",1,7,0,2,0
"260062","img/object_images/chair06.jpg","1","k","2.8878138",1,7,0,2,0
"260062","img/object_images/clipboard01.jpg","1","k","2.75606499999958",1,7,0,2,0
"260062","img/object_images/jacket03.jpg","1","k","2.63309430000118",1,7,0,2,0
"260062","img/object_images/hair_clips01.jpg","1","k","2.83105249999971",1,7,0,2,0
"260062","img/object_images/ring03.jpg","0","k","3.47655680000025",1,7,0,2,0
"260062","img/object_images/decorative02.jpg","1","k","1.58298120000109",1,7,0,2,0
"260062","img/object_images/camera03.jpg","0","k","4.24553980000019",1,7,0,2,0
"260062","img/object_images/glasses06.jpg","1","k","3.08437129999948",1,7,0,2,0
"260062","img/object_images/fork03.jpg","1","k","3.37131450000015",1,7,0,2,0
"260062","img/object_images/pen06.jpg","1","s","3.81689069999993",1,7,0,2,0
"260062","img/object_images/measuring_tape02.jpg","0","k","4.92186299999958",1,7,0,2,0
"260062","img/object_images/Confetti 01.jpg","1","k","2.61852879999969",1,7,0,2,0
"260062","img/object_images/boat02.jpg","0","s","3.38866039999994",1,7,0,2,0
"260062","img/object_images/car03.jpg","1","s","4.16662390000056",1,7,0,2,0
"260062","img/object_images/stove01.jpg","1","k","4.78209609999976",1,7,0,2,0
"260062","img/object_images/duster01.jpg","1","s","1.15085730000101",1,7,0,2,0
"260062","img/object_images/Oven01.jpg","1","k","3.8974421999992",1,7,0,2,0
"260062","img/object_images/towel02.jpg","0","s","6.3689127000016",1,7,0,2,0
"260062","img/object_images/video_game03.jpg","1","k","2.62692389999938",1,7,0,2,0
"260062","img/object_images/Stool01.jpg","1","s","4.30960570000025",1,7,0,2,0
"260062","img/object_images/remover01.jpg","1","s","2.8696058000005",1,7,0,2,0
"260062","img/object_images/cellphone01.jpg","0","s","3.92554380000001",1,8,0,2,0
"260062","img/object_images/satellite01.jpg","1","k","3.15464080000129",1,8,0,2,0
"260062","img/object_images/hat06.jpg","0","k","3.09616409999944",1,8,0,2,0
"260062","img/object_images/cellphone02.jpg","0","k","2.96050020000075",1,8,0,2,0
"260062","img/object_images/nut_cracker01.jpg","1","s","2.98361060000025",1,8,0,2,0
"260062","img/object_images/gift_box04.jpg","1","k","1.60896240000147",1,8,0,2,0
"260062","img/object_images/tool20.jpg","0","s","3.46223819999977",1,8,0,2,0
"260062","img/object_images/bottle07.jpg","1","s","1.15464970000176",1,8,0,2,0
"260062","img/object_images/phone04.jpg","1","k","4.10334469999907",1,8,0,2,0
"260062","img/object_images/frisbee01.jpg","1","k","1.7127083000014",1,8,0,2,0
"260062","img/object_images/helmet04.jpg","1","s","2.29900020000059",1,8,0,2,0
"260062","img/object_images/airfryer02.jpg","1","k","3.6147946000001",1,8,0,2,0
"260062","img/object_images/lantern01.jpg","1","k","3.61174740000024",1,8,0,2,0
"260062","img/object_images/fire_extinguisher01.jpg","0","s","2.60185799999999",1,8,0,2,0
"260062","img/object_images/pot01 (1).jpg","1","s","2.87025560000075",1,8,0,2,0
"260062","img/object_images/Recycling01.jpg","1","k","2.77105099999972",1,8,0,2,0
"260062","img/object_images/tool09.jpg","0","k","5.24026229999981",1,8,0,2,0
"260062","img/object_images/scoreboard01.jpg","1","k","2.36826589999873",1,8,0,2,0
"260062","img/object_images/gift_box03.jpg","1","k","3.48405080000157",1,8,0,2,0
"260062","img/object_images/dust_pan01.jpg","1","k","3.89666299999953",1,8,0,2,0
"260062","img/object_images/Safe01.jpg","1","s","2.00298710000061",1,8,0,2,0
"260062","img/object_images/blanket01.jpg","1","k","3.38282890000119",1,8,0,2,0
"260062","img/object_images/Screws01.jpg","1","s","3.68186330000026",1,8,0,2,0
"260062","img/object_images/shovel03.jpg","1","s","4.26372470000024",1,8,0,2,0
"260062","img/object_images/drone01.jpg","1","s","3.39003860000048",1,8,0,2,0
"260062","img/object_images/couch01.jpg","0","k","3.8705743999999",1,8,0,2,0
"260062","img/object_images/Shoes05.jpg","1","k","4.11359240000093",1,8,0,2,0
"260062","img/object_images/dart01.jpg","1","s","3.15156559999923",1,8,0,2,0
"260062","img/object_images/skate_board01.jpg","1","k","2.6729923999992",1,8,0,2,0
"260062","img/object_images/floss01.jpg","1","k","4.50142580000102",1,8,0,2,0
"260062","img/object_images/dresser04.jpg","1","s","3.57079770000018",1,8,0,2,0
"260062","img/object_images/knit04.jpg","1","k","2.34188379999978",1,8,0,2,0
"260062","img/object_images/pillows01.jpg","0","s","2.69656300000133",1,8,0,2,0
"260062","img/object_images/belt03.jpg","1","k","2.53301360000114",1,8,0,2,0
"260062","img/object_images/wagon_cart03.jpg","1","k","3.42128530000082",1,8,0,2,0
"260062","img/object_images/ladle02.jpg","1","k","2.608121199999",1,8,0,2,0
"260062","img/object_images/chess_piece01.jpg","1","k","3.54577150000114",1,8,0,2,0
"260062","img/object_images/pan03.jpg","0","s","4.47685050000109",1,8,0,2,0
"260062","img/object_images/floppy_disk03.jpg","1","s","4.36984309999934",1,8,0,2,0
"260062","img/object_images/calculator01.jpg","1","k","3.788610900001",1,8,0,2,0
"260062","img/object_images/toilet_paper01.jpg","1","s","3.00629830000071",1,8,0,2,0
"260062","img/object_images/helmet02.jpg","1","k","1.86172550000083",1,8,0,2,0
"260062","img/object_images/gift_box01.jpg","1","k","2.74389130000054",1,8,0,2,0
"260062","img/object_images/toilet_paper_dispenser01.jpg","0","k","3.57565989999966",1,8,0,2,0
"260062","img/object_images/chair01.jpg","0","s","3.73286589999952",1,8,0,2,0
"260062","img/object_images/laptop03.jpg","0","k","3.87575990000005",1,8,0,2,0
"260062","img/object_images/egg_basket01.jpg","1","k","2.0930943000003",1,8,0,2,0
"260062","img/object_images/sponge03.jpg","1","k","1.5461636",1,8,0,2,0
