"participant_id","current_trial_object","pre_trial_object","post_trial_object","current_trial_accuracy","pre_trial_accuracy","post_trial_accuracy","current_trial_congruency","pre_trial_congruency","post_trial_congruency","current_trial_rt","pre_trial_rt","post_trial_rt","current_trial_responded","pre_trial_responded","post_trial_responded","current_trial_legitResponse","pre_trial_legitResponse","post_trial_legitResponse","current_trial_resp_nums","pre_trial_resp_nums","post_trial_resp_nums"
"260018","img/object_images/toilet_paper01.jpg",NA,"img/object_images/tie01.jpg","1",NA,"0","1",NA,"0","0.630911600077525",NA,"1.32198400003836","1",NA,"1","1",NA,"1","1",NA,"1"
"260018","img/object_images/tie01.jpg","img/object_images/toilet_paper01.jpg","img/object_images/hat02.jpg","0","1","1","0","1","0","1.32198400003836","0.630911600077525","0.529024100047536","1","1","1","1","1","1","1","1","1"
"260018","img/object_images/hat02.jpg","img/object_images/tie01.jpg","img/object_images/broom01.jpg","1","0","1","0","0","1","0.529024100047536","1.32198400003836","0.692406099988148","1","1","1","1","1","1","1","1","1"
"260018","img/object_images/broom01.jpg","img/object_images/hat02.jpg","img/object_images/ironing_table02.jpg","1","1","1","1","0","0","0.692406099988148","0.529024100047536","0.583648499916308","1","1","1","1","1","1","1","1","1"
"260018","img/object_images/ironing_table02.jpg","img/object_images/broom01.jpg","img/object_images/pitcher03.jpg","1","1","1","0","1","1","0.583648499916308","0.692406099988148","0.714251899975352","1","1","1","1","1","1","1","1","1"
"260018","img/object_images/pitcher03.jpg","img/object_images/ironing_table02.jpg","img/object_images/couch04.jpg","1","1","1","1","0","1","0.714251899975352","0.583648499916308","0.738332999986596","1","1","1","1","1","1","1","1","1"
"260018","img/object_images/couch04.jpg","img/object_images/pitcher03.jpg","img/object_images/toy_train02.jpg","1","1","1","1","1","1","0.738332999986596","0.714251899975352","0.57475750008598","1","1","1","1","1","1","1","1","1"
"260018","img/object_images/toy_train02.jpg","img/object_images/couch04.jpg","img/object_images/soap01.jpg","1","1","1","1","1","0","0.57475750008598","0.738332999986596","0.518141300068237","1","1","1","1","1","1","1","1","1"
"260018","img/object_images/soap01.jpg","img/object_images/toy_train02.jpg","img/object_images/lantern01.jpg","1","1","1","0","1","1","0.518141300068237","0.57475750008598","0.727270099916495","1","1","1","1","1","1","1","1","1"
"260018","img/object_images/lantern01.jpg","img/object_images/soap01.jpg","img/object_images/guitar01.jpg","1","1","1","1","0","1","0.727270099916495","0.518141300068237","0.589549299911596","1","1","1","1","1","1","1","1","1"
"260018","img/object_images/guitar01.jpg","img/object_images/lantern01.jpg","img/object_images/Woopie01.jpg","1","1","1","1","1","1","0.589549299911596","0.727270099916495","0.72321369999554","1","1","1","1","1","1","1","1","1"
"260018","img/object_images/Woopie01.jpg","img/object_images/guitar01.jpg","img/object_images/container01.jpg","1","1","1","1","1","0","0.72321369999554","0.589549299911596","0.859075700049289","1","1","1","1","1","1","1","1","1"
"260018","img/object_images/container01.jpg","img/object_images/Woopie01.jpg","img/object_images/cochlear_implant01.jpg","1","1","1","0","1","0","0.859075700049289","0.72321369999554","0.662585499929264","1","1","1","1","1","1","1","1","1"
"260018","img/object_images/cochlear_implant01.jpg","img/object_images/container01.jpg","img/object_images/brief_case02.jpg","1","1","1","0","0","1","0.662585499929264","0.859075700049289","0.752030799980275","1","1","1","1","1","1","1","1","1"
"260018","img/object_images/brief_case02.jpg","img/object_images/cochlear_implant01.jpg","img/object_images/drone02.jpg","1","1","1","1","0","0","0.752030799980275","0.662585499929264","0.711652599973604","1","1","1","1","1","1","1","1","1"
"260018","img/object_images/drone02.jpg","img/object_images/brief_case02.jpg","img/object_images/car02.jpg","1","1","1","0","1","0","0.711652599973604","0.752030799980275","0.606738400063477","1","1","1","1","1","1","1","1","1"
"260018","img/object_images/car02.jpg","img/object_images/drone02.jpg","img/object_images/razor03.jpg","1","1","1","0","0","0","0.606738400063477","0.711652599973604","0.665017100051045","1","1","1","1","1","1","1","1","1"
"260018","img/object_images/razor03.jpg","img/object_images/car02.jpg","img/object_images/gloves05.jpg","1","1","1","0","0","1","0.665017100051045","0.606738400063477","0.658032899955288","1","1","1","1","1","1","1","1","1"
"260018","img/object_images/gloves05.jpg","img/object_images/razor03.jpg","img/object_images/lamp01.jpg","1","1","1","1","0","1","0.658032899955288","0.665017100051045","0.525350400013849","1","1","1","1","1","1","1","1","1"
"260018","img/object_images/lamp01.jpg","img/object_images/gloves05.jpg","img/object_images/brief_case01.jpg","1","1","1","1","1","0","0.525350400013849","0.658032899955288","0.563491399982013","1","1","1","1","1","1","1","1","1"
"260018","img/object_images/brief_case01.jpg","img/object_images/lamp01.jpg","img/object_images/video_game06.jpg","1","1","1","0","1","0","0.563491399982013","0.525350400013849","0.731226100004278","1","1","1","1","1","1","1","1","1"
"260018","img/object_images/video_game06.jpg","img/object_images/brief_case01.jpg","img/object_images/pot01.jpg","1","1","1","0","0","0","0.731226100004278","0.563491399982013","0.611882900004275","1","1","1","1","1","1","1","1","1"
"260018","img/object_images/pot01.jpg","img/object_images/video_game06.jpg","img/object_images/helmet05.jpg","1","1","1","0","0","1","0.611882900004275","0.731226100004278","0.820304600056261","1","1","1","1","1","1","1","1","1"
"260018","img/object_images/helmet05.jpg","img/object_images/pot01.jpg","img/object_images/Recycling01.jpg","1","1","1","1","0","1","0.820304600056261","0.611882900004275","0.625773399951868","1","1","1","1","1","1","1","1","1"
"260018","img/object_images/Recycling01.jpg","img/object_images/helmet05.jpg","img/object_images/Wisk01.jpg","1","1","1","1","1","1","0.625773399951868","0.820304600056261","0.6203093000222","1","1","1","1","1","1","1","1","1"
"260018","img/object_images/Wisk01.jpg","img/object_images/Recycling01.jpg","img/object_images/chair01.jpg","1","1","1","1","1","0","0.6203093000222","0.625773399951868","0.88786350004375","1","1","1","1","1","1","1","1","1"
"260018","img/object_images/chair01.jpg","img/object_images/Wisk01.jpg","img/object_images/airfryer01.jpg","1","1","1","0","1","0","0.88786350004375","0.6203093000222","0.728244099998847","1","1","1","1","1","1","1","1","1"
"260018","img/object_images/airfryer01.jpg","img/object_images/chair01.jpg","img/object_images/decorative02.jpg","1","1","1","0","0","0","0.728244099998847","0.88786350004375","0.643068099976517","1","1","1","1","1","1","1","1","1"
"260018","img/object_images/decorative02.jpg","img/object_images/airfryer01.jpg","img/object_images/basketball_hoop02.jpg","1","1","1","0","0","0","0.643068099976517","0.728244099998847","0.577753899968229","1","1","1","1","1","1","1","1","1"
"260018","img/object_images/basketball_hoop02.jpg","img/object_images/decorative02.jpg","img/object_images/ball01.jpg","1","1","1","0","0","1","0.577753899968229","0.643068099976517","0.625779900001362","1","1","1","1","1","1","1","1","1"
"260018","img/object_images/ball01.jpg","img/object_images/basketball_hoop02.jpg","img/object_images/bottle12.jpg","1","1","1","1","0","1","0.625779900001362","0.577753899968229","0.581310099922121","1","1","1","1","1","1","1","1","1"
"260018","img/object_images/bottle12.jpg","img/object_images/ball01.jpg",NA,"1","1",NA,"1","1",NA,"0.581310099922121","0.625779900001362",NA,"1","1",NA,"1","1",NA,"1","1",NA
"260018","img/object_images/golf_ball03.jpg",NA,"img/object_images/gift_box01.jpg","1",NA,"1","1",NA,"1","0.605898199952208",NA,"0.691149199963547","1",NA,"1","1",NA,"1","1",NA,"1"
"260018","img/object_images/gift_box01.jpg","img/object_images/golf_ball03.jpg","img/object_images/Witchhat01.jpg","1","1","1","1","1","1","0.691149199963547","0.605898199952208","0.555898800026625","1","1","1","1","1","1","1","1","1"
"260018","img/object_images/Witchhat01.jpg","img/object_images/gift_box01.jpg","img/object_images/coloring_pencil01.jpg","1","1","1","1","1","1","0.555898800026625","0.691149199963547","0.657624499988742","1","1","1","1","1","1","1","1","1"
"260018","img/object_images/coloring_pencil01.jpg","img/object_images/Witchhat01.jpg","img/object_images/lawn_mower01.jpg","1","1","1","1","1","1","0.657624499988742","0.555898800026625","0.68415190000087","1","1","1","1","1","1","1","1","1"
"260018","img/object_images/lawn_mower01.jpg","img/object_images/coloring_pencil01.jpg","img/object_images/pitcher02.jpg","1","1","1","1","1","1","0.68415190000087","0.657624499988742","0.53675879992079","1","1","1","1","1","1","1","1","1"
"260018","img/object_images/pitcher02.jpg","img/object_images/lawn_mower01.jpg","img/object_images/bath_tub01.jpg","1","1","0","1","1","0","0.53675879992079","0.68415190000087","0.637844600016251","1","1","1","1","1","1","1","1","1"
"260018","img/object_images/bath_tub01.jpg","img/object_images/pitcher02.jpg","img/object_images/paper_cup01.jpg","0","1","1","0","1","0","0.637844600016251","0.53675879992079","0.596308899926953","1","1","1","1","1","1","1","1","1"
"260018","img/object_images/paper_cup01.jpg","img/object_images/bath_tub01.jpg","img/object_images/couch03.jpg","1","0","1","0","0","0","0.596308899926953","0.637844600016251","0.57527959998697","1","1","1","1","1","1","1","1","1"
"260018","img/object_images/couch03.jpg","img/object_images/paper_cup01.jpg","img/object_images/vga_port 01.jpg","1","1","1","0","0","0","0.57527959998697","0.596308899926953","0.831917900010012","1","1","1","1","1","1","1","1","1"
"260018","img/object_images/vga_port 01.jpg","img/object_images/couch03.jpg","img/object_images/camera07.jpg","1","1","1","0","0","1","0.831917900010012","0.57527959998697","0.585467899916694","1","1","1","1","1","1","1","1","1"
"260018","img/object_images/camera07.jpg","img/object_images/vga_port 01.jpg","img/object_images/ironing_table01.jpg","1","1","1","1","0","0","0.585467899916694","0.831917900010012","0.937128199962899","1","1","1","1","1","1","1","1","1"
"260018","img/object_images/ironing_table01.jpg","img/object_images/camera07.jpg","img/object_images/dresser04.jpg","1","1","1","0","1","0","0.937128199962899","0.585467899916694","0.663781799958088","1","1","1","1","1","1","1","1","1"
"260018","img/object_images/dresser04.jpg","img/object_images/ironing_table01.jpg","img/object_images/socks02.jpg","1","1","1","0","0","0","0.663781799958088","0.937128199962899","0.669455599971116","1","1","1","1","1","1","1","1","1"
"260018","img/object_images/socks02.jpg","img/object_images/dresser04.jpg","img/object_images/fork03.jpg","1","1","1","0","0","1","0.669455599971116","0.663781799958088","0.824923199950717","1","1","1","1","1","1","1","1","1"
"260018","img/object_images/fork03.jpg","img/object_images/socks02.jpg","img/object_images/wallet02.jpg","1","1","1","1","0","1","0.824923199950717","0.669455599971116","1.73964639997575","1","1","1","1","1","1","1","1","1"
"260018","img/object_images/wallet02.jpg","img/object_images/fork03.jpg","img/object_images/sleeping_bag01.jpg","1","1","1","1","1","0","1.73964639997575","0.824923199950717","0.630705199902877","1","1","1","1","1","1","1","1","1"
"260018","img/object_images/sleeping_bag01.jpg","img/object_images/wallet02.jpg","img/object_images/lock04.jpg","1","1","1","0","1","1","0.630705199902877","1.73964639997575","0.574160100077279","1","1","1","1","1","1","1","1","1"
"260018","img/object_images/lock04.jpg","img/object_images/sleeping_bag01.jpg","img/object_images/clip02.jpg","1","1","1","1","0","1","0.574160100077279","0.630705199902877","0.788486400037073","1","1","1","1","1","1","1","1","1"
"260018","img/object_images/clip02.jpg","img/object_images/lock04.jpg","img/object_images/jacket03.jpg","1","1","1","1","1","0","0.788486400037073","0.574160100077279","0.69657799997367","1","1","1","1","1","1","1","1","1"
"260018","img/object_images/jacket03.jpg","img/object_images/clip02.jpg","img/object_images/handkerchief01.jpg","1","1","1","0","1","0","0.69657799997367","0.788486400037073","0.750075899995863","1","1","1","1","1","1","1","1","1"
"260018","img/object_images/handkerchief01.jpg","img/object_images/jacket03.jpg","img/object_images/Screws01.jpg","1","1","1","0","0","1","0.750075899995863","0.69657799997367","0.841924100066535","1","1","1","1","1","1","1","1","1"
"260018","img/object_images/Screws01.jpg","img/object_images/handkerchief01.jpg","img/object_images/gift_box02.jpg","1","1","1","1","0","1","0.841924100066535","0.750075899995863","0.658278399962","1","1","1","1","1","1","1","1","1"
"260018","img/object_images/gift_box02.jpg","img/object_images/Screws01.jpg","img/object_images/bow_tie02.jpg","1","1","1","1","1","0","0.658278399962","0.841924100066535","0.593543899944052","1","1","1","1","1","1","1","1","1"
"260018","img/object_images/bow_tie02.jpg","img/object_images/gift_box02.jpg","img/object_images/gift_box03.jpg","1","1","1","0","1","0","0.593543899944052","0.658278399962","0.779834799934179","1","1","1","1","1","1","1","1","1"
"260018","img/object_images/gift_box03.jpg","img/object_images/bow_tie02.jpg","img/object_images/grater01.jpg","1","1","1","0","0","1","0.779834799934179","0.593543899944052","0.65598019992467","1","1","1","1","1","1","1","1","1"
"260018","img/object_images/grater01.jpg","img/object_images/gift_box03.jpg","img/object_images/hammer01.jpg","1","1","1","1","0","0","0.65598019992467","0.779834799934179","0.739008400007151","1","1","1","1","1","1","1","1","1"
"260018","img/object_images/hammer01.jpg","img/object_images/grater01.jpg","img/object_images/balloon01.jpg","1","1","1","0","1","0","0.739008400007151","0.65598019992467","0.682630499941297","1","1","1","1","1","1","1","1","1"
"260018","img/object_images/balloon01.jpg","img/object_images/hammer01.jpg","img/object_images/bow_tie01.jpg","1","1","1","0","0","0","0.682630499941297","0.739008400007151","0.554808999993838","1","1","1","1","1","1","1","1","1"
"260018","img/object_images/bow_tie01.jpg","img/object_images/balloon01.jpg","img/object_images/funnel01.jpg","1","1","1","0","0","0","0.554808999993838","0.682630499941297","0.823125700000674","1","1","1","1","1","1","1","1","1"
"260018","img/object_images/funnel01.jpg","img/object_images/bow_tie01.jpg","img/object_images/jewelry01.jpg","1","1","1","0","0","1","0.823125700000674","0.554808999993838","0.580179699929431","1","1","1","1","1","1","1","1","1"
"260018","img/object_images/jewelry01.jpg","img/object_images/funnel01.jpg","img/object_images/measuring_tape02.jpg","1","1","1","1","0","1","0.580179699929431","0.823125700000674","0.819484999985434","1","1","1","1","1","1","1","1","1"
"260018","img/object_images/measuring_tape02.jpg","img/object_images/jewelry01.jpg",NA,"1","1",NA,"1","1",NA,"0.819484999985434","0.580179699929431",NA,"1","1",NA,"1","1",NA,"1","1",NA
"260018","img/object_images/couch01.jpg",NA,"img/object_images/box03.jpg","1",NA,"1","0",NA,"0","0.654477300005965",NA,"0.725197799969465","1",NA,"1","1",NA,"1","1",NA,"1"
"260018","img/object_images/box03.jpg","img/object_images/couch01.jpg","img/object_images/chain01.jpg","1","1","1","0","0","0","0.725197799969465","0.654477300005965","0.676680500037037","1","1","1","1","1","1","1","1","1"
"260018","img/object_images/chain01.jpg","img/object_images/box03.jpg","img/object_images/computer_mouse02.jpg","1","1","1","0","0","0","0.676680500037037","0.725197799969465","0.663956700009294","1","1","1","1","1","1","1","1","1"
"260018","img/object_images/computer_mouse02.jpg","img/object_images/chain01.jpg","img/object_images/toothbrush01.jpg","1","1","1","0","0","0","0.663956700009294","0.676680500037037","0.554374199942686","1","1","1","1","1","1","1","1","1"
"260018","img/object_images/toothbrush01.jpg","img/object_images/computer_mouse02.jpg","img/object_images/book02.jpg","1","1","1","0","0","1","0.554374199942686","0.663956700009294","0.649660700000823","1","1","1","1","1","1","1","1","1"
"260018","img/object_images/book02.jpg","img/object_images/toothbrush01.jpg","img/object_images/bag_pipes01.jpg","1","1","1","1","0","1","0.649660700000823","0.554374199942686","0.770333599997684","1","1","1","1","1","1","1","1","1"
"260018","img/object_images/bag_pipes01.jpg","img/object_images/book02.jpg","img/object_images/floss02.jpg","1","1","1","1","1","1","0.770333599997684","0.649660700000823","0.708470699959435","1","1","1","1","1","1","1","1","1"
"260018","img/object_images/floss02.jpg","img/object_images/bag_pipes01.jpg","img/object_images/computer_mouse01.jpg","1","1","1","1","1","1","0.708470699959435","0.770333599997684","0.883181300014257","1","1","1","1","1","1","1","1","1"
"260018","img/object_images/computer_mouse01.jpg","img/object_images/floss02.jpg","img/object_images/Violin01.jpg","1","1","1","1","1","0","0.883181300014257","0.708470699959435","0.767952000023797","1","1","1","1","1","1","1","1","1"
"260018","img/object_images/Violin01.jpg","img/object_images/computer_mouse01.jpg","img/object_images/tool06.jpg","1","1","1","0","1","0","0.767952000023797","0.883181300014257","0.922809000010602","1","1","1","1","1","1","1","1","1"
"260018","img/object_images/tool06.jpg","img/object_images/Violin01.jpg","img/object_images/egg_slicer01.jpg","1","1","1","0","0","1","0.922809000010602","0.767952000023797","0.821519100107253","1","1","1","1","1","1","1","1","1"
"260018","img/object_images/egg_slicer01.jpg","img/object_images/tool06.jpg","img/object_images/pen01.jpg","1","1","1","1","0","0","0.821519100107253","0.922809000010602","0.771262200083584","1","1","1","1","1","1","1","1","1"
"260018","img/object_images/pen01.jpg","img/object_images/egg_slicer01.jpg","img/object_images/clip04.jpg","1","1","1","0","1","1","0.771262200083584","0.821519100107253","1.07918939995579","1","1","1","1","1","1","1","1","1"
"260018","img/object_images/clip04.jpg","img/object_images/pen01.jpg","img/object_images/tripod01.jpg","1","1","1","1","0","1","1.07918939995579","0.771262200083584","0.539957399945706","1","1","1","1","1","1","1","1","1"
"260018","img/object_images/tripod01.jpg","img/object_images/clip04.jpg","img/object_images/mail_box02.jpg","1","1","1","1","1","1","0.539957399945706","1.07918939995579","0.577599599957466","1","1","1","1","1","1","1","1","1"
"260018","img/object_images/mail_box02.jpg","img/object_images/tripod01.jpg","img/object_images/airfryer02.jpg","1","1","1","1","1","1","0.577599599957466","0.539957399945706","0.463591899955645","1","1","1","1","1","1","1","1","1"
"260018","img/object_images/airfryer02.jpg","img/object_images/mail_box02.jpg","img/object_images/video_game03.jpg","1","1","1","1","1","1","0.463591899955645","0.577599599957466","0.518452599993907","1","1","1","1","1","1","1","1","1"
"260018","img/object_images/video_game03.jpg","img/object_images/airfryer02.jpg","img/object_images/chair06.jpg","1","1","1","1","1","0","0.518452599993907","0.463591899955645","0.796709100017324","1","1","1","1","1","1","1","1","1"
"260018","img/object_images/chair06.jpg","img/object_images/video_game03.jpg","img/object_images/Trowel01.jpg","1","1","1","0","1","0","0.796709100017324","0.518452599993907","0.82661420002114","1","1","1","1","1","1","1","1","1"
"260018","img/object_images/Trowel01.jpg","img/object_images/chair06.jpg","img/object_images/soap03.jpg","1","1","1","0","0","0","0.82661420002114","0.796709100017324","0.586719200015068","1","1","1","1","1","1","1","1","1"
"260018","img/object_images/soap03.jpg","img/object_images/Trowel01.jpg","img/object_images/toy01.jpg","1","1","1","0","0","1","0.586719200015068","0.82661420002114","0.685602999990806","1","1","1","1","1","1","1","1","1"
"260018","img/object_images/toy01.jpg","img/object_images/soap03.jpg","img/object_images/drone01.jpg","1","1","1","1","0","1","0.685602999990806","0.586719200015068","0.707067499984987","1","1","1","1","1","1","1","1","1"
"260018","img/object_images/drone01.jpg","img/object_images/toy01.jpg","img/object_images/skate_board01.jpg","1","1","1","1","1","0","0.707067499984987","0.685602999990806","0.726916900021024","1","1","1","1","1","1","1","1","1"
"260018","img/object_images/skate_board01.jpg","img/object_images/drone01.jpg","img/object_images/blender01.jpg","1","1","1","0","1","0","0.726916900021024","0.707067499984987","0.62419159989804","1","1","1","1","1","1","1","1","1"
"260018","img/object_images/blender01.jpg","img/object_images/skate_board01.jpg","img/object_images/pitcher09.jpg","1","1","1","0","0","1","0.62419159989804","0.726916900021024","0.875133499968797","1","1","1","1","1","1","1","1","1"
"260018","img/object_images/pitcher09.jpg","img/object_images/blender01.jpg","img/object_images/hair_brush01.jpg","1","1","1","1","0","1","0.875133499968797","0.62419159989804","0.552153800032102","1","1","1","1","1","1","1","1","1"
"260018","img/object_images/hair_brush01.jpg","img/object_images/pitcher09.jpg","img/object_images/shoes12.jpg","1","1","1","1","1","1","0.552153800032102","0.875133499968797","0.517668700078502","1","1","1","1","1","1","1","1","1"
"260018","img/object_images/shoes12.jpg","img/object_images/hair_brush01.jpg","img/object_images/fork02.jpg","1","1","1","1","1","0","0.517668700078502","0.552153800032102","0.590212999959476","1","1","1","1","1","1","1","1","1"
"260018","img/object_images/fork02.jpg","img/object_images/shoes12.jpg","img/object_images/bell03.jpg","1","1","1","0","1","0","0.590212999959476","0.517668700078502","1.65450609999243","1","1","1","1","1","1","1","1","1"
"260018","img/object_images/bell03.jpg","img/object_images/fork02.jpg","img/object_images/scarf01.jpg","1","1","1","0","0","1","1.65450609999243","0.590212999959476","0.585904799983837","1","1","1","1","1","1","1","1","1"
"260018","img/object_images/scarf01.jpg","img/object_images/bell03.jpg","img/object_images/rock02.jpg","1","1","1","1","0","0","0.585904799983837","1.65450609999243","1.42180290003307","1","1","1","1","1","1","1","1","1"
"260018","img/object_images/rock02.jpg","img/object_images/scarf01.jpg",NA,"1","1",NA,"0","1",NA,"1.42180290003307","0.585904799983837",NA,"1","1",NA,"1","1",NA,"1","1",NA
"260018","img/object_images/toy03.jpg",NA,"img/object_images/sink01.jpg","1",NA,"1","1",NA,"0","0.996111299959011",NA,"0.712802900001407","1",NA,"1","1",NA,"1","1",NA,"1"
"260018","img/object_images/sink01.jpg","img/object_images/toy03.jpg","img/object_images/frisbee01.jpg","1","1","1","0","1","1","0.712802900001407","0.996111299959011","0.530971299973316","1","1","1","1","1","1","1","1","1"
"260018","img/object_images/frisbee01.jpg","img/object_images/sink01.jpg","img/object_images/mirror01.jpg","1","1","1","1","0","1","0.530971299973316","0.712802900001407","0.504346100031398","1","1","1","1","1","1","1","1","1"
"260018","img/object_images/mirror01.jpg","img/object_images/frisbee01.jpg","img/object_images/Vacuum01.jpg","1","1","1","1","1","0","0.504346100031398","0.530971299973316","0.783695999998599","1","1","1","1","1","1","1","1","1"
"260018","img/object_images/Vacuum01.jpg","img/object_images/mirror01.jpg","img/object_images/watch01.jpg","1","1","1","0","1","0","0.783695999998599","0.504346100031398","0.740267499932088","1","1","1","1","1","1","1","1","1"
"260018","img/object_images/watch01.jpg","img/object_images/Vacuum01.jpg","img/object_images/judge_gavel01.jpg","1","1","1","0","0","1","0.740267499932088","0.783695999998599","0.640302599989809","1","1","1","1","1","1","1","1","1"
"260018","img/object_images/judge_gavel01.jpg","img/object_images/watch01.jpg","img/object_images/towel02.jpg","1","1","1","1","0","1","0.640302599989809","0.740267499932088","0.593772199936211","1","1","1","1","1","1","1","1","1"
"260018","img/object_images/towel02.jpg","img/object_images/judge_gavel01.jpg","img/object_images/MetalWire01.jpg","1","1","1","1","1","0","0.593772199936211","0.640302599989809","0.52204760001041","1","1","1","1","1","1","1","1","1"
"260018","img/object_images/MetalWire01.jpg","img/object_images/towel02.jpg","img/object_images/tool02.jpg","1","1","1","0","1","1","0.52204760001041","0.593772199936211","0.447390699991956","1","1","1","1","1","1","1","1","1"
"260018","img/object_images/tool02.jpg","img/object_images/MetalWire01.jpg","img/object_images/acoustic_capo01.jpg","1","1","1","1","0","1","0.447390699991956","0.52204760001041","0.800719699938782","1","1","1","1","1","1","1","1","1"
"260018","img/object_images/acoustic_capo01.jpg","img/object_images/tool02.jpg","img/object_images/Ring02.jpg","1","1","1","1","1","0","0.800719699938782","0.447390699991956","0.788575800019316","1","1","1","1","1","1","1","1","1"
"260018","img/object_images/Ring02.jpg","img/object_images/acoustic_capo01.jpg","img/object_images/Tin01.jpg","1","1","1","0","1","1","0.788575800019316","0.800719699938782","0.705766499973834","1","1","1","1","1","1","1","1","1"
"260018","img/object_images/Tin01.jpg","img/object_images/Ring02.jpg","img/object_images/pot01 (1).jpg","1","1","1","1","0","0","0.705766499973834","0.788575800019316","1.0407921000151","1","1","1","1","1","1","1","1","1"
"260018","img/object_images/pot01 (1).jpg","img/object_images/Tin01.jpg","img/object_images/gauze01.jpg","1","1","1","0","1","0","1.0407921000151","0.705766499973834","0.754012799938209","1","1","1","1","1","1","1","1","1"
"260018","img/object_images/gauze01.jpg","img/object_images/pot01 (1).jpg","img/object_images/fridge03.jpg","1","1","1","0","0","0","0.754012799938209","1.0407921000151","0.781737099983729","1","1","1","1","1","1","1","1","1"
"260018","img/object_images/fridge03.jpg","img/object_images/gauze01.jpg","img/object_images/stapler.jpg","1","1","1","0","0","1","0.781737099983729","0.754012799938209","0.860106599982828","1","1","1","1","1","1","1","1","1"
"260018","img/object_images/stapler.jpg","img/object_images/fridge03.jpg","img/object_images/bow01.jpg","1","1","1","1","0","1","0.860106599982828","0.781737099983729","0.672780200024135","1","1","1","1","1","1","1","1","1"
"260018","img/object_images/bow01.jpg","img/object_images/stapler.jpg","img/object_images/toy04.jpg","1","1","1","1","1","0","0.672780200024135","0.860106599982828","0.84053040004801","1","1","1","1","1","1","1","1","1"
"260018","img/object_images/toy04.jpg","img/object_images/bow01.jpg","img/object_images/video_game07.jpg","1","1","1","0","1","1","0.84053040004801","0.672780200024135","0.622155099990778","1","1","1","1","1","1","1","1","1"
"260018","img/object_images/video_game07.jpg","img/object_images/toy04.jpg","img/object_images/tool09.jpg","1","1","1","1","0","1","0.622155099990778","0.84053040004801","0.657989200088196","1","1","1","1","1","1","1","1","1"
"260018","img/object_images/tool09.jpg","img/object_images/video_game07.jpg","img/object_images/bottle05.jpg","1","1","1","1","1","0","0.657989200088196","0.622155099990778","0.911859399988316","1","1","1","1","1","1","1","1","1"
"260018","img/object_images/bottle05.jpg","img/object_images/tool09.jpg","img/object_images/helmet01.jpg","1","1","1","0","1","0","0.911859399988316","0.657989200088196","0.62305319996085","1","1","1","1","1","1","1","1","1"
"260018","img/object_images/helmet01.jpg","img/object_images/bottle05.jpg","img/object_images/dart01.jpg","1","1","1","0","0","0","0.62305319996085","0.911859399988316","0.564946800004691","1","1","1","1","1","1","1","1","1"
"260018","img/object_images/dart01.jpg","img/object_images/helmet01.jpg","img/object_images/jewel04.jpg","1","1","1","0","0","0","0.564946800004691","0.62305319996085","0.715321300085634","1","1","1","1","1","1","1","1","1"
"260018","img/object_images/jewel04.jpg","img/object_images/dart01.jpg","img/object_images/crown02.jpg","1","1","1","0","0","1","0.715321300085634","0.564946800004691","0.628699699998833","1","1","1","1","1","1","1","1","1"
"260018","img/object_images/crown02.jpg","img/object_images/jewel04.jpg","img/object_images/outlet01.jpg","1","1","1","1","0","0","0.628699699998833","0.715321300085634","0.639150799950585","1","1","1","1","1","1","1","1","1"
"260018","img/object_images/outlet01.jpg","img/object_images/crown02.jpg","img/object_images/guitar02.jpg","1","1","1","0","1","0","0.639150799950585","0.628699699998833","0.791432499885559","1","1","1","1","1","1","1","1","1"
"260018","img/object_images/guitar02.jpg","img/object_images/outlet01.jpg","img/object_images/shovel03.jpg","1","1","1","0","0","1","0.791432499885559","0.639150799950585","0.658454300020821","1","1","1","1","1","1","1","1","1"
"260018","img/object_images/shovel03.jpg","img/object_images/guitar02.jpg","img/object_images/Stool01.jpg","1","1","1","1","0","0","0.658454300020821","0.791432499885559","0.650811200030148","1","1","1","1","1","1","1","1","1"
"260018","img/object_images/Stool01.jpg","img/object_images/shovel03.jpg","img/object_images/bird_house02.jpg","1","1","1","0","1","1","0.650811200030148","0.658454300020821","0.648452699999325","1","1","1","1","1","1","1","1","1"
"260018","img/object_images/bird_house02.jpg","img/object_images/Stool01.jpg","img/object_images/ornament01.jpg","1","1","1","1","0","1","0.648452699999325","0.650811200030148","1.06423830008134","1","1","1","1","1","1","1","1","1"
"260018","img/object_images/ornament01.jpg","img/object_images/bird_house02.jpg",NA,"1","1",NA,"1","1",NA,"1.06423830008134","0.648452699999325",NA,"1","1",NA,"1","1",NA,"1","1",NA
"260018","img/object_images/bicycle01.jpg",NA,"img/object_images/WoodBox01.jpg","1",NA,"1","1",NA,"0","0.659210300073028",NA,"0.591083800070919","1",NA,"1","1",NA,"1","1",NA,"1"
"260018","img/object_images/WoodBox01.jpg","img/object_images/bicycle01.jpg","img/object_images/perfume02.jpg","1","1","1","0","1","0","0.591083800070919","0.659210300073028","0.656407299917191","1","1","1","1","1","1","1","1","1"
"260018","img/object_images/perfume02.jpg","img/object_images/WoodBox01.jpg","img/object_images/audio_port01.jpg","1","1","1","0","0","1","0.656407299917191","0.591083800070919","0.587638900033198","1","1","1","1","1","1","1","1","1"
"260018","img/object_images/audio_port01.jpg","img/object_images/perfume02.jpg","img/object_images/toilet_paper_dispenser01.jpg","1","1","1","1","0","1","0.587638900033198","0.656407299917191","0.834515199996531","1","1","1","1","1","1","1","1","1"
"260018","img/object_images/toilet_paper_dispenser01.jpg","img/object_images/audio_port01.jpg","img/object_images/shoes07.jpg","1","1","1","1","1","0","0.834515199996531","0.587638900033198","0.518627200042829","1","1","1","1","1","1","1","1","1"
"260018","img/object_images/shoes07.jpg","img/object_images/toilet_paper_dispenser01.jpg","img/object_images/purse04.jpg","1","1","1","0","1","1","0.518627200042829","0.834515199996531","0.81402910000179","1","1","1","1","1","1","1","1","1"
"260018","img/object_images/purse04.jpg","img/object_images/shoes07.jpg","img/object_images/cellphone03.jpg","1","1","0","1","0","0","0.81402910000179","0.518627200042829",NA,"1","1","0","1","1","0","1","1","0"
"260018","img/object_images/cellphone03.jpg","img/object_images/purse04.jpg","img/object_images/boat_toy10.jpg","0","1","0","0","1","0",NA,"0.81402910000179",NA,"0","1","0","0","1","0","0","1","0"
"260018","img/object_images/boat_toy10.jpg","img/object_images/cellphone03.jpg","img/object_images/bottle09.jpg","0","0","0","0","0","0",NA,NA,NA,"0","0","0","0","0","0","0","0","0"
"260018","img/object_images/bottle09.jpg","img/object_images/boat_toy10.jpg","img/object_images/fan02.jpg","0","0","0","0","0","0",NA,NA,NA,"0","0","0","0","0","0","0","0","0"
"260018","img/object_images/fan02.jpg","img/object_images/bottle09.jpg","img/object_images/scoreboard01.jpg","0","0","1","0","0","1",NA,NA,"0.901934400084428","0","0","1","0","0","1","0","0","1"
"260018","img/object_images/scoreboard01.jpg","img/object_images/fan02.jpg","img/object_images/flask01.jpg","1","0","0","1","0","0","0.901934400084428",NA,NA,"1","0","0","1","0","0","1","0","0"
"260018","img/object_images/flask01.jpg","img/object_images/scoreboard01.jpg","img/object_images/toaster01.jpg","0","1","1","0","1","1",NA,"0.901934400084428","0.543417599983513","0","1","1","0","1","1","0","1","1"
"260018","img/object_images/toaster01.jpg","img/object_images/flask01.jpg","img/object_images/hot_air_balloon02.jpg","1","0","1","1","0","0","0.543417599983513",NA,"0.611014800029807","1","0","1","1","0","1","1","0","1"
"260018","img/object_images/hot_air_balloon02.jpg","img/object_images/toaster01.jpg","img/object_images/camera_lens01.jpg","1","1","0","0","1","1","0.611014800029807","0.543417599983513","0.434182500001043","1","1","1","1","1","1","1","1","1"
"260018","img/object_images/camera_lens01.jpg","img/object_images/hot_air_balloon02.jpg","img/object_images/wagon_cart03.jpg","0","1","1","1","0","1","0.434182500001043","0.611014800029807","0.708623899961822","1","1","1","1","1","1","1","1","1"
"260018","img/object_images/wagon_cart03.jpg","img/object_images/camera_lens01.jpg","img/object_images/dog_leash01.jpg","1","0","0","1","1","0","0.708623899961822","0.434182500001043",NA,"1","1","0","1","1","0","1","1","0"
"260018","img/object_images/dog_leash01.jpg","img/object_images/wagon_cart03.jpg","img/object_images/boat02.jpg","0","1","0","0","1","1",NA,"0.708623899961822",NA,"0","1","0","0","1","0","0","1","0"
"260018","img/object_images/boat02.jpg","img/object_images/dog_leash01.jpg","img/object_images/bottle10.jpg","0","0","1","1","0","1",NA,NA,"0.810221799998544","0","0","1","0","0","1","0","0","1"
"260018","img/object_images/bottle10.jpg","img/object_images/boat02.jpg","img/object_images/bean_bag02.jpg","1","0","1","1","1","1","0.810221799998544",NA,"1.04139030002989","1","0","1","1","0","1","1","0","1"
"260018","img/object_images/bean_bag02.jpg","img/object_images/bottle10.jpg","img/object_images/piggy_bank01.jpg","1","1","1","1","1","1","1.04139030002989","0.810221799998544","0.819309899932705","1","1","1","1","1","1","1","1","1"
"260018","img/object_images/piggy_bank01.jpg","img/object_images/bean_bag02.jpg","img/object_images/bottle02.jpg","1","1","1","1","1","1","0.819309899932705","1.04139030002989","1.27889419998974","1","1","1","1","1","1","1","1","1"
"260018","img/object_images/bottle02.jpg","img/object_images/piggy_bank01.jpg","img/object_images/hat06.jpg","1","1","0","1","1","0","1.27889419998974","0.819309899932705","1.04289479996078","1","1","1","1","1","1","1","1","1"
"260018","img/object_images/hat06.jpg","img/object_images/bottle02.jpg","img/object_images/helmet04.jpg","0","1","1","0","1","1","1.04289479996078","1.27889419998974","0.729362200014293","1","1","1","1","1","1","1","1","1"
"260018","img/object_images/helmet04.jpg","img/object_images/hat06.jpg","img/object_images/tie02.jpg","1","0","1","1","0","0","0.729362200014293","1.04289479996078","0.628403300070204","1","1","1","1","1","1","1","1","1"
"260018","img/object_images/tie02.jpg","img/object_images/helmet04.jpg","img/object_images/coloring_pencil02.jpg","1","1","1","0","1","0","0.628403300070204","0.729362200014293","2.51593549991958","1","1","1","1","1","1","1","1","1"
"260018","img/object_images/coloring_pencil02.jpg","img/object_images/tie02.jpg","img/object_images/pen05.jpg","1","1","1","0","0","0","2.51593549991958","0.628403300070204","0.879258199944161","1","1","1","1","1","1","1","1","1"
"260018","img/object_images/pen05.jpg","img/object_images/coloring_pencil02.jpg","img/object_images/chair03.jpg","1","1","1","0","0","0","0.879258199944161","2.51593549991958","0.579921299940906","1","1","1","1","1","1","1","1","1"
"260018","img/object_images/chair03.jpg","img/object_images/pen05.jpg","img/object_images/water_scooter01.jpg","1","1","1","0","0","1","0.579921299940906","0.879258199944161","0.61127450002823","1","1","1","1","1","1","1","1","1"
"260018","img/object_images/water_scooter01.jpg","img/object_images/chair03.jpg","img/object_images/knit01.jpg","1","1","1","1","0","0","0.61127450002823","0.579921299940906","0.759502300061285","1","1","1","1","1","1","1","1","1"
"260018","img/object_images/knit01.jpg","img/object_images/water_scooter01.jpg","img/object_images/tool19.jpg","1","1","1","0","1","1","0.759502300061285","0.61127450002823","0.663175599998794","1","1","1","1","1","1","1","1","1"
"260018","img/object_images/tool19.jpg","img/object_images/knit01.jpg",NA,"1","1",NA,"1","0",NA,"0.663175599998794","0.759502300061285",NA,"1","1",NA,"1","1",NA,"1","1",NA
"260018","img/object_images/colander01.jpg",NA,"img/object_images/gift_box04.jpg","0",NA,"1","0",NA,"0","0.925885499920696",NA,"0.645628400030546","1",NA,"1","1",NA,"1","1",NA,"1"
"260018","img/object_images/gift_box04.jpg","img/object_images/colander01.jpg","img/object_images/purse01.jpg","1","0","1","0","0","1","0.645628400030546","0.925885499920696","0.511145500000566","1","1","1","1","1","1","1","1","1"
"260018","img/object_images/purse01.jpg","img/object_images/gift_box04.jpg","img/object_images/Traffic Sign 01.jpg","1","1","1","1","0","0","0.511145500000566","0.645628400030546","0.476429099915549","1","1","1","1","1","1","1","1","1"
"260018","img/object_images/Traffic Sign 01.jpg","img/object_images/purse01.jpg","img/object_images/handcuffs01.jpg","1","1","1","0","1","0","0.476429099915549","0.511145500000566","0.603766200016253","1","1","1","1","1","1","1","1","1"
"260018","img/object_images/handcuffs01.jpg","img/object_images/Traffic Sign 01.jpg","img/object_images/cup03.jpg","1","1","1","0","0","1","0.603766200016253","0.476429099915549","0.50565219996497","1","1","1","1","1","1","1","1","1"
"260018","img/object_images/cup03.jpg","img/object_images/handcuffs01.jpg","img/object_images/hair_clips01.jpg","1","1","1","1","0","1","0.50565219996497","0.603766200016253","0.702508800080977","1","1","1","1","1","1","1","1","1"
"260018","img/object_images/hair_clips01.jpg","img/object_images/cup03.jpg","img/object_images/pan01.jpg","1","1","1","1","1","1","0.702508800080977","0.50565219996497","0.525765800033696","1","1","1","1","1","1","1","1","1"
"260018","img/object_images/pan01.jpg","img/object_images/hair_clips01.jpg","img/object_images/blanket01.jpg","1","1","1","1","1","1","0.525765800033696","0.702508800080977","0.558618600014597","1","1","1","1","1","1","1","1","1"
"260018","img/object_images/blanket01.jpg","img/object_images/pan01.jpg","img/object_images/yo_yo01.jpg","1","1","1","1","1","0","0.558618600014597","0.525765800033696","1.81183729995973","1","1","1","1","1","1","1","1","1"
"260018","img/object_images/yo_yo01.jpg","img/object_images/blanket01.jpg","img/object_images/projector01.jpg","1","1","1","0","1","0","1.81183729995973","0.558618600014597","0.751045800046995","1","1","1","1","1","1","1","1","1"
"260018","img/object_images/projector01.jpg","img/object_images/yo_yo01.jpg","img/object_images/TrashCan02.jpg","1","1","1","0","0","1","0.751045800046995","1.81183729995973","0.571051600039937","1","1","1","1","1","1","1","1","1"
"260018","img/object_images/TrashCan02.jpg","img/object_images/projector01.jpg","img/object_images/glasses07.jpg","1","1","1","1","0","1","0.571051600039937","0.751045800046995","0.31553340004757","1","1","1","1","1","1","1","1","1"
"260018","img/object_images/glasses07.jpg","img/object_images/TrashCan02.jpg","img/object_images/glasses06.jpg","1","1","1","1","1","1","0.31553340004757","0.571051600039937","0.465954300016165","1","1","1","1","1","1","1","1","1"
"260018","img/object_images/glasses06.jpg","img/object_images/glasses07.jpg","img/object_images/tray01.jpg","1","1","1","1","1","1","0.465954300016165","0.31553340004757","0.723724300041795","1","1","1","1","1","1","1","1","1"
"260018","img/object_images/tray01.jpg","img/object_images/glasses06.jpg","img/object_images/speaker01.jpg","1","1","1","1","1","1","0.723724300041795","0.465954300016165","0.565198700060137","1","1","1","1","1","1","1","1","1"
"260018","img/object_images/speaker01.jpg","img/object_images/tray01.jpg","img/object_images/tool07.jpg","1","1","1","1","1","0","0.565198700060137","0.723724300041795","0.552667600102723","1","1","1","1","1","1","1","1","1"
"260018","img/object_images/tool07.jpg","img/object_images/speaker01.jpg","img/object_images/faucet01.jpg","1","1","1","0","1","0","0.552667600102723","0.565198700060137","0.508221800089814","1","1","1","1","1","1","1","1","1"
"260018","img/object_images/faucet01.jpg","img/object_images/tool07.jpg","img/object_images/fire_extinguisher01.jpg","1","1","1","0","0","0","0.508221800089814","0.552667600102723","0.682105800020508","1","1","1","1","1","1","1","1","1"
"260018","img/object_images/fire_extinguisher01.jpg","img/object_images/faucet01.jpg","img/object_images/tool08.jpg","1","1","1","0","0","0","0.682105800020508","0.508221800089814","0.6467290999135","1","1","1","1","1","1","1","1","1"
"260018","img/object_images/tool08.jpg","img/object_images/fire_extinguisher01.jpg","img/object_images/ring03.jpg","1","1","1","0","0","1","0.6467290999135","0.682105800020508","0.754084600019269","1","1","1","1","1","1","1","1","1"
"260018","img/object_images/ring03.jpg","img/object_images/tool08.jpg","img/object_images/Kitchen_Towel.jpg","1","1","1","1","0","0","0.754084600019269","0.6467290999135","0.65667910000775","1","1","1","1","1","1","1","1","1"
"260018","img/object_images/Kitchen_Towel.jpg","img/object_images/ring03.jpg","img/object_images/hole_puncher01.jpg","1","1","1","0","1","1","0.65667910000775","0.754084600019269","0.459875400061719","1","1","1","1","1","1","1","1","1"
"260018","img/object_images/hole_puncher01.jpg","img/object_images/Kitchen_Towel.jpg","img/object_images/cellphone02.jpg","1","1","1","1","0","1","0.459875400061719","0.65667910000775","0.614140099962242","1","1","1","1","1","1","1","1","1"
"260018","img/object_images/cellphone02.jpg","img/object_images/hole_puncher01.jpg","img/object_images/exfoliater_brush01.jpg","1","1","1","1","1","0","0.614140099962242","0.459875400061719","0.905881400103681","1","1","1","1","1","1","1","1","1"
"260018","img/object_images/exfoliater_brush01.jpg","img/object_images/cellphone02.jpg","img/object_images/basket02.jpg","1","1","1","0","1","0","0.905881400103681","0.614140099962242","0.682543899980374","1","1","1","1","1","1","1","1","1"
"260018","img/object_images/basket02.jpg","img/object_images/exfoliater_brush01.jpg","img/object_images/Pottery01.jpg","1","1","1","0","0","0","0.682543899980374","0.905881400103681","0.780587300076149","1","1","1","1","1","1","1","1","1"
"260018","img/object_images/Pottery01.jpg","img/object_images/basket02.jpg","img/object_images/jewelry09.jpg","1","1","1","0","0","1","0.780587300076149","0.682543899980374","0.639526300015859","1","1","1","1","1","1","1","1","1"
"260018","img/object_images/jewelry09.jpg","img/object_images/Pottery01.jpg","img/object_images/Sprayer01.jpg","1","1","0","1","0","0","0.639526300015859","0.780587300076149","1.42784539994318","1","1","1","1","1","1","1","1","1"
"260018","img/object_images/Sprayer01.jpg","img/object_images/jewelry09.jpg","img/object_images/bicycle_lock01.jpg","0","1","1","0","1","0","1.42784539994318","0.639526300015859","0.817588599980809","1","1","1","1","1","1","1","1","1"
"260018","img/object_images/bicycle_lock01.jpg","img/object_images/Sprayer01.jpg","img/object_images/book01.jpg","1","0","1","0","0","1","0.817588599980809","1.42784539994318","0.322180000017397","1","1","1","1","1","1","1","1","1"
"260018","img/object_images/book01.jpg","img/object_images/bicycle_lock01.jpg","img/object_images/lighter01.jpg","1","1","1","1","0","1","0.322180000017397","0.817588599980809","0.707867800025269","1","1","1","1","1","1","1","1","1"
"260018","img/object_images/lighter01.jpg","img/object_images/book01.jpg",NA,"1","1",NA,"1","1",NA,"0.707867800025269","0.322180000017397",NA,"1","1",NA,"1","1",NA,"1","1",NA
"260018","img/object_images/shower_head03.jpg",NA,"img/object_images/tv01.jpg","1",NA,"1","1",NA,"0","0.795664499979466",NA,"0.28212650003843","1",NA,"1","1",NA,"1","1",NA,"1"
"260018","img/object_images/tv01.jpg","img/object_images/shower_head03.jpg","img/object_images/key02.jpg","1","1","1","0","1","1","0.28212650003843","0.795664499979466","0.613295400049537","1","1","1","1","1","1","1","1","1"
"260018","img/object_images/key02.jpg","img/object_images/tv01.jpg","img/object_images/satellite01.jpg","1","1","1","1","0","0","0.613295400049537","0.28212650003843","0.774005000013858","1","1","1","1","1","1","1","1","1"
"260018","img/object_images/satellite01.jpg","img/object_images/key02.jpg","img/object_images/belt01.jpg","1","1","1","0","1","0","0.774005000013858","0.613295400049537","1.74495139997452","1","1","1","1","1","1","1","1","1"
"260018","img/object_images/belt01.jpg","img/object_images/satellite01.jpg","img/object_images/yarn02.jpg","1","1","1","0","0","0","1.74495139997452","0.774005000013858","0.644485499942675","1","1","1","1","1","1","1","1","1"
"260018","img/object_images/yarn02.jpg","img/object_images/belt01.jpg","img/object_images/lemon_squeezer02.jpg","1","1","1","0","0","1","0.644485499942675","1.74495139997452","0.663618499995209","1","1","1","1","1","1","1","1","1"
"260018","img/object_images/lemon_squeezer02.jpg","img/object_images/yarn02.jpg","img/object_images/binoculars03.jpg","1","1","1","1","0","1","0.663618499995209","0.644485499942675","0.387253200053237","1","1","1","1","1","1","1","1","1"
"260018","img/object_images/binoculars03.jpg","img/object_images/lemon_squeezer02.jpg","img/object_images/tool11.jpg","1","1","1","1","1","1","0.387253200053237","0.663618499995209","0.545697599998675","1","1","1","1","1","1","1","1","1"
"260018","img/object_images/tool11.jpg","img/object_images/binoculars03.jpg","img/object_images/ribbon01.jpg","1","1","1","1","1","0","0.545697599998675","0.387253200053237","1.03569149994291","1","1","1","1","1","1","1","1","1"
"260018","img/object_images/ribbon01.jpg","img/object_images/tool11.jpg","img/object_images/rock03.jpg","1","1","1","0","1","0","1.03569149994291","0.545697599998675","2.06756679993123","1","1","1","1","1","1","1","1","1"
"260018","img/object_images/rock03.jpg","img/object_images/ribbon01.jpg","img/object_images/ice_tray03.jpg","1","1","1","0","0","1","2.06756679993123","1.03569149994291","3.84814919997007","1","1","1","1","1","1","1","1","1"
"260018","img/object_images/ice_tray03.jpg","img/object_images/rock03.jpg","img/object_images/car03.jpg","1","1","1","1","0","0","3.84814919997007","2.06756679993123","0.994712400017306","1","1","1","1","1","1","1","1","1"
"260018","img/object_images/car03.jpg","img/object_images/ice_tray03.jpg","img/object_images/mask01.jpg","1","1","0","0","1","0","0.994712400017306","3.84814919997007","0.786396099952981","1","1","1","1","1","1","1","1","1"
"260018","img/object_images/mask01.jpg","img/object_images/car03.jpg","img/object_images/razor01.jpg","0","1","1","0","0","0","0.786396099952981","0.994712400017306","1.8841698000906","1","1","1","1","1","1","1","1","1"
"260018","img/object_images/razor01.jpg","img/object_images/mask01.jpg","img/object_images/dress03.jpg","1","0","1","0","0","1","1.8841698000906","0.786396099952981","0.950243200059049","1","1","1","1","1","1","1","1","1"
"260018","img/object_images/dress03.jpg","img/object_images/razor01.jpg","img/object_images/hair_brush05.jpg","1","1","0","1","0","1","0.950243200059049","1.8841698000906","0.326695300056599","1","1","1","1","1","1","1","1","1"
"260018","img/object_images/hair_brush05.jpg","img/object_images/dress03.jpg","img/object_images/jewelry07.jpg","0","1","0","1","1","1","0.326695300056599","0.950243200059049","0.324927199981175","1","1","1","1","1","1","1","1","1"
"260018","img/object_images/jewelry07.jpg","img/object_images/hair_brush05.jpg","img/object_images/fan05.jpg","0","0","1","1","1","0","0.324927199981175","0.326695300056599","0.968745799968019","1","1","1","1","1","1","1","1","1"
"260018","img/object_images/fan05.jpg","img/object_images/jewelry07.jpg","img/object_images/cards01.jpg","1","0","0","0","1","0","0.968745799968019","0.324927199981175","0.816057599964552","1","1","1","1","1","1","1","1","1"
"260018","img/object_images/cards01.jpg","img/object_images/fan05.jpg","img/object_images/shoes10.jpg","0","1","1","0","0","0","0.816057599964552","0.968745799968019","0.73540900007356","1","1","1","1","1","1","1","1","1"
"260018","img/object_images/shoes10.jpg","img/object_images/cards01.jpg","img/object_images/WitchHat02.jpg","1","0","1","0","0","1","0.73540900007356","0.816057599964552","0.834059099899605","1","1","1","1","1","1","1","1","1"
"260018","img/object_images/WitchHat02.jpg","img/object_images/shoes10.jpg","img/object_images/cutting_board01.jpg","1","1","1","1","0","1","0.834059099899605","0.73540900007356","0.7881342000328","1","1","1","1","1","1","1","1","1"
"260018","img/object_images/cutting_board01.jpg","img/object_images/WitchHat02.jpg","img/object_images/ladle02.jpg","1","1","1","1","1","0","0.7881342000328","0.834059099899605","0.610950699890964","1","1","1","1","1","1","1","1","1"
"260018","img/object_images/ladle02.jpg","img/object_images/cutting_board01.jpg","img/object_images/MeasuringCup01.jpg","1","1","1","0","1","1","0.610950699890964","0.7881342000328","0.986576199997216","1","1","1","1","1","1","1","1","1"
"260018","img/object_images/MeasuringCup01.jpg","img/object_images/ladle02.jpg","img/object_images/chair04.jpg","1","1","1","1","0","1","0.986576199997216","0.610950699890964","0.765116999973543","1","1","1","1","1","1","1","1","1"
"260018","img/object_images/chair04.jpg","img/object_images/MeasuringCup01.jpg","img/object_images/bag06.jpg","1","1","1","1","1","1","0.765116999973543","0.986576199997216","0.717857499956153","1","1","1","1","1","1","1","1","1"
"260018","img/object_images/bag06.jpg","img/object_images/chair04.jpg","img/object_images/toaster02.jpg","1","1","1","1","1","1","0.717857499956153","0.765116999973543","1.44412000000011","1","1","1","1","1","1","1","1","1"
"260018","img/object_images/toaster02.jpg","img/object_images/bag06.jpg","img/object_images/jewel01.jpg","1","1","1","1","1","0","1.44412000000011","0.717857499956153","0.704004999948665","1","1","1","1","1","1","1","1","1"
"260018","img/object_images/jewel01.jpg","img/object_images/toaster02.jpg","img/object_images/car04.jpg","1","1","1","0","1","0","0.704004999948665","1.44412000000011","0.677720900042914","1","1","1","1","1","1","1","1","1"
"260018","img/object_images/car04.jpg","img/object_images/jewel01.jpg","img/object_images/screwdriver01.jpg","1","1","1","0","0","0","0.677720900042914","0.704004999948665","0.70700240007136","1","1","1","1","1","1","1","1","1"
"260018","img/object_images/screwdriver01.jpg","img/object_images/car04.jpg","img/object_images/slinky_toy01.jpg","1","1","1","0","0","1","0.70700240007136","0.677720900042914","0.761597799952142","1","1","1","1","1","1","1","1","1"
"260018","img/object_images/slinky_toy01.jpg","img/object_images/screwdriver01.jpg",NA,"1","1",NA,"1","0",NA,"0.761597799952142","0.70700240007136",NA,"1","1",NA,"1","1",NA,"1","1",NA
"260018","img/object_images/accardion01.jpg",NA,"img/object_images/laptop01.jpg","1",NA,"1","1",NA,"0","0.850211100070737",NA,"0.6777710999595","1",NA,"1","1",NA,"1","1",NA,"1"
"260018","img/object_images/laptop01.jpg","img/object_images/accardion01.jpg","img/object_images/spatula02.jpg","1","1","1","0","1","1","0.6777710999595","0.850211100070737","0.45755310007371","1","1","1","1","1","1","1","1","1"
"260018","img/object_images/spatula02.jpg","img/object_images/laptop01.jpg","img/object_images/vase01.jpg","1","1","1","1","0","0","0.45755310007371","0.6777710999595","0.526326399995014","1","1","1","1","1","1","1","1","1"
"260018","img/object_images/vase01.jpg","img/object_images/spatula02.jpg","img/object_images/Lint_Roller02.jpg","1","1","1","0","1","0","0.526326399995014","0.45755310007371","0.475166599964723","1","1","1","1","1","1","1","1","1"
"260018","img/object_images/Lint_Roller02.jpg","img/object_images/vase01.jpg","img/object_images/calculator01.jpg","1","1","1","0","0","1","0.475166599964723","0.526326399995014","0.502569900010712","1","1","1","1","1","1","1","1","1"
"260018","img/object_images/calculator01.jpg","img/object_images/Lint_Roller02.jpg","img/object_images/stove01.jpg","1","1","1","1","0","0","0.502569900010712","0.475166599964723","0.454614200047217","1","1","1","1","1","1","1","1","1"
"260018","img/object_images/stove01.jpg","img/object_images/calculator01.jpg","img/object_images/ball02.jpg","1","1","1","0","1","1","0.454614200047217","0.502569900010712","0.51892719999887","1","1","1","1","1","1","1","1","1"
"260018","img/object_images/ball02.jpg","img/object_images/stove01.jpg","img/object_images/jewel03.jpg","1","1","1","1","0","1","0.51892719999887","0.454614200047217","0.29845970007591","1","1","1","1","1","1","1","1","1"
"260018","img/object_images/jewel03.jpg","img/object_images/ball02.jpg","img/object_images/hair_dryer01.jpg","1","1","1","1","1","0","0.29845970007591","0.51892719999887","0.588603800046258","1","1","1","1","1","1","1","1","1"
"260018","img/object_images/hair_dryer01.jpg","img/object_images/jewel03.jpg","img/object_images/lock01.jpg","1","1","1","0","1","0","0.588603800046258","0.29845970007591","0.567057800013572","1","1","1","1","1","1","1","1","1"
"260018","img/object_images/lock01.jpg","img/object_images/hair_dryer01.jpg","img/object_images/trash_can03.jpg","1","1","1","0","0","1","0.567057800013572","0.588603800046258","0.467382799950428","1","1","1","1","1","1","1","1","1"
"260018","img/object_images/trash_can03.jpg","img/object_images/lock01.jpg","img/object_images/microphone03.jpg","1","1","0","1","0","1","0.467382799950428","0.567057800013572","0.300546100013889","1","1","1","1","1","1","1","1","1"
"260018","img/object_images/microphone03.jpg","img/object_images/trash_can03.jpg","img/object_images/pitcher05.jpg","0","1","1","1","1","0","0.300546100013889","0.467382799950428","0.757299599936232","1","1","1","1","1","1","1","1","1"
"260018","img/object_images/pitcher05.jpg","img/object_images/microphone03.jpg","img/object_images/fan04.jpg","1","0","1","0","1","0","0.757299599936232","0.300546100013889","0.831651999964379","1","1","1","1","1","1","1","1","1"
"260018","img/object_images/fan04.jpg","img/object_images/pitcher05.jpg","img/object_images/laptop03.jpg","1","1","1","0","0","1","0.831651999964379","0.757299599936232","0.722383400076069","1","1","1","1","1","1","1","1","1"
"260018","img/object_images/laptop03.jpg","img/object_images/fan04.jpg","img/object_images/bucket02.jpg","1","1","1","1","0","1","0.722383400076069","0.831651999964379","0.578685099957511","1","1","1","1","1","1","1","1","1"
"260018","img/object_images/bucket02.jpg","img/object_images/laptop03.jpg","img/object_images/chess_piece01.jpg","1","1","1","1","1","0","0.578685099957511","0.722383400076069","0.737745299935341","1","1","1","1","1","1","1","1","1"
"260018","img/object_images/chess_piece01.jpg","img/object_images/bucket02.jpg","img/object_images/surf_board01.jpg","1","1","1","0","1","1","0.737745299935341","0.578685099957511","0.649289899971336","1","1","1","1","1","1","1","1","1"
"260018","img/object_images/surf_board01.jpg","img/object_images/chess_piece01.jpg","img/object_images/backpack03.jpg","1","1","1","1","0","1","0.649289899971336","0.737745299935341","0.584904999937862","1","1","1","1","1","1","1","1","1"
"260018","img/object_images/backpack03.jpg","img/object_images/surf_board01.jpg","img/object_images/robe01.jpg","1","1","1","1","1","1","0.584904999937862","0.649289899971336","1.03779029997531","1","1","1","1","1","1","1","1","1"
"260018","img/object_images/robe01.jpg","img/object_images/backpack03.jpg","img/object_images/gift_box05.jpg","1","1","1","1","1","0","1.03779029997531","0.584904999937862","1.22683679999318","1","1","1","1","1","1","1","1","1"
"260018","img/object_images/gift_box05.jpg","img/object_images/robe01.jpg","img/object_images/umbrella01.jpg","1","1","1","0","1","0","1.22683679999318","1.03779029997531","0.633464599959552","1","1","1","1","1","1","1","1","1"
"260018","img/object_images/umbrella01.jpg","img/object_images/gift_box05.jpg","img/object_images/helmet02.jpg","1","1","1","0","0","0","0.633464599959552","1.22683679999318","0.453642699983902","1","1","1","1","1","1","1","1","1"
"260018","img/object_images/helmet02.jpg","img/object_images/umbrella01.jpg","img/object_images/chair02.jpg","1","1","1","0","0","1","0.453642699983902","0.633464599959552","0.496111300075427","1","1","1","1","1","1","1","1","1"
"260018","img/object_images/chair02.jpg","img/object_images/helmet02.jpg","img/object_images/towels01.jpg","1","1","1","1","0","0","0.496111300075427","0.453642699983902","0.663150700042024","1","1","1","1","1","1","1","1","1"
"260018","img/object_images/towels01.jpg","img/object_images/chair02.jpg","img/object_images/trash_can05.jpg","1","1","1","0","1","1","0.663150700042024","0.496111300075427","0.562565499916673","1","1","1","1","1","1","1","1","1"
"260018","img/object_images/trash_can05.jpg","img/object_images/towels01.jpg","img/object_images/Vest02.jpg","1","1","1","1","0","0","0.562565499916673","0.663150700042024","0.679446499911137","1","1","1","1","1","1","1","1","1"
"260018","img/object_images/Vest02.jpg","img/object_images/trash_can05.jpg","img/object_images/combs01.jpg","1","1","1","0","1","1","0.679446499911137","0.562565499916673","0.516960100037977","1","1","1","1","1","1","1","1","1"
"260018","img/object_images/combs01.jpg","img/object_images/Vest02.jpg","img/object_images/shoes08.jpg","1","1","1","1","0","1","0.516960100037977","0.679446499911137","0.517518199980259","1","1","1","1","1","1","1","1","1"
"260018","img/object_images/shoes08.jpg","img/object_images/combs01.jpg","img/object_images/toy05.jpg","1","1","1","1","1","0","0.517518199980259","0.516960100037977","0.82776469993405","1","1","1","1","1","1","1","1","1"
"260018","img/object_images/toy05.jpg","img/object_images/shoes08.jpg","img/object_images/hair_brush02.jpg","1","1","1","0","1","0","0.82776469993405","0.517518199980259","0.554885899997316","1","1","1","1","1","1","1","1","1"
"260018","img/object_images/hair_brush02.jpg","img/object_images/toy05.jpg",NA,"1","1",NA,"0","0",NA,"0.554885899997316","0.82776469993405",NA,"1","1",NA,"1","1",NA,"1","1",NA
"260018","img/object_images/vase02.jpg",NA,"img/object_images/hat09.jpg","1",NA,"1","1",NA,"0","0.881573299993761",NA,"0.592349699931219","1",NA,"1","1",NA,"1","1",NA,"1"
"260018","img/object_images/hat09.jpg","img/object_images/vase02.jpg","img/object_images/perfume01.jpg","1","1","1","0","1","0","0.592349699931219","0.881573299993761","0.62486799992621","1","1","1","1","1","1","1","1","1"
"260018","img/object_images/perfume01.jpg","img/object_images/hat09.jpg","img/object_images/ruler02.jpg","1","1","1","0","0","1","0.62486799992621","0.592349699931219","0.733732499997132","1","1","1","1","1","1","1","1","1"
"260018","img/object_images/ruler02.jpg","img/object_images/perfume01.jpg","img/object_images/bow_tie03.jpg","1","1","1","1","0","1","0.733732499997132","0.62486799992621","0.519919199985452","1","1","1","1","1","1","1","1","1"
"260018","img/object_images/bow_tie03.jpg","img/object_images/ruler02.jpg","img/object_images/Confetti 01.jpg","1","1","1","1","1","0","0.519919199985452","0.733732499997132","0.535577700007707","1","1","1","1","1","1","1","1","1"
"260018","img/object_images/Confetti 01.jpg","img/object_images/bow_tie03.jpg","img/object_images/dust_pan01.jpg","1","1","1","0","1","1","0.535577700007707","0.519919199985452","0.46922749991063","1","1","1","1","1","1","1","1","1"
"260018","img/object_images/dust_pan01.jpg","img/object_images/Confetti 01.jpg","img/object_images/Candle_Holder01.jpg","1","1","1","1","0","0","0.46922749991063","0.535577700007707","0.632329499931075","1","1","1","1","1","1","1","1","1"
"260018","img/object_images/Candle_Holder01.jpg","img/object_images/dust_pan01.jpg","img/object_images/sign02.jpg","1","1","0","0","1","0","0.632329499931075","0.46922749991063","0.634221299900673","1","1","1","1","1","1","1","1","1"
"260018","img/object_images/sign02.jpg","img/object_images/Candle_Holder01.jpg","img/object_images/sink_filter01 (1).jpg","0","1","1","0","0","0","0.634221299900673","0.632329499931075","0.702685899916105","1","1","1","1","1","1","1","1","1"
"260018","img/object_images/sink_filter01 (1).jpg","img/object_images/sign02.jpg","img/object_images/razor02.jpg","1","0","1","0","0","1","0.702685899916105","0.634221299900673","0.668283900013193","1","1","1","1","1","1","1","1","1"
"260018","img/object_images/razor02.jpg","img/object_images/sink_filter01 (1).jpg","img/object_images/knife01.jpg","1","1","1","1","0","1","0.668283900013193","0.702685899916105","0.474563000025228","1","1","1","1","1","1","1","1","1"
"260018","img/object_images/knife01.jpg","img/object_images/razor02.jpg","img/object_images/duster01.jpg","1","1","1","1","1","0","0.474563000025228","0.668283900013193","0.591829399927519","1","1","1","1","1","1","1","1","1"
"260018","img/object_images/duster01.jpg","img/object_images/knife01.jpg","img/object_images/office_supplies01.jpg","1","1","1","0","1","1","0.591829399927519","0.474563000025228","0.533277499955148","1","1","1","1","1","1","1","1","1"
"260018","img/object_images/office_supplies01.jpg","img/object_images/duster01.jpg","img/object_images/video_game02.jpg","1","1","0","1","0","1","0.533277499955148","0.591829399927519","0.263555099954829","1","1","1","1","1","1","1","1","1"
"260018","img/object_images/video_game02.jpg","img/object_images/office_supplies01.jpg","img/object_images/socks01.jpg","0","1","1","1","1","1","0.263555099954829","0.533277499955148","0.551268100040033","1","1","1","1","1","1","1","1","1"
"260018","img/object_images/socks01.jpg","img/object_images/video_game02.jpg","img/object_images/bag04.jpg","1","0","1","1","1","0","0.551268100040033","0.263555099954829","0.824018100043759","1","1","1","1","1","1","1","1","1"
"260018","img/object_images/bag04.jpg","img/object_images/socks01.jpg","img/object_images/camera05.jpg","1","1","1","0","1","0","0.824018100043759","0.551268100040033","0.638221199973486","1","1","1","1","1","1","1","1","1"
"260018","img/object_images/camera05.jpg","img/object_images/bag04.jpg","img/object_images/tool20.jpg","1","1","1","0","0","0","0.638221199973486","0.824018100043759","0.797310599940829","1","1","1","1","1","1","1","1","1"
"260018","img/object_images/tool20.jpg","img/object_images/camera05.jpg","img/object_images/spray_can01.jpg","1","1","1","0","0","0","0.797310599940829","0.638221199973486","0.585616099997424","1","1","1","1","1","1","1","1","1"
"260018","img/object_images/spray_can01.jpg","img/object_images/tool20.jpg","img/object_images/tool13.jpg","1","1","1","0","0","1","0.585616099997424","0.797310599940829","0.608736800029874","1","1","1","1","1","1","1","1","1"
"260018","img/object_images/tool13.jpg","img/object_images/spray_can01.jpg","img/object_images/candle02.jpg","1","1","1","1","0","0","0.608736800029874","0.585616099997424","0.724716700031422","1","1","1","1","1","1","1","1","1"
"260018","img/object_images/candle02.jpg","img/object_images/tool13.jpg","img/object_images/lemon_squeezer01.jpg","1","1","1","0","1","1","0.724716700031422","0.608736800029874","0.743211599998176","1","1","1","1","1","1","1","1","1"
"260018","img/object_images/lemon_squeezer01.jpg","img/object_images/candle02.jpg","img/object_images/clipboard01.jpg","1","1","1","1","0","1","0.743211599998176","0.724716700031422","0.45466899999883","1","1","1","1","1","1","1","1","1"
"260018","img/object_images/clipboard01.jpg","img/object_images/lemon_squeezer01.jpg","img/object_images/pan03.jpg","1","1","1","1","1","1","0.45466899999883","0.743211599998176","0.568456599954516","1","1","1","1","1","1","1","1","1"
"260018","img/object_images/pan03.jpg","img/object_images/clipboard01.jpg","img/object_images/floss01.jpg","1","1","1","1","1","1","0.568456599954516","0.45466899999883","0.573577200062573","1","1","1","1","1","1","1","1","1"
"260018","img/object_images/floss01.jpg","img/object_images/pan03.jpg","img/object_images/board01.jpg","1","1","1","1","1","1","0.573577200062573","0.568456599954516","0.752748800092377","1","1","1","1","1","1","1","1","1"
"260018","img/object_images/board01.jpg","img/object_images/floss01.jpg","img/object_images/cup01.jpg","1","1","1","1","1","0","0.752748800092377","0.573577200062573","0.637193500064313","1","1","1","1","1","1","1","1","1"
"260018","img/object_images/cup01.jpg","img/object_images/board01.jpg","img/object_images/hat13.jpg","1","1","1","0","1","1","0.637193500064313","0.752748800092377","0.609866900020279","1","1","1","1","1","1","1","1","1"
"260018","img/object_images/hat13.jpg","img/object_images/cup01.jpg","img/object_images/glasses03.jpg","1","1","0","1","0","0","0.609866900020279","0.637193500064313","0.918526599998586","1","1","1","1","1","1","1","1","1"
"260018","img/object_images/glasses03.jpg","img/object_images/hat13.jpg","img/object_images/pen06.jpg","0","1","1","0","1","0","0.918526599998586","0.609866900020279","0.841334700002335","1","1","1","1","1","1","1","1","1"
"260018","img/object_images/pen06.jpg","img/object_images/glasses03.jpg","img/object_images/hammer02.jpg","1","0","1","0","0","0","0.841334700002335","0.918526599998586","0.641151900053956","1","1","1","1","1","1","1","1","1"
"260018","img/object_images/hammer02.jpg","img/object_images/pen06.jpg",NA,"1","1",NA,"0","0",NA,"0.641151900053956","0.841334700002335",NA,"1","1",NA,"1","1",NA,"1","1",NA
"260018","img/object_images/jewel02.jpg",NA,"img/object_images/yoga_mat01.jpg","0",NA,"1","0",NA,"0","0.796583599993028",NA,"0.535364800016396","1",NA,"1","1",NA,"1","1",NA,"1"
"260018","img/object_images/yoga_mat01.jpg","img/object_images/jewel02.jpg","img/object_images/water_gun01.jpg","1","0","1","0","0","1","0.535364800016396","0.796583599993028","1.26616629993077","1","1","1","1","1","1","1","1","1"
"260018","img/object_images/water_gun01.jpg","img/object_images/yoga_mat01.jpg","img/object_images/dice01.jpg","1","1","0","1","0","0","1.26616629993077","0.535364800016396","0.339914899901487","1","1","1","1","1","1","1","1","1"
"260018","img/object_images/dice01.jpg","img/object_images/water_gun01.jpg","img/object_images/Shoes05.jpg","0","1","1","0","1","0","0.339914899901487","1.26616629993077","0.56864279997535","1","1","1","1","1","1","1","1","1"
"260018","img/object_images/Shoes05.jpg","img/object_images/dice01.jpg","img/object_images/phone04.jpg","1","0","1","0","0","1","0.56864279997535","0.339914899901487","0.634168199962005","1","1","1","1","1","1","1","1","1"
"260018","img/object_images/phone04.jpg","img/object_images/Shoes05.jpg","img/object_images/shovel01.jpg","1","1","1","1","0","0","0.634168199962005","0.56864279997535","0.477999099995941","1","1","1","1","1","1","1","1","1"
"260018","img/object_images/shovel01.jpg","img/object_images/phone04.jpg","img/object_images/headset02.jpg","1","1","1","0","1","0","0.477999099995941","0.634168199962005","0.614905800088309","1","1","1","1","1","1","1","1","1"
"260018","img/object_images/headset02.jpg","img/object_images/shovel01.jpg","img/object_images/egg_basket01.jpg","1","1","1","0","0","1","0.614905800088309","0.477999099995941","0.583482400048524","1","1","1","1","1","1","1","1","1"
"260018","img/object_images/egg_basket01.jpg","img/object_images/headset02.jpg","img/object_images/lock03.jpg","1","1","1","1","0","1","0.583482400048524","0.614905800088309","0.549898599972948","1","1","1","1","1","1","1","1","1"
"260018","img/object_images/lock03.jpg","img/object_images/egg_basket01.jpg","img/object_images/bottle06.jpg","1","1","1","1","1","0","0.549898599972948","0.583482400048524","0.752091799979098","1","1","1","1","1","1","1","1","1"
"260018","img/object_images/bottle06.jpg","img/object_images/lock03.jpg","img/object_images/Eyeliner01.jpg","1","1","1","0","1","1","0.752091799979098","0.549898599972948","0.874991000047885","1","1","1","1","1","1","1","1","1"
"260018","img/object_images/Eyeliner01.jpg","img/object_images/bottle06.jpg","img/object_images/frame01.jpg","1","1","1","1","0","1","0.874991000047885","0.752091799979098","0.452882000012323","1","1","1","1","1","1","1","1","1"
"260018","img/object_images/frame01.jpg","img/object_images/Eyeliner01.jpg","img/object_images/nut_cracker01.jpg","1","1","1","1","1","1","0.452882000012323","0.874991000047885","0.459216399933212","1","1","1","1","1","1","1","1","1"
"260018","img/object_images/nut_cracker01.jpg","img/object_images/frame01.jpg","img/object_images/fan01.jpg","1","1","1","1","1","0","0.459216399933212","0.452882000012323","0.679095600033179","1","1","1","1","1","1","1","1","1"
"260018","img/object_images/fan01.jpg","img/object_images/nut_cracker01.jpg","img/object_images/tennis_racket01.jpg","1","1","1","0","1","1","0.679095600033179","0.459216399933212","0.436256699962542","1","1","1","1","1","1","1","1","1"
"260018","img/object_images/tennis_racket01.jpg","img/object_images/fan01.jpg","img/object_images/bookmark01.jpg","1","1","1","1","0","0","0.436256699962542","0.679095600033179","0.623089899891056","1","1","1","1","1","1","1","1","1"
"260018","img/object_images/bookmark01.jpg","img/object_images/tennis_racket01.jpg","img/object_images/joystick03.jpg","1","1","1","0","1","1","0.623089899891056","0.436256699962542","0.45335339999292","1","1","1","1","1","1","1","1","1"
"260018","img/object_images/joystick03.jpg","img/object_images/bookmark01.jpg","img/object_images/Safe01.jpg","1","1","1","1","0","1","0.45335339999292","0.623089899891056","0.559980000020005","1","1","1","1","1","1","1","1","1"
"260018","img/object_images/Safe01.jpg","img/object_images/joystick03.jpg","img/object_images/bucket01.jpg","1","1","1","1","1","1","0.559980000020005","0.45335339999292","0.404093599994667","1","1","1","1","1","1","1","1","1"
"260018","img/object_images/bucket01.jpg","img/object_images/Safe01.jpg","img/object_images/pitcher07.jpg","1","1","1","1","1","1","0.404093599994667","0.559980000020005","0.852364299935289","1","1","1","1","1","1","1","1","1"
"260018","img/object_images/pitcher07.jpg","img/object_images/bucket01.jpg","img/object_images/note_book02.jpg","1","1","1","1","1","0","0.852364299935289","0.404093599994667","0.894755200017244","1","1","1","1","1","1","1","1","1"
"260018","img/object_images/note_book02.jpg","img/object_images/pitcher07.jpg","img/object_images/badminton01.jpg","1","1","1","0","1","1","0.894755200017244","0.852364299935289","0.695466200006194","1","1","1","1","1","1","1","1","1"
"260018","img/object_images/badminton01.jpg","img/object_images/note_book02.jpg","img/object_images/usb03.jpg","1","1","1","1","0","0","0.695466200006194","0.894755200017244","0.502543000038713","1","1","1","1","1","1","1","1","1"
"260018","img/object_images/usb03.jpg","img/object_images/badminton01.jpg","img/object_images/belt03.jpg","1","1","1","0","1","0","0.502543000038713","0.695466200006194","0.737347799935378","1","1","1","1","1","1","1","1","1"
"260018","img/object_images/belt03.jpg","img/object_images/usb03.jpg","img/object_images/ToolBag01.jpg","1","1","1","0","0","0","0.737347799935378","0.502543000038713","0.716598000028171","1","1","1","1","1","1","1","1","1"
"260018","img/object_images/ToolBag01.jpg","img/object_images/belt03.jpg","img/object_images/TreeSlice01.jpg","1","1","1","0","0","1","0.716598000028171","0.737347799935378","0.565001899958588","1","1","1","1","1","1","1","1","1"
"260018","img/object_images/TreeSlice01.jpg","img/object_images/ToolBag01.jpg","img/object_images/helmet03.jpg","1","1","0","1","0","1","0.565001899958588","0.716598000028171","0.914248800021596","1","1","1","1","1","1","1","1","1"
"260018","img/object_images/helmet03.jpg","img/object_images/TreeSlice01.jpg","img/object_images/origami01.jpg","0","1","1","1","1","1","0.914248800021596","0.565001899958588","0.641178199904971","1","1","1","1","1","1","1","1","1"
"260018","img/object_images/origami01.jpg","img/object_images/helmet03.jpg","img/object_images/scale02.jpg","1","0","1","1","1","0","0.641178199904971","0.914248800021596","0.724230200052261","1","1","1","1","1","1","1","1","1"
"260018","img/object_images/scale02.jpg","img/object_images/origami01.jpg","img/object_images/trumpet01.jpg","1","1","1","0","1","0","0.724230200052261","0.641178199904971","1.1169619000284","1","1","1","1","1","1","1","1","1"
"260018","img/object_images/trumpet01.jpg","img/object_images/scale02.jpg","img/object_images/piano03.jpg","1","1","1","0","0","0","1.1169619000284","0.724230200052261","0.746845599962398","1","1","1","1","1","1","1","1","1"
"260018","img/object_images/piano03.jpg","img/object_images/trumpet01.jpg",NA,"1","1",NA,"0","0",NA,"0.746845599962398","1.1169619000284",NA,"1","1",NA,"1","1",NA,"1","1",NA
"260018","img/object_images/chair05.jpg",NA,"img/object_images/microscope01.jpg","1",NA,"1","0",NA,"0","0.756425300030969",NA,"0.753323100041598","1",NA,"1","1",NA,"1","1",NA,"1"
"260018","img/object_images/microscope01.jpg","img/object_images/chair05.jpg","img/object_images/bottle01.jpg","1","1","1","0","0","0","0.753323100041598","0.756425300030969","0.474628200056031","1","1","1","1","1","1","1","1","1"
"260018","img/object_images/bottle01.jpg","img/object_images/microscope01.jpg","img/object_images/note_book01.jpg","1","1","0","0","0","0","0.474628200056031","0.753323100041598","0.298845500103198","1","1","1","1","1","1","1","1","1"
"260018","img/object_images/note_book01.jpg","img/object_images/bottle01.jpg","img/object_images/usb02.jpg","0","1","1","0","0","0","0.298845500103198","0.474628200056031","0.664501799969003","1","1","1","1","1","1","1","1","1"
"260018","img/object_images/usb02.jpg","img/object_images/note_book01.jpg","img/object_images/pillows01.jpg","1","0","1","0","0","1","0.664501799969003","0.298845500103198","0.945407899911515","1","1","1","1","1","1","1","1","1"
"260018","img/object_images/pillows01.jpg","img/object_images/usb02.jpg","img/object_images/motorcycle01.jpg","1","1","1","1","0","1","0.945407899911515","0.664501799969003","0.893174799974076","1","1","1","1","1","1","1","1","1"
"260018","img/object_images/motorcycle01.jpg","img/object_images/pillows01.jpg","img/object_images/compass01.jpg","1","1","1","1","1","1","0.893174799974076","0.945407899911515","0.526880799909122","1","1","1","1","1","1","1","1","1"
"260018","img/object_images/compass01.jpg","img/object_images/motorcycle01.jpg","img/object_images/wire02.jpg","1","1","1","1","1","1","0.526880799909122","0.893174799974076","0.500858800020069","1","1","1","1","1","1","1","1","1"
"260018","img/object_images/wire02.jpg","img/object_images/compass01.jpg","img/object_images/cellphone01.jpg","1","1","1","1","1","1","0.500858800020069","0.526880799909122","0.519387100008316","1","1","1","1","1","1","1","1","1"
"260018","img/object_images/cellphone01.jpg","img/object_images/wire02.jpg","img/object_images/paint_brush04.jpg","1","1","1","1","1","0","0.519387100008316","0.500858800020069","0.510543299955316","1","1","1","1","1","1","1","1","1"
"260018","img/object_images/paint_brush04.jpg","img/object_images/cellphone01.jpg","img/object_images/pitcher01.jpg","1","1","1","0","1","0","0.510543299955316","0.519387100008316","0.553728199913166","1","1","1","1","1","1","1","1","1"
"260018","img/object_images/pitcher01.jpg","img/object_images/paint_brush04.jpg","img/object_images/tv02.jpg","1","1","1","0","0","0","0.553728199913166","0.510543299955316","0.757843700004742","1","1","1","1","1","1","1","1","1"
"260018","img/object_images/tv02.jpg","img/object_images/pitcher01.jpg","img/object_images/knife04.jpg","1","1","1","0","0","1","0.757843700004742","0.553728199913166","0.576768900034949","1","1","1","1","1","1","1","1","1"
"260018","img/object_images/knife04.jpg","img/object_images/tv02.jpg","img/object_images/Thermometer01.jpg","1","1","1","1","0","0","0.576768900034949","0.757843700004742","0.532286799978465","1","1","1","1","1","1","1","1","1"
"260018","img/object_images/Thermometer01.jpg","img/object_images/knife04.jpg","img/object_images/floppy_disk02.jpg","1","1","1","0","1","0","0.532286799978465","0.576768900034949","0.609251600108109","1","1","1","1","1","1","1","1","1"
"260018","img/object_images/floppy_disk02.jpg","img/object_images/Thermometer01.jpg","img/object_images/retainer01.jpg","1","1","1","0","0","0","0.609251600108109","0.532286799978465","1.05807570007164","1","1","1","1","1","1","1","1","1"
"260018","img/object_images/retainer01.jpg","img/object_images/floppy_disk02.jpg","img/object_images/bell02.jpg","1","1","1","0","0","0","1.05807570007164","0.609251600108109","0.751229000044987","1","1","1","1","1","1","1","1","1"
"260018","img/object_images/bell02.jpg","img/object_images/retainer01.jpg","img/object_images/pen03.jpg","1","1","1","0","0","0","0.751229000044987","1.05807570007164","0.635299599962309","1","1","1","1","1","1","1","1","1"
"260018","img/object_images/pen03.jpg","img/object_images/bell02.jpg","img/object_images/floppy_disk03.jpg","1","1","1","0","0","1","0.635299599962309","0.751229000044987","0.906172399991192","1","1","1","1","1","1","1","1","1"
"260018","img/object_images/floppy_disk03.jpg","img/object_images/pen03.jpg","img/object_images/knit05.jpg","1","1","1","1","0","1","0.906172399991192","0.635299599962309","0.590067200013436","1","1","1","1","1","1","1","1","1"
"260018","img/object_images/knit05.jpg","img/object_images/floppy_disk03.jpg","img/object_images/tennis_racket02.jpg","1","1","1","1","1","1","0.590067200013436","0.906172399991192","0.641879400005564","1","1","1","1","1","1","1","1","1"
"260018","img/object_images/tennis_racket02.jpg","img/object_images/knit05.jpg","img/object_images/chess_piece02.jpg","1","1","1","1","1","1","0.641879400005564","0.590067200013436","0.581645299913362","1","1","1","1","1","1","1","1","1"
"260018","img/object_images/chess_piece02.jpg","img/object_images/tennis_racket02.jpg","img/object_images/lid01.jpg","1","1","1","1","1","1","0.581645299913362","0.641879400005564","0.614147700020112","1","1","1","1","1","1","1","1","1"
"260018","img/object_images/lid01.jpg","img/object_images/chess_piece02.jpg","img/object_images/ear_bud01.jpg","1","1","1","1","1","1","0.614147700020112","0.581645299913362","0.63266460003797","1","1","1","1","1","1","1","1","1"
"260018","img/object_images/ear_bud01.jpg","img/object_images/lid01.jpg","img/object_images/hammer03.jpg","1","1","1","1","1","1","0.63266460003797","0.614147700020112","0.592425199924037","1","1","1","1","1","1","1","1","1"
"260018","img/object_images/hammer03.jpg","img/object_images/ear_bud01.jpg","img/object_images/crutches02.jpg","1","1","1","1","1","0","0.592425199924037","0.63266460003797","0.854818899999373","1","1","1","1","1","1","1","1","1"
"260018","img/object_images/crutches02.jpg","img/object_images/hammer03.jpg","img/object_images/clock02.jpg","1","1","1","0","1","0","0.854818899999373","0.592425199924037","0.617012799950317","1","1","1","1","1","1","1","1","1"
"260018","img/object_images/clock02.jpg","img/object_images/crutches02.jpg","img/object_images/book03.jpg","1","1","1","0","0","1","0.617012799950317","0.854818899999373","0.60879249998834","1","1","1","1","1","1","1","1","1"
"260018","img/object_images/book03.jpg","img/object_images/clock02.jpg","img/object_images/Staples01.jpg","1","1","1","1","0","1","0.60879249998834","0.617012799950317","0.609287600032985","1","1","1","1","1","1","1","1","1"
"260018","img/object_images/Staples01.jpg","img/object_images/book03.jpg","img/object_images/clip03.jpg","1","1","1","1","1","0","0.609287600032985","0.60879249998834","0.752690699999221","1","1","1","1","1","1","1","1","1"
"260018","img/object_images/clip03.jpg","img/object_images/Staples01.jpg","img/object_images/Oven01.jpg","1","1","1","0","1","1","0.752690699999221","0.609287600032985","0.48334719997365","1","1","1","1","1","1","1","1","1"
"260018","img/object_images/Oven01.jpg","img/object_images/clip03.jpg",NA,"1","1",NA,"1","0",NA,"0.48334719997365","0.752690699999221",NA,"1","1",NA,"1","1",NA,"1","1",NA
"260018","img/object_images/car01.jpg",NA,"img/object_images/bottle07.jpg","1",NA,"1","1",NA,"1","0.507457199972123",NA,"0.458571899915114","1",NA,"1","1",NA,"1","1",NA,"1"
"260018","img/object_images/bottle07.jpg","img/object_images/car01.jpg","img/object_images/flashlight03.jpg","1","1","1","1","1","0","0.458571899915114","0.507457199972123","0.609576800023206","1","1","1","1","1","1","1","1","1"
"260018","img/object_images/flashlight03.jpg","img/object_images/bottle07.jpg","img/object_images/gloves02.jpg","1","1","0","0","1","0","0.609576800023206","0.458571899915114","0.47592540003825","1","1","1","1","1","1","1","1","1"
"260018","img/object_images/gloves02.jpg","img/object_images/flashlight03.jpg","img/object_images/jacket04.jpg","0","1","1","0","0","0","0.47592540003825","0.609576800023206","0.524595299968496","1","1","1","1","1","1","1","1","1"
"260018","img/object_images/jacket04.jpg","img/object_images/gloves02.jpg","img/object_images/knit03.jpg","1","0","1","0","0","1","0.524595299968496","0.47592540003825","0.512973199947737","1","1","1","1","1","1","1","1","1"
"260018","img/object_images/knit03.jpg","img/object_images/jacket04.jpg","img/object_images/video_game01.jpg","1","1","1","1","0","1","0.512973199947737","0.524595299968496","0.455398099962622","1","1","1","1","1","1","1","1","1"
"260018","img/object_images/video_game01.jpg","img/object_images/knit03.jpg","img/object_images/backpack01.jpg","1","1","1","1","1","0","0.455398099962622","0.512973199947737","0.473737000022084","1","1","1","1","1","1","1","1","1"
"260018","img/object_images/backpack01.jpg","img/object_images/video_game01.jpg","img/object_images/remote_controller01.jpg","1","1","1","0","1","1","0.473737000022084","0.455398099962622","0.628366000019014","1","1","1","1","1","1","1","1","1"
"260018","img/object_images/remote_controller01.jpg","img/object_images/backpack01.jpg","img/object_images/boat04.jpg","1","1","1","1","0","0","0.628366000019014","0.473737000022084","0.583666899939999","1","1","1","1","1","1","1","1","1"
"260018","img/object_images/boat04.jpg","img/object_images/remote_controller01.jpg","img/object_images/knife02.jpg","1","1","1","0","1","0","0.583666899939999","0.628366000019014","0.447179800015874","1","1","1","1","1","1","1","1","1"
"260018","img/object_images/knife02.jpg","img/object_images/boat04.jpg","img/object_images/phone02.jpg","1","1","1","0","0","1","0.447179800015874","0.583666899939999","0.363674000022002","1","1","1","1","1","1","1","1","1"
"260018","img/object_images/phone02.jpg","img/object_images/knife02.jpg","img/object_images/shower_head01.jpg","1","1","1","1","0","1","0.363674000022002","0.447179800015874","0.513924399972893","1","1","1","1","1","1","1","1","1"
"260018","img/object_images/shower_head01.jpg","img/object_images/phone02.jpg","img/object_images/camera03.jpg","1","1","1","1","1","0","0.513924399972893","0.363674000022002","0.782860600040294","1","1","1","1","1","1","1","1","1"
"260018","img/object_images/camera03.jpg","img/object_images/shower_head01.jpg","img/object_images/keyboard02.jpg","1","1","1","0","1","1","0.782860600040294","0.513924399972893","0.763245200039819","1","1","1","1","1","1","1","1","1"
"260018","img/object_images/keyboard02.jpg","img/object_images/camera03.jpg","img/object_images/curtain02.jpg","1","1","1","1","0","0","0.763245200039819","0.782860600040294","0.588342200033367","1","1","1","1","1","1","1","1","1"
"260018","img/object_images/curtain02.jpg","img/object_images/keyboard02.jpg","img/object_images/basket04.jpg","1","1","1","0","1","1","0.588342200033367","0.763245200039819","0.607979000080377","1","1","1","1","1","1","1","1","1"
"260018","img/object_images/basket04.jpg","img/object_images/curtain02.jpg","img/object_images/sponge03.jpg","1","1","1","1","0","1","0.607979000080377","0.588342200033367","0.633866999996826","1","1","1","1","1","1","1","1","1"
"260018","img/object_images/sponge03.jpg","img/object_images/basket04.jpg","img/object_images/dresser03.jpg","1","1","1","1","1","0","0.633866999996826","0.607979000080377","0.541754800011404","1","1","1","1","1","1","1","1","1"
"260018","img/object_images/dresser03.jpg","img/object_images/sponge03.jpg","img/object_images/paper_cup02.jpg","1","1","1","0","1","1","0.541754800011404","0.633866999996826","0.481017000041902","1","1","1","1","1","1","1","1","1"
"260018","img/object_images/paper_cup02.jpg","img/object_images/dresser03.jpg","img/object_images/kite01.jpg","1","1","1","1","0","1","0.481017000041902","0.541754800011404","0.621303899912164","1","1","1","1","1","1","1","1","1"
"260018","img/object_images/kite01.jpg","img/object_images/paper_cup02.jpg","img/object_images/knit04.jpg","1","1","1","1","1","1","0.621303899912164","0.481017000041902","0.561849200050347","1","1","1","1","1","1","1","1","1"
"260018","img/object_images/knit04.jpg","img/object_images/kite01.jpg","img/object_images/toy08.jpg","1","1","1","1","1","0","0.561849200050347","0.621303899912164","0.990089499973692","1","1","1","1","1","1","1","1","1"
"260018","img/object_images/toy08.jpg","img/object_images/knit04.jpg","img/object_images/Statue01.jpg","1","1","1","0","1","1","0.990089499973692","0.561849200050347","0.78016830002889","1","1","1","1","1","1","1","1","1"
"260018","img/object_images/Statue01.jpg","img/object_images/toy08.jpg","img/object_images/mail_box01.jpg","1","1","1","1","0","0","0.78016830002889","0.990089499973692","0.553214999963529","1","1","1","1","1","1","1","1","1"
"260018","img/object_images/mail_box01.jpg","img/object_images/Statue01.jpg","img/object_images/matches02.jpg","1","1","1","0","1","0","0.553214999963529","0.78016830002889","0.772132299956866","1","1","1","1","1","1","1","1","1"
"260018","img/object_images/matches02.jpg","img/object_images/mail_box01.jpg","img/object_images/blender02.jpg","1","1","1","0","0","1","0.772132299956866","0.553214999963529","0.380276900017634","1","1","1","1","1","1","1","1","1"
"260018","img/object_images/blender02.jpg","img/object_images/matches02.jpg","img/object_images/hoverboard01.jpg","1","1","1","1","0","0","0.380276900017634","0.772132299956866","0.572220699978061","1","1","1","1","1","1","1","1","1"
"260018","img/object_images/hoverboard01.jpg","img/object_images/blender02.jpg","img/object_images/remover01.jpg","1","1","1","0","1","1","0.572220699978061","0.380276900017634","0.722781900083646","1","1","1","1","1","1","1","1","1"
"260018","img/object_images/remover01.jpg","img/object_images/hoverboard01.jpg","img/object_images/stereo02.jpg","1","1","1","1","0","0","0.722781900083646","0.572220699978061","0.882702399976552","1","1","1","1","1","1","1","1","1"
"260018","img/object_images/stereo02.jpg","img/object_images/remover01.jpg","img/object_images/hand_grip_exerciser01.jpg","1","1","1","0","1","0","0.882702399976552","0.722781900083646","0.701360199949704","1","1","1","1","1","1","1","1","1"
"260018","img/object_images/hand_grip_exerciser01.jpg","img/object_images/stereo02.jpg","img/object_images/tool18.jpg","1","1","1","0","0","0","0.701360199949704","0.882702399976552","0.556880100048147","1","1","1","1","1","1","1","1","1"
"260018","img/object_images/tool18.jpg","img/object_images/hand_grip_exerciser01.jpg",NA,"1","1",NA,"0","0",NA,"0.556880100048147","0.701360199949704",NA,"1","1",NA,"1","1",NA,"1","1",NA
