"participant_id","current_trial_object","pre_trial_object","post_trial_object","current_trial_accuracy","pre_trial_accuracy","post_trial_accuracy","current_trial_congruency","pre_trial_congruency","post_trial_congruency","current_trial_rt","pre_trial_rt","post_trial_rt","current_trial_responded","pre_trial_responded","post_trial_responded","current_trial_legitResponse","pre_trial_legitResponse","post_trial_legitResponse","current_trial_resp_nums","pre_trial_resp_nums","post_trial_resp_nums"
"260032","img/object_images/pan03.jpg",NA,"img/object_images/bag04.jpg","1",NA,"1","1",NA,"0","0.455318800057284",NA,"0.599758800002746","1",NA,"1","1",NA,"1","1",NA,"1"
"260032","img/object_images/bag04.jpg","img/object_images/pan03.jpg","img/object_images/duster01.jpg","1","1","1","0","1","0","0.599758800002746","0.455318800057284","0.357193099916913","1","1","1","1","1","1","1","1","1"
"260032","img/object_images/duster01.jpg","img/object_images/bag04.jpg","img/object_images/knife01.jpg","1","1","1","0","0","1","0.357193099916913","0.599758800002746","0.507936799898744","1","1","1","1","1","1","1","1","1"
"260032","img/object_images/knife01.jpg","img/object_images/duster01.jpg","img/object_images/sign02.jpg","1","1","1","1","0","0","0.507936799898744","0.357193099916913","0.342228700057603","1","1","1","1","1","1","1","1","1"
"260032","img/object_images/sign02.jpg","img/object_images/knife01.jpg","img/object_images/razor02.jpg","1","1","1","0","1","1","0.342228700057603","0.507936799898744","0.540076999925077","1","1","1","1","1","1","1","1","1"
"260032","img/object_images/razor02.jpg","img/object_images/sign02.jpg","img/object_images/hat09.jpg","1","1","1","1","0","0","0.540076999925077","0.342228700057603","0.549207899952307","1","1","1","1","1","1","1","1","1"
"260032","img/object_images/hat09.jpg","img/object_images/razor02.jpg","img/object_images/candle02.jpg","1","1","1","0","1","0","0.549207899952307","0.540076999925077","0.544750000000931","1","1","1","1","1","1","1","1","1"
"260032","img/object_images/candle02.jpg","img/object_images/hat09.jpg","img/object_images/hammer02.jpg","1","1","0","0","0","0","0.544750000000931","0.549207899952307","0.309000300010666","1","1","1","1","1","1","1","1","1"
"260032","img/object_images/hammer02.jpg","img/object_images/candle02.jpg","img/object_images/Confetti 01.jpg","0","1","1","0","0","0","0.309000300010666","0.544750000000931","0.592010300024413","1","1","1","1","1","1","1","1","1"
"260032","img/object_images/Confetti 01.jpg","img/object_images/hammer02.jpg","img/object_images/video_game02.jpg","1","0","1","0","0","1","0.592010300024413","0.309000300010666","0.456948600010946","1","1","1","1","1","1","1","1","1"
"260032","img/object_images/video_game02.jpg","img/object_images/Confetti 01.jpg","img/object_images/sink_filter01 (1).jpg","1","1","0","1","0","0","0.456948600010946","0.592010300024413","0.55803419998847","1","1","1","1","1","1","1","1","1"
"260032","img/object_images/sink_filter01 (1).jpg","img/object_images/video_game02.jpg","img/object_images/tool20.jpg","0","1","1","0","1","0","0.55803419998847","0.456948600010946","0.573851400054991","1","1","1","1","1","1","1","1","1"
"260032","img/object_images/tool20.jpg","img/object_images/sink_filter01 (1).jpg","img/object_images/glasses03.jpg","1","0","0","0","0","0","0.573851400054991","0.55803419998847","0.518257300020196","1","1","1","1","1","1","1","1","1"
"260032","img/object_images/glasses03.jpg","img/object_images/tool20.jpg","img/object_images/tool13.jpg","0","1","1","0","0","1","0.518257300020196","0.573851400054991","0.732924800016917","1","1","1","1","1","1","1","1","1"
"260032","img/object_images/tool13.jpg","img/object_images/glasses03.jpg","img/object_images/vase02.jpg","1","0","1","1","0","1","0.732924800016917","0.518257300020196","0.485952500021085","1","1","1","1","1","1","1","1","1"
"260032","img/object_images/vase02.jpg","img/object_images/tool13.jpg","img/object_images/bow_tie03.jpg","1","1","1","1","1","1","0.485952500021085","0.732924800016917","0.575451800017618","1","1","1","1","1","1","1","1","1"
"260032","img/object_images/bow_tie03.jpg","img/object_images/vase02.jpg","img/object_images/dust_pan01.jpg","1","1","1","1","1","1","0.575451800017618","0.485952500021085","0.530134000000544","1","1","1","1","1","1","1","1","1"
"260032","img/object_images/dust_pan01.jpg","img/object_images/bow_tie03.jpg","img/object_images/hat13.jpg","1","1","1","1","1","1","0.530134000000544","0.575451800017618","0.553266300004907","1","1","1","1","1","1","1","1","1"
"260032","img/object_images/hat13.jpg","img/object_images/dust_pan01.jpg","img/object_images/socks01.jpg","1","1","1","1","1","1","0.553266300004907","0.530134000000544","0.41369970003143","1","1","1","1","1","1","1","1","1"
"260032","img/object_images/socks01.jpg","img/object_images/hat13.jpg","img/object_images/lemon_squeezer01.jpg","1","1","1","1","1","1","0.41369970003143","0.553266300004907","0.616288300021552","1","1","1","1","1","1","1","1","1"
"260032","img/object_images/lemon_squeezer01.jpg","img/object_images/socks01.jpg","img/object_images/floss01.jpg","1","1","1","1","1","1","0.616288300021552","0.41369970003143","0.460371199995279","1","1","1","1","1","1","1","1","1"
"260032","img/object_images/floss01.jpg","img/object_images/lemon_squeezer01.jpg","img/object_images/ruler02.jpg","1","1","1","1","1","1","0.460371199995279","0.616288300021552","0.57331060001161","1","1","1","1","1","1","1","1","1"
"260032","img/object_images/ruler02.jpg","img/object_images/floss01.jpg","img/object_images/spray_can01.jpg","1","1","1","1","1","0","0.57331060001161","0.460371199995279","0.641356099979021","1","1","1","1","1","1","1","1","1"
"260032","img/object_images/spray_can01.jpg","img/object_images/ruler02.jpg","img/object_images/perfume01.jpg","1","1","1","0","1","0","0.641356099979021","0.57331060001161","0.632278300006874","1","1","1","1","1","1","1","1","1"
"260032","img/object_images/perfume01.jpg","img/object_images/spray_can01.jpg","img/object_images/pen06.jpg","1","1","1","0","0","0","0.632278300006874","0.641356099979021","0.528104600030929","1","1","1","1","1","1","1","1","1"
"260032","img/object_images/pen06.jpg","img/object_images/perfume01.jpg","img/object_images/clipboard01.jpg","1","1","1","0","0","1","0.528104600030929","0.632278300006874","0.389392099925317","1","1","1","1","1","1","1","1","1"
"260032","img/object_images/clipboard01.jpg","img/object_images/pen06.jpg","img/object_images/Candle_Holder01.jpg","1","1","1","1","0","0","0.389392099925317","0.528104600030929","0.530240299995057","1","1","1","1","1","1","1","1","1"
"260032","img/object_images/Candle_Holder01.jpg","img/object_images/clipboard01.jpg","img/object_images/cup01.jpg","1","1","1","0","1","0","0.530240299995057","0.389392099925317","0.580611000070348","1","1","1","1","1","1","1","1","1"
"260032","img/object_images/cup01.jpg","img/object_images/Candle_Holder01.jpg","img/object_images/office_supplies01.jpg","1","1","1","0","0","1","0.580611000070348","0.530240299995057","0.478148399968632","1","1","1","1","1","1","1","1","1"
"260032","img/object_images/office_supplies01.jpg","img/object_images/cup01.jpg","img/object_images/camera05.jpg","1","1","0","1","0","0","0.478148399968632","0.580611000070348","0.365713200066239","1","1","1","1","1","1","1","1","1"
"260032","img/object_images/camera05.jpg","img/object_images/office_supplies01.jpg","img/object_images/board01.jpg","0","1","1","0","1","1","0.365713200066239","0.478148399968632","0.454675600049086","1","1","1","1","1","1","1","1","1"
"260032","img/object_images/board01.jpg","img/object_images/camera05.jpg",NA,"1","0",NA,"1","0",NA,"0.454675600049086","0.365713200066239",NA,"1","1",NA,"1","1",NA,"1","1",NA
"260032","img/object_images/slinky_toy01.jpg",NA,"img/object_images/jewel01.jpg","1",NA,"1","1",NA,"0","0.558066400000826",NA,"0.636103000026196","1",NA,"1","1",NA,"1","1",NA,"1"
"260032","img/object_images/jewel01.jpg","img/object_images/slinky_toy01.jpg","img/object_images/lemon_squeezer02.jpg","1","1","1","0","1","1","0.636103000026196","0.558066400000826","0.341509300051257","1","1","1","1","1","1","1","1","1"
"260032","img/object_images/lemon_squeezer02.jpg","img/object_images/jewel01.jpg","img/object_images/MeasuringCup01.jpg","1","1","1","1","0","1","0.341509300051257","0.636103000026196","0.520737700047903","1","1","1","1","1","1","1","1","1"
"260032","img/object_images/MeasuringCup01.jpg","img/object_images/lemon_squeezer02.jpg","img/object_images/rock03.jpg","1","1","1","1","1","0","0.520737700047903","0.341509300051257","0.696784800034948","1","1","1","1","1","1","1","1","1"
"260032","img/object_images/rock03.jpg","img/object_images/MeasuringCup01.jpg","img/object_images/car04.jpg","1","1","1","0","1","0","0.696784800034948","0.520737700047903","0.528416799963452","1","1","1","1","1","1","1","1","1"
"260032","img/object_images/car04.jpg","img/object_images/rock03.jpg","img/object_images/ribbon01.jpg","1","1","1","0","0","0","0.528416799963452","0.696784800034948","0.592939900001511","1","1","1","1","1","1","1","1","1"
"260032","img/object_images/ribbon01.jpg","img/object_images/car04.jpg","img/object_images/hair_brush05.jpg","1","1","1","0","0","1","0.592939900001511","0.528416799963452","0.43989700009115","1","1","1","1","1","1","1","1","1"
"260032","img/object_images/hair_brush05.jpg","img/object_images/ribbon01.jpg","img/object_images/binoculars03.jpg","1","1","1","1","0","1","0.43989700009115","0.592939900001511","0.548702799947932","1","1","1","1","1","1","1","1","1"
"260032","img/object_images/binoculars03.jpg","img/object_images/hair_brush05.jpg","img/object_images/jewelry07.jpg","1","1","1","1","1","1","0.548702799947932","0.43989700009115","0.589995699934661","1","1","1","1","1","1","1","1","1"
"260032","img/object_images/jewelry07.jpg","img/object_images/binoculars03.jpg","img/object_images/satellite01.jpg","1","1","1","1","1","0","0.589995699934661","0.548702799947932","0.42297089996282","1","1","1","1","1","1","1","1","1"
"260032","img/object_images/satellite01.jpg","img/object_images/jewelry07.jpg","img/object_images/shower_head03.jpg","1","1","1","0","1","1","0.42297089996282","0.589995699934661","0.380273999995552","1","1","1","1","1","1","1","1","1"
"260032","img/object_images/shower_head03.jpg","img/object_images/satellite01.jpg","img/object_images/ice_tray03.jpg","1","1","1","1","0","1","0.380273999995552","0.42297089996282","0.581609499990009","1","1","1","1","1","1","1","1","1"
"260032","img/object_images/ice_tray03.jpg","img/object_images/shower_head03.jpg","img/object_images/razor01.jpg","1","1","0","1","1","0","0.581609499990009","0.380273999995552","0.58404869993683","1","1","1","1","1","1","1","1","1"
"260032","img/object_images/razor01.jpg","img/object_images/ice_tray03.jpg","img/object_images/bag06.jpg","0","1","1","0","1","1","0.58404869993683","0.581609499990009","0.509968300000764","1","1","1","1","1","1","1","1","1"
"260032","img/object_images/bag06.jpg","img/object_images/razor01.jpg","img/object_images/cutting_board01.jpg","1","0","1","1","0","1","0.509968300000764","0.58404869993683","0.410062400042079","1","1","1","1","1","1","1","1","1"
"260032","img/object_images/cutting_board01.jpg","img/object_images/bag06.jpg","img/object_images/cards01.jpg","1","1","1","1","1","0","0.410062400042079","0.509968300000764","0.543681600014679","1","1","1","1","1","1","1","1","1"
"260032","img/object_images/cards01.jpg","img/object_images/cutting_board01.jpg","img/object_images/fan05.jpg","1","1","1","0","1","0","0.543681600014679","0.410062400042079","0.417868099990301","1","1","1","1","1","1","1","1","1"
"260032","img/object_images/fan05.jpg","img/object_images/cards01.jpg","img/object_images/tool11.jpg","1","1","1","0","0","1","0.417868099990301","0.543681600014679","0.431817000033334","1","1","1","1","1","1","1","1","1"
"260032","img/object_images/tool11.jpg","img/object_images/fan05.jpg","img/object_images/yarn02.jpg","1","1","1","1","0","0","0.431817000033334","0.417868099990301","0.518433399964124","1","1","1","1","1","1","1","1","1"
"260032","img/object_images/yarn02.jpg","img/object_images/tool11.jpg","img/object_images/shoes10.jpg","1","1","1","0","1","0","0.518433399964124","0.431817000033334","0.438452799920924","1","1","1","1","1","1","1","1","1"
"260032","img/object_images/shoes10.jpg","img/object_images/yarn02.jpg","img/object_images/dress03.jpg","1","1","1","0","0","1","0.438452799920924","0.518433399964124","0.464770499966107","1","1","1","1","1","1","1","1","1"
"260032","img/object_images/dress03.jpg","img/object_images/shoes10.jpg","img/object_images/tv01.jpg","1","1","1","1","0","0","0.464770499966107","0.438452799920924","0.501344299991615","1","1","1","1","1","1","1","1","1"
"260032","img/object_images/tv01.jpg","img/object_images/dress03.jpg","img/object_images/car03.jpg","1","1","1","0","1","0","0.501344299991615","0.464770499966107","0.625618199934252","1","1","1","1","1","1","1","1","1"
"260032","img/object_images/car03.jpg","img/object_images/tv01.jpg","img/object_images/mask01.jpg","1","1","1","0","0","0","0.625618199934252","0.501344299991615","0.594398000044748","1","1","1","1","1","1","1","1","1"
"260032","img/object_images/mask01.jpg","img/object_images/car03.jpg","img/object_images/WitchHat02.jpg","1","1","1","0","0","1","0.594398000044748","0.625618199934252","0.536331700044684","1","1","1","1","1","1","1","1","1"
"260032","img/object_images/WitchHat02.jpg","img/object_images/mask01.jpg","img/object_images/key02.jpg","1","1","1","1","0","1","0.536331700044684","0.594398000044748","0.554105199989863","1","1","1","1","1","1","1","1","1"
"260032","img/object_images/key02.jpg","img/object_images/WitchHat02.jpg","img/object_images/chair04.jpg","1","1","1","1","1","1","0.554105199989863","0.536331700044684","0.468158400035463","1","1","1","1","1","1","1","1","1"
"260032","img/object_images/chair04.jpg","img/object_images/key02.jpg","img/object_images/belt01.jpg","1","1","1","1","1","0","0.468158400035463","0.554105199989863","0.531487900065258","1","1","1","1","1","1","1","1","1"
"260032","img/object_images/belt01.jpg","img/object_images/chair04.jpg","img/object_images/screwdriver01.jpg","1","1","1","0","1","0","0.531487900065258","0.468158400035463","0.465592299937271","1","1","1","1","1","1","1","1","1"
"260032","img/object_images/screwdriver01.jpg","img/object_images/belt01.jpg","img/object_images/toaster02.jpg","1","1","1","0","0","1","0.465592299937271","0.531487900065258","0.576599899912253","1","1","1","1","1","1","1","1","1"
"260032","img/object_images/toaster02.jpg","img/object_images/screwdriver01.jpg","img/object_images/ladle02.jpg","1","1","1","1","0","0","0.576599899912253","0.465592299937271","0.440187800093554","1","1","1","1","1","1","1","1","1"
"260032","img/object_images/ladle02.jpg","img/object_images/toaster02.jpg",NA,"1","1",NA,"0","1",NA,"0.440187800093554","0.576599899912253",NA,"1","1",NA,"1","1",NA,"1","1",NA
"260032","img/object_images/toilet_paper_dispenser01.jpg",NA,"img/object_images/flask01.jpg","1",NA,"1","1",NA,"0","0.439318499993533",NA,"0.437801300082356","1",NA,"1","1",NA,"1","1",NA,"1"
"260032","img/object_images/flask01.jpg","img/object_images/toilet_paper_dispenser01.jpg","img/object_images/water_scooter01.jpg","1","1","1","0","1","1","0.437801300082356","0.439318499993533","0.450620400020853","1","1","1","1","1","1","1","1","1"
"260032","img/object_images/water_scooter01.jpg","img/object_images/flask01.jpg","img/object_images/cellphone03.jpg","1","1","0","1","0","0","0.450620400020853","0.437801300082356","0.464588599978015","1","1","1","1","1","1","1","1","1"
"260032","img/object_images/cellphone03.jpg","img/object_images/water_scooter01.jpg","img/object_images/pen05.jpg","0","1","1","0","1","0","0.464588599978015","0.450620400020853","0.676294500008225","1","1","1","1","1","1","1","1","1"
"260032","img/object_images/pen05.jpg","img/object_images/cellphone03.jpg","img/object_images/audio_port01.jpg","1","0","1","0","0","1","0.676294500008225","0.464588599978015","0.473025500075892","1","1","1","1","1","1","1","1","1"
"260032","img/object_images/audio_port01.jpg","img/object_images/pen05.jpg","img/object_images/bean_bag02.jpg","1","1","1","1","0","1","0.473025500075892","0.676294500008225","0.432644800050184","1","1","1","1","1","1","1","1","1"
"260032","img/object_images/bean_bag02.jpg","img/object_images/audio_port01.jpg","img/object_images/hot_air_balloon02.jpg","1","1","1","1","1","0","0.432644800050184","0.473025500075892","0.489884000038728","1","1","1","1","1","1","1","1","1"
"260032","img/object_images/hot_air_balloon02.jpg","img/object_images/bean_bag02.jpg","img/object_images/tool19.jpg","1","1","1","0","1","1","0.489884000038728","0.432644800050184","0.471242600004189","1","1","1","1","1","1","1","1","1"
"260032","img/object_images/tool19.jpg","img/object_images/hot_air_balloon02.jpg","img/object_images/helmet04.jpg","1","1","1","1","0","1","0.471242600004189","0.489884000038728","0.490180999971926","1","1","1","1","1","1","1","1","1"
"260032","img/object_images/helmet04.jpg","img/object_images/tool19.jpg","img/object_images/bicycle01.jpg","1","1","1","1","1","1","0.490180999971926","0.471242600004189","0.431632700026967","1","1","1","1","1","1","1","1","1"
"260032","img/object_images/bicycle01.jpg","img/object_images/helmet04.jpg","img/object_images/toaster01.jpg","1","1","1","1","1","1","0.431632700026967","0.490180999971926","0.381638999911956","1","1","1","1","1","1","1","1","1"
"260032","img/object_images/toaster01.jpg","img/object_images/bicycle01.jpg","img/object_images/shoes07.jpg","1","1","1","1","1","0","0.381638999911956","0.431632700026967","0.462394100031815","1","1","1","1","1","1","1","1","1"
"260032","img/object_images/shoes07.jpg","img/object_images/toaster01.jpg","img/object_images/coloring_pencil02.jpg","1","1","1","0","1","0","0.462394100031815","0.381638999911956","0.582260300056078","1","1","1","1","1","1","1","1","1"
"260032","img/object_images/coloring_pencil02.jpg","img/object_images/shoes07.jpg","img/object_images/fan02.jpg","1","1","1","0","0","0","0.582260300056078","0.462394100031815","0.454859299934469","1","1","1","1","1","1","1","1","1"
"260032","img/object_images/fan02.jpg","img/object_images/coloring_pencil02.jpg","img/object_images/chair03.jpg","1","1","1","0","0","0","0.454859299934469","0.582260300056078","0.429615200031549","1","1","1","1","1","1","1","1","1"
"260032","img/object_images/chair03.jpg","img/object_images/fan02.jpg","img/object_images/camera_lens01.jpg","1","1","1","0","0","1","0.429615200031549","0.454859299934469","0.419172800029628","1","1","1","1","1","1","1","1","1"
"260032","img/object_images/camera_lens01.jpg","img/object_images/chair03.jpg","img/object_images/boat_toy10.jpg","1","1","1","1","0","0","0.419172800029628","0.429615200031549","0.531404200010002","1","1","1","1","1","1","1","1","1"
"260032","img/object_images/boat_toy10.jpg","img/object_images/camera_lens01.jpg","img/object_images/scoreboard01.jpg","1","1","1","0","1","1","0.531404200010002","0.419172800029628","0.585055099916644","1","1","1","1","1","1","1","1","1"
"260032","img/object_images/scoreboard01.jpg","img/object_images/boat_toy10.jpg","img/object_images/WoodBox01.jpg","1","1","1","1","0","0","0.585055099916644","0.531404200010002","0.491381699917838","1","1","1","1","1","1","1","1","1"
"260032","img/object_images/WoodBox01.jpg","img/object_images/scoreboard01.jpg","img/object_images/tie02.jpg","1","1","1","0","1","0","0.491381699917838","0.585055099916644","0.42047129990533","1","1","1","1","1","1","1","1","1"
"260032","img/object_images/tie02.jpg","img/object_images/WoodBox01.jpg","img/object_images/bottle10.jpg","1","1","0","0","0","1","0.42047129990533","0.491381699917838","0.455622200039215","1","1","1","1","1","1","1","1","1"
"260032","img/object_images/bottle10.jpg","img/object_images/tie02.jpg","img/object_images/bottle09.jpg","0","1","1","1","0","0","0.455622200039215","0.42047129990533","0.490827200002968","1","1","1","1","1","1","1","1","1"
"260032","img/object_images/bottle09.jpg","img/object_images/bottle10.jpg","img/object_images/boat02.jpg","1","0","1","0","1","1","0.490827200002968","0.455622200039215","0.456472999998368","1","1","1","1","1","1","1","1","1"
"260032","img/object_images/boat02.jpg","img/object_images/bottle09.jpg","img/object_images/bottle02.jpg","1","1","1","1","0","1","0.456472999998368","0.490827200002968","0.500077600008808","1","1","1","1","1","1","1","1","1"
"260032","img/object_images/bottle02.jpg","img/object_images/boat02.jpg","img/object_images/dog_leash01.jpg","1","1","1","1","1","0","0.500077600008808","0.456472999998368","0.477185899973847","1","1","1","1","1","1","1","1","1"
"260032","img/object_images/dog_leash01.jpg","img/object_images/bottle02.jpg","img/object_images/hat06.jpg","1","1","0","0","1","0","0.477185899973847","0.500077600008808","0.518686999916099","1","1","1","1","1","1","1","1","1"
"260032","img/object_images/hat06.jpg","img/object_images/dog_leash01.jpg","img/object_images/wagon_cart03.jpg","0","1","1","0","0","1","0.518686999916099","0.477185899973847","0.412144100060686","1","1","1","1","1","1","1","1","1"
"260032","img/object_images/wagon_cart03.jpg","img/object_images/hat06.jpg","img/object_images/perfume02.jpg","1","0","1","1","0","0","0.412144100060686","0.518686999916099","0.516753900097683","1","1","1","1","1","1","1","1","1"
"260032","img/object_images/perfume02.jpg","img/object_images/wagon_cart03.jpg","img/object_images/purse04.jpg","1","1","1","0","1","1","0.516753900097683","0.412144100060686","0.483150399988517","1","1","1","1","1","1","1","1","1"
"260032","img/object_images/purse04.jpg","img/object_images/perfume02.jpg","img/object_images/knit01.jpg","1","1","0","1","0","0","0.483150399988517","0.516753900097683","0.712575999903493","1","1","1","1","1","1","1","1","1"
"260032","img/object_images/knit01.jpg","img/object_images/purse04.jpg","img/object_images/piggy_bank01.jpg","0","1","1","0","1","1","0.712575999903493","0.483150399988517","0.459498000098392","1","1","1","1","1","1","1","1","1"
"260032","img/object_images/piggy_bank01.jpg","img/object_images/knit01.jpg",NA,"1","0",NA,"1","0",NA,"0.459498000098392","0.712575999903493",NA,"1","1",NA,"1","1",NA,"1","1",NA
"260032","img/object_images/tool06.jpg",NA,"img/object_images/couch01.jpg","1",NA,"1","0",NA,"0","0.6594229999464",NA,"0.536018499988131","1",NA,"1","1",NA,"1","1",NA,"1"
"260032","img/object_images/couch01.jpg","img/object_images/tool06.jpg","img/object_images/computer_mouse01.jpg","1","1","1","0","0","1","0.536018499988131","0.6594229999464","0.399596699979156","1","1","1","1","1","1","1","1","1"
"260032","img/object_images/computer_mouse01.jpg","img/object_images/couch01.jpg","img/object_images/chair06.jpg","1","1","1","1","0","0","0.399596699979156","0.536018499988131","0.51255880005192","1","1","1","1","1","1","1","1","1"
"260032","img/object_images/chair06.jpg","img/object_images/computer_mouse01.jpg","img/object_images/toothbrush01.jpg","1","1","1","0","1","0","0.51255880005192","0.399596699979156","0.667102199979126","1","1","1","1","1","1","1","1","1"
"260032","img/object_images/toothbrush01.jpg","img/object_images/chair06.jpg","img/object_images/rock02.jpg","1","1","1","0","0","0","0.667102199979126","0.51255880005192","0.793632399989292","1","1","1","1","1","1","1","1","1"
"260032","img/object_images/rock02.jpg","img/object_images/toothbrush01.jpg","img/object_images/hair_brush01.jpg","1","1","1","0","0","1","0.793632399989292","0.667102199979126","0.503672700026073","1","1","1","1","1","1","1","1","1"
"260032","img/object_images/hair_brush01.jpg","img/object_images/rock02.jpg","img/object_images/Trowel01.jpg","1","1","1","1","0","0","0.503672700026073","0.793632399989292","0.706004500039853","1","1","1","1","1","1","1","1","1"
"260032","img/object_images/Trowel01.jpg","img/object_images/hair_brush01.jpg","img/object_images/soap03.jpg","1","1","1","0","1","0","0.706004500039853","0.503672700026073","0.505083699943498","1","1","1","1","1","1","1","1","1"
"260032","img/object_images/soap03.jpg","img/object_images/Trowel01.jpg","img/object_images/bell03.jpg","1","1","1","0","0","0","0.505083699943498","0.706004500039853","0.323801800026558","1","1","1","1","1","1","1","1","1"
"260032","img/object_images/bell03.jpg","img/object_images/soap03.jpg","img/object_images/Violin01.jpg","1","1","1","0","0","0","0.323801800026558","0.505083699943498","0.29950349999126","1","1","1","1","1","1","1","1","1"
"260032","img/object_images/Violin01.jpg","img/object_images/bell03.jpg","img/object_images/toy01.jpg","1","1","1","0","0","1","0.29950349999126","0.323801800026558","0.382237699930556","1","1","1","1","1","1","1","1","1"
"260032","img/object_images/toy01.jpg","img/object_images/Violin01.jpg","img/object_images/blender01.jpg","1","1","1","1","0","0","0.382237699930556","0.29950349999126","0.452251499984413","1","1","1","1","1","1","1","1","1"
"260032","img/object_images/blender01.jpg","img/object_images/toy01.jpg","img/object_images/skate_board01.jpg","1","1","1","0","1","0","0.452251499984413","0.382237699930556","0.477602500002831","1","1","1","1","1","1","1","1","1"
"260032","img/object_images/skate_board01.jpg","img/object_images/blender01.jpg","img/object_images/drone01.jpg","1","1","1","0","0","1","0.477602500002831","0.452251499984413","0.405942699988373","1","1","1","1","1","1","1","1","1"
"260032","img/object_images/drone01.jpg","img/object_images/skate_board01.jpg","img/object_images/clip04.jpg","1","1","1","1","0","1","0.405942699988373","0.477602500002831","0.312496199971065","1","1","1","1","1","1","1","1","1"
"260032","img/object_images/clip04.jpg","img/object_images/drone01.jpg","img/object_images/computer_mouse02.jpg","1","1","1","1","1","0","0.312496199971065","0.405942699988373","0.310656399931759","1","1","1","1","1","1","1","1","1"
"260032","img/object_images/computer_mouse02.jpg","img/object_images/clip04.jpg","img/object_images/bag_pipes01.jpg","1","1","1","0","1","1","0.310656399931759","0.312496199971065","0.972495199996047","1","1","1","1","1","1","1","1","1"
"260032","img/object_images/bag_pipes01.jpg","img/object_images/computer_mouse02.jpg","img/object_images/box03.jpg","1","1","0","1","0","0","0.972495199996047","0.310656399931759","0.486961100017652","1","1","1","1","1","1","1","1","2"
"260032","img/object_images/box03.jpg","img/object_images/bag_pipes01.jpg","img/object_images/book02.jpg","0","1","1","0","1","1","0.486961100017652","0.972495199996047","0.503027700004168","1","1","1","1","1","1","2","1","1"
"260032","img/object_images/book02.jpg","img/object_images/box03.jpg","img/object_images/airfryer02.jpg","1","0","0","1","0","1","0.503027700004168","0.486961100017652","0.448638800065964","1","1","1","1","1","1","1","2","1"
"260032","img/object_images/airfryer02.jpg","img/object_images/book02.jpg","img/object_images/fork02.jpg","0","1","1","1","1","0","0.448638800065964","0.503027700004168","0.609207300003618","1","1","1","1","1","1","1","1","1"
"260032","img/object_images/fork02.jpg","img/object_images/airfryer02.jpg","img/object_images/mail_box02.jpg","1","0","1","0","1","1","0.609207300003618","0.448638800065964","0.632016599993221","1","1","1","1","1","1","1","1","1"
"260032","img/object_images/mail_box02.jpg","img/object_images/fork02.jpg","img/object_images/floss02.jpg","1","1","1","1","0","1","0.632016599993221","0.609207300003618","0.406070800032467","1","1","1","1","1","1","1","1","1"
"260032","img/object_images/floss02.jpg","img/object_images/mail_box02.jpg","img/object_images/scarf01.jpg","1","1","1","1","1","1","0.406070800032467","0.632016599993221","0.366733399918303","1","1","1","1","1","1","1","1","1"
"260032","img/object_images/scarf01.jpg","img/object_images/floss02.jpg","img/object_images/chain01.jpg","1","1","0","1","1","0","0.366733399918303","0.406070800032467","0.35141600004863","1","1","1","1","1","1","1","1","1"
"260032","img/object_images/chain01.jpg","img/object_images/scarf01.jpg","img/object_images/pitcher09.jpg","0","1","1","0","1","1","0.35141600004863","0.366733399918303","0.497462300001644","1","1","1","1","1","1","1","1","1"
"260032","img/object_images/pitcher09.jpg","img/object_images/chain01.jpg","img/object_images/video_game03.jpg","1","0","1","1","0","1","0.497462300001644","0.35141600004863","0.515480899950489","1","1","1","1","1","1","1","1","1"
"260032","img/object_images/video_game03.jpg","img/object_images/pitcher09.jpg","img/object_images/pen01.jpg","1","1","1","1","1","0","0.515480899950489","0.497462300001644","0.50662400003057","1","1","1","1","1","1","1","1","1"
"260032","img/object_images/pen01.jpg","img/object_images/video_game03.jpg","img/object_images/tripod01.jpg","1","1","1","0","1","1","0.50662400003057","0.515480899950489","0.638790599885397","1","1","1","1","1","1","1","1","1"
"260032","img/object_images/tripod01.jpg","img/object_images/pen01.jpg","img/object_images/shoes12.jpg","1","1","0","1","0","1","0.638790599885397","0.50662400003057","0.52720880007837","1","1","1","1","1","1","1","1","1"
"260032","img/object_images/shoes12.jpg","img/object_images/tripod01.jpg","img/object_images/egg_slicer01.jpg","0","1","1","1","1","1","0.52720880007837","0.638790599885397","0.44206149992533","1","1","1","1","1","1","1","1","1"
"260032","img/object_images/egg_slicer01.jpg","img/object_images/shoes12.jpg",NA,"1","0",NA,"1","1",NA,"0.44206149992533","0.52720880007837",NA,"1","1",NA,"1","1",NA,"1","1",NA
"260032","img/object_images/airfryer01.jpg",NA,"img/object_images/Woopie01.jpg","1",NA,"1","0",NA,"1","2.04726600006688",NA,"0.683104500058107","1",NA,"1","1",NA,"1","1",NA,"1"
"260032","img/object_images/Woopie01.jpg","img/object_images/airfryer01.jpg","img/object_images/pot01.jpg","1","1","1","1","0","0","0.683104500058107","2.04726600006688","0.584509500069544","1","1","1","1","1","1","1","1","1"
"260032","img/object_images/pot01.jpg","img/object_images/Woopie01.jpg","img/object_images/couch04.jpg","1","1","1","0","1","1","0.584509500069544","0.683104500058107","0.389904399984516","1","1","1","1","1","1","1","1","1"
"260032","img/object_images/couch04.jpg","img/object_images/pot01.jpg","img/object_images/guitar01.jpg","1","1","1","1","0","1","0.389904399984516","0.584509500069544","0.388816600083373","1","1","1","1","1","1","1","1","1"
"260032","img/object_images/guitar01.jpg","img/object_images/couch04.jpg","img/object_images/lantern01.jpg","1","1","1","1","1","1","0.388816600083373","0.389904399984516","0.487686999957077","1","1","1","1","1","1","1","1","1"
"260032","img/object_images/lantern01.jpg","img/object_images/guitar01.jpg","img/object_images/chair01.jpg","1","1","0","1","1","0","0.487686999957077","0.388816600083373","0.424928199965507","1","1","1","1","1","1","1","1","1"
"260032","img/object_images/chair01.jpg","img/object_images/lantern01.jpg","img/object_images/container01.jpg","0","1","1","0","1","0","0.424928199965507","0.487686999957077","0.564748699893244","1","1","1","1","1","1","1","1","1"
"260032","img/object_images/container01.jpg","img/object_images/chair01.jpg","img/object_images/ironing_table02.jpg","1","0","1","0","0","0","0.564748699893244","0.424928199965507","0.601349200005643","1","1","1","1","1","1","1","1","1"
"260032","img/object_images/ironing_table02.jpg","img/object_images/container01.jpg","img/object_images/razor03.jpg","1","1","1","0","0","0","0.601349200005643","0.564748699893244","0.58313799998723","1","1","1","1","1","1","1","1","1"
"260032","img/object_images/razor03.jpg","img/object_images/ironing_table02.jpg","img/object_images/hat02.jpg","1","1","1","0","0","0","0.58313799998723","0.601349200005643","0.475034900009632","1","1","1","1","1","1","1","1","1"
"260032","img/object_images/hat02.jpg","img/object_images/razor03.jpg","img/object_images/pitcher03.jpg","1","1","1","0","0","1","0.475034900009632","0.58313799998723","0.512554100016132","1","1","1","1","1","1","1","1","1"
"260032","img/object_images/pitcher03.jpg","img/object_images/hat02.jpg","img/object_images/video_game06.jpg","1","1","1","1","0","0","0.512554100016132","0.475034900009632","0.436568099888973","1","1","1","1","1","1","1","1","1"
"260032","img/object_images/video_game06.jpg","img/object_images/pitcher03.jpg","img/object_images/cochlear_implant01.jpg","1","1","1","0","1","0","0.436568099888973","0.512554100016132","0.375093399896286","1","1","1","1","1","1","1","1","1"
"260032","img/object_images/cochlear_implant01.jpg","img/object_images/video_game06.jpg","img/object_images/basketball_hoop02.jpg","1","1","0","0","0","0","0.375093399896286","0.436568099888973","0.653711199993268","1","1","1","1","1","1","1","1","1"
"260032","img/object_images/basketball_hoop02.jpg","img/object_images/cochlear_implant01.jpg","img/object_images/brief_case02.jpg","0","1","1","0","0","1","0.653711199993268","0.375093399896286","0.465490100090392","1","1","1","1","1","1","1","1","1"
"260032","img/object_images/brief_case02.jpg","img/object_images/basketball_hoop02.jpg","img/object_images/Recycling01.jpg","1","0","1","1","0","1","0.465490100090392","0.653711199993268","0.477518399944529","1","1","1","1","1","1","1","1","1"
"260032","img/object_images/Recycling01.jpg","img/object_images/brief_case02.jpg","img/object_images/soap01.jpg","1","1","1","1","1","0","0.477518399944529","0.465490100090392","0.48631349997595","1","1","1","1","1","1","1","1","1"
"260032","img/object_images/soap01.jpg","img/object_images/Recycling01.jpg","img/object_images/brief_case01.jpg","1","1","1","0","1","0","0.48631349997595","0.477518399944529","0.466094900039025","1","1","1","1","1","1","1","1","1"
"260032","img/object_images/brief_case01.jpg","img/object_images/soap01.jpg","img/object_images/lamp01.jpg","1","1","1","0","0","1","0.466094900039025","0.48631349997595","0.428946800064296","1","1","1","1","1","1","1","1","1"
"260032","img/object_images/lamp01.jpg","img/object_images/brief_case01.jpg","img/object_images/ball01.jpg","1","1","1","1","0","1","0.428946800064296","0.466094900039025","0.445310999988578","1","1","1","1","1","1","1","1","1"
"260032","img/object_images/ball01.jpg","img/object_images/lamp01.jpg","img/object_images/bottle12.jpg","1","1","1","1","1","1","0.445310999988578","0.428946800064296","0.508341000066139","1","1","1","1","1","1","1","1","1"
"260032","img/object_images/bottle12.jpg","img/object_images/ball01.jpg","img/object_images/toy_train02.jpg","1","1","1","1","1","1","0.508341000066139","0.445310999988578","0.440392900025472","1","1","1","1","1","1","1","1","1"
"260032","img/object_images/toy_train02.jpg","img/object_images/bottle12.jpg","img/object_images/gloves05.jpg","1","1","1","1","1","1","0.440392900025472","0.508341000066139","0.472139499965124","1","1","1","1","1","1","1","1","1"
"260032","img/object_images/gloves05.jpg","img/object_images/toy_train02.jpg","img/object_images/helmet05.jpg","1","1","1","1","1","1","0.472139499965124","0.440392900025472","0.402282100054435","1","1","1","1","1","1","1","1","1"
"260032","img/object_images/helmet05.jpg","img/object_images/gloves05.jpg","img/object_images/drone02.jpg","1","1","0","1","1","0","0.402282100054435","0.472139499965124","0.448155499994755","1","1","1","1","1","1","1","1","1"
"260032","img/object_images/drone02.jpg","img/object_images/helmet05.jpg","img/object_images/decorative02.jpg","0","1","1","0","1","0","0.448155499994755","0.402282100054435","0.532437399961054","1","1","1","1","1","1","1","1","1"
"260032","img/object_images/decorative02.jpg","img/object_images/drone02.jpg","img/object_images/toilet_paper01.jpg","1","0","0","0","0","1","0.532437399961054","0.448155499994755","0.734860299970023","1","1","1","1","1","1","1","1","1"
"260032","img/object_images/toilet_paper01.jpg","img/object_images/decorative02.jpg","img/object_images/broom01.jpg","0","1","1","1","0","1","0.734860299970023","0.532437399961054","0.651009999914095","1","1","1","1","1","1","1","1","1"
"260032","img/object_images/broom01.jpg","img/object_images/toilet_paper01.jpg","img/object_images/Wisk01.jpg","1","0","1","1","1","1","0.651009999914095","0.734860299970023","0.422772000078112","1","1","1","1","1","1","1","1","1"
"260032","img/object_images/Wisk01.jpg","img/object_images/broom01.jpg","img/object_images/car02.jpg","1","1","1","1","1","0","0.422772000078112","0.651009999914095","0.535285099991597","1","1","1","1","1","1","1","1","1"
"260032","img/object_images/car02.jpg","img/object_images/Wisk01.jpg","img/object_images/tie01.jpg","1","1","1","0","1","0","0.535285099991597","0.422772000078112","0.379809899954125","1","1","1","1","1","1","1","1","1"
"260032","img/object_images/tie01.jpg","img/object_images/car02.jpg",NA,"1","1",NA,"0","0",NA,"0.379809899954125","0.535285099991597",NA,"1","1",NA,"1","1",NA,"1","1",NA
"260032","img/object_images/boat04.jpg",NA,"img/object_images/keyboard02.jpg","1",NA,"1","0",NA,"1","1.59254549990874",NA,"0.497727300040424","1",NA,"1","1",NA,"1","1",NA,"1"
"260032","img/object_images/keyboard02.jpg","img/object_images/boat04.jpg","img/object_images/paper_cup02.jpg","1","1","1","1","0","1","0.497727300040424","1.59254549990874","0.436936800018884","1","1","1","1","1","1","1","1","1"
"260032","img/object_images/paper_cup02.jpg","img/object_images/keyboard02.jpg","img/object_images/remover01.jpg","1","1","1","1","1","1","0.436936800018884","0.497727300040424","0.502512900042348","1","1","1","1","1","1","1","1","1"
"260032","img/object_images/remover01.jpg","img/object_images/paper_cup02.jpg","img/object_images/dresser03.jpg","1","1","1","1","1","0","0.502512900042348","0.436936800018884","0.479908499983139","1","1","1","1","1","1","1","1","1"
"260032","img/object_images/dresser03.jpg","img/object_images/remover01.jpg","img/object_images/jacket04.jpg","1","1","0","0","1","0","0.479908499983139","0.502512900042348","0.474078899947926","1","1","1","1","1","1","1","1","1"
"260032","img/object_images/jacket04.jpg","img/object_images/dresser03.jpg","img/object_images/hoverboard01.jpg","0","1","1","0","0","0","0.474078899947926","0.479908499983139","0.396762500051409","1","1","1","1","1","1","1","1","1"
"260032","img/object_images/hoverboard01.jpg","img/object_images/jacket04.jpg","img/object_images/knife02.jpg","1","0","1","0","0","0","0.396762500051409","0.474078899947926","0.451716700103134","1","1","1","1","1","1","1","1","1"
"260032","img/object_images/knife02.jpg","img/object_images/hoverboard01.jpg","img/object_images/blender02.jpg","1","1","1","0","0","1","0.451716700103134","0.396762500051409","0.572716799913906","1","1","1","1","1","1","1","1","1"
"260032","img/object_images/blender02.jpg","img/object_images/knife02.jpg","img/object_images/curtain02.jpg","1","1","1","1","0","0","0.572716799913906","0.451716700103134","0.369278399972245","1","1","1","1","1","1","1","1","1"
"260032","img/object_images/curtain02.jpg","img/object_images/blender02.jpg","img/object_images/hand_grip_exerciser01.jpg","1","1","1","0","1","0","0.369278399972245","0.572716799913906","0.406311200000346","1","1","1","1","1","1","1","1","1"
"260032","img/object_images/hand_grip_exerciser01.jpg","img/object_images/curtain02.jpg","img/object_images/remote_controller01.jpg","1","1","1","0","0","1","0.406311200000346","0.369278399972245","0.490668499958701","1","1","1","1","1","1","1","1","1"
"260032","img/object_images/remote_controller01.jpg","img/object_images/hand_grip_exerciser01.jpg","img/object_images/knit04.jpg","1","1","1","1","0","1","0.490668499958701","0.406311200000346","0.374232700094581","1","1","1","1","1","1","1","1","1"
"260032","img/object_images/knit04.jpg","img/object_images/remote_controller01.jpg","img/object_images/knit03.jpg","1","1","1","1","1","1","0.374232700094581","0.490668499958701","0.44211639999412","1","1","1","1","1","1","1","1","1"
"260032","img/object_images/knit03.jpg","img/object_images/knit04.jpg","img/object_images/sponge03.jpg","1","1","1","1","1","1","0.44211639999412","0.374232700094581","0.500499799964018","1","1","1","1","1","1","1","1","1"
"260032","img/object_images/sponge03.jpg","img/object_images/knit03.jpg","img/object_images/shower_head01.jpg","1","1","1","1","1","1","0.500499799964018","0.44211639999412","0.495303499978036","1","1","1","1","1","1","1","1","1"
"260032","img/object_images/shower_head01.jpg","img/object_images/sponge03.jpg","img/object_images/gloves02.jpg","1","1","0","1","1","0","0.495303499978036","0.500499799964018","0.505971999955364","1","1","1","1","1","1","1","1","1"
"260032","img/object_images/gloves02.jpg","img/object_images/shower_head01.jpg","img/object_images/camera03.jpg","0","1","1","0","1","0","0.505971999955364","0.495303499978036","0.580950299976394","1","1","1","1","1","1","1","1","1"
"260032","img/object_images/camera03.jpg","img/object_images/gloves02.jpg","img/object_images/mail_box01.jpg","1","0","1","0","0","0","0.580950299976394","0.505971999955364","0.523470700019971","1","1","1","1","1","1","1","1","1"
"260032","img/object_images/mail_box01.jpg","img/object_images/camera03.jpg","img/object_images/kite01.jpg","1","1","1","0","0","1","0.523470700019971","0.580950299976394","0.629995600087568","1","1","1","1","1","1","1","1","1"
"260032","img/object_images/kite01.jpg","img/object_images/mail_box01.jpg","img/object_images/video_game01.jpg","1","1","1","1","0","1","0.629995600087568","0.523470700019971","0.352208799915388","1","1","1","1","1","1","1","1","1"
"260032","img/object_images/video_game01.jpg","img/object_images/kite01.jpg","img/object_images/tool18.jpg","1","1","0","1","1","0","0.352208799915388","0.629995600087568","0.616829999955371","1","1","1","1","1","1","1","1","1"
"260032","img/object_images/tool18.jpg","img/object_images/video_game01.jpg","img/object_images/stereo02.jpg","0","1","0","0","1","0","0.616829999955371","0.352208799915388","0.569499799981713","1","1","1","1","1","1","1","1","1"
"260032","img/object_images/stereo02.jpg","img/object_images/tool18.jpg","img/object_images/bottle07.jpg","0","0","1","0","0","1","0.569499799981713","0.616829999955371","0.852607300039381","1","1","1","1","1","1","1","1","1"
"260032","img/object_images/bottle07.jpg","img/object_images/stereo02.jpg","img/object_images/backpack01.jpg","1","0","1","1","0","0","0.852607300039381","0.569499799981713","0.40714410005603","1","1","1","1","1","1","1","1","1"
"260032","img/object_images/backpack01.jpg","img/object_images/bottle07.jpg","img/object_images/matches02.jpg","1","1","1","0","1","0","0.40714410005603","0.852607300039381","0.338046699995175","1","1","1","1","1","1","1","1","1"
"260032","img/object_images/matches02.jpg","img/object_images/backpack01.jpg","img/object_images/Statue01.jpg","1","1","1","0","0","1","0.338046699995175","0.40714410005603","0.369650300010107","1","1","1","1","1","1","1","1","1"
"260032","img/object_images/Statue01.jpg","img/object_images/matches02.jpg","img/object_images/toy08.jpg","1","1","1","1","0","0","0.369650300010107","0.338046699995175","0.34606030001305","1","1","1","1","1","1","1","1","1"
"260032","img/object_images/toy08.jpg","img/object_images/Statue01.jpg","img/object_images/basket04.jpg","1","1","1","0","1","1","0.34606030001305","0.369650300010107","0.352861499995925","1","1","1","1","1","1","1","1","1"
"260032","img/object_images/basket04.jpg","img/object_images/toy08.jpg","img/object_images/flashlight03.jpg","1","1","1","1","0","0","0.352861499995925","0.34606030001305","0.339197100023739","1","1","1","1","1","1","1","1","1"
"260032","img/object_images/flashlight03.jpg","img/object_images/basket04.jpg","img/object_images/car01.jpg","1","1","0","0","1","1","0.339197100023739","0.352861499995925","0.441122599993832","1","1","1","1","1","1","1","1","1"
"260032","img/object_images/car01.jpg","img/object_images/flashlight03.jpg","img/object_images/phone02.jpg","0","1","1","1","0","1","0.441122599993832","0.339197100023739","0.601186899933964","1","1","1","1","1","1","1","1","1"
"260032","img/object_images/phone02.jpg","img/object_images/car01.jpg",NA,"1","0",NA,"1","1",NA,"0.601186899933964","0.441122599993832",NA,"1","1",NA,"1","1",NA,"1","1",NA
"260032","img/object_images/frisbee01.jpg",NA,"img/object_images/stapler.jpg","1",NA,"1","1",NA,"1","0.515824600006454",NA,"0.424057899974287","1",NA,"1","1",NA,"1","1",NA,"1"
"260032","img/object_images/stapler.jpg","img/object_images/frisbee01.jpg","img/object_images/toy03.jpg","1","1","1","1","1","1","0.424057899974287","0.515824600006454","0.440445500076748","1","1","1","1","1","1","1","1","1"
"260032","img/object_images/toy03.jpg","img/object_images/stapler.jpg","img/object_images/judge_gavel01.jpg","1","1","1","1","1","1","0.440445500076748","0.424057899974287","0.461514299968258","1","1","1","1","1","1","1","1","1"
"260032","img/object_images/judge_gavel01.jpg","img/object_images/toy03.jpg","img/object_images/towel02.jpg","1","1","1","1","1","1","0.461514299968258","0.440445500076748","0.489733400056139","1","1","1","1","1","1","1","1","1"
"260032","img/object_images/towel02.jpg","img/object_images/judge_gavel01.jpg","img/object_images/toy04.jpg","1","1","1","1","1","0","0.489733400056139","0.461514299968258","0.504288899945095","1","1","1","1","1","1","1","1","1"
"260032","img/object_images/toy04.jpg","img/object_images/towel02.jpg","img/object_images/guitar02.jpg","1","1","1","0","1","0","0.504288899945095","0.489733400056139","0.484301499905996","1","1","1","1","1","1","1","1","1"
"260032","img/object_images/guitar02.jpg","img/object_images/toy04.jpg","img/object_images/outlet01.jpg","1","1","1","0","0","0","0.484301499905996","0.504288899945095","0.440352099947631","1","1","1","1","1","1","1","1","1"
"260032","img/object_images/outlet01.jpg","img/object_images/guitar02.jpg","img/object_images/mirror01.jpg","1","1","1","0","0","1","0.440352099947631","0.484301499905996","0.470943300053477","1","1","1","1","1","1","1","1","1"
"260032","img/object_images/mirror01.jpg","img/object_images/outlet01.jpg","img/object_images/dart01.jpg","1","1","0","1","0","0","0.470943300053477","0.440352099947631","0.390052199945785","1","1","1","1","1","1","1","1","1"
"260032","img/object_images/dart01.jpg","img/object_images/mirror01.jpg","img/object_images/video_game07.jpg","0","1","1","0","1","1","0.390052199945785","0.470943300053477","0.444816100061871","1","1","1","1","1","1","1","1","1"
"260032","img/object_images/video_game07.jpg","img/object_images/dart01.jpg","img/object_images/helmet01.jpg","1","0","1","1","0","0","0.444816100061871","0.390052199945785","0.554406599956565","1","1","1","1","1","1","1","1","1"
"260032","img/object_images/helmet01.jpg","img/object_images/video_game07.jpg","img/object_images/tool09.jpg","1","1","1","0","1","1","0.554406599956565","0.444816100061871","0.340290899970569","1","1","1","1","1","1","1","1","1"
"260032","img/object_images/tool09.jpg","img/object_images/helmet01.jpg","img/object_images/sink01.jpg","1","1","1","1","0","0","0.340290899970569","0.554406599956565","0.648679399979301","1","1","1","1","1","1","1","1","1"
"260032","img/object_images/sink01.jpg","img/object_images/tool09.jpg","img/object_images/Vacuum01.jpg","1","1","1","0","1","0","0.648679399979301","0.340290899970569","0.493046300020069","1","1","1","1","1","1","1","1","1"
"260032","img/object_images/Vacuum01.jpg","img/object_images/sink01.jpg","img/object_images/tool02.jpg","1","1","1","0","0","1","0.493046300020069","0.648679399979301","0.434014500002377","1","1","1","1","1","1","1","1","1"
"260032","img/object_images/tool02.jpg","img/object_images/Vacuum01.jpg","img/object_images/fridge03.jpg","1","1","1","1","0","0","0.434014500002377","0.493046300020069","0.470919000101276","1","1","1","1","1","1","1","1","1"
"260032","img/object_images/fridge03.jpg","img/object_images/tool02.jpg","img/object_images/MetalWire01.jpg","1","1","1","0","1","0","0.470919000101276","0.434014500002377","0.509300100035034","1","1","1","1","1","1","1","1","1"
"260032","img/object_images/MetalWire01.jpg","img/object_images/fridge03.jpg","img/object_images/shovel03.jpg","1","1","1","0","0","1","0.509300100035034","0.470919000101276","0.360018700012006","1","1","1","1","1","1","1","1","1"
"260032","img/object_images/shovel03.jpg","img/object_images/MetalWire01.jpg","img/object_images/watch01.jpg","1","1","1","1","0","0","0.360018700012006","0.509300100035034","0.533887299941853","1","1","1","1","1","1","1","1","1"
"260032","img/object_images/watch01.jpg","img/object_images/shovel03.jpg","img/object_images/bottle05.jpg","1","1","1","0","1","0","0.533887299941853","0.360018700012006","0.425206099986099","1","1","1","1","1","1","1","1","1"
"260032","img/object_images/bottle05.jpg","img/object_images/watch01.jpg","img/object_images/jewel04.jpg","1","1","1","0","0","0","0.425206099986099","0.533887299941853","0.49854860000778","1","1","1","1","1","1","1","1","1"
"260032","img/object_images/jewel04.jpg","img/object_images/bottle05.jpg","img/object_images/Stool01.jpg","1","1","1","0","0","0","0.49854860000778","0.425206099986099","0.364017200074159","1","1","1","1","1","1","1","1","1"
"260032","img/object_images/Stool01.jpg","img/object_images/jewel04.jpg","img/object_images/bow01.jpg","1","1","1","0","0","1","0.364017200074159","0.49854860000778","0.509061999968253","1","1","1","1","1","1","1","1","1"
"260032","img/object_images/bow01.jpg","img/object_images/Stool01.jpg","img/object_images/Ring02.jpg","1","1","1","1","0","0","0.509061999968253","0.364017200074159","0.568800299894065","1","1","1","1","1","1","1","1","1"
"260032","img/object_images/Ring02.jpg","img/object_images/bow01.jpg","img/object_images/Tin01.jpg","1","1","1","0","1","1","0.568800299894065","0.509061999968253","0.457912000012584","1","1","1","1","1","1","1","1","1"
"260032","img/object_images/Tin01.jpg","img/object_images/Ring02.jpg","img/object_images/pot01 (1).jpg","1","1","1","1","0","0","0.457912000012584","0.568800299894065","0.445756500004791","1","1","1","1","1","1","1","1","1"
"260032","img/object_images/pot01 (1).jpg","img/object_images/Tin01.jpg","img/object_images/ornament01.jpg","1","1","1","0","1","1","0.445756500004791","0.457912000012584","0.403763400041498","1","1","1","1","1","1","1","1","1"
"260032","img/object_images/ornament01.jpg","img/object_images/pot01 (1).jpg","img/object_images/gauze01.jpg","1","1","1","1","0","0","0.403763400041498","0.445756500004791","0.649051300017163","1","1","1","1","1","1","1","1","1"
"260032","img/object_images/gauze01.jpg","img/object_images/ornament01.jpg","img/object_images/acoustic_capo01.jpg","1","1","1","0","1","1","0.649051300017163","0.403763400041498","0.584980600047857","1","1","1","1","1","1","1","1","1"
"260032","img/object_images/acoustic_capo01.jpg","img/object_images/gauze01.jpg","img/object_images/crown02.jpg","1","1","1","1","0","1","0.584980600047857","0.649051300017163","0.401754299993627","1","1","1","1","1","1","1","1","1"
"260032","img/object_images/crown02.jpg","img/object_images/acoustic_capo01.jpg","img/object_images/bird_house02.jpg","1","1","1","1","1","1","0.401754299993627","0.584980600047857","0.363561999984086","1","1","1","1","1","1","1","1","1"
"260032","img/object_images/bird_house02.jpg","img/object_images/crown02.jpg",NA,"1","1",NA,"1","1",NA,"0.363561999984086","0.401754299993627",NA,"1","1",NA,"1","1",NA,"1","1",NA
"260032","img/object_images/projector01.jpg",NA,"img/object_images/pan01.jpg","1",NA,"1","0",NA,"1","0.520284799975343",NA,"0.366272600018419","1",NA,"1","1",NA,"1","1",NA,"1"
"260032","img/object_images/pan01.jpg","img/object_images/projector01.jpg","img/object_images/tool07.jpg","1","1","1","1","0","0","0.366272600018419","0.520284799975343","0.694227100000717","1","1","1","1","1","1","1","1","1"
"260032","img/object_images/tool07.jpg","img/object_images/pan01.jpg","img/object_images/tool08.jpg","1","1","1","0","1","0","0.694227100000717","0.366272600018419","0.562512899981812","1","1","1","1","1","1","1","1","1"
"260032","img/object_images/tool08.jpg","img/object_images/tool07.jpg","img/object_images/yo_yo01.jpg","1","1","0","0","0","0","0.562512899981812","0.694227100000717","0.310485200025141","1","1","1","1","1","1","1","1","1"
"260032","img/object_images/yo_yo01.jpg","img/object_images/tool08.jpg","img/object_images/ring03.jpg","0","1","0","0","0","1","0.310485200025141","0.562512899981812","0.536941499914974","1","1","1","1","1","1","1","1","1"
"260032","img/object_images/ring03.jpg","img/object_images/yo_yo01.jpg","img/object_images/Sprayer01.jpg","0","0","1","1","0","0","0.536941499914974","0.310485200025141","0.69383659993764","1","1","1","1","1","1","1","1","1"
"260032","img/object_images/Sprayer01.jpg","img/object_images/ring03.jpg","img/object_images/glasses07.jpg","1","0","1","0","1","1","0.69383659993764","0.536941499914974","0.488040900090709","1","1","1","1","1","1","1","1","1"
"260032","img/object_images/glasses07.jpg","img/object_images/Sprayer01.jpg","img/object_images/fire_extinguisher01.jpg","1","1","1","1","0","0","0.488040900090709","0.69383659993764","0.42546219995711","1","1","1","1","1","1","1","1","1"
"260032","img/object_images/fire_extinguisher01.jpg","img/object_images/glasses07.jpg","img/object_images/lighter01.jpg","1","1","1","0","1","1","0.42546219995711","0.488040900090709","0.57209489995148","1","1","1","1","1","1","1","1","1"
"260032","img/object_images/lighter01.jpg","img/object_images/fire_extinguisher01.jpg","img/object_images/basket02.jpg","1","1","1","1","0","0","0.57209489995148","0.42546219995711","0.500259699998423","1","1","1","1","1","1","1","1","1"
"260032","img/object_images/basket02.jpg","img/object_images/lighter01.jpg","img/object_images/tray01.jpg","1","1","1","0","1","1","0.500259699998423","0.57209489995148","0.411319100065157","1","1","1","1","1","1","1","1","1"
"260032","img/object_images/tray01.jpg","img/object_images/basket02.jpg","img/object_images/cup03.jpg","1","1","1","1","0","1","0.411319100065157","0.500259699998423","0.497296800022013","1","1","1","1","1","1","1","1","1"
"260032","img/object_images/cup03.jpg","img/object_images/tray01.jpg","img/object_images/book01.jpg","1","1","1","1","1","1","0.497296800022013","0.411319100065157","0.328057200065814","1","1","1","1","1","1","1","1","1"
"260032","img/object_images/book01.jpg","img/object_images/cup03.jpg","img/object_images/blanket01.jpg","1","1","0","1","1","1","0.328057200065814","0.497296800022013","0.476612099912018","1","1","1","1","1","1","1","1","1"
"260032","img/object_images/blanket01.jpg","img/object_images/book01.jpg","img/object_images/Kitchen_Towel.jpg","0","1","1","1","1","0","0.476612099912018","0.328057200065814","0.382809499977157","1","1","1","1","1","1","1","1","1"
"260032","img/object_images/Kitchen_Towel.jpg","img/object_images/blanket01.jpg","img/object_images/faucet01.jpg","1","0","1","0","1","0","0.382809499977157","0.476612099912018","0.378669700003229","1","1","1","1","1","1","1","1","1"
"260032","img/object_images/faucet01.jpg","img/object_images/Kitchen_Towel.jpg","img/object_images/speaker01.jpg","1","1","1","0","0","1","0.378669700003229","0.382809499977157","0.649528800044209","1","1","1","1","1","1","1","1","1"
"260032","img/object_images/speaker01.jpg","img/object_images/faucet01.jpg","img/object_images/cellphone02.jpg","1","1","1","1","0","1","0.649528800044209","0.378669700003229","0.391422900022008","1","1","1","1","1","1","1","1","1"
"260032","img/object_images/cellphone02.jpg","img/object_images/speaker01.jpg","img/object_images/hole_puncher01.jpg","1","1","1","1","1","1","0.391422900022008","0.649528800044209","0.57915459992364","1","1","1","1","1","1","1","1","1"
"260032","img/object_images/hole_puncher01.jpg","img/object_images/cellphone02.jpg","img/object_images/glasses06.jpg","1","1","1","1","1","1","0.57915459992364","0.391422900022008","0.515743100084364","1","1","1","1","1","1","1","1","1"
"260032","img/object_images/glasses06.jpg","img/object_images/hole_puncher01.jpg","img/object_images/bicycle_lock01.jpg","1","1","1","1","1","0","0.515743100084364","0.57915459992364","0.540797600056976","1","1","1","1","1","1","1","1","1"
"260032","img/object_images/bicycle_lock01.jpg","img/object_images/glasses06.jpg","img/object_images/colander01.jpg","1","1","1","0","1","0","0.540797600056976","0.515743100084364","0.494943399913609","1","1","1","1","1","1","1","1","1"
"260032","img/object_images/colander01.jpg","img/object_images/bicycle_lock01.jpg","img/object_images/gift_box04.jpg","1","1","1","0","0","0","0.494943399913609","0.540797600056976","0.553425199934281","1","1","1","1","1","1","1","1","1"
"260032","img/object_images/gift_box04.jpg","img/object_images/colander01.jpg","img/object_images/hair_clips01.jpg","1","1","1","0","0","1","0.553425199934281","0.494943399913609","0.483242799993604","1","1","1","1","1","1","1","1","1"
"260032","img/object_images/hair_clips01.jpg","img/object_images/gift_box04.jpg","img/object_images/exfoliater_brush01.jpg","1","1","1","1","0","0","0.483242799993604","0.553425199934281","0.620096300030127","1","1","1","1","1","1","1","1","1"
"260032","img/object_images/exfoliater_brush01.jpg","img/object_images/hair_clips01.jpg","img/object_images/handcuffs01.jpg","1","1","1","0","1","0","0.620096300030127","0.483242799993604","0.567360499990173","1","1","1","1","1","1","1","1","1"
"260032","img/object_images/handcuffs01.jpg","img/object_images/exfoliater_brush01.jpg","img/object_images/Traffic Sign 01.jpg","1","1","1","0","0","0","0.567360499990173","0.620096300030127","0.491911899996921","1","1","1","1","1","1","1","1","1"
"260032","img/object_images/Traffic Sign 01.jpg","img/object_images/handcuffs01.jpg","img/object_images/jewelry09.jpg","1","1","1","0","0","1","0.491911899996921","0.567360499990173","0.505042499979027","1","1","1","1","1","1","1","1","1"
"260032","img/object_images/jewelry09.jpg","img/object_images/Traffic Sign 01.jpg","img/object_images/purse01.jpg","1","1","1","1","0","1","0.505042499979027","0.491911899996921","0.35104599990882","1","1","1","1","1","1","1","1","1"
"260032","img/object_images/purse01.jpg","img/object_images/jewelry09.jpg","img/object_images/TrashCan02.jpg","1","1","1","1","1","1","0.35104599990882","0.505042499979027","0.359235499985516","1","1","1","1","1","1","1","1","1"
"260032","img/object_images/TrashCan02.jpg","img/object_images/purse01.jpg","img/object_images/Pottery01.jpg","1","1","0","1","1","0","0.359235499985516","0.35104599990882","0.464494499959983","1","1","1","1","1","1","1","1","1"
"260032","img/object_images/Pottery01.jpg","img/object_images/TrashCan02.jpg",NA,"0","1",NA,"0","1",NA,"0.464494499959983","0.359235499985516",NA,"1","1",NA,"1","1",NA,"1","1",NA
"260032","img/object_images/gift_box02.jpg",NA,"img/object_images/lawn_mower01.jpg","1",NA,"1","1",NA,"1","0.392178200068884",NA,"0.506983899977058","1",NA,"1","1",NA,"1","1",NA,"1"
"260032","img/object_images/lawn_mower01.jpg","img/object_images/gift_box02.jpg","img/object_images/wallet02.jpg","1","1","1","1","1","1","0.506983899977058","0.392178200068884","0.48296090005897","1","1","1","1","1","1","1","1","1"
"260032","img/object_images/wallet02.jpg","img/object_images/lawn_mower01.jpg","img/object_images/jacket03.jpg","1","1","1","1","1","0","0.48296090005897","0.506983899977058","0.542360799969174","1","1","1","1","1","1","1","1","1"
"260032","img/object_images/jacket03.jpg","img/object_images/wallet02.jpg","img/object_images/coloring_pencil01.jpg","1","1","1","0","1","1","0.542360799969174","0.48296090005897","0.486031100037508","1","1","1","1","1","1","1","1","1"
"260032","img/object_images/coloring_pencil01.jpg","img/object_images/jacket03.jpg","img/object_images/clip02.jpg","1","1","1","1","0","1","0.486031100037508","0.542360799969174","0.454598300042562","1","1","1","1","1","1","1","1","1"
"260032","img/object_images/clip02.jpg","img/object_images/coloring_pencil01.jpg","img/object_images/Screws01.jpg","1","1","1","1","1","1","0.454598300042562","0.486031100037508","0.379695600015111","1","1","1","1","1","1","1","1","1"
"260032","img/object_images/Screws01.jpg","img/object_images/clip02.jpg","img/object_images/golf_ball03.jpg","1","1","1","1","1","1","0.379695600015111","0.454598300042562","0.50345310010016","1","1","1","1","1","1","1","1","1"
"260032","img/object_images/golf_ball03.jpg","img/object_images/Screws01.jpg","img/object_images/paper_cup01.jpg","1","1","1","1","1","0","0.50345310010016","0.379695600015111","0.491191199980676","1","1","1","1","1","1","1","1","1"
"260032","img/object_images/paper_cup01.jpg","img/object_images/golf_ball03.jpg","img/object_images/bow_tie02.jpg","1","1","1","0","1","0","0.491191199980676","0.50345310010016","0.401586099993438","1","1","1","1","1","1","1","1","1"
"260032","img/object_images/bow_tie02.jpg","img/object_images/paper_cup01.jpg","img/object_images/hammer01.jpg","1","1","1","0","0","0","0.401586099993438","0.491191199980676","0.573609200073406","1","1","1","1","1","1","1","1","1"
"260032","img/object_images/hammer01.jpg","img/object_images/bow_tie02.jpg","img/object_images/lock04.jpg","1","1","1","0","0","1","0.573609200073406","0.401586099993438","0.596066099940799","1","1","1","1","1","1","1","1","1"
"260032","img/object_images/lock04.jpg","img/object_images/hammer01.jpg","img/object_images/camera07.jpg","1","1","1","1","0","1","0.596066099940799","0.573609200073406","0.39046780008357","1","1","1","1","1","1","1","1","1"
"260032","img/object_images/camera07.jpg","img/object_images/lock04.jpg","img/object_images/pitcher02.jpg","1","1","1","1","1","1","0.39046780008357","0.596066099940799","0.402910400065593","1","1","1","1","1","1","1","1","1"
"260032","img/object_images/pitcher02.jpg","img/object_images/camera07.jpg","img/object_images/jewelry01.jpg","1","1","1","1","1","1","0.402910400065593","0.39046780008357","0.476507199928164","1","1","1","1","1","1","1","1","1"
"260032","img/object_images/jewelry01.jpg","img/object_images/pitcher02.jpg","img/object_images/funnel01.jpg","1","1","1","1","1","0","0.476507199928164","0.402910400065593","0.618270899984054","1","1","1","1","1","1","1","1","1"
"260032","img/object_images/funnel01.jpg","img/object_images/jewelry01.jpg","img/object_images/couch03.jpg","1","1","1","0","1","0","0.618270899984054","0.476507199928164","0.373159899958409","1","1","1","1","1","1","1","1","1"
"260032","img/object_images/couch03.jpg","img/object_images/funnel01.jpg","img/object_images/measuring_tape02.jpg","1","1","0","0","0","1","0.373159899958409","0.618270899984054","0.501127399969846","1","1","1","1","1","1","1","1","2"
"260032","img/object_images/measuring_tape02.jpg","img/object_images/couch03.jpg","img/object_images/gift_box01.jpg","0","1","1","1","0","1","0.501127399969846","0.373159899958409","0.388962799916044","1","1","1","1","1","1","2","1","1"
"260032","img/object_images/gift_box01.jpg","img/object_images/measuring_tape02.jpg","img/object_images/gift_box03.jpg","1","0","1","1","1","0","0.388962799916044","0.501127399969846","0.490683400072157","1","1","1","1","1","1","1","2","1"
"260032","img/object_images/gift_box03.jpg","img/object_images/gift_box01.jpg","img/object_images/bath_tub01.jpg","1","1","1","0","1","0","0.490683400072157","0.388962799916044","0.32238889997825","1","1","1","1","1","1","1","1","1"
"260032","img/object_images/bath_tub01.jpg","img/object_images/gift_box03.jpg","img/object_images/handkerchief01.jpg","1","1","0","0","0","0","0.32238889997825","0.490683400072157","0.29169440001715","1","1","1","1","1","1","1","1","1"
"260032","img/object_images/handkerchief01.jpg","img/object_images/bath_tub01.jpg","img/object_images/sleeping_bag01.jpg","0","1","0","0","0","0","0.29169440001715","0.32238889997825","0.313787500024773","1","1","1","1","1","1","1","1","1"
"260032","img/object_images/sleeping_bag01.jpg","img/object_images/handkerchief01.jpg","img/object_images/vga_port 01.jpg","0","0","1","0","0","0","0.313787500024773","0.29169440001715","0.656053000013344","1","1","1","1","1","1","1","1","1"
"260032","img/object_images/vga_port 01.jpg","img/object_images/sleeping_bag01.jpg","img/object_images/socks02.jpg","1","0","1","0","0","0","0.656053000013344","0.313787500024773","0.489307000068948","1","1","1","1","1","1","1","1","1"
"260032","img/object_images/socks02.jpg","img/object_images/vga_port 01.jpg","img/object_images/fork03.jpg","1","1","1","0","0","1","0.489307000068948","0.656053000013344","0.554375999956392","1","1","1","1","1","1","1","1","1"
"260032","img/object_images/fork03.jpg","img/object_images/socks02.jpg","img/object_images/grater01.jpg","1","1","1","1","0","1","0.554375999956392","0.489307000068948","0.379801500006579","1","1","1","1","1","1","1","1","1"
"260032","img/object_images/grater01.jpg","img/object_images/fork03.jpg","img/object_images/ironing_table01.jpg","1","1","1","1","1","0","0.379801500006579","0.554375999956392","0.499674999970011","1","1","1","1","1","1","1","1","1"
"260032","img/object_images/ironing_table01.jpg","img/object_images/grater01.jpg","img/object_images/Witchhat01.jpg","1","1","0","0","1","1","0.499674999970011","0.379801500006579","0.616676999954507","1","1","1","1","1","1","1","1","1"
"260032","img/object_images/Witchhat01.jpg","img/object_images/ironing_table01.jpg","img/object_images/balloon01.jpg","0","1","1","1","0","0","0.616676999954507","0.499674999970011","0.516652500024065","1","1","1","1","1","1","1","1","1"
"260032","img/object_images/balloon01.jpg","img/object_images/Witchhat01.jpg","img/object_images/bow_tie01.jpg","1","0","0","0","1","0","0.516652500024065","0.616676999954507","0.511675099958666","1","1","1","1","1","1","1","1","1"
"260032","img/object_images/bow_tie01.jpg","img/object_images/balloon01.jpg","img/object_images/dresser04.jpg","0","1","1","0","0","0","0.511675099958666","0.516652500024065","0.568605200038292","1","1","1","1","1","1","1","1","1"
"260032","img/object_images/dresser04.jpg","img/object_images/bow_tie01.jpg",NA,"1","0",NA,"0","0",NA,"0.568605200038292","0.511675099958666",NA,"1","1",NA,"1","1",NA,"1","1",NA
"260032","img/object_images/badminton01.jpg",NA,"img/object_images/dice01.jpg","1",NA,"1","1",NA,"0","0.721108999918215",NA,"0.362677299999632","1",NA,"1","1",NA,"1","1",NA,"1"
"260032","img/object_images/dice01.jpg","img/object_images/badminton01.jpg","img/object_images/bucket01.jpg","1","1","1","0","1","1","0.362677299999632","0.721108999918215","0.514328000019304","1","1","1","1","1","1","1","1","1"
"260032","img/object_images/bucket01.jpg","img/object_images/dice01.jpg","img/object_images/phone04.jpg","1","1","1","1","0","1","0.514328000019304","0.362677299999632","0.473882899968885","1","1","1","1","1","1","1","1","1"
"260032","img/object_images/phone04.jpg","img/object_images/bucket01.jpg","img/object_images/tennis_racket01.jpg","1","1","1","1","1","1","0.473882899968885","0.514328000019304","0.443386800005101","1","1","1","1","1","1","1","1","1"
"260032","img/object_images/tennis_racket01.jpg","img/object_images/phone04.jpg","img/object_images/yoga_mat01.jpg","1","1","0","1","1","0","0.443386800005101","0.473882899968885","0.475158600020222","1","1","1","1","1","1","1","1","1"
"260032","img/object_images/yoga_mat01.jpg","img/object_images/tennis_racket01.jpg","img/object_images/trumpet01.jpg","0","1","1","0","1","0","0.475158600020222","0.443386800005101","0.561814900022","1","1","1","1","1","1","1","1","1"
"260032","img/object_images/trumpet01.jpg","img/object_images/yoga_mat01.jpg","img/object_images/origami01.jpg","1","0","1","0","0","1","0.561814900022","0.475158600020222","0.44486649997998","1","1","1","1","1","1","1","1","1"
"260032","img/object_images/origami01.jpg","img/object_images/trumpet01.jpg","img/object_images/Eyeliner01.jpg","1","1","1","1","0","1","0.44486649997998","0.561814900022","0.419518699985929","1","1","1","1","1","1","1","1","1"
"260032","img/object_images/Eyeliner01.jpg","img/object_images/origami01.jpg","img/object_images/jewel02.jpg","1","1","1","1","1","0","0.419518699985929","0.44486649997998","0.377915099961683","1","1","1","1","1","1","1","1","1"
"260032","img/object_images/jewel02.jpg","img/object_images/Eyeliner01.jpg","img/object_images/helmet03.jpg","1","1","1","0","1","1","0.377915099961683","0.419518699985929","0.474446499953046","1","1","1","1","1","1","1","1","1"
"260032","img/object_images/helmet03.jpg","img/object_images/jewel02.jpg","img/object_images/Shoes05.jpg","1","1","1","1","0","0","0.474446499953046","0.377915099961683","0.462951299967244","1","1","1","1","1","1","1","1","1"
"260032","img/object_images/Shoes05.jpg","img/object_images/helmet03.jpg","img/object_images/note_book02.jpg","1","1","1","0","1","0","0.462951299967244","0.474446499953046","0.553727299906313","1","1","1","1","1","1","1","1","1"
"260032","img/object_images/note_book02.jpg","img/object_images/Shoes05.jpg","img/object_images/Safe01.jpg","1","1","1","0","0","1","0.553727299906313","0.462951299967244","0.599706399952993","1","1","1","1","1","1","1","1","1"
"260032","img/object_images/Safe01.jpg","img/object_images/note_book02.jpg","img/object_images/TreeSlice01.jpg","1","1","1","1","0","1","0.599706399952993","0.553727299906313","0.465220100013539","1","1","1","1","1","1","1","1","1"
"260032","img/object_images/TreeSlice01.jpg","img/object_images/Safe01.jpg","img/object_images/shovel01.jpg","1","1","1","1","1","0","0.465220100013539","0.599706399952993","0.476645700051449","1","1","1","1","1","1","1","1","1"
"260032","img/object_images/shovel01.jpg","img/object_images/TreeSlice01.jpg","img/object_images/usb03.jpg","1","1","1","0","1","0","0.476645700051449","0.465220100013539","0.589858599938452","1","1","1","1","1","1","1","1","1"
"260032","img/object_images/usb03.jpg","img/object_images/shovel01.jpg","img/object_images/frame01.jpg","1","1","1","0","0","1","0.589858599938452","0.476645700051449","0.642548700096086","1","1","1","1","1","1","1","1","1"
"260032","img/object_images/frame01.jpg","img/object_images/usb03.jpg","img/object_images/bottle06.jpg","1","1","1","1","0","0","0.642548700096086","0.589858599938452","0.608886000001803","1","1","1","1","1","1","1","1","1"
"260032","img/object_images/bottle06.jpg","img/object_images/frame01.jpg","img/object_images/lock03.jpg","1","1","1","0","1","1","0.608886000001803","0.642548700096086","0.560179499909282","1","1","1","1","1","1","1","1","1"
"260032","img/object_images/lock03.jpg","img/object_images/bottle06.jpg","img/object_images/pitcher07.jpg","1","1","1","1","0","1","0.560179499909282","0.608886000001803","0.474620599998161","1","1","1","1","1","1","1","1","1"
"260032","img/object_images/pitcher07.jpg","img/object_images/lock03.jpg","img/object_images/joystick03.jpg","1","1","1","1","1","1","0.474620599998161","0.560179499909282","0.318095800001174","1","1","1","1","1","1","1","1","1"
"260032","img/object_images/joystick03.jpg","img/object_images/pitcher07.jpg","img/object_images/scale02.jpg","1","1","1","1","1","0","0.318095800001174","0.474620599998161","0.474623000016436","1","1","1","1","1","1","1","1","1"
"260032","img/object_images/scale02.jpg","img/object_images/joystick03.jpg","img/object_images/water_gun01.jpg","1","1","1","0","1","1","0.474623000016436","0.318095800001174","0.57593320007436","1","1","1","1","1","1","1","1","1"
"260032","img/object_images/water_gun01.jpg","img/object_images/scale02.jpg","img/object_images/headset02.jpg","1","1","1","1","0","0","0.57593320007436","0.474623000016436","0.548336000065319","1","1","1","1","1","1","1","1","1"
"260032","img/object_images/headset02.jpg","img/object_images/water_gun01.jpg","img/object_images/bookmark01.jpg","1","1","1","0","1","0","0.548336000065319","0.57593320007436","0.476072799996473","1","1","1","1","1","1","1","1","1"
"260032","img/object_images/bookmark01.jpg","img/object_images/headset02.jpg","img/object_images/fan01.jpg","1","1","1","0","0","0","0.476072799996473","0.548336000065319","0.629341299994849","1","1","1","1","1","1","1","1","1"
"260032","img/object_images/fan01.jpg","img/object_images/bookmark01.jpg","img/object_images/ToolBag01.jpg","1","1","1","0","0","0","0.629341299994849","0.476072799996473","0.427626799908467","1","1","1","1","1","1","1","1","1"
"260032","img/object_images/ToolBag01.jpg","img/object_images/fan01.jpg","img/object_images/egg_basket01.jpg","1","1","1","0","0","1","0.427626799908467","0.629341299994849","0.413613399956375","1","1","1","1","1","1","1","1","1"
"260032","img/object_images/egg_basket01.jpg","img/object_images/ToolBag01.jpg","img/object_images/piano03.jpg","1","1","1","1","0","0","0.413613399956375","0.427626799908467","0.572388400090858","1","1","1","1","1","1","1","1","1"
"260032","img/object_images/piano03.jpg","img/object_images/egg_basket01.jpg","img/object_images/belt03.jpg","1","1","1","0","1","0","0.572388400090858","0.413613399956375","0.527961899992079","1","1","1","1","1","1","1","1","1"
"260032","img/object_images/belt03.jpg","img/object_images/piano03.jpg","img/object_images/nut_cracker01.jpg","1","1","0","0","0","1","0.527961899992079","0.572388400090858","0.524885999970138","1","1","1","1","1","1","1","1","1"
"260032","img/object_images/nut_cracker01.jpg","img/object_images/belt03.jpg",NA,"0","1",NA,"1","0",NA,"0.524885999970138","0.527961899992079",NA,"1","1",NA,"1","1",NA,"1","1",NA
"260032","img/object_images/shoes08.jpg",NA,"img/object_images/fan04.jpg","1",NA,"1","1",NA,"0","0.492573000025004",NA,"0.51997159991879","1",NA,"1","1",NA,"1","1",NA,"1"
"260032","img/object_images/fan04.jpg","img/object_images/shoes08.jpg","img/object_images/vase01.jpg","1","1","1","0","1","0","0.51997159991879","0.492573000025004","0.566643300000578","1","1","1","1","1","1","1","1","1"
"260032","img/object_images/vase01.jpg","img/object_images/fan04.jpg","img/object_images/backpack03.jpg","1","1","1","0","0","1","0.566643300000578","0.51997159991879","0.357612899970263","1","1","1","1","1","1","1","1","1"
"260032","img/object_images/backpack03.jpg","img/object_images/vase01.jpg","img/object_images/Vest02.jpg","1","1","1","1","0","0","0.357612899970263","0.566643300000578","0.324881399981678","1","1","1","1","1","1","1","1","1"
"260032","img/object_images/Vest02.jpg","img/object_images/backpack03.jpg","img/object_images/umbrella01.jpg","1","1","1","0","1","0","0.324881399981678","0.357612899970263","0.522768200025894","1","1","1","1","1","1","1","1","1"
"260032","img/object_images/umbrella01.jpg","img/object_images/Vest02.jpg","img/object_images/lock01.jpg","1","1","0","0","0","0","0.522768200025894","0.324881399981678","0.480795899988152","1","1","1","1","1","1","1","1","1"
"260032","img/object_images/lock01.jpg","img/object_images/umbrella01.jpg","img/object_images/chair02.jpg","0","1","1","0","0","1","0.480795899988152","0.522768200025894","0.369735500076786","1","1","1","1","1","1","1","1","1"
"260032","img/object_images/chair02.jpg","img/object_images/lock01.jpg","img/object_images/pitcher05.jpg","1","0","1","1","0","0","0.369735500076786","0.480795899988152","0.58737230009865","1","1","1","1","1","1","1","1","1"
"260032","img/object_images/pitcher05.jpg","img/object_images/chair02.jpg","img/object_images/spatula02.jpg","1","1","1","0","1","1","0.58737230009865","0.369735500076786","0.518141399952583","1","1","1","1","1","1","1","1","1"
"260032","img/object_images/spatula02.jpg","img/object_images/pitcher05.jpg","img/object_images/helmet02.jpg","1","1","1","1","0","0","0.518141399952583","0.58737230009865","0.62848350009881","1","1","1","1","1","1","1","1","1"
"260032","img/object_images/helmet02.jpg","img/object_images/spatula02.jpg","img/object_images/robe01.jpg","1","1","1","0","1","1","0.62848350009881","0.518141399952583","0.443475599982776","1","1","1","1","1","1","1","1","1"
"260032","img/object_images/robe01.jpg","img/object_images/helmet02.jpg","img/object_images/Lint_Roller02.jpg","1","1","1","1","0","0","0.443475599982776","0.62848350009881","0.478777299984358","1","1","1","1","1","1","1","1","1"
"260032","img/object_images/Lint_Roller02.jpg","img/object_images/robe01.jpg","img/object_images/gift_box05.jpg","1","1","1","0","1","0","0.478777299984358","0.443475599982776","0.521958200028166","1","1","1","1","1","1","1","1","1"
"260032","img/object_images/gift_box05.jpg","img/object_images/Lint_Roller02.jpg","img/object_images/hair_dryer01.jpg","1","1","0","0","0","0","0.521958200028166","0.478777299984358","0.481702400022186","1","1","1","1","1","1","1","1","1"
"260032","img/object_images/hair_dryer01.jpg","img/object_images/gift_box05.jpg","img/object_images/stove01.jpg","0","1","1","0","0","0","0.481702400022186","0.521958200028166","0.489237000001594","1","1","1","1","1","1","1","1","1"
"260032","img/object_images/stove01.jpg","img/object_images/hair_dryer01.jpg","img/object_images/trash_can03.jpg","1","0","1","0","0","1","0.489237000001594","0.481702400022186","0.370477800024673","1","1","1","1","1","1","1","1","1"
"260032","img/object_images/trash_can03.jpg","img/object_images/stove01.jpg","img/object_images/microphone03.jpg","1","1","1","1","0","1","0.370477800024673","0.489237000001594","0.356782500050031","1","1","1","1","1","1","1","1","1"
"260032","img/object_images/microphone03.jpg","img/object_images/trash_can03.jpg","img/object_images/combs01.jpg","1","1","1","1","1","1","0.356782500050031","0.370477800024673","0.472690299968235","1","1","1","1","1","1","1","1","1"
"260032","img/object_images/combs01.jpg","img/object_images/microphone03.jpg","img/object_images/towels01.jpg","1","1","1","1","1","0","0.472690299968235","0.356782500050031","0.669338700012304","1","1","1","1","1","1","1","1","1"
"260032","img/object_images/towels01.jpg","img/object_images/combs01.jpg","img/object_images/surf_board01.jpg","1","1","1","0","1","1","0.669338700012304","0.472690299968235","0.483205999946222","1","1","1","1","1","1","1","1","1"
"260032","img/object_images/surf_board01.jpg","img/object_images/towels01.jpg","img/object_images/bucket02.jpg","1","1","1","1","0","1","0.483205999946222","0.669338700012304","0.502725700032897","1","1","1","1","1","1","1","1","1"
"260032","img/object_images/bucket02.jpg","img/object_images/surf_board01.jpg","img/object_images/hair_brush02.jpg","1","1","1","1","1","0","0.502725700032897","0.483205999946222","0.445645499974489","1","1","1","1","1","1","1","1","1"
"260032","img/object_images/hair_brush02.jpg","img/object_images/bucket02.jpg","img/object_images/toy05.jpg","1","1","1","0","1","0","0.445645499974489","0.502725700032897","0.536799699999392","1","1","1","1","1","1","1","1","1"
"260032","img/object_images/toy05.jpg","img/object_images/hair_brush02.jpg","img/object_images/laptop01.jpg","1","1","1","0","0","0","0.536799699999392","0.445645499974489","0.46207999996841","1","1","1","1","1","1","1","1","1"
"260032","img/object_images/laptop01.jpg","img/object_images/toy05.jpg","img/object_images/ball02.jpg","1","1","1","0","0","1","0.46207999996841","0.536799699999392","0.548291299957782","1","1","1","1","1","1","1","1","1"
"260032","img/object_images/ball02.jpg","img/object_images/laptop01.jpg","img/object_images/trash_can05.jpg","1","1","1","1","0","1","0.548291299957782","0.46207999996841","0.373013400007039","1","1","1","1","1","1","1","1","1"
"260032","img/object_images/trash_can05.jpg","img/object_images/ball02.jpg","img/object_images/calculator01.jpg","1","1","1","1","1","1","0.373013400007039","0.548291299957782","0.511317499913275","1","1","1","1","1","1","1","1","1"
"260032","img/object_images/calculator01.jpg","img/object_images/trash_can05.jpg","img/object_images/chess_piece01.jpg","1","1","1","1","1","0","0.511317499913275","0.373013400007039","0.550991899915971","1","1","1","1","1","1","1","1","1"
"260032","img/object_images/chess_piece01.jpg","img/object_images/calculator01.jpg","img/object_images/accardion01.jpg","1","1","1","0","1","1","0.550991899915971","0.511317499913275","0.53533989994321","1","1","1","1","1","1","1","1","1"
"260032","img/object_images/accardion01.jpg","img/object_images/chess_piece01.jpg","img/object_images/jewel03.jpg","1","1","1","1","0","1","0.53533989994321","0.550991899915971","0.418318300042301","1","1","1","1","1","1","1","1","1"
"260032","img/object_images/jewel03.jpg","img/object_images/accardion01.jpg","img/object_images/laptop03.jpg","1","1","1","1","1","1","0.418318300042301","0.53533989994321","0.498576199985109","1","1","1","1","1","1","1","1","1"
"260032","img/object_images/laptop03.jpg","img/object_images/jewel03.jpg",NA,"1","1",NA,"1","1",NA,"0.498576199985109","0.418318300042301",NA,"1","1",NA,"1","1",NA,"1","1",NA
"260032","img/object_images/clip03.jpg",NA,"img/object_images/wire02.jpg","1",NA,"1","0",NA,"1","0.616014200029895",NA,"0.400243800017051","1",NA,"1","1",NA,"1","1",NA,"1"
"260032","img/object_images/wire02.jpg","img/object_images/clip03.jpg","img/object_images/knit05.jpg","1","1","1","1","0","1","0.400243800017051","0.616014200029895","0.372289799968712","1","1","1","1","1","1","1","1","1"
"260032","img/object_images/knit05.jpg","img/object_images/wire02.jpg","img/object_images/pitcher01.jpg","1","1","0","1","1","0","0.372289799968712","0.400243800017051","0.364703199942596","1","1","1","1","1","1","1","1","1"
"260032","img/object_images/pitcher01.jpg","img/object_images/knit05.jpg","img/object_images/floppy_disk02.jpg","0","1","0","0","1","0","0.364703199942596","0.372289799968712","0.570167699945159","1","1","1","1","1","1","1","1","2"
"260032","img/object_images/floppy_disk02.jpg","img/object_images/pitcher01.jpg","img/object_images/knife04.jpg","0","0","1","0","0","1","0.570167699945159","0.364703199942596","0.505916199996136","1","1","1","1","1","1","2","1","1"
"260032","img/object_images/knife04.jpg","img/object_images/floppy_disk02.jpg","img/object_images/tv02.jpg","1","0","1","1","0","0","0.505916199996136","0.570167699945159","0.517082599923015","1","1","1","1","1","1","1","2","1"
"260032","img/object_images/tv02.jpg","img/object_images/knife04.jpg","img/object_images/note_book01.jpg","1","1","1","0","1","0","0.517082599923015","0.505916199996136","0.522671499988064","1","1","1","1","1","1","1","1","1"
"260032","img/object_images/note_book01.jpg","img/object_images/tv02.jpg","img/object_images/compass01.jpg","1","1","1","0","0","1","0.522671499988064","0.517082599923015","0.424667499959469","1","1","1","1","1","1","1","1","1"
"260032","img/object_images/compass01.jpg","img/object_images/note_book01.jpg","img/object_images/floppy_disk03.jpg","1","1","1","1","0","1","0.424667499959469","0.522671499988064","0.491196199902333","1","1","1","1","1","1","1","1","1"
"260032","img/object_images/floppy_disk03.jpg","img/object_images/compass01.jpg","img/object_images/book03.jpg","1","1","1","1","1","1","0.491196199902333","0.424667499959469","0.508382499916479","1","1","1","1","1","1","1","1","1"
"260032","img/object_images/book03.jpg","img/object_images/floppy_disk03.jpg","img/object_images/Thermometer01.jpg","1","1","1","1","1","0","0.508382499916479","0.491196199902333","0.53178239997942","1","1","1","1","1","1","1","1","1"
"260032","img/object_images/Thermometer01.jpg","img/object_images/book03.jpg","img/object_images/crutches02.jpg","1","1","1","0","1","0","0.53178239997942","0.508382499916479","0.557243800023571","1","1","1","1","1","1","1","1","1"
"260032","img/object_images/crutches02.jpg","img/object_images/Thermometer01.jpg","img/object_images/bottle01.jpg","1","1","1","0","0","0","0.557243800023571","0.53178239997942","0.488436599960551","1","1","1","1","1","1","1","1","1"
"260032","img/object_images/bottle01.jpg","img/object_images/crutches02.jpg","img/object_images/bell02.jpg","1","1","1","0","0","0","0.488436599960551","0.557243800023571","0.544093500007875","1","1","1","1","1","1","1","1","1"
"260032","img/object_images/bell02.jpg","img/object_images/bottle01.jpg","img/object_images/Staples01.jpg","1","1","1","0","0","1","0.544093500007875","0.488436599960551","0.483427900006063","1","1","1","1","1","1","1","1","1"
"260032","img/object_images/Staples01.jpg","img/object_images/bell02.jpg","img/object_images/motorcycle01.jpg","1","1","1","1","0","1","0.483427900006063","0.544093500007875","0.458211800083518","1","1","1","1","1","1","1","1","1"
"260032","img/object_images/motorcycle01.jpg","img/object_images/Staples01.jpg","img/object_images/retainer01.jpg","1","1","1","1","1","0","0.458211800083518","0.483427900006063","0.457886899937876","1","1","1","1","1","1","1","1","1"
"260032","img/object_images/retainer01.jpg","img/object_images/motorcycle01.jpg","img/object_images/pillows01.jpg","1","1","1","0","1","1","0.457886899937876","0.458211800083518","0.342293499968946","1","1","1","1","1","1","1","1","1"
"260032","img/object_images/pillows01.jpg","img/object_images/retainer01.jpg","img/object_images/lid01.jpg","1","1","1","1","0","1","0.342293499968946","0.457886899937876","0.519278199994005","1","1","1","1","1","1","1","1","1"
"260032","img/object_images/lid01.jpg","img/object_images/pillows01.jpg","img/object_images/pen03.jpg","1","1","0","1","1","0","0.519278199994005","0.342293499968946","0.492590100038797","1","1","1","1","1","1","1","1","1"
"260032","img/object_images/pen03.jpg","img/object_images/lid01.jpg","img/object_images/Oven01.jpg","0","1","1","0","1","1","0.492590100038797","0.519278199994005","0.425882400013506","1","1","1","1","1","1","1","1","1"
"260032","img/object_images/Oven01.jpg","img/object_images/pen03.jpg","img/object_images/microscope01.jpg","1","0","1","1","0","0","0.425882400013506","0.492590100038797","0.575097799999639","1","1","1","1","1","1","1","1","1"
"260032","img/object_images/microscope01.jpg","img/object_images/Oven01.jpg","img/object_images/ear_bud01.jpg","1","1","1","0","1","1","0.575097799999639","0.425882400013506","0.466432200046256","1","1","1","1","1","1","1","1","1"
"260032","img/object_images/ear_bud01.jpg","img/object_images/microscope01.jpg","img/object_images/cellphone01.jpg","1","1","1","1","0","1","0.466432200046256","0.575097799999639","0.373816399951465","1","1","1","1","1","1","1","1","1"
"260032","img/object_images/cellphone01.jpg","img/object_images/ear_bud01.jpg","img/object_images/tennis_racket02.jpg","1","1","0","1","1","1","0.373816399951465","0.466432200046256","0.538036699988879","1","1","1","1","1","1","1","1","1"
"260032","img/object_images/tennis_racket02.jpg","img/object_images/cellphone01.jpg","img/object_images/clock02.jpg","0","1","1","1","1","0","0.538036699988879","0.373816399951465","0.528688999940641","1","1","1","1","1","1","1","1","1"
"260032","img/object_images/clock02.jpg","img/object_images/tennis_racket02.jpg","img/object_images/chess_piece02.jpg","1","0","1","0","1","1","0.528688999940641","0.538036699988879","0.412013399996795","1","1","1","1","1","1","1","1","1"
"260032","img/object_images/chess_piece02.jpg","img/object_images/clock02.jpg","img/object_images/paint_brush04.jpg","1","1","0","1","0","0","0.412013399996795","0.528688999940641","0.458732199971564","1","1","1","1","1","1","1","1","1"
"260032","img/object_images/paint_brush04.jpg","img/object_images/chess_piece02.jpg","img/object_images/hammer03.jpg","0","1","1","0","1","1","0.458732199971564","0.412013399996795","0.758117999997921","1","1","1","1","1","1","1","1","1"
"260032","img/object_images/hammer03.jpg","img/object_images/paint_brush04.jpg","img/object_images/usb02.jpg","1","0","1","1","0","0","0.758117999997921","0.458732199971564","0.51166880002711","1","1","1","1","1","1","1","1","1"
"260032","img/object_images/usb02.jpg","img/object_images/hammer03.jpg","img/object_images/chair05.jpg","1","1","1","0","1","0","0.51166880002711","0.758117999997921","0.355542600038461","1","1","1","1","1","1","1","1","1"
"260032","img/object_images/chair05.jpg","img/object_images/usb02.jpg",NA,"1","1",NA,"0","0",NA,"0.355542600038461","0.51166880002711",NA,"1","1",NA,"1","1",NA,"1","1",NA
