"participant_id","current_trial_object","pre_trial_object","post_trial_object","current_trial_accuracy","pre_trial_accuracy","post_trial_accuracy","current_trial_congruency","pre_trial_congruency","post_trial_congruency","current_trial_rt","pre_trial_rt","post_trial_rt","current_trial_responded","pre_trial_responded","post_trial_responded","current_trial_legitResponse","pre_trial_legitResponse","post_trial_legitResponse","current_trial_resp_nums","pre_trial_resp_nums","post_trial_resp_nums"
"260038","img/object_images/book02.jpg",NA,"img/object_images/egg_slicer01.jpg","0",NA,"1","1",NA,"1",NA,NA,"0.434405700012576","0",NA,"1","0",NA,"1","0",NA,"1"
"260038","img/object_images/egg_slicer01.jpg","img/object_images/book02.jpg","img/object_images/shoes12.jpg","1","0","1","1","1","1","0.434405700012576",NA,"0.514695500023663","1","0","1","1","0","1","1","0","1"
"260038","img/object_images/shoes12.jpg","img/object_images/egg_slicer01.jpg","img/object_images/computer_mouse02.jpg","1","1","1","1","1","0","0.514695500023663","0.434405700012576","0.469605599995703","1","1","1","1","1","1","1","1","1"
"260038","img/object_images/computer_mouse02.jpg","img/object_images/shoes12.jpg","img/object_images/pen01.jpg","1","1","1","0","1","0","0.469605599995703","0.514695500023663","0.52139479998732","1","1","1","1","1","1","1","1","1"
"260038","img/object_images/pen01.jpg","img/object_images/computer_mouse02.jpg","img/object_images/blender01.jpg","1","1","1","0","0","0","0.52139479998732","0.469605599995703","0.59947919996921","1","1","1","1","1","1","1","1","1"
"260038","img/object_images/blender01.jpg","img/object_images/pen01.jpg","img/object_images/soap03.jpg","1","1","1","0","0","0","0.59947919996921","0.52139479998732","0.601707599998917","1","1","1","1","1","1","1","1","1"
"260038","img/object_images/soap03.jpg","img/object_images/blender01.jpg","img/object_images/toothbrush01.jpg","1","1","1","0","0","0","0.601707599998917","0.59947919996921","0.462606899964157","1","1","1","1","1","1","1","1","1"
"260038","img/object_images/toothbrush01.jpg","img/object_images/soap03.jpg","img/object_images/scarf01.jpg","1","1","1","0","0","1","0.462606899964157","0.601707599998917","0.462724299984984","1","1","1","1","1","1","1","1","1"
"260038","img/object_images/scarf01.jpg","img/object_images/toothbrush01.jpg","img/object_images/drone01.jpg","1","1","1","1","0","1","0.462724299984984","0.462606899964157","0.473254100012127","1","1","1","1","1","1","1","1","1"
"260038","img/object_images/drone01.jpg","img/object_images/scarf01.jpg","img/object_images/bag_pipes01.jpg","1","1","1","1","1","1","0.473254100012127","0.462724299984984","0.480013799970038","1","1","1","1","1","1","1","1","1"
"260038","img/object_images/bag_pipes01.jpg","img/object_images/drone01.jpg","img/object_images/airfryer02.jpg","1","1","1","1","1","1","0.480013799970038","0.473254100012127","0.532057899981737","1","1","1","1","1","1","1","1","1"
"260038","img/object_images/airfryer02.jpg","img/object_images/bag_pipes01.jpg","img/object_images/pitcher09.jpg","1","1","1","1","1","1","0.532057899981737","0.480013799970038","0.614897100022063","1","1","1","1","1","1","1","1","1"
"260038","img/object_images/pitcher09.jpg","img/object_images/airfryer02.jpg","img/object_images/Trowel01.jpg","1","1","1","1","1","0","0.614897100022063","0.532057899981737","0.508798299997579","1","1","1","1","1","1","1","1","1"
"260038","img/object_images/Trowel01.jpg","img/object_images/pitcher09.jpg","img/object_images/tripod01.jpg","1","1","1","0","1","1","0.508798299997579","0.614897100022063","0.502080700010993","1","1","1","1","1","1","1","1","1"
"260038","img/object_images/tripod01.jpg","img/object_images/Trowel01.jpg","img/object_images/skate_board01.jpg","1","1","1","1","0","0","0.502080700010993","0.508798299997579","0.472624599991832","1","1","1","1","1","1","1","1","1"
"260038","img/object_images/skate_board01.jpg","img/object_images/tripod01.jpg","img/object_images/tool06.jpg","1","1","1","0","1","0","0.472624599991832","0.502080700010993","0.556641399976797","1","1","1","1","1","1","1","1","1"
"260038","img/object_images/tool06.jpg","img/object_images/skate_board01.jpg","img/object_images/bell03.jpg","1","1","1","0","0","0","0.556641399976797","0.472624599991832","0.546272100007627","1","1","1","1","1","1","1","1","1"
"260038","img/object_images/bell03.jpg","img/object_images/tool06.jpg","img/object_images/mail_box02.jpg","1","1","1","0","0","1","0.546272100007627","0.556641399976797","0.445172800042201","1","1","1","1","1","1","1","1","1"
"260038","img/object_images/mail_box02.jpg","img/object_images/bell03.jpg","img/object_images/clip04.jpg","1","1","1","1","0","1","0.445172800042201","0.546272100007627","0.498859199986327","1","1","1","1","1","1","1","1","1"
"260038","img/object_images/clip04.jpg","img/object_images/mail_box02.jpg","img/object_images/toy01.jpg","1","1","1","1","1","1","0.498859199986327","0.445172800042201","0.392040699953213","1","1","1","1","1","1","1","1","1"
"260038","img/object_images/toy01.jpg","img/object_images/clip04.jpg","img/object_images/chair06.jpg","1","1","1","1","1","0","0.392040699953213","0.498859199986327","0.491763400030322","1","1","1","1","1","1","1","1","1"
"260038","img/object_images/chair06.jpg","img/object_images/toy01.jpg","img/object_images/couch01.jpg","1","1","1","0","1","0","0.491763400030322","0.392040699953213","0.477289699949324","1","1","1","1","1","1","1","1","1"
"260038","img/object_images/couch01.jpg","img/object_images/chair06.jpg","img/object_images/hair_brush01.jpg","1","1","1","0","0","1","0.477289699949324","0.491763400030322","0.600392099993769","1","1","1","1","1","1","1","1","1"
"260038","img/object_images/hair_brush01.jpg","img/object_images/couch01.jpg","img/object_images/Violin01.jpg","1","1","1","1","0","0","0.600392099993769","0.477289699949324","0.504782100033481","1","1","1","1","1","1","1","1","1"
"260038","img/object_images/Violin01.jpg","img/object_images/hair_brush01.jpg","img/object_images/fork02.jpg","1","1","1","0","1","0","0.504782100033481","0.600392099993769","0.481490799982566","1","1","1","1","1","1","1","1","1"
"260038","img/object_images/fork02.jpg","img/object_images/Violin01.jpg","img/object_images/box03.jpg","1","1","1","0","0","0","0.481490799982566","0.504782100033481","0.600475399987772","1","1","1","1","1","1","1","1","1"
"260038","img/object_images/box03.jpg","img/object_images/fork02.jpg","img/object_images/computer_mouse01.jpg","1","1","1","0","0","1","0.600475399987772","0.481490799982566","0.399653899949044","1","1","1","1","1","1","1","1","1"
"260038","img/object_images/computer_mouse01.jpg","img/object_images/box03.jpg","img/object_images/floss02.jpg","1","1","1","1","0","1","0.399653899949044","0.600475399987772","0.575381199945696","1","1","1","1","1","1","1","1","1"
"260038","img/object_images/floss02.jpg","img/object_images/computer_mouse01.jpg","img/object_images/rock02.jpg","1","1","1","1","1","0","0.575381199945696","0.399653899949044","0.590595800022129","1","1","1","1","1","1","1","1","1"
"260038","img/object_images/rock02.jpg","img/object_images/floss02.jpg","img/object_images/video_game03.jpg","1","1","1","0","1","1","0.590595800022129","0.575381199945696","0.518922899966128","1","1","1","1","1","1","1","1","1"
"260038","img/object_images/video_game03.jpg","img/object_images/rock02.jpg","img/object_images/chain01.jpg","1","1","1","1","0","0","0.518922899966128","0.590595800022129","0.522403300041333","1","1","1","1","1","1","1","1","1"
"260038","img/object_images/chain01.jpg","img/object_images/video_game03.jpg",NA,"1","1",NA,"0","1",NA,"0.522403300041333","0.518922899966128",NA,"1","1",NA,"1","1",NA,"1","1",NA
"260038","img/object_images/knit04.jpg",NA,"img/object_images/car01.jpg","1",NA,"1","1",NA,"1","0.509313600021414",NA,"0.370727800007444","1",NA,"1","1",NA,"1","1",NA,"1"
"260038","img/object_images/car01.jpg","img/object_images/knit04.jpg","img/object_images/shower_head01.jpg","1","1","1","1","1","1","0.370727800007444","0.509313600021414","0.39440290001221","1","1","1","1","1","1","1","1","1"
"260038","img/object_images/shower_head01.jpg","img/object_images/car01.jpg","img/object_images/mail_box01.jpg","1","1","1","1","1","0","0.39440290001221","0.370727800007444","0.638629099994432","1","1","1","1","1","1","1","1","1"
"260038","img/object_images/mail_box01.jpg","img/object_images/shower_head01.jpg","img/object_images/backpack01.jpg","1","1","0","0","1","0","0.638629099994432","0.39440290001221",NA,"1","1","0","1","1","0","1","1","0"
"260038","img/object_images/backpack01.jpg","img/object_images/mail_box01.jpg","img/object_images/curtain02.jpg","0","1","1","0","0","0",NA,"0.638629099994432","0.506321199995","0","1","1","0","1","1","0","1","1"
"260038","img/object_images/curtain02.jpg","img/object_images/backpack01.jpg","img/object_images/camera03.jpg","1","0","1","0","0","0","0.506321199995",NA,"0.472565900010522","1","0","1","1","0","1","1","0","1"
"260038","img/object_images/camera03.jpg","img/object_images/curtain02.jpg","img/object_images/knit03.jpg","1","1","1","0","0","1","0.472565900010522","0.506321199995","0.453488300030585","1","1","1","1","1","1","1","1","1"
"260038","img/object_images/knit03.jpg","img/object_images/camera03.jpg","img/object_images/hoverboard01.jpg","1","1","1","1","0","0","0.453488300030585","0.472565900010522","0.492581200029235","1","1","1","1","1","1","1","1","1"
"260038","img/object_images/hoverboard01.jpg","img/object_images/knit03.jpg","img/object_images/paper_cup02.jpg","1","1","1","0","1","1","0.492581200029235","0.453488300030585","0.513691899948753","1","1","1","1","1","1","1","1","1"
"260038","img/object_images/paper_cup02.jpg","img/object_images/hoverboard01.jpg","img/object_images/hand_grip_exerciser01.jpg","1","1","1","1","0","0","0.513691899948753","0.492581200029235","0.513742399984039","1","1","1","1","1","1","1","1","1"
"260038","img/object_images/hand_grip_exerciser01.jpg","img/object_images/paper_cup02.jpg","img/object_images/keyboard02.jpg","1","1","1","0","1","1","0.513742399984039","0.513691899948753","0.342107600008603","1","1","1","1","1","1","1","1","1"
"260038","img/object_images/keyboard02.jpg","img/object_images/hand_grip_exerciser01.jpg","img/object_images/boat04.jpg","1","1","1","1","0","0","0.342107600008603","0.513742399984039","0.455378299986478","1","1","1","1","1","1","1","1","1"
"260038","img/object_images/boat04.jpg","img/object_images/keyboard02.jpg","img/object_images/sponge03.jpg","1","1","1","0","1","1","0.455378299986478","0.342107600008603","0.460170799982734","1","1","1","1","1","1","1","1","1"
"260038","img/object_images/sponge03.jpg","img/object_images/boat04.jpg","img/object_images/kite01.jpg","1","1","1","1","0","1","0.460170799982734","0.455378299986478","0.486362099996768","1","1","1","1","1","1","1","1","1"
"260038","img/object_images/kite01.jpg","img/object_images/sponge03.jpg","img/object_images/Statue01.jpg","1","1","1","1","1","1","0.486362099996768","0.460170799982734","0.432928599999286","1","1","1","1","1","1","1","1","1"
"260038","img/object_images/Statue01.jpg","img/object_images/kite01.jpg","img/object_images/gloves02.jpg","1","1","1","1","1","0","0.432928599999286","0.486362099996768","0.486233600007836","1","1","1","1","1","1","1","1","1"
"260038","img/object_images/gloves02.jpg","img/object_images/Statue01.jpg","img/object_images/matches02.jpg","1","1","1","0","1","0","0.486233600007836","0.432928599999286","0.564790899981745","1","1","1","1","1","1","1","1","1"
"260038","img/object_images/matches02.jpg","img/object_images/gloves02.jpg","img/object_images/jacket04.jpg","1","1","1","0","0","0","0.564790899981745","0.486233600007836","0.409410999971442","1","1","1","1","1","1","1","1","1"
"260038","img/object_images/jacket04.jpg","img/object_images/matches02.jpg","img/object_images/knife02.jpg","1","1","1","0","0","0","0.409410999971442","0.564790899981745","0.505436900013592","1","1","1","1","1","1","1","1","1"
"260038","img/object_images/knife02.jpg","img/object_images/jacket04.jpg","img/object_images/flashlight03.jpg","1","1","1","0","0","0","0.505436900013592","0.409410999971442","0.44066429999657","1","1","1","1","1","1","1","1","1"
"260038","img/object_images/flashlight03.jpg","img/object_images/knife02.jpg","img/object_images/remover01.jpg","1","1","1","0","0","1","0.44066429999657","0.505436900013592","0.513483499991708","1","1","1","1","1","1","1","1","1"
"260038","img/object_images/remover01.jpg","img/object_images/flashlight03.jpg","img/object_images/remote_controller01.jpg","1","1","1","1","0","1","0.513483499991708","0.44066429999657","0.431483299995307","1","1","1","1","1","1","1","1","1"
"260038","img/object_images/remote_controller01.jpg","img/object_images/remover01.jpg","img/object_images/toy08.jpg","1","1","1","1","1","0","0.431483299995307","0.513483499991708","0.499949100019876","1","1","1","1","1","1","1","1","1"
"260038","img/object_images/toy08.jpg","img/object_images/remote_controller01.jpg","img/object_images/dresser03.jpg","1","1","1","0","1","0","0.499949100019876","0.431483299995307","0.586481900012586","1","1","1","1","1","1","1","1","1"
"260038","img/object_images/dresser03.jpg","img/object_images/toy08.jpg","img/object_images/phone02.jpg","1","1","1","0","0","1","0.586481900012586","0.499949100019876","0.57585459999973","1","1","1","1","1","1","1","1","1"
"260038","img/object_images/phone02.jpg","img/object_images/dresser03.jpg","img/object_images/basket04.jpg","1","1","1","1","0","1","0.57585459999973","0.586481900012586","0.483727399958298","1","1","1","1","1","1","1","1","1"
"260038","img/object_images/basket04.jpg","img/object_images/phone02.jpg","img/object_images/video_game01.jpg","1","1","1","1","1","1","0.483727399958298","0.57585459999973","0.382549399975687","1","1","1","1","1","1","1","1","1"
"260038","img/object_images/video_game01.jpg","img/object_images/basket04.jpg","img/object_images/tool18.jpg","1","1","1","1","1","0","0.382549399975687","0.483727399958298","0.413118500029668","1","1","1","1","1","1","1","1","1"
"260038","img/object_images/tool18.jpg","img/object_images/video_game01.jpg","img/object_images/stereo02.jpg","1","1","1","0","1","0","0.413118500029668","0.382549399975687","0.681005700025707","1","1","1","1","1","1","1","1","1"
"260038","img/object_images/stereo02.jpg","img/object_images/tool18.jpg","img/object_images/bottle07.jpg","1","1","1","0","0","1","0.681005700025707","0.413118500029668","0.410688599979039","1","1","1","1","1","1","1","1","1"
"260038","img/object_images/bottle07.jpg","img/object_images/stereo02.jpg","img/object_images/blender02.jpg","1","1","1","1","0","1","0.410688599979039","0.681005700025707","0.628174199955538","1","1","1","1","1","1","1","1","1"
"260038","img/object_images/blender02.jpg","img/object_images/bottle07.jpg",NA,"1","1",NA,"1","1",NA,"0.628174199955538","0.410688599979039",NA,"1","1",NA,"1","1",NA,"1","1",NA
"260038","img/object_images/shoes10.jpg",NA,"img/object_images/WitchHat02.jpg","0",NA,"1","0",NA,"1","0.815376300015487",NA,"0.443396600021515","1",NA,"1","1",NA,"1","1",NA,"1"
"260038","img/object_images/WitchHat02.jpg","img/object_images/shoes10.jpg","img/object_images/screwdriver01.jpg","1","0","1","1","0","0","0.443396600021515","0.815376300015487","0.548039200017229","1","1","1","1","1","1","1","1","1"
"260038","img/object_images/screwdriver01.jpg","img/object_images/WitchHat02.jpg","img/object_images/shower_head03.jpg","1","1","1","0","1","1","0.548039200017229","0.443396600021515","0.449375899974257","1","1","1","1","1","1","1","1","1"
"260038","img/object_images/shower_head03.jpg","img/object_images/screwdriver01.jpg","img/object_images/fan05.jpg","1","1","1","1","0","0","0.449375899974257","0.548039200017229","0.584984999964945","1","1","1","1","1","1","1","1","1"
"260038","img/object_images/fan05.jpg","img/object_images/shower_head03.jpg","img/object_images/jewel01.jpg","1","1","1","0","1","0","0.584984999964945","0.449375899974257","0.538693199981935","1","1","1","1","1","1","1","1","1"
"260038","img/object_images/jewel01.jpg","img/object_images/fan05.jpg","img/object_images/toaster02.jpg","1","1","1","0","0","1","0.538693199981935","0.584984999964945","0.464950199995656","1","1","1","1","1","1","1","1","1"
"260038","img/object_images/toaster02.jpg","img/object_images/jewel01.jpg","img/object_images/ladle02.jpg","1","1","0","1","0","0","0.464950199995656","0.538693199981935","0.339536999992561","1","1","1","1","1","1","1","1","1"
"260038","img/object_images/ladle02.jpg","img/object_images/toaster02.jpg","img/object_images/car04.jpg","0","1","1","0","1","0","0.339536999992561","0.464950199995656","0.472920099971816","1","1","1","1","1","1","1","1","1"
"260038","img/object_images/car04.jpg","img/object_images/ladle02.jpg","img/object_images/ice_tray03.jpg","1","0","1","0","0","1","0.472920099971816","0.339536999992561","0.505824499996379","1","1","1","1","1","1","1","1","1"
"260038","img/object_images/ice_tray03.jpg","img/object_images/car04.jpg","img/object_images/jewelry07.jpg","1","1","1","1","0","1","0.505824499996379","0.472920099971816","0.48686889995588","1","1","1","1","1","1","1","1","1"
"260038","img/object_images/jewelry07.jpg","img/object_images/ice_tray03.jpg","img/object_images/mask01.jpg","1","1","1","1","1","0","0.48686889995588","0.505824499996379","0.483585599984508","1","1","1","1","1","1","1","1","1"
"260038","img/object_images/mask01.jpg","img/object_images/jewelry07.jpg","img/object_images/yarn02.jpg","1","1","1","0","1","0","0.483585599984508","0.48686889995588","0.671853500010911","1","1","1","1","1","1","1","1","1"
"260038","img/object_images/yarn02.jpg","img/object_images/mask01.jpg","img/object_images/cutting_board01.jpg","1","1","1","0","0","1","0.671853500010911","0.483585599984508","0.528946399979759","1","1","1","1","1","1","1","1","1"
"260038","img/object_images/cutting_board01.jpg","img/object_images/yarn02.jpg","img/object_images/bag06.jpg","1","1","1","1","0","1","0.528946399979759","0.671853500010911","0.499349899997469","1","1","1","1","1","1","1","1","1"
"260038","img/object_images/bag06.jpg","img/object_images/cutting_board01.jpg","img/object_images/key02.jpg","1","1","1","1","1","1","0.499349899997469","0.528946399979759","0.512648000032641","1","1","1","1","1","1","1","1","1"
"260038","img/object_images/key02.jpg","img/object_images/bag06.jpg","img/object_images/rock03.jpg","1","1","1","1","1","0","0.512648000032641","0.499349899997469","0.639721399988048","1","1","1","1","1","1","1","1","1"
"260038","img/object_images/rock03.jpg","img/object_images/key02.jpg","img/object_images/hair_brush05.jpg","1","1","1","0","1","1","0.639721399988048","0.512648000032641","0.443060900026467","1","1","1","1","1","1","1","1","1"
"260038","img/object_images/hair_brush05.jpg","img/object_images/rock03.jpg","img/object_images/belt01.jpg","1","1","0","1","0","0","0.443060900026467","0.639721399988048","0.348597400006838","1","1","1","1","1","1","1","1","1"
"260038","img/object_images/belt01.jpg","img/object_images/hair_brush05.jpg","img/object_images/ribbon01.jpg","0","1","1","0","1","0","0.348597400006838","0.443060900026467","0.59908929996891","1","1","1","1","1","1","1","1","1"
"260038","img/object_images/ribbon01.jpg","img/object_images/belt01.jpg","img/object_images/razor01.jpg","1","0","1","0","0","0","0.59908929996891","0.348597400006838","0.546277300047223","1","1","1","1","1","1","1","1","1"
"260038","img/object_images/razor01.jpg","img/object_images/ribbon01.jpg","img/object_images/binoculars03.jpg","1","1","1","0","0","1","0.546277300047223","0.59908929996891","0.55175829998916","1","1","1","1","1","1","1","1","1"
"260038","img/object_images/binoculars03.jpg","img/object_images/razor01.jpg","img/object_images/car03.jpg","1","1","1","1","0","0","0.55175829998916","0.546277300047223","0.547988699981943","1","1","1","1","1","1","1","1","1"
"260038","img/object_images/car03.jpg","img/object_images/binoculars03.jpg","img/object_images/MeasuringCup01.jpg","1","1","1","0","1","1","0.547988699981943","0.55175829998916","0.493625600007363","1","1","1","1","1","1","1","1","1"
"260038","img/object_images/MeasuringCup01.jpg","img/object_images/car03.jpg","img/object_images/tool11.jpg","1","1","1","1","0","1","0.493625600007363","0.547988699981943","0.500216199958231","1","1","1","1","1","1","1","1","1"
"260038","img/object_images/tool11.jpg","img/object_images/MeasuringCup01.jpg","img/object_images/tv01.jpg","1","1","1","1","1","0","0.500216199958231","0.493625600007363","0.604871799994726","1","1","1","1","1","1","1","1","1"
"260038","img/object_images/tv01.jpg","img/object_images/tool11.jpg","img/object_images/satellite01.jpg","1","1","1","0","1","0","0.604871799994726","0.500216199958231","0.597891499986872","1","1","1","1","1","1","1","1","1"
"260038","img/object_images/satellite01.jpg","img/object_images/tv01.jpg","img/object_images/cards01.jpg","1","1","1","0","0","0","0.597891499986872","0.604871799994726","0.492775899998378","1","1","1","1","1","1","1","1","1"
"260038","img/object_images/cards01.jpg","img/object_images/satellite01.jpg","img/object_images/dress03.jpg","1","1","1","0","0","1","0.492775899998378","0.597891499986872","0.481694199959747","1","1","1","1","1","1","1","1","1"
"260038","img/object_images/dress03.jpg","img/object_images/cards01.jpg","img/object_images/lemon_squeezer02.jpg","1","1","1","1","0","1","0.481694199959747","0.492775899998378","0.543623099976685","1","1","1","1","1","1","1","1","1"
"260038","img/object_images/lemon_squeezer02.jpg","img/object_images/dress03.jpg","img/object_images/slinky_toy01.jpg","1","1","1","1","1","1","0.543623099976685","0.481694199959747","0.53904629999306","1","1","1","1","1","1","1","1","1"
"260038","img/object_images/slinky_toy01.jpg","img/object_images/lemon_squeezer02.jpg","img/object_images/chair04.jpg","1","1","1","1","1","1","0.53904629999306","0.543623099976685","0.497917799977586","1","1","1","1","1","1","1","1","1"
"260038","img/object_images/chair04.jpg","img/object_images/slinky_toy01.jpg",NA,"1","1",NA,"1","1",NA,"0.497917799977586","0.53904629999306",NA,"1","1",NA,"1","1",NA,"1","1",NA
"260038","img/object_images/lantern01.jpg",NA,"img/object_images/Wisk01.jpg","1",NA,"1","1",NA,"1","0.438754900009371",NA,"0.50947480002651","1",NA,"1","1",NA,"1","1",NA,"1"
"260038","img/object_images/Wisk01.jpg","img/object_images/lantern01.jpg","img/object_images/drone02.jpg","1","1","1","1","1","0","0.50947480002651","0.438754900009371","0.51236950000748","1","1","1","1","1","1","1","1","1"
"260038","img/object_images/drone02.jpg","img/object_images/Wisk01.jpg","img/object_images/pitcher03.jpg","1","1","1","0","1","1","0.51236950000748","0.50947480002651","0.462313500000164","1","1","1","1","1","1","1","1","1"
"260038","img/object_images/pitcher03.jpg","img/object_images/drone02.jpg","img/object_images/broom01.jpg","1","1","1","1","0","1","0.462313500000164","0.51236950000748","0.477564100001473","1","1","1","1","1","1","1","1","1"
"260038","img/object_images/broom01.jpg","img/object_images/pitcher03.jpg","img/object_images/gloves05.jpg","1","1","1","1","1","1","0.477564100001473","0.462313500000164","0.400960700004362","1","1","1","1","1","1","1","1","1"
"260038","img/object_images/gloves05.jpg","img/object_images/broom01.jpg","img/object_images/container01.jpg","1","1","1","1","1","0","0.400960700004362","0.477564100001473","0.506380700040609","1","1","1","1","1","1","1","1","1"
"260038","img/object_images/container01.jpg","img/object_images/gloves05.jpg","img/object_images/brief_case01.jpg","1","1","1","0","1","0","0.506380700040609","0.400960700004362","0.557801099959761","1","1","1","1","1","1","1","1","1"
"260038","img/object_images/brief_case01.jpg","img/object_images/container01.jpg","img/object_images/Woopie01.jpg","1","1","1","0","0","1","0.557801099959761","0.506380700040609","0.437418700021226","1","1","1","1","1","1","1","1","1"
"260038","img/object_images/Woopie01.jpg","img/object_images/brief_case01.jpg","img/object_images/toy_train02.jpg","1","1","1","1","0","1","0.437418700021226","0.557801099959761","0.471326300001238","1","1","1","1","1","1","1","1","1"
"260038","img/object_images/toy_train02.jpg","img/object_images/Woopie01.jpg","img/object_images/car02.jpg","1","1","1","1","1","0","0.471326300001238","0.437418700021226","0.555024100001901","1","1","1","1","1","1","1","1","1"
"260038","img/object_images/car02.jpg","img/object_images/toy_train02.jpg","img/object_images/brief_case02.jpg","1","1","1","0","1","1","0.555024100001901","0.471326300001238","0.477974400040694","1","1","1","1","1","1","1","1","1"
"260038","img/object_images/brief_case02.jpg","img/object_images/car02.jpg","img/object_images/lamp01.jpg","1","1","1","1","0","1","0.477974400040694","0.555024100001901","0.462417499977164","1","1","1","1","1","1","1","1","1"
"260038","img/object_images/lamp01.jpg","img/object_images/brief_case02.jpg","img/object_images/guitar01.jpg","1","1","1","1","1","1","0.462417499977164","0.477974400040694","0.574866799986921","1","1","1","1","1","1","1","1","1"
"260038","img/object_images/guitar01.jpg","img/object_images/lamp01.jpg","img/object_images/soap01.jpg","1","1","1","1","1","0","0.574866799986921","0.462417499977164","0.395667300035711","1","1","1","1","1","1","1","1","1"
"260038","img/object_images/soap01.jpg","img/object_images/guitar01.jpg","img/object_images/decorative02.jpg","1","1","1","0","1","0","0.395667300035711","0.574866799986921","0.501457999984268","1","1","1","1","1","1","1","1","1"
"260038","img/object_images/decorative02.jpg","img/object_images/soap01.jpg","img/object_images/Recycling01.jpg","1","1","1","0","0","1","0.501457999984268","0.395667300035711","0.380535200005397","1","1","1","1","1","1","1","1","1"
"260038","img/object_images/Recycling01.jpg","img/object_images/decorative02.jpg","img/object_images/chair01.jpg","1","1","1","1","0","0","0.380535200005397","0.501457999984268","0.606073300004937","1","1","1","1","1","1","1","1","1"
"260038","img/object_images/chair01.jpg","img/object_images/Recycling01.jpg","img/object_images/pot01.jpg","1","1","1","0","1","0","0.606073300004937","0.380535200005397","0.529013100021984","1","1","1","1","1","1","1","1","1"
"260038","img/object_images/pot01.jpg","img/object_images/chair01.jpg","img/object_images/couch04.jpg","1","1","1","0","0","1","0.529013100021984","0.606073300004937","0.429148799972609","1","1","1","1","1","1","1","1","1"
"260038","img/object_images/couch04.jpg","img/object_images/pot01.jpg","img/object_images/ironing_table02.jpg","1","1","1","1","0","0","0.429148799972609","0.529013100021984","0.452390599995852","1","1","1","1","1","1","1","1","1"
"260038","img/object_images/ironing_table02.jpg","img/object_images/couch04.jpg","img/object_images/bottle12.jpg","1","1","1","0","1","1","0.452390599995852","0.429148799972609","0.449632900010329","1","1","1","1","1","1","1","1","1"
"260038","img/object_images/bottle12.jpg","img/object_images/ironing_table02.jpg","img/object_images/hat02.jpg","1","1","1","1","0","0","0.449632900010329","0.452390599995852","0.39591650001239","1","1","1","1","1","1","1","1","1"
"260038","img/object_images/hat02.jpg","img/object_images/bottle12.jpg","img/object_images/cochlear_implant01.jpg","1","1","1","0","1","0","0.39591650001239","0.449632900010329","0.409146799996961","1","1","1","1","1","1","1","1","1"
"260038","img/object_images/cochlear_implant01.jpg","img/object_images/hat02.jpg","img/object_images/video_game06.jpg","1","1","1","0","0","0","0.409146799996961","0.39591650001239","0.375710499996785","1","1","1","1","1","1","1","1","1"
"260038","img/object_images/video_game06.jpg","img/object_images/cochlear_implant01.jpg","img/object_images/ball01.jpg","1","1","1","0","0","1","0.375710499996785","0.409146799996961","0.422271199990064","1","1","1","1","1","1","1","1","1"
"260038","img/object_images/ball01.jpg","img/object_images/video_game06.jpg","img/object_images/airfryer01.jpg","1","1","0","1","0","0","0.422271199990064","0.375710499996785","0.43085320002865","1","1","1","1","1","1","1","1","1"
"260038","img/object_images/airfryer01.jpg","img/object_images/ball01.jpg","img/object_images/razor03.jpg","0","1","1","0","1","0","0.43085320002865","0.422271199990064","0.5060260000173","1","1","1","1","1","1","1","1","1"
"260038","img/object_images/razor03.jpg","img/object_images/airfryer01.jpg","img/object_images/helmet05.jpg","1","0","1","0","0","1","0.5060260000173","0.43085320002865","0.445596000005025","1","1","1","1","1","1","1","1","1"
"260038","img/object_images/helmet05.jpg","img/object_images/razor03.jpg","img/object_images/basketball_hoop02.jpg","1","1","1","1","0","0","0.445596000005025","0.5060260000173","0.532860999985132","1","1","1","1","1","1","1","1","1"
"260038","img/object_images/basketball_hoop02.jpg","img/object_images/helmet05.jpg","img/object_images/tie01.jpg","1","1","1","0","1","0","0.532860999985132","0.445596000005025","0.458093499997631","1","1","1","1","1","1","1","1","1"
"260038","img/object_images/tie01.jpg","img/object_images/basketball_hoop02.jpg","img/object_images/toilet_paper01.jpg","1","1","1","0","0","1","0.458093499997631","0.532860999985132","0.451679799996782","1","1","1","1","1","1","1","1","1"
"260038","img/object_images/toilet_paper01.jpg","img/object_images/tie01.jpg",NA,"1","1",NA,"1","0",NA,"0.451679799996782","0.458093499997631",NA,"1","1",NA,"1","1",NA,"1","1",NA
"260038","img/object_images/knit01.jpg",NA,"img/object_images/hat06.jpg","0",NA,"1","0",NA,"0",NA,NA,"0.530035000003409","0",NA,"1","0",NA,"1","0",NA,"1"
"260038","img/object_images/hat06.jpg","img/object_images/knit01.jpg","img/object_images/tie02.jpg","1","0","1","0","0","0","0.530035000003409",NA,"0.49428149999585","1","0","1","1","0","1","1","0","1"
"260038","img/object_images/tie02.jpg","img/object_images/hat06.jpg","img/object_images/pen05.jpg","1","1","0","0","0","0","0.49428149999585","0.530035000003409",NA,"1","1","0","1","1","0","1","1","0"
"260038","img/object_images/pen05.jpg","img/object_images/tie02.jpg","img/object_images/chair03.jpg","0","1","1","0","0","0",NA,"0.49428149999585","0.467910600011237","0","1","1","0","1","1","0","1","1"
"260038","img/object_images/chair03.jpg","img/object_images/pen05.jpg","img/object_images/shoes07.jpg","1","0","1","0","0","0","0.467910600011237",NA,"0.412393399979919","1","0","1","1","0","1","1","0","1"
"260038","img/object_images/shoes07.jpg","img/object_images/chair03.jpg","img/object_images/bottle02.jpg","1","1","1","0","0","1","0.412393399979919","0.467910600011237","0.401607599982526","1","1","1","1","1","1","1","1","1"
"260038","img/object_images/bottle02.jpg","img/object_images/shoes07.jpg","img/object_images/tool19.jpg","1","1","1","1","0","1","0.401607599982526","0.412393399979919","0.449681699974462","1","1","1","1","1","1","1","1","1"
"260038","img/object_images/tool19.jpg","img/object_images/bottle02.jpg","img/object_images/fan02.jpg","1","1","1","1","1","0","0.449681699974462","0.401607599982526","0.389148299989756","1","1","1","1","1","1","1","1","1"
"260038","img/object_images/fan02.jpg","img/object_images/tool19.jpg","img/object_images/dog_leash01.jpg","1","1","1","0","1","0","0.389148299989756","0.449681699974462","0.489137299999129","1","1","1","1","1","1","1","1","1"
"260038","img/object_images/dog_leash01.jpg","img/object_images/fan02.jpg","img/object_images/toaster01.jpg","1","1","1","0","0","1","0.489137299999129","0.389148299989756","0.469604400044773","1","1","1","1","1","1","1","1","1"
"260038","img/object_images/toaster01.jpg","img/object_images/dog_leash01.jpg","img/object_images/cellphone03.jpg","1","1","1","1","0","0","0.469604400044773","0.489137299999129","0.525109199981671","1","1","1","1","1","1","1","1","1"
"260038","img/object_images/cellphone03.jpg","img/object_images/toaster01.jpg","img/object_images/scoreboard01.jpg","1","1","1","0","1","1","0.525109199981671","0.469604400044773","0.440127199981362","1","1","1","1","1","1","1","1","1"
"260038","img/object_images/scoreboard01.jpg","img/object_images/cellphone03.jpg","img/object_images/flask01.jpg","1","1","1","1","0","0","0.440127199981362","0.525109199981671","0.496444299991708","1","1","1","1","1","1","1","1","1"
"260038","img/object_images/flask01.jpg","img/object_images/scoreboard01.jpg","img/object_images/helmet04.jpg","1","1","1","0","1","1","0.496444299991708","0.440127199981362","0.465453299984802","1","1","1","1","1","1","1","1","1"
"260038","img/object_images/helmet04.jpg","img/object_images/flask01.jpg","img/object_images/water_scooter01.jpg","1","1","1","1","0","1","0.465453299984802","0.496444299991708","0.563974799995776","1","1","1","1","1","1","1","1","1"
"260038","img/object_images/water_scooter01.jpg","img/object_images/helmet04.jpg","img/object_images/coloring_pencil02.jpg","1","1","1","1","1","0","0.563974799995776","0.465453299984802","0.440303399984259","1","1","1","1","1","1","1","1","1"
"260038","img/object_images/coloring_pencil02.jpg","img/object_images/water_scooter01.jpg","img/object_images/bottle09.jpg","1","1","1","0","1","0","0.440303399984259","0.563974799995776","0.514063699985854","1","1","1","1","1","1","1","1","1"
"260038","img/object_images/bottle09.jpg","img/object_images/coloring_pencil02.jpg","img/object_images/bottle10.jpg","1","1","1","0","0","1","0.514063699985854","0.440303399984259","0.626820600009523","1","1","1","1","1","1","1","1","1"
"260038","img/object_images/bottle10.jpg","img/object_images/bottle09.jpg","img/object_images/boat_toy10.jpg","1","1","1","1","0","0","0.626820600009523","0.514063699985854","0.55502000002889","1","1","1","1","1","1","1","1","1"
"260038","img/object_images/boat_toy10.jpg","img/object_images/bottle10.jpg","img/object_images/perfume02.jpg","1","1","1","0","1","0","0.55502000002889","0.626820600009523","0.40356869995594","1","1","1","1","1","1","1","1","1"
"260038","img/object_images/perfume02.jpg","img/object_images/boat_toy10.jpg","img/object_images/WoodBox01.jpg","1","1","1","0","0","0","0.40356869995594","0.55502000002889","0.507848099980038","1","1","1","1","1","1","1","1","1"
"260038","img/object_images/WoodBox01.jpg","img/object_images/perfume02.jpg","img/object_images/audio_port01.jpg","1","1","1","0","0","1","0.507848099980038","0.40356869995594","0.447499700007029","1","1","1","1","1","1","1","1","1"
"260038","img/object_images/audio_port01.jpg","img/object_images/WoodBox01.jpg","img/object_images/bicycle01.jpg","1","1","1","1","0","1","0.447499700007029","0.507848099980038","0.440302400034852","1","1","1","1","1","1","1","1","1"
"260038","img/object_images/bicycle01.jpg","img/object_images/audio_port01.jpg","img/object_images/boat02.jpg","1","1","1","1","1","1","0.440302400034852","0.447499700007029","0.364002599962987","1","1","1","1","1","1","1","1","1"
"260038","img/object_images/boat02.jpg","img/object_images/bicycle01.jpg","img/object_images/purse04.jpg","1","1","1","1","1","1","0.364002599962987","0.440302400034852","0.399506599991582","1","1","1","1","1","1","1","1","1"
"260038","img/object_images/purse04.jpg","img/object_images/boat02.jpg","img/object_images/bean_bag02.jpg","1","1","1","1","1","1","0.399506599991582","0.364002599962987","0.434109200024977","1","1","1","1","1","1","1","1","1"
"260038","img/object_images/bean_bag02.jpg","img/object_images/purse04.jpg","img/object_images/wagon_cart03.jpg","1","1","1","1","1","1","0.434109200024977","0.399506599991582","0.508268999983557","1","1","1","1","1","1","1","1","1"
"260038","img/object_images/wagon_cart03.jpg","img/object_images/bean_bag02.jpg","img/object_images/toilet_paper_dispenser01.jpg","1","1","1","1","1","1","0.508268999983557","0.434109200024977","0.464551399985794","1","1","1","1","1","1","1","1","1"
"260038","img/object_images/toilet_paper_dispenser01.jpg","img/object_images/wagon_cart03.jpg","img/object_images/camera_lens01.jpg","1","1","1","1","1","1","0.464551399985794","0.508268999983557","0.397023699944839","1","1","1","1","1","1","1","1","1"
"260038","img/object_images/camera_lens01.jpg","img/object_images/toilet_paper_dispenser01.jpg","img/object_images/hot_air_balloon02.jpg","1","1","1","1","1","0","0.397023699944839","0.464551399985794","0.462726700003259","1","1","1","1","1","1","1","1","1"
"260038","img/object_images/hot_air_balloon02.jpg","img/object_images/camera_lens01.jpg","img/object_images/piggy_bank01.jpg","1","1","1","0","1","1","0.462726700003259","0.397023699944839","0.405639000004157","1","1","1","1","1","1","1","1","1"
"260038","img/object_images/piggy_bank01.jpg","img/object_images/hot_air_balloon02.jpg",NA,"1","1",NA,"1","0",NA,"0.405639000004157","0.462726700003259",NA,"1","1",NA,"1","1",NA,"1","1",NA
"260038","img/object_images/calculator01.jpg",NA,"img/object_images/umbrella01.jpg","1",NA,"1","1",NA,"0","0.477910499961581",NA,"0.547723900002893","1",NA,"1","1",NA,"1","1",NA,"1"
"260038","img/object_images/umbrella01.jpg","img/object_images/calculator01.jpg","img/object_images/backpack03.jpg","1","1","1","0","1","1","0.547723900002893","0.477910499961581","0.65944469999522","1","1","1","1","1","1","1","1","1"
"260038","img/object_images/backpack03.jpg","img/object_images/umbrella01.jpg","img/object_images/Vest02.jpg","1","1","1","1","0","0","0.65944469999522","0.547723900002893","0.486175899975933","1","1","1","1","1","1","1","1","1"
"260038","img/object_images/Vest02.jpg","img/object_images/backpack03.jpg","img/object_images/surf_board01.jpg","1","1","1","0","1","1","0.486175899975933","0.65944469999522","0.44243130000541","1","1","1","1","1","1","1","1","1"
"260038","img/object_images/surf_board01.jpg","img/object_images/Vest02.jpg","img/object_images/bucket02.jpg","1","1","1","1","0","1","0.44243130000541","0.486175899975933","0.445674000016879","1","1","1","1","1","1","1","1","1"
"260038","img/object_images/bucket02.jpg","img/object_images/surf_board01.jpg","img/object_images/ball02.jpg","1","1","1","1","1","1","0.445674000016879","0.44243130000541","0.421849800040945","1","1","1","1","1","1","1","1","1"
"260038","img/object_images/ball02.jpg","img/object_images/bucket02.jpg","img/object_images/chair02.jpg","1","1","1","1","1","1","0.421849800040945","0.445674000016879","0.474114499986172","1","1","1","1","1","1","1","1","1"
"260038","img/object_images/chair02.jpg","img/object_images/ball02.jpg","img/object_images/trash_can05.jpg","1","1","1","1","1","1","0.474114499986172","0.421849800040945","0.414707300020382","1","1","1","1","1","1","1","1","1"
"260038","img/object_images/trash_can05.jpg","img/object_images/chair02.jpg","img/object_images/towels01.jpg","1","1","1","1","1","0","0.414707300020382","0.474114499986172","0.515857699967455","1","1","1","1","1","1","1","1","1"
"260038","img/object_images/towels01.jpg","img/object_images/trash_can05.jpg","img/object_images/laptop01.jpg","1","1","1","0","1","0","0.515857699967455","0.414707300020382","0.623786000011023","1","1","1","1","1","1","1","1","1"
"260038","img/object_images/laptop01.jpg","img/object_images/towels01.jpg","img/object_images/spatula02.jpg","1","1","1","0","0","1","0.623786000011023","0.515857699967455","0.636568300018553","1","1","1","1","1","1","1","1","1"
"260038","img/object_images/spatula02.jpg","img/object_images/laptop01.jpg","img/object_images/vase01.jpg","1","1","1","1","0","0","0.636568300018553","0.623786000011023","0.467842299956828","1","1","1","1","1","1","1","1","1"
"260038","img/object_images/vase01.jpg","img/object_images/spatula02.jpg","img/object_images/microphone03.jpg","1","1","1","0","1","1","0.467842299956828","0.636568300018553","0.415439900010824","1","1","1","1","1","1","1","1","1"
"260038","img/object_images/microphone03.jpg","img/object_images/vase01.jpg","img/object_images/robe01.jpg","1","1","1","1","0","1","0.415439900010824","0.467842299956828","0.36737459996948","1","1","1","1","1","1","1","1","1"
"260038","img/object_images/robe01.jpg","img/object_images/microphone03.jpg","img/object_images/hair_dryer01.jpg","1","1","1","1","1","0","0.36737459996948","0.415439900010824","0.410771399969235","1","1","1","1","1","1","1","1","1"
"260038","img/object_images/hair_dryer01.jpg","img/object_images/robe01.jpg","img/object_images/gift_box05.jpg","1","1","1","0","1","0","0.410771399969235","0.36737459996948","0.387401800020598","1","1","1","1","1","1","1","1","1"
"260038","img/object_images/gift_box05.jpg","img/object_images/hair_dryer01.jpg","img/object_images/fan04.jpg","1","1","1","0","0","0","0.387401800020598","0.410771399969235","0.49613970000064","1","1","1","1","1","1","1","1","1"
"260038","img/object_images/fan04.jpg","img/object_images/gift_box05.jpg","img/object_images/pitcher05.jpg","1","1","1","0","0","0","0.49613970000064","0.387401800020598","0.437411900027655","1","1","1","1","1","1","1","1","1"
"260038","img/object_images/pitcher05.jpg","img/object_images/fan04.jpg","img/object_images/combs01.jpg","1","1","1","0","0","1","0.437411900027655","0.49613970000064","0.448227100016084","1","1","1","1","1","1","1","1","1"
"260038","img/object_images/combs01.jpg","img/object_images/pitcher05.jpg","img/object_images/jewel03.jpg","1","1","1","1","0","1","0.448227100016084","0.437411900027655","0.452053499990143","1","1","1","1","1","1","1","1","1"
"260038","img/object_images/jewel03.jpg","img/object_images/combs01.jpg","img/object_images/stove01.jpg","1","1","1","1","1","0","0.452053499990143","0.448227100016084","0.472771200002171","1","1","1","1","1","1","1","1","1"
"260038","img/object_images/stove01.jpg","img/object_images/jewel03.jpg","img/object_images/hair_brush02.jpg","1","1","1","0","1","0","0.472771200002171","0.452053499990143","0.401601299992763","1","1","1","1","1","1","1","1","1"
"260038","img/object_images/hair_brush02.jpg","img/object_images/stove01.jpg","img/object_images/accardion01.jpg","1","1","1","0","0","1","0.401601299992763","0.472771200002171","0.396895500016399","1","1","1","1","1","1","1","1","1"
"260038","img/object_images/accardion01.jpg","img/object_images/hair_brush02.jpg","img/object_images/shoes08.jpg","1","1","1","1","0","1","0.396895500016399","0.401601299992763","0.366586500022095","1","1","1","1","1","1","1","1","1"
"260038","img/object_images/shoes08.jpg","img/object_images/accardion01.jpg","img/object_images/chess_piece01.jpg","1","1","1","1","1","0","0.366586500022095","0.396895500016399","0.475956399983261","1","1","1","1","1","1","1","1","1"
"260038","img/object_images/chess_piece01.jpg","img/object_images/shoes08.jpg","img/object_images/lock01.jpg","1","1","1","0","1","0","0.475956399983261","0.366586500022095","0.339713099994697","1","1","1","1","1","1","1","1","1"
"260038","img/object_images/lock01.jpg","img/object_images/chess_piece01.jpg","img/object_images/Lint_Roller02.jpg","1","1","1","0","0","0","0.339713099994697","0.475956399983261","0.412268200016115","1","1","1","1","1","1","1","1","1"
"260038","img/object_images/Lint_Roller02.jpg","img/object_images/lock01.jpg","img/object_images/laptop03.jpg","1","1","1","0","0","1","0.412268200016115","0.339713099994697","0.41942360001849","1","1","1","1","1","1","1","1","1"
"260038","img/object_images/laptop03.jpg","img/object_images/Lint_Roller02.jpg","img/object_images/toy05.jpg","1","1","1","1","0","0","0.41942360001849","0.412268200016115","0.457463900034782","1","1","1","1","1","1","1","1","1"
"260038","img/object_images/toy05.jpg","img/object_images/laptop03.jpg","img/object_images/trash_can03.jpg","1","1","1","0","1","1","0.457463900034782","0.41942360001849","0.440353800018784","1","1","1","1","1","1","1","1","1"
"260038","img/object_images/trash_can03.jpg","img/object_images/toy05.jpg","img/object_images/helmet02.jpg","1","1","1","1","0","0","0.440353800018784","0.457463900034782","0.53018310002517","1","1","1","1","1","1","1","1","1"
"260038","img/object_images/helmet02.jpg","img/object_images/trash_can03.jpg",NA,"1","1",NA,"0","1",NA,"0.53018310002517","0.440353800018784",NA,"1","1",NA,"1","1",NA,"1","1",NA
"260038","img/object_images/tool09.jpg",NA,"img/object_images/Vacuum01.jpg","1",NA,"1","1",NA,"0","0.455441500002053",NA,"0.45956990000559","1",NA,"1","1",NA,"1","1",NA,"1"
"260038","img/object_images/Vacuum01.jpg","img/object_images/tool09.jpg","img/object_images/Ring02.jpg","1","1","1","0","1","0","0.45956990000559","0.455441500002053","0.462567600014154","1","1","1","1","1","1","1","1","1"
"260038","img/object_images/Ring02.jpg","img/object_images/Vacuum01.jpg","img/object_images/Tin01.jpg","1","1","1","0","0","1","0.462567600014154","0.45956990000559","0.340912899991963","1","1","1","1","1","1","1","1","1"
"260038","img/object_images/Tin01.jpg","img/object_images/Ring02.jpg","img/object_images/helmet01.jpg","1","1","1","1","0","0","0.340912899991963","0.462567600014154","0.515232700039633","1","1","1","1","1","1","1","1","1"
"260038","img/object_images/helmet01.jpg","img/object_images/Tin01.jpg","img/object_images/shovel03.jpg","1","1","1","0","1","1","0.515232700039633","0.340912899991963","0.54577149997931","1","1","1","1","1","1","1","1","1"
"260038","img/object_images/shovel03.jpg","img/object_images/helmet01.jpg","img/object_images/gauze01.jpg","1","1","1","1","0","0","0.54577149997931","0.515232700039633","0.437866499996744","1","1","1","1","1","1","1","1","1"
"260038","img/object_images/gauze01.jpg","img/object_images/shovel03.jpg","img/object_images/toy04.jpg","1","1","1","0","1","0","0.437866499996744","0.54577149997931","0.549247599963564","1","1","1","1","1","1","1","1","1"
"260038","img/object_images/toy04.jpg","img/object_images/gauze01.jpg","img/object_images/toy03.jpg","1","1","1","0","0","1","0.549247599963564","0.437866499996744","0.411920400045346","1","1","1","1","1","1","1","1","1"
"260038","img/object_images/toy03.jpg","img/object_images/toy04.jpg","img/object_images/towel02.jpg","1","1","1","1","0","1","0.411920400045346","0.549247599963564","0.49597889999859","1","1","1","1","1","1","1","1","1"
"260038","img/object_images/towel02.jpg","img/object_images/toy03.jpg","img/object_images/outlet01.jpg","1","1","1","1","1","0","0.49597889999859","0.411920400045346","0.46711669996148","1","1","1","1","1","1","1","1","1"
"260038","img/object_images/outlet01.jpg","img/object_images/towel02.jpg","img/object_images/bow01.jpg","1","1","1","0","1","1","0.46711669996148","0.49597889999859","0.415233600011561","1","1","1","1","1","1","1","1","1"
"260038","img/object_images/bow01.jpg","img/object_images/outlet01.jpg","img/object_images/jewel04.jpg","1","1","1","1","0","0","0.415233600011561","0.46711669996148","0.386090399988461","1","1","1","1","1","1","1","1","1"
"260038","img/object_images/jewel04.jpg","img/object_images/bow01.jpg","img/object_images/fridge03.jpg","1","1","1","0","1","0","0.386090399988461","0.415233600011561","0.443218400003389","1","1","1","1","1","1","1","1","1"
"260038","img/object_images/fridge03.jpg","img/object_images/jewel04.jpg","img/object_images/guitar02.jpg","1","1","1","0","0","0","0.443218400003389","0.386090399988461","0.41483690001769","1","1","1","1","1","1","1","1","1"
"260038","img/object_images/guitar02.jpg","img/object_images/fridge03.jpg","img/object_images/frisbee01.jpg","1","1","1","0","0","1","0.41483690001769","0.443218400003389","0.47841449995758","1","1","1","1","1","1","1","1","1"
"260038","img/object_images/frisbee01.jpg","img/object_images/guitar02.jpg","img/object_images/mirror01.jpg","1","1","1","1","0","1","0.47841449995758","0.41483690001769","0.450027699989732","1","1","1","1","1","1","1","1","1"
"260038","img/object_images/mirror01.jpg","img/object_images/frisbee01.jpg","img/object_images/dart01.jpg","1","1","1","1","1","0","0.450027699989732","0.47841449995758","0.465866299986374","1","1","1","1","1","1","1","1","1"
"260038","img/object_images/dart01.jpg","img/object_images/mirror01.jpg","img/object_images/judge_gavel01.jpg","1","1","1","0","1","1","0.465866299986374","0.450027699989732","0.461710400006268","1","1","1","1","1","1","1","1","1"
"260038","img/object_images/judge_gavel01.jpg","img/object_images/dart01.jpg","img/object_images/crown02.jpg","1","1","1","1","0","1","0.461710400006268","0.465866299986374","0.428393099980894","1","1","1","1","1","1","1","1","1"
"260038","img/object_images/crown02.jpg","img/object_images/judge_gavel01.jpg","img/object_images/Stool01.jpg","1","1","1","1","1","0","0.428393099980894","0.461710400006268","0.502352999988943","1","1","1","1","1","1","1","1","1"
"260038","img/object_images/Stool01.jpg","img/object_images/crown02.jpg","img/object_images/video_game07.jpg","1","1","1","0","1","1","0.502352999988943","0.428393099980894","0.492140799993649","1","1","1","1","1","1","1","1","1"
"260038","img/object_images/video_game07.jpg","img/object_images/Stool01.jpg","img/object_images/MetalWire01.jpg","1","1","1","1","0","0","0.492140799993649","0.502352999988943","0.427559199975803","1","1","1","1","1","1","1","1","1"
"260038","img/object_images/MetalWire01.jpg","img/object_images/video_game07.jpg","img/object_images/acoustic_capo01.jpg","1","1","1","0","1","1","0.427559199975803","0.492140799993649","0.434260600013658","1","1","1","1","1","1","1","1","1"
"260038","img/object_images/acoustic_capo01.jpg","img/object_images/MetalWire01.jpg","img/object_images/ornament01.jpg","1","1","1","1","0","1","0.434260600013658","0.427559199975803","0.395690899982583","1","1","1","1","1","1","1","1","1"
"260038","img/object_images/ornament01.jpg","img/object_images/acoustic_capo01.jpg","img/object_images/bird_house02.jpg","1","1","1","1","1","1","0.395690899982583","0.434260600013658","0.438615999999456","1","1","1","1","1","1","1","1","1"
"260038","img/object_images/bird_house02.jpg","img/object_images/ornament01.jpg","img/object_images/stapler.jpg","1","1","1","1","1","1","0.438615999999456","0.395690899982583","0.435434499988332","1","1","1","1","1","1","1","1","1"
"260038","img/object_images/stapler.jpg","img/object_images/bird_house02.jpg","img/object_images/watch01.jpg","1","1","0","1","1","0","0.435434499988332","0.438615999999456","0.461290800012648","1","1","1","1","1","1","1","1","1"
"260038","img/object_images/watch01.jpg","img/object_images/stapler.jpg","img/object_images/sink01.jpg","0","1","1","0","1","0","0.461290800012648","0.435434499988332","0.406470299989451","1","1","1","1","1","1","1","1","1"
"260038","img/object_images/sink01.jpg","img/object_images/watch01.jpg","img/object_images/bottle05.jpg","1","0","1","0","0","0","0.406470299989451","0.461290800012648","0.49111579998862","1","1","1","1","1","1","1","1","1"
"260038","img/object_images/bottle05.jpg","img/object_images/sink01.jpg","img/object_images/pot01 (1).jpg","1","1","1","0","0","0","0.49111579998862","0.406470299989451","0.486165099951904","1","1","1","1","1","1","1","1","1"
"260038","img/object_images/pot01 (1).jpg","img/object_images/bottle05.jpg","img/object_images/tool02.jpg","1","1","1","0","0","1","0.486165099951904","0.49111579998862","0.473103199969046","1","1","1","1","1","1","1","1","1"
"260038","img/object_images/tool02.jpg","img/object_images/pot01 (1).jpg",NA,"1","1",NA,"1","0",NA,"0.473103199969046","0.486165099951904",NA,"1","1",NA,"1","1",NA,"1","1",NA
"260038","img/object_images/balloon01.jpg",NA,"img/object_images/pitcher02.jpg","1",NA,"1","0",NA,"1","0.780976700014435",NA,"0.444441900006495","1",NA,"1","1",NA,"1","1",NA,"1"
"260038","img/object_images/pitcher02.jpg","img/object_images/balloon01.jpg","img/object_images/lawn_mower01.jpg","1","1","1","1","0","1","0.444441900006495","0.780976700014435","0.410328999976628","1","1","1","1","1","1","1","1","1"
"260038","img/object_images/lawn_mower01.jpg","img/object_images/pitcher02.jpg","img/object_images/funnel01.jpg","1","1","1","1","1","0","0.410328999976628","0.444441900006495","0.4996100999997","1","1","1","1","1","1","1","1","1"
"260038","img/object_images/funnel01.jpg","img/object_images/lawn_mower01.jpg","img/object_images/ironing_table01.jpg","1","1","1","0","1","0","0.4996100999997","0.410328999976628","0.41990540002007","1","1","1","1","1","1","1","1","1"
"260038","img/object_images/ironing_table01.jpg","img/object_images/funnel01.jpg","img/object_images/socks02.jpg","1","1","1","0","0","0","0.41990540002007","0.4996100999997","0.418745299975853","1","1","1","1","1","1","1","1","1"
"260038","img/object_images/socks02.jpg","img/object_images/ironing_table01.jpg","img/object_images/grater01.jpg","1","1","1","0","0","1","0.418745299975853","0.41990540002007","0.622264200006612","1","1","1","1","1","1","1","1","1"
"260038","img/object_images/grater01.jpg","img/object_images/socks02.jpg","img/object_images/jewelry01.jpg","1","1","1","1","0","1","0.622264200006612","0.418745299975853","0.542445100028999","1","1","1","1","1","1","1","1","1"
"260038","img/object_images/jewelry01.jpg","img/object_images/grater01.jpg","img/object_images/bow_tie01.jpg","1","1","1","1","1","0","0.542445100028999","0.622264200006612","0.467107900010888","1","1","1","1","1","1","1","1","1"
"260038","img/object_images/bow_tie01.jpg","img/object_images/jewelry01.jpg","img/object_images/measuring_tape02.jpg","1","1","1","0","1","1","0.467107900010888","0.542445100028999","0.537552499969024","1","1","1","1","1","1","1","1","1"
"260038","img/object_images/measuring_tape02.jpg","img/object_images/bow_tie01.jpg","img/object_images/dresser04.jpg","1","1","1","1","0","0","0.537552499969024","0.467107900010888","0.47874099999899","1","1","1","1","1","1","1","1","1"
"260038","img/object_images/dresser04.jpg","img/object_images/measuring_tape02.jpg","img/object_images/coloring_pencil01.jpg","1","1","1","0","1","1","0.47874099999899","0.537552499969024","0.418053300003521","1","1","1","1","1","1","1","1","1"
"260038","img/object_images/coloring_pencil01.jpg","img/object_images/dresser04.jpg","img/object_images/bow_tie02.jpg","1","1","1","1","0","0","0.418053300003521","0.47874099999899","0.493550599960145","1","1","1","1","1","1","1","1","1"
"260038","img/object_images/bow_tie02.jpg","img/object_images/coloring_pencil01.jpg","img/object_images/couch03.jpg","1","1","1","0","1","0","0.493550599960145","0.418053300003521","0.595174700021744","1","1","1","1","1","1","1","1","1"
"260038","img/object_images/couch03.jpg","img/object_images/bow_tie02.jpg","img/object_images/hammer01.jpg","1","1","1","0","0","0","0.595174700021744","0.493550599960145","0.460966299986467","1","1","1","1","1","1","1","1","1"
"260038","img/object_images/hammer01.jpg","img/object_images/couch03.jpg","img/object_images/wallet02.jpg","1","1","1","0","0","1","0.460966299986467","0.595174700021744","0.400022200017702","1","1","1","1","1","1","1","1","1"
"260038","img/object_images/wallet02.jpg","img/object_images/hammer01.jpg","img/object_images/vga_port 01.jpg","1","1","1","1","0","0","0.400022200017702","0.460966299986467","0.50807400001213","1","1","1","1","1","1","1","1","1"
"260038","img/object_images/vga_port 01.jpg","img/object_images/wallet02.jpg","img/object_images/sleeping_bag01.jpg","1","1","0","0","1","0","0.50807400001213","0.400022200017702","0.387837500020396","1","1","1","1","1","1","1","1","1"
"260038","img/object_images/sleeping_bag01.jpg","img/object_images/vga_port 01.jpg","img/object_images/golf_ball03.jpg","0","1","1","0","0","1","0.387837500020396","0.50807400001213","0.486563100013882","1","1","1","1","1","1","1","1","1"
"260038","img/object_images/golf_ball03.jpg","img/object_images/sleeping_bag01.jpg","img/object_images/gift_box02.jpg","1","0","1","1","0","1","0.486563100013882","0.387837500020396","0.458607200009283","1","1","1","1","1","1","1","1","1"
"260038","img/object_images/gift_box02.jpg","img/object_images/golf_ball03.jpg","img/object_images/lock04.jpg","1","1","1","1","1","1","0.458607200009283","0.486563100013882","0.451784800039604","1","1","1","1","1","1","1","1","1"
"260038","img/object_images/lock04.jpg","img/object_images/gift_box02.jpg","img/object_images/gift_box03.jpg","1","1","1","1","1","0","0.451784800039604","0.458607200009283","0.409388899977785","1","1","1","1","1","1","1","1","1"
"260038","img/object_images/gift_box03.jpg","img/object_images/lock04.jpg","img/object_images/camera07.jpg","1","1","1","0","1","1","0.409388899977785","0.451784800039604","0.373225099989213","1","1","1","1","1","1","1","1","1"
"260038","img/object_images/camera07.jpg","img/object_images/gift_box03.jpg","img/object_images/Witchhat01.jpg","1","1","1","1","0","1","0.373225099989213","0.409388899977785","0.506723900034558","1","1","1","1","1","1","1","1","1"
"260038","img/object_images/Witchhat01.jpg","img/object_images/camera07.jpg","img/object_images/bath_tub01.jpg","1","1","1","1","1","0","0.506723900034558","0.373225099989213","0.457097900041845","1","1","1","1","1","1","1","1","1"
"260038","img/object_images/bath_tub01.jpg","img/object_images/Witchhat01.jpg","img/object_images/clip02.jpg","1","1","1","0","1","1","0.457097900041845","0.506723900034558","0.374021900002845","1","1","1","1","1","1","1","1","1"
"260038","img/object_images/clip02.jpg","img/object_images/bath_tub01.jpg","img/object_images/gift_box01.jpg","1","1","1","1","0","1","0.374021900002845","0.457097900041845","0.413583000015933","1","1","1","1","1","1","1","1","1"
"260038","img/object_images/gift_box01.jpg","img/object_images/clip02.jpg","img/object_images/handkerchief01.jpg","1","1","1","1","1","0","0.413583000015933","0.374021900002845","0.438479400007054","1","1","1","1","1","1","1","1","1"
"260038","img/object_images/handkerchief01.jpg","img/object_images/gift_box01.jpg","img/object_images/paper_cup01.jpg","1","1","1","0","1","0","0.438479400007054","0.413583000015933","0.493067499948665","1","1","1","1","1","1","1","1","1"
"260038","img/object_images/paper_cup01.jpg","img/object_images/handkerchief01.jpg","img/object_images/jacket03.jpg","1","1","1","0","0","0","0.493067499948665","0.438479400007054","0.654321899986826","1","1","1","1","1","1","1","1","1"
"260038","img/object_images/jacket03.jpg","img/object_images/paper_cup01.jpg","img/object_images/fork03.jpg","1","1","1","0","0","1","0.654321899986826","0.493067499948665","0.400187499995809","1","1","1","1","1","1","1","1","1"
"260038","img/object_images/fork03.jpg","img/object_images/jacket03.jpg","img/object_images/Screws01.jpg","1","1","1","1","0","1","0.400187499995809","0.654321899986826","0.526401899987832","1","1","1","1","1","1","1","1","1"
"260038","img/object_images/Screws01.jpg","img/object_images/fork03.jpg",NA,"1","1",NA,"1","1",NA,"0.526401899987832","0.400187499995809",NA,"1","1",NA,"1","1",NA,"1","1",NA
"260038","img/object_images/compass01.jpg",NA,"img/object_images/motorcycle01.jpg","1",NA,"1","1",NA,"1","0.450286199979018",NA,"0.394023400032893","1",NA,"1","1",NA,"1","1",NA,"1"
"260038","img/object_images/motorcycle01.jpg","img/object_images/compass01.jpg","img/object_images/note_book01.jpg","1","1","1","1","1","0","0.394023400032893","0.450286199979018","0.574510200007353","1","1","1","1","1","1","1","1","1"
"260038","img/object_images/note_book01.jpg","img/object_images/motorcycle01.jpg","img/object_images/floppy_disk03.jpg","1","1","1","0","1","1","0.574510200007353","0.394023400032893","0.345337699982338","1","1","1","1","1","1","1","1","1"
"260038","img/object_images/floppy_disk03.jpg","img/object_images/note_book01.jpg","img/object_images/tv02.jpg","1","1","1","1","0","0","0.345337699982338","0.574510200007353","0.502919299993664","1","1","1","1","1","1","1","1","1"
"260038","img/object_images/tv02.jpg","img/object_images/floppy_disk03.jpg","img/object_images/retainer01.jpg","1","1","1","0","1","0","0.502919299993664","0.345337699982338","0.456650199950673","1","1","1","1","1","1","1","1","1"
"260038","img/object_images/retainer01.jpg","img/object_images/tv02.jpg","img/object_images/usb02.jpg","1","1","1","0","0","0","0.456650199950673","0.502919299993664","0.642896000004839","1","1","1","1","1","1","1","1","1"
"260038","img/object_images/usb02.jpg","img/object_images/retainer01.jpg","img/object_images/chess_piece02.jpg","1","1","1","0","0","1","0.642896000004839","0.456650199950673","0.451184799952898","1","1","1","1","1","1","1","1","1"
"260038","img/object_images/chess_piece02.jpg","img/object_images/usb02.jpg","img/object_images/lid01.jpg","1","1","1","1","0","1","0.451184799952898","0.642896000004839","0.458258600032423","1","1","1","1","1","1","1","1","1"
"260038","img/object_images/lid01.jpg","img/object_images/chess_piece02.jpg","img/object_images/Thermometer01.jpg","1","1","1","1","1","0","0.458258600032423","0.451184799952898","0.430798299959861","1","1","1","1","1","1","1","1","1"
"260038","img/object_images/Thermometer01.jpg","img/object_images/lid01.jpg","img/object_images/ear_bud01.jpg","1","1","1","0","1","1","0.430798299959861","0.458258600032423","0.372357100015506","1","1","1","1","1","1","1","1","1"
"260038","img/object_images/ear_bud01.jpg","img/object_images/Thermometer01.jpg","img/object_images/Staples01.jpg","1","1","1","1","0","1","0.372357100015506","0.430798299959861","0.43923660001019","1","1","1","1","1","1","1","1","1"
"260038","img/object_images/Staples01.jpg","img/object_images/ear_bud01.jpg","img/object_images/clip03.jpg","1","1","1","1","1","0","0.43923660001019","0.372357100015506","0.415490999992471","1","1","1","1","1","1","1","1","1"
"260038","img/object_images/clip03.jpg","img/object_images/Staples01.jpg","img/object_images/microscope01.jpg","1","1","1","0","1","0","0.415490999992471","0.43923660001019","0.492016099975444","1","1","1","1","1","1","1","1","1"
"260038","img/object_images/microscope01.jpg","img/object_images/clip03.jpg","img/object_images/hammer03.jpg","1","1","1","0","0","1","0.492016099975444","0.415490999992471","0.522255600022618","1","1","1","1","1","1","1","1","1"
"260038","img/object_images/hammer03.jpg","img/object_images/microscope01.jpg","img/object_images/wire02.jpg","1","1","1","1","0","1","0.522255600022618","0.492016099975444","0.451666700013448","1","1","1","1","1","1","1","1","1"
"260038","img/object_images/wire02.jpg","img/object_images/hammer03.jpg","img/object_images/clock02.jpg","1","1","1","1","1","0","0.451666700013448","0.522255600022618","0.491710799979046","1","1","1","1","1","1","1","1","1"
"260038","img/object_images/clock02.jpg","img/object_images/wire02.jpg","img/object_images/pitcher01.jpg","1","1","1","0","1","0","0.491710799979046","0.451666700013448","0.622845100006089","1","1","1","1","1","1","1","1","1"
"260038","img/object_images/pitcher01.jpg","img/object_images/clock02.jpg","img/object_images/cellphone01.jpg","1","1","1","0","0","1","0.622845100006089","0.491710799979046","0.576579099986702","1","1","1","1","1","1","1","1","1"
"260038","img/object_images/cellphone01.jpg","img/object_images/pitcher01.jpg","img/object_images/Oven01.jpg","1","1","1","1","0","1","0.576579099986702","0.622845100006089","0.447187100013252","1","1","1","1","1","1","1","1","1"
"260038","img/object_images/Oven01.jpg","img/object_images/cellphone01.jpg","img/object_images/pillows01.jpg","1","1","1","1","1","1","0.447187100013252","0.576579099986702","0.477210299985018","1","1","1","1","1","1","1","1","1"
"260038","img/object_images/pillows01.jpg","img/object_images/Oven01.jpg","img/object_images/bell02.jpg","1","1","1","1","1","0","0.477210299985018","0.447187100013252","0.505789700022433","1","1","1","1","1","1","1","1","1"
"260038","img/object_images/bell02.jpg","img/object_images/pillows01.jpg","img/object_images/crutches02.jpg","1","1","0","0","1","0","0.505789700022433","0.477210299985018","0.449725000013132","1","1","1","1","1","1","1","1","1"
"260038","img/object_images/crutches02.jpg","img/object_images/bell02.jpg","img/object_images/bottle01.jpg","0","1","1","0","0","0","0.449725000013132","0.505789700022433","0.492326500010677","1","1","1","1","1","1","1","1","1"
"260038","img/object_images/bottle01.jpg","img/object_images/crutches02.jpg","img/object_images/book03.jpg","1","0","1","0","0","1","0.492326500010677","0.449725000013132","0.452936200017575","1","1","1","1","1","1","1","1","1"
"260038","img/object_images/book03.jpg","img/object_images/bottle01.jpg","img/object_images/paint_brush04.jpg","1","1","1","1","0","0","0.452936200017575","0.492326500010677","0.454512899974361","1","1","1","1","1","1","1","1","1"
"260038","img/object_images/paint_brush04.jpg","img/object_images/book03.jpg","img/object_images/knit05.jpg","1","1","1","0","1","1","0.454512899974361","0.452936200017575","0.527401299972553","1","1","1","1","1","1","1","1","1"
"260038","img/object_images/knit05.jpg","img/object_images/paint_brush04.jpg","img/object_images/chair05.jpg","1","1","1","1","0","0","0.527401299972553","0.454512899974361","0.494002400024328","1","1","1","1","1","1","1","1","1"
"260038","img/object_images/chair05.jpg","img/object_images/knit05.jpg","img/object_images/tennis_racket02.jpg","1","1","1","0","1","1","0.494002400024328","0.527401299972553","0.475788299983833","1","1","1","1","1","1","1","1","1"
"260038","img/object_images/tennis_racket02.jpg","img/object_images/chair05.jpg","img/object_images/floppy_disk02.jpg","1","1","1","1","0","0","0.475788299983833","0.494002400024328","0.528433999978006","1","1","1","1","1","1","1","1","1"
"260038","img/object_images/floppy_disk02.jpg","img/object_images/tennis_racket02.jpg","img/object_images/pen03.jpg","1","1","1","0","1","0","0.528433999978006","0.475788299983833","0.432085600041319","1","1","1","1","1","1","1","1","1"
"260038","img/object_images/pen03.jpg","img/object_images/floppy_disk02.jpg","img/object_images/knife04.jpg","1","1","1","0","0","1","0.432085600041319","0.528433999978006","0.467567000014242","1","1","1","1","1","1","1","1","1"
"260038","img/object_images/knife04.jpg","img/object_images/pen03.jpg",NA,"1","1",NA,"1","0",NA,"0.467567000014242","0.432085600041319",NA,"1","1",NA,"1","1",NA,"1","1",NA
"260038","img/object_images/cup01.jpg",NA,"img/object_images/lemon_squeezer01.jpg","1",NA,"1","0",NA,"1","0.45144179998897",NA,"0.500175799999852","1",NA,"1","1",NA,"1","1",NA,"1"
"260038","img/object_images/lemon_squeezer01.jpg","img/object_images/cup01.jpg","img/object_images/glasses03.jpg","1","1","0","1","0","0","0.500175799999852","0.45144179998897",NA,"1","1","0","1","1","0","1","1","0"
"260038","img/object_images/glasses03.jpg","img/object_images/lemon_squeezer01.jpg","img/object_images/spray_can01.jpg","0","1","1","0","1","0",NA,"0.500175799999852","0.435091299994383","0","1","1","0","1","1","0","1","1"
"260038","img/object_images/spray_can01.jpg","img/object_images/glasses03.jpg","img/object_images/camera05.jpg","1","0","1","0","0","0","0.435091299994383",NA,"0.594134700018913","1","0","1","1","0","1","1","0","1"
"260038","img/object_images/camera05.jpg","img/object_images/spray_can01.jpg","img/object_images/dust_pan01.jpg","1","1","1","0","0","1","0.594134700018913","0.435091299994383","0.575228200003039","1","1","1","1","1","1","1","1","1"
"260038","img/object_images/dust_pan01.jpg","img/object_images/camera05.jpg","img/object_images/board01.jpg","1","1","0","1","0","1","0.575228200003039","0.594134700018913",NA,"1","1","0","1","1","0","1","1","0"
"260038","img/object_images/board01.jpg","img/object_images/dust_pan01.jpg","img/object_images/bag04.jpg","0","1","0","1","1","0",NA,"0.575228200003039",NA,"0","1","0","0","1","0","0","1","0"
"260038","img/object_images/bag04.jpg","img/object_images/board01.jpg","img/object_images/sink_filter01 (1).jpg","0","0","1","0","1","0",NA,NA,"0.629253999970388","0","0","1","0","0","1","0","0","1"
"260038","img/object_images/sink_filter01 (1).jpg","img/object_images/bag04.jpg","img/object_images/vase02.jpg","1","0","0","0","0","1","0.629253999970388",NA,NA,"1","0","0","1","0","0","1","0","0"
"260038","img/object_images/vase02.jpg","img/object_images/sink_filter01 (1).jpg","img/object_images/tool13.jpg","0","1","1","1","0","1",NA,"0.629253999970388","0.463083100039512","0","1","1","0","1","1","0","1","1"
"260038","img/object_images/tool13.jpg","img/object_images/vase02.jpg","img/object_images/office_supplies01.jpg","1","0","1","1","1","1","0.463083100039512",NA,"0.463696999999229","1","0","1","1","0","1","1","0","1"
"260038","img/object_images/office_supplies01.jpg","img/object_images/tool13.jpg","img/object_images/video_game02.jpg","1","1","1","1","1","1","0.463696999999229","0.463083100039512","0.540421100042295","1","1","1","1","1","1","1","1","1"
"260038","img/object_images/video_game02.jpg","img/object_images/office_supplies01.jpg","img/object_images/socks01.jpg","1","1","1","1","1","1","0.540421100042295","0.463696999999229","0.425625800038688","1","1","1","1","1","1","1","1","1"
"260038","img/object_images/socks01.jpg","img/object_images/video_game02.jpg","img/object_images/perfume01.jpg","1","1","1","1","1","0","0.425625800038688","0.540421100042295","0.558288600004744","1","1","1","1","1","1","1","1","1"
"260038","img/object_images/perfume01.jpg","img/object_images/socks01.jpg","img/object_images/floss01.jpg","1","1","0","0","1","1","0.558288600004744","0.425625800038688",NA,"1","1","0","1","1","0","1","1","0"
"260038","img/object_images/floss01.jpg","img/object_images/perfume01.jpg","img/object_images/bow_tie03.jpg","0","1","1","1","0","1",NA,"0.558288600004744","0.481720299983863","0","1","1","0","1","1","0","1","1"
"260038","img/object_images/bow_tie03.jpg","img/object_images/floss01.jpg","img/object_images/knife01.jpg","1","0","1","1","1","1","0.481720299983863",NA,"0.493908800010104","1","0","1","1","0","1","1","0","1"
"260038","img/object_images/knife01.jpg","img/object_images/bow_tie03.jpg","img/object_images/pen06.jpg","1","1","1","1","1","0","0.493908800010104","0.481720299983863","0.492311399953905","1","1","1","1","1","1","1","1","1"
"260038","img/object_images/pen06.jpg","img/object_images/knife01.jpg","img/object_images/Confetti 01.jpg","1","1","0","0","1","0","0.492311399953905","0.493908800010104",NA,"1","1","0","1","1","0","1","1","0"
"260038","img/object_images/Confetti 01.jpg","img/object_images/pen06.jpg","img/object_images/pan03.jpg","0","1","1","0","0","1",NA,"0.492311399953905","0.429080599977169","0","1","1","0","1","1","0","1","1"
"260038","img/object_images/pan03.jpg","img/object_images/Confetti 01.jpg","img/object_images/hammer02.jpg","1","0","1","1","0","0","0.429080599977169",NA,"0.55186019995017","1","0","1","1","0","1","1","0","1"
"260038","img/object_images/hammer02.jpg","img/object_images/pan03.jpg","img/object_images/ruler02.jpg","1","1","1","0","1","1","0.55186019995017","0.429080599977169","0.591299599967897","1","1","1","1","1","1","1","1","1"
"260038","img/object_images/ruler02.jpg","img/object_images/hammer02.jpg","img/object_images/hat09.jpg","1","1","1","1","0","0","0.591299599967897","0.55186019995017","0.669388900045305","1","1","1","1","1","1","1","1","1"
"260038","img/object_images/hat09.jpg","img/object_images/ruler02.jpg","img/object_images/tool20.jpg","1","1","1","0","1","0","0.669388900045305","0.591299599967897","0.69430159998592","1","1","1","1","1","1","1","1","1"
"260038","img/object_images/tool20.jpg","img/object_images/hat09.jpg","img/object_images/Candle_Holder01.jpg","1","1","1","0","0","0","0.69430159998592","0.669388900045305","0.538562299974728","1","1","1","1","1","1","1","1","1"
"260038","img/object_images/Candle_Holder01.jpg","img/object_images/tool20.jpg","img/object_images/hat13.jpg","1","1","1","0","0","1","0.538562299974728","0.69430159998592","0.428982499986887","1","1","1","1","1","1","1","1","1"
"260038","img/object_images/hat13.jpg","img/object_images/Candle_Holder01.jpg","img/object_images/candle02.jpg","1","1","1","1","0","0","0.428982499986887","0.538562299974728","0.47872539999662","1","1","1","1","1","1","1","1","1"
"260038","img/object_images/candle02.jpg","img/object_images/hat13.jpg","img/object_images/razor02.jpg","1","1","1","0","1","1","0.47872539999662","0.428982499986887","0.410571300017182","1","1","1","1","1","1","1","1","1"
"260038","img/object_images/razor02.jpg","img/object_images/candle02.jpg","img/object_images/duster01.jpg","1","1","1","1","0","0","0.410571300017182","0.47872539999662","0.626442999986466","1","1","1","1","1","1","1","1","1"
"260038","img/object_images/duster01.jpg","img/object_images/razor02.jpg","img/object_images/clipboard01.jpg","1","1","1","0","1","1","0.626442999986466","0.410571300017182","0.43466269999044","1","1","1","1","1","1","1","1","1"
"260038","img/object_images/clipboard01.jpg","img/object_images/duster01.jpg","img/object_images/sign02.jpg","1","1","1","1","0","0","0.43466269999044","0.626442999986466","0.482983599998988","1","1","1","1","1","1","1","1","1"
"260038","img/object_images/sign02.jpg","img/object_images/clipboard01.jpg",NA,"1","1",NA,"0","1",NA,"0.482983599998988","0.43466269999044",NA,"1","1",NA,"1","1",NA,"1","1",NA
"260038","img/object_images/speaker01.jpg",NA,"img/object_images/exfoliater_brush01.jpg","1",NA,"1","1",NA,"0","0.645928799989633",NA,"0.399198099970818","1",NA,"1","1",NA,"1","1",NA,"1"
"260038","img/object_images/exfoliater_brush01.jpg","img/object_images/speaker01.jpg","img/object_images/purse01.jpg","1","1","1","0","1","1","0.399198099970818","0.645928799989633","0.443751999991946","1","1","1","1","1","1","1","1","1"
"260038","img/object_images/purse01.jpg","img/object_images/exfoliater_brush01.jpg","img/object_images/Traffic Sign 01.jpg","1","1","1","1","0","0","0.443751999991946","0.399198099970818","0.528557800047565","1","1","1","1","1","1","1","1","1"
"260038","img/object_images/Traffic Sign 01.jpg","img/object_images/purse01.jpg","img/object_images/tray01.jpg","1","1","1","0","1","1","0.528557800047565","0.443751999991946","0.731978200026788","1","1","1","1","1","1","1","1","1"
"260038","img/object_images/tray01.jpg","img/object_images/Traffic Sign 01.jpg","img/object_images/basket02.jpg","1","1","1","1","0","0","0.731978200026788","0.528557800047565","0.483248799981084","1","1","1","1","1","1","1","1","1"
"260038","img/object_images/basket02.jpg","img/object_images/tray01.jpg","img/object_images/tool08.jpg","1","1","1","0","1","0","0.483248799981084","0.731978200026788","0.471257299999707","1","1","1","1","1","1","1","1","1"
"260038","img/object_images/tool08.jpg","img/object_images/basket02.jpg","img/object_images/cup03.jpg","1","1","1","0","0","1","0.471257299999707","0.483248799981084","0.359101599955466","1","1","1","1","1","1","1","1","1"
"260038","img/object_images/cup03.jpg","img/object_images/tool08.jpg","img/object_images/Kitchen_Towel.jpg","1","1","1","1","0","0","0.359101599955466","0.471257299999707","0.391815699986182","1","1","1","1","1","1","1","1","1"
"260038","img/object_images/Kitchen_Towel.jpg","img/object_images/cup03.jpg","img/object_images/tool07.jpg","1","1","1","0","1","0","0.391815699986182","0.359101599955466","0.532333500043023","1","1","1","1","1","1","1","1","1"
"260038","img/object_images/tool07.jpg","img/object_images/Kitchen_Towel.jpg","img/object_images/Sprayer01.jpg","1","1","1","0","0","0","0.532333500043023","0.391815699986182","0.438468900043517","1","1","1","1","1","1","1","1","1"
"260038","img/object_images/Sprayer01.jpg","img/object_images/tool07.jpg","img/object_images/cellphone02.jpg","1","1","1","0","0","1","0.438468900043517","0.532333500043023","0.530421799980104","1","1","1","1","1","1","1","1","1"
"260038","img/object_images/cellphone02.jpg","img/object_images/Sprayer01.jpg","img/object_images/fire_extinguisher01.jpg","1","1","1","1","0","0","0.530421799980104","0.438468900043517","0.56477380002616","1","1","1","1","1","1","1","1","1"
"260038","img/object_images/fire_extinguisher01.jpg","img/object_images/cellphone02.jpg","img/object_images/pan01.jpg","1","1","1","0","1","1","0.56477380002616","0.530421799980104","0.440722799976356","1","1","1","1","1","1","1","1","1"
"260038","img/object_images/pan01.jpg","img/object_images/fire_extinguisher01.jpg","img/object_images/glasses07.jpg","1","1","1","1","0","1","0.440722799976356","0.56477380002616","0.495225200022105","1","1","1","1","1","1","1","1","1"
"260038","img/object_images/glasses07.jpg","img/object_images/pan01.jpg","img/object_images/faucet01.jpg","1","1","1","1","1","0","0.495225200022105","0.440722799976356","0.568976999958977","1","1","1","1","1","1","1","1","1"
"260038","img/object_images/faucet01.jpg","img/object_images/glasses07.jpg","img/object_images/TrashCan02.jpg","1","1","1","0","1","1","0.568976999958977","0.495225200022105","0.435023400001228","1","1","1","1","1","1","1","1","1"
"260038","img/object_images/TrashCan02.jpg","img/object_images/faucet01.jpg","img/object_images/hole_puncher01.jpg","1","1","1","1","0","1","0.435023400001228","0.568976999958977","0.438630099990405","1","1","1","1","1","1","1","1","1"
"260038","img/object_images/hole_puncher01.jpg","img/object_images/TrashCan02.jpg","img/object_images/projector01.jpg","1","1","1","1","1","0","0.438630099990405","0.435023400001228","0.418291600013617","1","1","1","1","1","1","1","1","1"
"260038","img/object_images/projector01.jpg","img/object_images/hole_puncher01.jpg","img/object_images/hair_clips01.jpg","1","1","1","0","1","1","0.418291600013617","0.438630099990405","0.379674399970099","1","1","1","1","1","1","1","1","1"
"260038","img/object_images/hair_clips01.jpg","img/object_images/projector01.jpg","img/object_images/handcuffs01.jpg","1","1","1","1","0","0","0.379674399970099","0.418291600013617","0.505139400018379","1","1","1","1","1","1","1","1","1"
"260038","img/object_images/handcuffs01.jpg","img/object_images/hair_clips01.jpg","img/object_images/glasses06.jpg","1","1","1","0","1","1","0.505139400018379","0.379674399970099","0.459384299989324","1","1","1","1","1","1","1","1","1"
"260038","img/object_images/glasses06.jpg","img/object_images/handcuffs01.jpg","img/object_images/Pottery01.jpg","1","1","1","1","0","0","0.459384299989324","0.505139400018379","0.474354800011497","1","1","1","1","1","1","1","1","1"
"260038","img/object_images/Pottery01.jpg","img/object_images/glasses06.jpg","img/object_images/blanket01.jpg","1","1","1","0","1","1","0.474354800011497","0.459384299989324","0.437056499999017","1","1","1","1","1","1","1","1","1"
"260038","img/object_images/blanket01.jpg","img/object_images/Pottery01.jpg","img/object_images/book01.jpg","1","1","1","1","0","1","0.437056499999017","0.474354800011497","0.469365199969616","1","1","1","1","1","1","1","1","1"
"260038","img/object_images/book01.jpg","img/object_images/blanket01.jpg","img/object_images/yo_yo01.jpg","1","1","1","1","1","0","0.469365199969616","0.437056499999017","0.397792499978095","1","1","1","1","1","1","1","1","1"
"260038","img/object_images/yo_yo01.jpg","img/object_images/book01.jpg","img/object_images/lighter01.jpg","1","1","1","0","1","1","0.397792499978095","0.469365199969616","0.567016099987086","1","1","1","1","1","1","1","1","1"
"260038","img/object_images/lighter01.jpg","img/object_images/yo_yo01.jpg","img/object_images/colander01.jpg","1","1","1","1","0","0","0.567016099987086","0.397792499978095","0.492143699957523","1","1","1","1","1","1","1","1","1"
"260038","img/object_images/colander01.jpg","img/object_images/lighter01.jpg","img/object_images/gift_box04.jpg","1","1","1","0","1","0","0.492143699957523","0.567016099987086","0.487176199967507","1","1","1","1","1","1","1","1","1"
"260038","img/object_images/gift_box04.jpg","img/object_images/colander01.jpg","img/object_images/bicycle_lock01.jpg","1","1","1","0","0","0","0.487176199967507","0.492143699957523","0.535820799996145","1","1","1","1","1","1","1","1","1"
"260038","img/object_images/bicycle_lock01.jpg","img/object_images/gift_box04.jpg","img/object_images/ring03.jpg","1","1","1","0","0","1","0.535820799996145","0.487176199967507","0.504846600000747","1","1","1","1","1","1","1","1","1"
"260038","img/object_images/ring03.jpg","img/object_images/bicycle_lock01.jpg","img/object_images/jewelry09.jpg","1","1","1","1","0","1","0.504846600000747","0.535820799996145","0.433277699979954","1","1","1","1","1","1","1","1","1"
"260038","img/object_images/jewelry09.jpg","img/object_images/ring03.jpg",NA,"1","1",NA,"1","1",NA,"0.433277699979954","0.504846600000747",NA,"1","1",NA,"1","1",NA,"1","1",NA
"260038","img/object_images/egg_basket01.jpg",NA,"img/object_images/bottle06.jpg","1",NA,"1","1",NA,"0","0.455403100000694",NA,"0.487201400042977","1",NA,"1","1",NA,"1","1",NA,"1"
"260038","img/object_images/bottle06.jpg","img/object_images/egg_basket01.jpg","img/object_images/origami01.jpg","1","1","1","0","1","1","0.487201400042977","0.455403100000694","0.497533999965526","1","1","1","1","1","1","1","1","1"
"260038","img/object_images/origami01.jpg","img/object_images/bottle06.jpg","img/object_images/piano03.jpg","1","1","1","1","0","0","0.497533999965526","0.487201400042977","0.425967499963008","1","1","1","1","1","1","1","1","1"
"260038","img/object_images/piano03.jpg","img/object_images/origami01.jpg","img/object_images/usb03.jpg","1","1","1","0","1","0","0.425967499963008","0.497533999965526","0.468311499978881","1","1","1","1","1","1","1","1","1"
"260038","img/object_images/usb03.jpg","img/object_images/piano03.jpg","img/object_images/nut_cracker01.jpg","1","1","1","0","0","1","0.468311499978881","0.425967499963008","0.392152899992652","1","1","1","1","1","1","1","1","1"
"260038","img/object_images/nut_cracker01.jpg","img/object_images/usb03.jpg","img/object_images/scale02.jpg","1","1","1","1","0","0","0.392152899992652","0.468311499978881","0.429914699983783","1","1","1","1","1","1","1","1","1"
"260038","img/object_images/scale02.jpg","img/object_images/nut_cracker01.jpg","img/object_images/fan01.jpg","1","1","1","0","1","0","0.429914699983783","0.392152899992652","0.651644200028386","1","1","1","1","1","1","1","1","1"
"260038","img/object_images/fan01.jpg","img/object_images/scale02.jpg","img/object_images/dice01.jpg","1","1","1","0","0","0","0.651644200028386","0.429914699983783","0.409417300019413","1","1","1","1","1","1","1","1","1"
"260038","img/object_images/dice01.jpg","img/object_images/fan01.jpg","img/object_images/note_book02.jpg","1","1","1","0","0","0","0.409417300019413","0.651644200028386","0.677976999955717","1","1","1","1","1","1","1","1","1"
"260038","img/object_images/note_book02.jpg","img/object_images/dice01.jpg","img/object_images/Safe01.jpg","1","1","1","0","0","1","0.677976999955717","0.409417300019413","0.440093599958345","1","1","1","1","1","1","1","1","1"
"260038","img/object_images/Safe01.jpg","img/object_images/note_book02.jpg","img/object_images/Shoes05.jpg","1","1","1","1","0","0","0.440093599958345","0.677976999955717","0.54975619999459","1","1","1","1","1","1","1","1","1"
"260038","img/object_images/Shoes05.jpg","img/object_images/Safe01.jpg","img/object_images/trumpet01.jpg","1","1","1","0","1","0","0.54975619999459","0.440093599958345","0.594247900007758","1","1","1","1","1","1","1","1","1"
"260038","img/object_images/trumpet01.jpg","img/object_images/Shoes05.jpg","img/object_images/lock03.jpg","1","1","1","0","0","1","0.594247900007758","0.54975619999459","0.435953999985941","1","1","1","1","1","1","1","1","1"
"260038","img/object_images/lock03.jpg","img/object_images/trumpet01.jpg","img/object_images/joystick03.jpg","1","1","1","1","0","1","0.435953999985941","0.594247900007758","0.44608739996329","1","1","1","1","1","1","1","1","1"
"260038","img/object_images/joystick03.jpg","img/object_images/lock03.jpg","img/object_images/pitcher07.jpg","1","1","1","1","1","1","0.44608739996329","0.435953999985941","0.371972399996594","1","1","1","1","1","1","1","1","1"
"260038","img/object_images/pitcher07.jpg","img/object_images/joystick03.jpg","img/object_images/ToolBag01.jpg","1","1","1","1","1","0","0.371972399996594","0.44608739996329","0.438192299974617","1","1","1","1","1","1","1","1","1"
"260038","img/object_images/ToolBag01.jpg","img/object_images/pitcher07.jpg","img/object_images/phone04.jpg","1","1","1","0","1","1","0.438192299974617","0.371972399996594","0.467456799990032","1","1","1","1","1","1","1","1","1"
"260038","img/object_images/phone04.jpg","img/object_images/ToolBag01.jpg","img/object_images/bookmark01.jpg","1","1","1","1","0","0","0.467456799990032","0.438192299974617","0.585524399997666","1","1","1","1","1","1","1","1","1"
"260038","img/object_images/bookmark01.jpg","img/object_images/phone04.jpg","img/object_images/yoga_mat01.jpg","1","1","1","0","1","0","0.585524399997666","0.467456799990032","0.522440999979153","1","1","1","1","1","1","1","1","1"
"260038","img/object_images/yoga_mat01.jpg","img/object_images/bookmark01.jpg","img/object_images/Eyeliner01.jpg","1","1","1","0","0","1","0.522440999979153","0.585524399997666","0.407916600001045","1","1","1","1","1","1","1","1","1"
"260038","img/object_images/Eyeliner01.jpg","img/object_images/yoga_mat01.jpg","img/object_images/helmet03.jpg","1","1","1","1","0","1","0.407916600001045","0.522440999979153","0.556329599989112","1","1","1","1","1","1","1","1","1"
"260038","img/object_images/helmet03.jpg","img/object_images/Eyeliner01.jpg","img/object_images/shovel01.jpg","1","1","1","1","1","0","0.556329599989112","0.407916600001045","0.565883499977645","1","1","1","1","1","1","1","1","1"
"260038","img/object_images/shovel01.jpg","img/object_images/helmet03.jpg","img/object_images/frame01.jpg","1","1","1","0","1","1","0.565883499977645","0.556329599989112","0.365602699981537","1","1","1","1","1","1","1","1","1"
"260038","img/object_images/frame01.jpg","img/object_images/shovel01.jpg","img/object_images/water_gun01.jpg","1","1","1","1","0","1","0.365602699981537","0.565883499977645","0.466296600003261","1","1","1","1","1","1","1","1","1"
"260038","img/object_images/water_gun01.jpg","img/object_images/frame01.jpg","img/object_images/headset02.jpg","1","1","1","1","1","0","0.466296600003261","0.365602699981537","0.542595700011589","1","1","1","1","1","1","1","1","1"
"260038","img/object_images/headset02.jpg","img/object_images/water_gun01.jpg","img/object_images/TreeSlice01.jpg","1","1","1","0","1","1","0.542595700011589","0.466296600003261","0.458075399976224","1","1","1","1","1","1","1","1","1"
"260038","img/object_images/TreeSlice01.jpg","img/object_images/headset02.jpg","img/object_images/bucket01.jpg","1","1","1","1","0","1","0.458075399976224","0.542595700011589","0.473898700030986","1","1","1","1","1","1","1","1","1"
"260038","img/object_images/bucket01.jpg","img/object_images/TreeSlice01.jpg","img/object_images/badminton01.jpg","1","1","1","1","1","1","0.473898700030986","0.458075399976224","0.410742299980484","1","1","1","1","1","1","1","1","1"
"260038","img/object_images/badminton01.jpg","img/object_images/bucket01.jpg","img/object_images/tennis_racket01.jpg","1","1","1","1","1","1","0.410742299980484","0.473898700030986","0.409914200019557","1","1","1","1","1","1","1","1","1"
"260038","img/object_images/tennis_racket01.jpg","img/object_images/badminton01.jpg","img/object_images/jewel02.jpg","1","1","1","1","1","0","0.409914200019557","0.410742299980484","0.506922099972144","1","1","1","1","1","1","1","1","1"
"260038","img/object_images/jewel02.jpg","img/object_images/tennis_racket01.jpg","img/object_images/belt03.jpg","1","1","1","0","1","0","0.506922099972144","0.409914200019557","0.544085900008213","1","1","1","1","1","1","1","1","1"
"260038","img/object_images/belt03.jpg","img/object_images/jewel02.jpg",NA,"1","1",NA,"0","0",NA,"0.544085900008213","0.506922099972144",NA,"1","1",NA,"1","1",NA,"1","1",NA
