"participant_id","current_trial_object","pre_trial_object","post_trial_object","current_trial_accuracy","pre_trial_accuracy","post_trial_accuracy","current_trial_congruency","pre_trial_congruency","post_trial_congruency","current_trial_rt","pre_trial_rt","post_trial_rt","current_trial_responded","pre_trial_responded","post_trial_responded","current_trial_legitResponse","pre_trial_legitResponse","post_trial_legitResponse","current_trial_resp_nums","pre_trial_resp_nums","post_trial_resp_nums"
"260019","img/object_images/ribbon01.jpg",NA,"img/object_images/ice_tray03.jpg","1",NA,"1","0",NA,"1","0.509998100002122",NA,"0.482599200004188","1",NA,"1","1",NA,"1","1",NA,"1"
"260019","img/object_images/ice_tray03.jpg","img/object_images/ribbon01.jpg","img/object_images/belt01.jpg","1","1","1","1","0","0","0.482599200004188","0.509998100002122","0.510563600000751","1","1","1","1","1","1","1","1","1"
"260019","img/object_images/belt01.jpg","img/object_images/ice_tray03.jpg","img/object_images/hair_brush05.jpg","1","1","1","0","1","1","0.510563600000751","0.482599200004188","0.487176200003887","1","1","1","1","1","1","1","1","1"
"260019","img/object_images/hair_brush05.jpg","img/object_images/belt01.jpg","img/object_images/tool11.jpg","1","1","1","1","0","1","0.487176200003887","0.510563600000751","0.525375199998962","1","1","1","1","1","1","1","1","1"
"260019","img/object_images/tool11.jpg","img/object_images/hair_brush05.jpg","img/object_images/mask01.jpg","1","1","1","1","1","0","0.525375199998962","0.487176200003887","0.473209900002985","1","1","1","1","1","1","1","1","1"
"260019","img/object_images/mask01.jpg","img/object_images/tool11.jpg","img/object_images/car04.jpg","1","1","1","0","1","0","0.473209900002985","0.525375199998962","0.54707739999867","1","1","1","1","1","1","1","1","1"
"260019","img/object_images/car04.jpg","img/object_images/mask01.jpg","img/object_images/jewel01.jpg","1","1","1","0","0","0","0.54707739999867","0.473209900002985","0.508899000000383","1","1","1","1","1","1","1","1","1"
"260019","img/object_images/jewel01.jpg","img/object_images/car04.jpg","img/object_images/yarn02.jpg","1","1","1","0","0","0","0.508899000000383","0.54707739999867","0.534619700003532","1","1","1","1","1","1","1","1","1"
"260019","img/object_images/yarn02.jpg","img/object_images/jewel01.jpg","img/object_images/screwdriver01.jpg","1","1","1","0","0","0","0.534619700003532","0.508899000000383","0.523627700000361","1","1","1","1","1","1","1","1","1"
"260019","img/object_images/screwdriver01.jpg","img/object_images/yarn02.jpg","img/object_images/chair04.jpg","1","1","1","0","0","1","0.523627700000361","0.534619700003532","0.460925400002452","1","1","1","1","1","1","1","1","1"
"260019","img/object_images/chair04.jpg","img/object_images/screwdriver01.jpg","img/object_images/fan05.jpg","1","1","1","1","0","0","0.460925400002452","0.523627700000361","0.439169500001299","1","1","1","1","1","1","1","1","1"
"260019","img/object_images/fan05.jpg","img/object_images/chair04.jpg","img/object_images/cards01.jpg","1","1","1","0","1","0","0.439169500001299","0.460925400002452","0.508983600004285","1","1","1","1","1","1","1","1","1"
"260019","img/object_images/cards01.jpg","img/object_images/fan05.jpg","img/object_images/tv01.jpg","1","1","1","0","0","0","0.508983600004285","0.439169500001299","0.64871879999555","1","1","1","1","1","1","1","1","1"
"260019","img/object_images/tv01.jpg","img/object_images/cards01.jpg","img/object_images/car03.jpg","1","1","1","0","0","0","0.64871879999555","0.508983600004285","0.530460800000583","1","1","1","1","1","1","1","1","1"
"260019","img/object_images/car03.jpg","img/object_images/tv01.jpg","img/object_images/toaster02.jpg","1","1","1","0","0","1","0.530460800000583","0.64871879999555","0.507898299998487","1","1","1","1","1","1","1","1","1"
"260019","img/object_images/toaster02.jpg","img/object_images/car03.jpg","img/object_images/ladle02.jpg","1","1","1","1","0","0","0.507898299998487","0.530460800000583","0.526478599997063","1","1","1","1","1","1","1","1","1"
"260019","img/object_images/ladle02.jpg","img/object_images/toaster02.jpg","img/object_images/lemon_squeezer02.jpg","1","1","1","0","1","1","0.526478599997063","0.507898299998487","0.475164700001187","1","1","1","1","1","1","1","1","1"
"260019","img/object_images/lemon_squeezer02.jpg","img/object_images/ladle02.jpg","img/object_images/rock03.jpg","1","1","1","1","0","0","0.475164700001187","0.526478599997063","0.538420800003223","1","1","1","1","1","1","1","1","1"
"260019","img/object_images/rock03.jpg","img/object_images/lemon_squeezer02.jpg","img/object_images/cutting_board01.jpg","1","1","1","0","1","1","0.538420800003223","0.475164700001187","0.465724900001078","1","1","1","1","1","1","1","1","1"
"260019","img/object_images/cutting_board01.jpg","img/object_images/rock03.jpg","img/object_images/shower_head03.jpg","1","1","1","1","0","1","0.465724900001078","0.538420800003223","0.517048100002285","1","1","1","1","1","1","1","1","1"
"260019","img/object_images/shower_head03.jpg","img/object_images/cutting_board01.jpg","img/object_images/satellite01.jpg","1","1","1","1","1","0","0.517048100002285","0.465724900001078","0.547916800001985","1","1","1","1","1","1","1","1","1"
"260019","img/object_images/satellite01.jpg","img/object_images/shower_head03.jpg","img/object_images/binoculars03.jpg","1","1","1","0","1","1","0.547916800001985","0.517048100002285","0.498663600003056","1","1","1","1","1","1","1","1","1"
"260019","img/object_images/binoculars03.jpg","img/object_images/satellite01.jpg","img/object_images/key02.jpg","1","1","1","1","0","1","0.498663600003056","0.547916800001985","0.539553599999635","1","1","1","1","1","1","1","1","1"
"260019","img/object_images/key02.jpg","img/object_images/binoculars03.jpg","img/object_images/razor01.jpg","1","1","1","1","1","0","0.539553599999635","0.498663600003056","0.500853199999256","1","1","1","1","1","1","1","1","1"
"260019","img/object_images/razor01.jpg","img/object_images/key02.jpg","img/object_images/shoes10.jpg","1","1","1","0","1","0","0.500853199999256","0.539553599999635","0.482357600005344","1","1","1","1","1","1","1","1","1"
"260019","img/object_images/shoes10.jpg","img/object_images/razor01.jpg","img/object_images/WitchHat02.jpg","1","1","1","0","0","1","0.482357600005344","0.500853199999256","0.473708699995768","1","1","1","1","1","1","1","1","1"
"260019","img/object_images/WitchHat02.jpg","img/object_images/shoes10.jpg","img/object_images/dress03.jpg","1","1","1","1","0","1","0.473708699995768","0.482357600005344","0.432158899995557","1","1","1","1","1","1","1","1","1"
"260019","img/object_images/dress03.jpg","img/object_images/WitchHat02.jpg","img/object_images/MeasuringCup01.jpg","1","1","1","1","1","1","0.432158899995557","0.473708699995768","0.440778500000306","1","1","1","1","1","1","1","1","1"
"260019","img/object_images/MeasuringCup01.jpg","img/object_images/dress03.jpg","img/object_images/bag06.jpg","1","1","1","1","1","1","0.440778500000306","0.432158899995557","0.506002199996146","1","1","1","1","1","1","1","1","1"
"260019","img/object_images/bag06.jpg","img/object_images/MeasuringCup01.jpg","img/object_images/jewelry07.jpg","1","1","1","1","1","1","0.506002199996146","0.440778500000306","0.486931599996751","1","1","1","1","1","1","1","1","1"
"260019","img/object_images/jewelry07.jpg","img/object_images/bag06.jpg","img/object_images/slinky_toy01.jpg","1","1","1","1","1","1","0.486931599996751","0.506002199996146","0.516028799997002","1","1","1","1","1","1","1","1","1"
"260019","img/object_images/slinky_toy01.jpg","img/object_images/jewelry07.jpg",NA,"1","1",NA,"1","1",NA,"0.516028799997002","0.486931599996751",NA,"1","1",NA,"1","1",NA,"1","1",NA
"260019","img/object_images/golf_ball03.jpg",NA,"img/object_images/jewelry01.jpg","1",NA,"1","1",NA,"1","0.400486999998975",NA,"0.414926600002218","1",NA,"1","1",NA,"1","1",NA,"1"
"260019","img/object_images/jewelry01.jpg","img/object_images/golf_ball03.jpg","img/object_images/pitcher02.jpg","1","1","1","1","1","1","0.414926600002218","0.400486999998975","0.38257860000158","1","1","1","1","1","1","1","1","1"
"260019","img/object_images/pitcher02.jpg","img/object_images/jewelry01.jpg","img/object_images/sleeping_bag01.jpg","1","1","1","1","1","0","0.38257860000158","0.414926600002218","0.384872800001176","1","1","1","1","1","1","1","1","1"
"260019","img/object_images/sleeping_bag01.jpg","img/object_images/pitcher02.jpg","img/object_images/vga_port 01.jpg","1","1","1","0","1","0","0.384872800001176","0.38257860000158","0.365959299997485","1","1","1","1","1","1","1","1","1"
"260019","img/object_images/vga_port 01.jpg","img/object_images/sleeping_bag01.jpg","img/object_images/measuring_tape02.jpg","1","1","1","0","0","1","0.365959299997485","0.384872800001176","0.397594500005653","1","1","1","1","1","1","1","1","1"
"260019","img/object_images/measuring_tape02.jpg","img/object_images/vga_port 01.jpg","img/object_images/gift_box02.jpg","1","1","1","1","0","1","0.397594500005653","0.365959299997485","0.385630400000082","1","1","1","1","1","1","1","1","1"
"260019","img/object_images/gift_box02.jpg","img/object_images/measuring_tape02.jpg","img/object_images/jacket03.jpg","1","1","1","1","1","0","0.385630400000082","0.397594500005653","0.551612000002933","1","1","1","1","1","1","1","1","1"
"260019","img/object_images/jacket03.jpg","img/object_images/gift_box02.jpg","img/object_images/funnel01.jpg","1","1","1","0","1","0","0.551612000002933","0.385630400000082","0.342001099998015","1","1","1","1","1","1","1","1","1"
"260019","img/object_images/funnel01.jpg","img/object_images/jacket03.jpg","img/object_images/fork03.jpg","1","1","1","0","0","1","0.342001099998015","0.551612000002933","0.456637499999488","1","1","1","1","1","1","1","1","1"
"260019","img/object_images/fork03.jpg","img/object_images/funnel01.jpg","img/object_images/socks02.jpg","1","1","1","1","0","0","0.456637499999488","0.342001099998015","0.38364189999993","1","1","1","1","1","1","1","1","1"
"260019","img/object_images/socks02.jpg","img/object_images/fork03.jpg","img/object_images/couch03.jpg","1","1","1","0","1","0","0.38364189999993","0.456637499999488","0.50671589999547","1","1","1","1","1","1","1","1","1"
"260019","img/object_images/couch03.jpg","img/object_images/socks02.jpg","img/object_images/handkerchief01.jpg","1","1","1","0","0","0","0.50671589999547","0.38364189999993","0.516196800002945","1","1","1","1","1","1","1","1","1"
"260019","img/object_images/handkerchief01.jpg","img/object_images/couch03.jpg","img/object_images/wallet02.jpg","1","1","1","0","0","1","0.516196800002945","0.50671589999547","0.419405100001313","1","1","1","1","1","1","1","1","1"
"260019","img/object_images/wallet02.jpg","img/object_images/handkerchief01.jpg","img/object_images/clip02.jpg","1","1","1","1","0","1","0.419405100001313","0.516196800002945","0.46807699999772","1","1","1","1","1","1","1","1","1"
"260019","img/object_images/clip02.jpg","img/object_images/wallet02.jpg","img/object_images/Screws01.jpg","1","1","1","1","1","1","0.46807699999772","0.419405100001313","0.418685399999958","1","1","1","1","1","1","1","1","1"
"260019","img/object_images/Screws01.jpg","img/object_images/clip02.jpg","img/object_images/coloring_pencil01.jpg","1","1","1","1","1","1","0.418685399999958","0.46807699999772","0.382212600001367","1","1","1","1","1","1","1","1","1"
"260019","img/object_images/coloring_pencil01.jpg","img/object_images/Screws01.jpg","img/object_images/lock04.jpg","1","1","1","1","1","1","0.382212600001367","0.418685399999958","0.394443900004262","1","1","1","1","1","1","1","1","1"
"260019","img/object_images/lock04.jpg","img/object_images/coloring_pencil01.jpg","img/object_images/balloon01.jpg","1","1","1","1","1","0","0.394443900004262","0.382212600001367","0.393555300004664","1","1","1","1","1","1","1","1","1"
"260019","img/object_images/balloon01.jpg","img/object_images/lock04.jpg","img/object_images/bow_tie01.jpg","1","1","1","0","1","0","0.393555300004664","0.394443900004262","0.463743400003295","1","1","1","1","1","1","1","1","1"
"260019","img/object_images/bow_tie01.jpg","img/object_images/balloon01.jpg","img/object_images/camera07.jpg","1","1","1","0","0","1","0.463743400003295","0.393555300004664","0.327905499994813","1","1","1","1","1","1","1","1","1"
"260019","img/object_images/camera07.jpg","img/object_images/bow_tie01.jpg","img/object_images/dresser04.jpg","1","1","1","1","0","0","0.327905499994813","0.463743400003295","0.382546599998022","1","1","1","1","1","1","1","1","1"
"260019","img/object_images/dresser04.jpg","img/object_images/camera07.jpg","img/object_images/hammer01.jpg","1","1","1","0","1","0","0.382546599998022","0.327905499994813","0.406208799999149","1","1","1","1","1","1","1","1","1"
"260019","img/object_images/hammer01.jpg","img/object_images/dresser04.jpg","img/object_images/lawn_mower01.jpg","1","1","1","0","0","1","0.406208799999149","0.382546599998022","0.404270300001372","1","1","1","1","1","1","1","1","1"
"260019","img/object_images/lawn_mower01.jpg","img/object_images/hammer01.jpg","img/object_images/paper_cup01.jpg","1","1","1","1","0","0","0.404270300001372","0.406208799999149","0.431150100004743","1","1","1","1","1","1","1","1","1"
"260019","img/object_images/paper_cup01.jpg","img/object_images/lawn_mower01.jpg","img/object_images/bow_tie02.jpg","1","1","1","0","1","0","0.431150100004743","0.404270300001372","0.465112500001851","1","1","1","1","1","1","1","1","1"
"260019","img/object_images/bow_tie02.jpg","img/object_images/paper_cup01.jpg","img/object_images/gift_box01.jpg","1","1","1","0","0","1","0.465112500001851","0.431150100004743","0.403611299996555","1","1","1","1","1","1","1","1","1"
"260019","img/object_images/gift_box01.jpg","img/object_images/bow_tie02.jpg","img/object_images/Witchhat01.jpg","1","1","1","1","0","1","0.403611299996555","0.465112500001851","0.444797000003746","1","1","1","1","1","1","1","1","1"
"260019","img/object_images/Witchhat01.jpg","img/object_images/gift_box01.jpg","img/object_images/ironing_table01.jpg","1","1","1","1","1","0","0.444797000003746","0.403611299996555","0.475162000002456","1","1","1","1","1","1","1","1","1"
"260019","img/object_images/ironing_table01.jpg","img/object_images/Witchhat01.jpg","img/object_images/grater01.jpg","1","1","1","0","1","1","0.475162000002456","0.444797000003746","0.390855300000112","1","1","1","1","1","1","1","1","1"
"260019","img/object_images/grater01.jpg","img/object_images/ironing_table01.jpg","img/object_images/gift_box03.jpg","1","1","0","1","0","0","0.390855300000112","0.475162000002456","0.371030500005872","1","1","1","1","1","1","1","1","1"
"260019","img/object_images/gift_box03.jpg","img/object_images/grater01.jpg","img/object_images/bath_tub01.jpg","0","1","1","0","1","0","0.371030500005872","0.390855300000112","0.438257000001613","1","1","1","1","1","1","1","1","1"
"260019","img/object_images/bath_tub01.jpg","img/object_images/gift_box03.jpg",NA,"1","0",NA,"0","0",NA,"0.438257000001613","0.371030500005872",NA,"1","1",NA,"1","1",NA,"1","1",NA
"260019","img/object_images/boat02.jpg",NA,"img/object_images/knit01.jpg","1",NA,"1","1",NA,"0","0.452871500005131",NA,"0.517978500000027","1",NA,"1","1",NA,"1","1",NA,"1"
"260019","img/object_images/knit01.jpg","img/object_images/boat02.jpg","img/object_images/bottle09.jpg","1","1","1","0","1","0","0.517978500000027","0.452871500005131","0.441140099996119","1","1","1","1","1","1","1","1","1"
"260019","img/object_images/bottle09.jpg","img/object_images/knit01.jpg","img/object_images/tool19.jpg","1","1","1","0","0","1","0.441140099996119","0.517978500000027","0.457972500000324","1","1","1","1","1","1","1","1","2"
"260019","img/object_images/tool19.jpg","img/object_images/bottle09.jpg","img/object_images/chair03.jpg","1","1","1","1","0","0","0.457972500000324","0.441140099996119","0.391156800003955","1","1","1","1","1","1","2","1","1"
"260019","img/object_images/chair03.jpg","img/object_images/tool19.jpg","img/object_images/toaster01.jpg","1","1","1","0","1","1","0.391156800003955","0.457972500000324","0.384093500004383","1","1","1","1","1","1","1","2","1"
"260019","img/object_images/toaster01.jpg","img/object_images/chair03.jpg","img/object_images/dog_leash01.jpg","1","1","1","1","0","0","0.384093500004383","0.391156800003955","0.431540800003859","1","1","1","1","1","1","1","1","1"
"260019","img/object_images/dog_leash01.jpg","img/object_images/toaster01.jpg","img/object_images/helmet04.jpg","1","1","1","0","1","1","0.431540800003859","0.384093500004383","0.369695999994292","1","1","1","1","1","1","1","1","1"
"260019","img/object_images/helmet04.jpg","img/object_images/dog_leash01.jpg","img/object_images/toilet_paper_dispenser01.jpg","1","1","1","1","0","1","0.369695999994292","0.431540800003859","0.395225200001733","1","1","1","1","1","1","1","1","1"
"260019","img/object_images/toilet_paper_dispenser01.jpg","img/object_images/helmet04.jpg","img/object_images/cellphone03.jpg","1","1","1","1","1","0","0.395225200001733","0.369695999994292","0.385046000003058","1","1","1","1","1","1","1","1","1"
"260019","img/object_images/cellphone03.jpg","img/object_images/toilet_paper_dispenser01.jpg","img/object_images/pen05.jpg","1","1","1","0","1","0","0.385046000003058","0.395225200001733","0.391150200004631","1","1","1","1","1","1","1","1","1"
"260019","img/object_images/pen05.jpg","img/object_images/cellphone03.jpg","img/object_images/audio_port01.jpg","1","1","1","0","0","1","0.391150200004631","0.385046000003058","0.34745649999968","1","1","1","1","1","1","1","1","1"
"260019","img/object_images/audio_port01.jpg","img/object_images/pen05.jpg","img/object_images/piggy_bank01.jpg","1","1","1","1","0","1","0.34745649999968","0.391150200004631","0.410637500004668","1","1","1","1","1","1","1","1","1"
"260019","img/object_images/piggy_bank01.jpg","img/object_images/audio_port01.jpg","img/object_images/fan02.jpg","1","1","1","1","1","0","0.410637500004668","0.34745649999968","0.478547200000321","1","1","1","1","1","1","1","1","1"
"260019","img/object_images/fan02.jpg","img/object_images/piggy_bank01.jpg","img/object_images/perfume02.jpg","1","1","1","0","1","0","0.478547200000321","0.410637500004668","0.556899400005932","1","1","1","1","1","1","1","1","1"
"260019","img/object_images/perfume02.jpg","img/object_images/fan02.jpg","img/object_images/bottle10.jpg","1","1","1","0","0","1","0.556899400005932","0.478547200000321","0.370735700002115","1","1","1","1","1","1","1","1","1"
"260019","img/object_images/bottle10.jpg","img/object_images/perfume02.jpg","img/object_images/WoodBox01.jpg","1","1","1","1","0","0","0.370735700002115","0.556899400005932","0.392505400006485","1","1","1","1","1","1","1","1","1"
"260019","img/object_images/WoodBox01.jpg","img/object_images/bottle10.jpg","img/object_images/boat_toy10.jpg","1","1","1","0","1","0","0.392505400006485","0.370735700002115","0.383527099998901","1","1","1","1","1","1","1","1","1"
"260019","img/object_images/boat_toy10.jpg","img/object_images/WoodBox01.jpg","img/object_images/water_scooter01.jpg","1","1","1","0","0","1","0.383527099998901","0.392505400006485","0.377492999999959","1","1","1","1","1","1","1","1","1"
"260019","img/object_images/water_scooter01.jpg","img/object_images/boat_toy10.jpg","img/object_images/camera_lens01.jpg","1","1","1","1","0","1","0.377492999999959","0.383527099998901","0.401973300002282","1","1","1","1","1","1","1","1","1"
"260019","img/object_images/camera_lens01.jpg","img/object_images/water_scooter01.jpg","img/object_images/scoreboard01.jpg","1","1","1","1","1","1","0.401973300002282","0.377492999999959","0.403760700006387","1","1","1","1","1","1","1","1","1"
"260019","img/object_images/scoreboard01.jpg","img/object_images/camera_lens01.jpg","img/object_images/bicycle01.jpg","1","1","1","1","1","1","0.403760700006387","0.401973300002282","0.519546299998183","1","1","1","1","1","1","1","1","1"
"260019","img/object_images/bicycle01.jpg","img/object_images/scoreboard01.jpg","img/object_images/purse04.jpg","1","1","1","1","1","1","0.519546299998183","0.403760700006387","0.362226400000509","1","1","1","1","1","1","1","1","1"
"260019","img/object_images/purse04.jpg","img/object_images/bicycle01.jpg","img/object_images/coloring_pencil02.jpg","1","1","1","1","1","0","0.362226400000509","0.519546299998183","0.445052600000054","1","1","1","1","1","1","1","1","1"
"260019","img/object_images/coloring_pencil02.jpg","img/object_images/purse04.jpg","img/object_images/bean_bag02.jpg","1","1","1","0","1","1","0.445052600000054","0.362226400000509","0.357208699999319","1","1","1","1","1","1","1","1","1"
"260019","img/object_images/bean_bag02.jpg","img/object_images/coloring_pencil02.jpg","img/object_images/flask01.jpg","1","1","1","1","0","0","0.357208699999319","0.445052600000054","0.350489800002833","1","1","1","1","1","1","1","1","1"
"260019","img/object_images/flask01.jpg","img/object_images/bean_bag02.jpg","img/object_images/shoes07.jpg","1","1","1","0","1","0","0.350489800002833","0.357208699999319","0.359349199999997","1","1","1","1","1","1","1","1","1"
"260019","img/object_images/shoes07.jpg","img/object_images/flask01.jpg","img/object_images/tie02.jpg","1","1","1","0","0","0","0.359349199999997","0.350489800002833","0.435304400001769","1","1","1","1","1","1","1","1","1"
"260019","img/object_images/tie02.jpg","img/object_images/shoes07.jpg","img/object_images/hot_air_balloon02.jpg","1","1","1","0","0","0","0.435304400001769","0.359349199999997","0.426468100005877","1","1","1","1","1","1","1","1","1"
"260019","img/object_images/hot_air_balloon02.jpg","img/object_images/tie02.jpg","img/object_images/hat06.jpg","1","1","1","0","0","0","0.426468100005877","0.435304400001769","0.387809899999411","1","1","1","1","1","1","1","1","1"
"260019","img/object_images/hat06.jpg","img/object_images/hot_air_balloon02.jpg","img/object_images/bottle02.jpg","1","1","1","0","0","1","0.387809899999411","0.426468100005877","0.374381599998742","1","1","1","1","1","1","1","1","1"
"260019","img/object_images/bottle02.jpg","img/object_images/hat06.jpg","img/object_images/wagon_cart03.jpg","1","1","1","1","0","1","0.374381599998742","0.387809899999411","0.457519700001285","1","1","1","1","1","1","1","1","1"
"260019","img/object_images/wagon_cart03.jpg","img/object_images/bottle02.jpg",NA,"1","1",NA,"1","1",NA,"0.457519700001285","0.374381599998742",NA,"1","1",NA,"1","1",NA,"1","1",NA
"260019","img/object_images/water_gun01.jpg",NA,"img/object_images/jewel02.jpg","1",NA,"1","1",NA,"0","0.470679199999722",NA,"0.44203259999631","1",NA,"1","1",NA,"1","1",NA,"1"
"260019","img/object_images/jewel02.jpg","img/object_images/water_gun01.jpg","img/object_images/nut_cracker01.jpg","1","1","1","0","1","1","0.44203259999631","0.470679199999722","0.36719560000347","1","1","1","1","1","1","1","1","1"
"260019","img/object_images/nut_cracker01.jpg","img/object_images/jewel02.jpg","img/object_images/bottle06.jpg","1","1","1","1","0","0","0.36719560000347","0.44203259999631","0.384614700000384","1","1","1","1","1","1","1","1","1"
"260019","img/object_images/bottle06.jpg","img/object_images/nut_cracker01.jpg","img/object_images/lock03.jpg","1","1","1","0","1","1","0.384614700000384","0.36719560000347","0.428301100000681","1","1","1","1","1","1","1","1","1"
"260019","img/object_images/lock03.jpg","img/object_images/bottle06.jpg","img/object_images/Eyeliner01.jpg","1","1","1","1","0","1","0.428301100000681","0.384614700000384","0.367823300002783","1","1","1","1","1","1","1","1","1"
"260019","img/object_images/Eyeliner01.jpg","img/object_images/lock03.jpg","img/object_images/note_book02.jpg","1","1","0","1","1","0","0.367823300002783","0.428301100000681","0.354486100004578","1","1","1","1","1","1","1","1","1"
"260019","img/object_images/note_book02.jpg","img/object_images/Eyeliner01.jpg","img/object_images/frame01.jpg","0","1","1","0","1","1","0.354486100004578","0.367823300002783","0.381180000003951","1","1","1","1","1","1","1","1","1"
"260019","img/object_images/frame01.jpg","img/object_images/note_book02.jpg","img/object_images/Safe01.jpg","1","0","1","1","0","1","0.381180000003951","0.354486100004578","0.368416100005561","1","1","1","1","1","1","1","1","1"
"260019","img/object_images/Safe01.jpg","img/object_images/frame01.jpg","img/object_images/joystick03.jpg","1","1","1","1","1","1","0.368416100005561","0.381180000003951","0.37817240000004","1","1","1","1","1","1","1","1","1"
"260019","img/object_images/joystick03.jpg","img/object_images/Safe01.jpg","img/object_images/origami01.jpg","1","1","1","1","1","1","0.37817240000004","0.368416100005561","0.392321999999695","1","1","1","1","1","1","1","1","1"
"260019","img/object_images/origami01.jpg","img/object_images/joystick03.jpg","img/object_images/trumpet01.jpg","1","1","0","1","1","0","0.392321999999695","0.37817240000004","0.422166699994705","1","1","1","1","1","1","1","1","1"
"260019","img/object_images/trumpet01.jpg","img/object_images/origami01.jpg","img/object_images/belt03.jpg","0","1","1","0","1","0","0.422166699994705","0.392321999999695","0.469866400002502","1","1","1","1","1","1","1","1","1"
"260019","img/object_images/belt03.jpg","img/object_images/trumpet01.jpg","img/object_images/scale02.jpg","1","0","1","0","0","0","0.469866400002502","0.422166699994705","0.468770200001018","1","1","1","1","1","1","1","1","1"
"260019","img/object_images/scale02.jpg","img/object_images/belt03.jpg","img/object_images/badminton01.jpg","1","1","1","0","0","1","0.468770200001018","0.469866400002502","0.486920200004533","1","1","1","1","1","1","1","1","1"
"260019","img/object_images/badminton01.jpg","img/object_images/scale02.jpg","img/object_images/bucket01.jpg","1","1","1","1","0","1","0.486920200004533","0.468770200001018","0.423566400000709","1","1","1","1","1","1","1","1","1"
"260019","img/object_images/bucket01.jpg","img/object_images/badminton01.jpg","img/object_images/egg_basket01.jpg","1","1","1","1","1","1","0.423566400000709","0.486920200004533","0.560770500007493","1","1","1","1","1","1","1","1","1"
"260019","img/object_images/egg_basket01.jpg","img/object_images/bucket01.jpg","img/object_images/headset02.jpg","1","1","1","1","1","0","0.560770500007493","0.423566400000709","0.455975800003216","1","1","1","1","1","1","1","1","1"
"260019","img/object_images/headset02.jpg","img/object_images/egg_basket01.jpg","img/object_images/yoga_mat01.jpg","1","1","1","0","1","0","0.455975800003216","0.560770500007493","0.451887800001714","1","1","1","1","1","1","1","1","1"
"260019","img/object_images/yoga_mat01.jpg","img/object_images/headset02.jpg","img/object_images/helmet03.jpg","1","1","1","0","0","1","0.451887800001714","0.455975800003216","0.478149200003827","1","1","1","1","1","1","1","1","1"
"260019","img/object_images/helmet03.jpg","img/object_images/yoga_mat01.jpg","img/object_images/fan01.jpg","1","1","1","1","0","0","0.478149200003827","0.451887800001714","0.471729600001709","1","1","1","1","1","1","1","1","1"
"260019","img/object_images/fan01.jpg","img/object_images/helmet03.jpg","img/object_images/bookmark01.jpg","1","1","1","0","1","0","0.471729600001709","0.478149200003827","0.411632299998018","1","1","1","1","1","1","1","1","1"
"260019","img/object_images/bookmark01.jpg","img/object_images/fan01.jpg","img/object_images/dice01.jpg","1","1","1","0","0","0","0.411632299998018","0.471729600001709","0.515248099996825","1","1","1","1","1","1","1","1","1"
"260019","img/object_images/dice01.jpg","img/object_images/bookmark01.jpg","img/object_images/phone04.jpg","1","1","1","0","0","1","0.515248099996825","0.411632299998018","0.445629199995892","1","1","1","1","1","1","1","1","1"
"260019","img/object_images/phone04.jpg","img/object_images/dice01.jpg","img/object_images/piano03.jpg","1","1","1","1","0","0","0.445629199995892","0.515248099996825","0.448272100002214","1","1","1","1","1","1","1","1","1"
"260019","img/object_images/piano03.jpg","img/object_images/phone04.jpg","img/object_images/ToolBag01.jpg","1","1","1","0","1","0","0.448272100002214","0.445629199995892","0.489219800001592","1","1","1","1","1","1","1","1","1"
"260019","img/object_images/ToolBag01.jpg","img/object_images/piano03.jpg","img/object_images/TreeSlice01.jpg","1","1","1","0","0","1","0.489219800001592","0.448272100002214","0.559500800001842","1","1","1","1","1","1","1","1","1"
"260019","img/object_images/TreeSlice01.jpg","img/object_images/ToolBag01.jpg","img/object_images/tennis_racket01.jpg","1","1","1","1","0","1","0.559500800001842","0.489219800001592","0.447353299998213","1","1","1","1","1","1","1","1","1"
"260019","img/object_images/tennis_racket01.jpg","img/object_images/TreeSlice01.jpg","img/object_images/pitcher07.jpg","1","1","1","1","1","1","0.447353299998213","0.559500800001842","0.38711830000102","1","1","1","1","1","1","1","1","1"
"260019","img/object_images/pitcher07.jpg","img/object_images/tennis_racket01.jpg","img/object_images/usb03.jpg","1","1","1","1","1","0","0.38711830000102","0.447353299998213","0.470822700001008","1","1","1","1","1","1","1","1","1"
"260019","img/object_images/usb03.jpg","img/object_images/pitcher07.jpg","img/object_images/shovel01.jpg","1","1","1","0","1","0","0.470822700001008","0.38711830000102","0.452552099995955","1","1","1","1","1","1","1","1","1"
"260019","img/object_images/shovel01.jpg","img/object_images/usb03.jpg","img/object_images/Shoes05.jpg","1","1","1","0","0","0","0.452552099995955","0.470822700001008","0.47711690000142","1","1","1","1","1","1","1","1","1"
"260019","img/object_images/Shoes05.jpg","img/object_images/shovel01.jpg",NA,"1","1",NA,"0","0",NA,"0.47711690000142","0.452552099995955",NA,"1","1",NA,"1","1",NA,"1","1",NA
"260019","img/object_images/mirror01.jpg",NA,"img/object_images/MetalWire01.jpg","1",NA,"1","1",NA,"0","0.445369000000937",NA,"0.408355899999151","1",NA,"1","1",NA,"1","1",NA,"1"
"260019","img/object_images/MetalWire01.jpg","img/object_images/mirror01.jpg","img/object_images/crown02.jpg","1","1","1","0","1","1","0.408355899999151","0.445369000000937","0.406166799999482","1","1","1","1","1","1","1","1","1"
"260019","img/object_images/crown02.jpg","img/object_images/MetalWire01.jpg","img/object_images/stapler.jpg","1","1","1","1","0","1","0.406166799999482","0.408355899999151","0.439653300003556","1","1","1","1","1","1","1","1","1"
"260019","img/object_images/stapler.jpg","img/object_images/crown02.jpg","img/object_images/gauze01.jpg","1","1","1","1","1","0","0.439653300003556","0.406166799999482","0.434331200005545","1","1","1","1","1","1","1","1","1"
"260019","img/object_images/gauze01.jpg","img/object_images/stapler.jpg","img/object_images/toy04.jpg","1","1","1","0","1","0","0.434331200005545","0.439653300003556","0.548863000003621","1","1","1","1","1","1","1","1","1"
"260019","img/object_images/toy04.jpg","img/object_images/gauze01.jpg","img/object_images/ornament01.jpg","1","1","1","0","0","1","0.548863000003621","0.434331200005545","0.350185800001782","1","1","1","1","1","1","1","1","1"
"260019","img/object_images/ornament01.jpg","img/object_images/toy04.jpg","img/object_images/fridge03.jpg","1","1","1","1","0","0","0.350185800001782","0.548863000003621","0.332598900000448","1","1","1","1","1","1","1","1","1"
"260019","img/object_images/fridge03.jpg","img/object_images/ornament01.jpg","img/object_images/shovel03.jpg","1","1","1","0","1","1","0.332598900000448","0.350185800001782","0.347516299996641","1","1","1","1","1","1","1","1","1"
"260019","img/object_images/shovel03.jpg","img/object_images/fridge03.jpg","img/object_images/watch01.jpg","1","1","1","1","0","0","0.347516299996641","0.332598900000448","0.391507500004082","1","1","1","1","1","1","1","1","1"
"260019","img/object_images/watch01.jpg","img/object_images/shovel03.jpg","img/object_images/frisbee01.jpg","1","1","1","0","1","1","0.391507500004082","0.347516299996641","0.471179000007396","1","1","1","1","1","1","1","1","1"
"260019","img/object_images/frisbee01.jpg","img/object_images/watch01.jpg","img/object_images/tool09.jpg","1","1","1","1","0","1","0.471179000007396","0.391507500004082","0.412758899998153","1","1","1","1","1","1","1","1","1"
"260019","img/object_images/tool09.jpg","img/object_images/frisbee01.jpg","img/object_images/bird_house02.jpg","1","1","1","1","1","1","0.412758899998153","0.471179000007396","0.41440750000038","1","1","1","1","1","1","1","1","1"
"260019","img/object_images/bird_house02.jpg","img/object_images/tool09.jpg","img/object_images/sink01.jpg","1","1","0","1","1","0","0.41440750000038","0.412758899998153","0.349937899998622","1","1","1","1","1","1","1","1","1"
"260019","img/object_images/sink01.jpg","img/object_images/bird_house02.jpg","img/object_images/bow01.jpg","0","1","1","0","1","1","0.349937899998622","0.41440750000038","0.467316000002029","1","1","1","1","1","1","1","1","1"
"260019","img/object_images/bow01.jpg","img/object_images/sink01.jpg","img/object_images/Tin01.jpg","1","0","1","1","0","1","0.467316000002029","0.349937899998622","0.47201209999912","1","1","1","1","1","1","1","1","1"
"260019","img/object_images/Tin01.jpg","img/object_images/bow01.jpg","img/object_images/jewel04.jpg","1","1","1","1","1","0","0.47201209999912","0.467316000002029","0.425924900002428","1","1","1","1","1","1","1","1","1"
"260019","img/object_images/jewel04.jpg","img/object_images/Tin01.jpg","img/object_images/outlet01.jpg","1","1","1","0","1","0","0.425924900002428","0.47201209999912","0.460417399997823","1","1","1","1","1","1","1","1","1"
"260019","img/object_images/outlet01.jpg","img/object_images/jewel04.jpg","img/object_images/pot01 (1).jpg","1","1","1","0","0","0","0.460417399997823","0.425924900002428","0.444614300002286","1","1","1","1","1","1","1","1","1"
"260019","img/object_images/pot01 (1).jpg","img/object_images/outlet01.jpg","img/object_images/toy03.jpg","1","1","1","0","0","1","0.444614300002286","0.460417399997823","0.444971400000213","1","1","1","1","1","1","1","1","1"
"260019","img/object_images/toy03.jpg","img/object_images/pot01 (1).jpg","img/object_images/bottle05.jpg","1","1","1","1","0","0","0.444971400000213","0.444614300002286","0.486098800000036","1","1","1","1","1","1","1","1","1"
"260019","img/object_images/bottle05.jpg","img/object_images/toy03.jpg","img/object_images/towel02.jpg","1","1","1","0","1","1","0.486098800000036","0.444971400000213","0.488511099996686","1","1","1","1","1","1","1","1","1"
"260019","img/object_images/towel02.jpg","img/object_images/bottle05.jpg","img/object_images/dart01.jpg","1","1","1","1","0","0","0.488511099996686","0.486098800000036","0.396818900000653","1","1","1","1","1","1","1","1","1"
"260019","img/object_images/dart01.jpg","img/object_images/towel02.jpg","img/object_images/Ring02.jpg","1","1","1","0","1","0","0.396818900000653","0.488511099996686","0.411700299999211","1","1","1","1","1","1","1","1","1"
"260019","img/object_images/Ring02.jpg","img/object_images/dart01.jpg","img/object_images/helmet01.jpg","1","1","1","0","0","0","0.411700299999211","0.396818900000653","0.499923700001091","1","1","1","1","1","1","1","1","1"
"260019","img/object_images/helmet01.jpg","img/object_images/Ring02.jpg","img/object_images/acoustic_capo01.jpg","1","1","1","0","0","1","0.499923700001091","0.411700299999211","0.428610900002241","1","1","1","1","1","1","1","1","1"
"260019","img/object_images/acoustic_capo01.jpg","img/object_images/helmet01.jpg","img/object_images/judge_gavel01.jpg","1","1","1","1","0","1","0.428610900002241","0.499923700001091","0.486397400003625","1","1","1","1","1","1","1","1","1"
"260019","img/object_images/judge_gavel01.jpg","img/object_images/acoustic_capo01.jpg","img/object_images/guitar02.jpg","1","1","1","1","1","0","0.486397400003625","0.428610900002241","0.535602399999334","1","1","1","1","1","1","1","1","1"
"260019","img/object_images/guitar02.jpg","img/object_images/judge_gavel01.jpg","img/object_images/tool02.jpg","1","1","1","0","1","1","0.535602399999334","0.486397400003625","0.481088000000454","1","1","1","1","1","1","1","1","1"
"260019","img/object_images/tool02.jpg","img/object_images/guitar02.jpg","img/object_images/Stool01.jpg","1","1","1","1","0","0","0.481088000000454","0.535602399999334","0.500929600006202","1","1","1","1","1","1","1","1","1"
"260019","img/object_images/Stool01.jpg","img/object_images/tool02.jpg","img/object_images/Vacuum01.jpg","1","1","1","0","1","0","0.500929600006202","0.481088000000454","0.516792100002931","1","1","1","1","1","1","1","1","1"
"260019","img/object_images/Vacuum01.jpg","img/object_images/Stool01.jpg","img/object_images/video_game07.jpg","1","1","1","0","0","1","0.516792100002931","0.500929600006202","0.45300750000024","1","1","1","1","1","1","1","1","1"
"260019","img/object_images/video_game07.jpg","img/object_images/Vacuum01.jpg",NA,"1","1",NA,"1","0",NA,"0.45300750000024","0.516792100002931",NA,"1","1",NA,"1","1",NA,"1","1",NA
"260019","img/object_images/colander01.jpg",NA,"img/object_images/cup03.jpg","1",NA,"1","0",NA,"1","0.461792900001456",NA,"0.46190370000113","1",NA,"1","1",NA,"1","1",NA,"1"
"260019","img/object_images/cup03.jpg","img/object_images/colander01.jpg","img/object_images/book01.jpg","1","1","1","1","0","1","0.46190370000113","0.461792900001456","0.427150399998936","1","1","1","1","1","1","1","1","1"
"260019","img/object_images/book01.jpg","img/object_images/cup03.jpg","img/object_images/exfoliater_brush01.jpg","1","1","1","1","1","0","0.427150399998936","0.46190370000113","0.474676400001044","1","1","1","1","1","1","1","1","1"
"260019","img/object_images/exfoliater_brush01.jpg","img/object_images/book01.jpg","img/object_images/pan01.jpg","1","1","1","0","1","1","0.474676400001044","0.427150399998936","0.448978200001875","1","1","1","1","1","1","1","1","1"
"260019","img/object_images/pan01.jpg","img/object_images/exfoliater_brush01.jpg","img/object_images/Sprayer01.jpg","1","1","1","1","0","0","0.448978200001875","0.474676400001044","0.396112700000231","1","1","1","1","1","1","1","1","1"
"260019","img/object_images/Sprayer01.jpg","img/object_images/pan01.jpg","img/object_images/bicycle_lock01.jpg","1","1","1","0","1","0","0.396112700000231","0.448978200001875","0.450307600003725","1","1","1","1","1","1","1","1","1"
"260019","img/object_images/bicycle_lock01.jpg","img/object_images/Sprayer01.jpg","img/object_images/fire_extinguisher01.jpg","1","1","1","0","0","0","0.450307600003725","0.396112700000231","0.387678400002187","1","1","1","1","1","1","1","1","1"
"260019","img/object_images/fire_extinguisher01.jpg","img/object_images/bicycle_lock01.jpg","img/object_images/tool07.jpg","1","1","1","0","0","0","0.387678400002187","0.450307600003725","0.35396480000054","1","1","1","1","1","1","1","1","1"
"260019","img/object_images/tool07.jpg","img/object_images/fire_extinguisher01.jpg","img/object_images/yo_yo01.jpg","1","1","1","0","0","0","0.35396480000054","0.387678400002187","0.525499000003038","1","1","1","1","1","1","1","1","1"
"260019","img/object_images/yo_yo01.jpg","img/object_images/tool07.jpg","img/object_images/handcuffs01.jpg","1","1","1","0","0","0","0.525499000003038","0.35396480000054","0.527346600007149","1","1","1","1","1","1","1","1","1"
"260019","img/object_images/handcuffs01.jpg","img/object_images/yo_yo01.jpg","img/object_images/gift_box04.jpg","1","1","1","0","0","0","0.527346600007149","0.525499000003038","0.413275400002021","1","1","1","1","1","1","1","1","1"
"260019","img/object_images/gift_box04.jpg","img/object_images/handcuffs01.jpg","img/object_images/projector01.jpg","1","1","1","0","0","0","0.413275400002021","0.527346600007149","0.41989779999858","1","1","1","1","1","1","1","1","1"
"260019","img/object_images/projector01.jpg","img/object_images/gift_box04.jpg","img/object_images/faucet01.jpg","1","1","1","0","0","0","0.41989779999858","0.413275400002021","0.403216400001838","1","1","1","1","1","1","1","1","1"
"260019","img/object_images/faucet01.jpg","img/object_images/projector01.jpg","img/object_images/cellphone02.jpg","1","1","1","0","0","1","0.403216400001838","0.41989779999858","0.394984400001704","1","1","1","1","1","1","1","1","1"
"260019","img/object_images/cellphone02.jpg","img/object_images/faucet01.jpg","img/object_images/glasses06.jpg","1","1","1","1","0","1","0.394984400001704","0.403216400001838","0.361149900003511","1","1","1","1","1","1","1","1","1"
"260019","img/object_images/glasses06.jpg","img/object_images/cellphone02.jpg","img/object_images/purse01.jpg","1","1","1","1","1","1","0.361149900003511","0.394984400001704","0.471076100002392","1","1","1","1","1","1","1","1","1"
"260019","img/object_images/purse01.jpg","img/object_images/glasses06.jpg","img/object_images/hair_clips01.jpg","1","1","1","1","1","1","0.471076100002392","0.361149900003511","0.487218499998562","1","1","1","1","1","1","1","1","1"
"260019","img/object_images/hair_clips01.jpg","img/object_images/purse01.jpg","img/object_images/tool08.jpg","1","1","1","1","1","0","0.487218499998562","0.471076100002392","0.538616700003331","1","1","1","1","1","1","1","1","1"
"260019","img/object_images/tool08.jpg","img/object_images/hair_clips01.jpg","img/object_images/TrashCan02.jpg","1","1","1","0","1","1","0.538616700003331","0.487218499998562","0.415163999998185","1","1","1","1","1","1","1","1","1"
"260019","img/object_images/TrashCan02.jpg","img/object_images/tool08.jpg","img/object_images/ring03.jpg","1","1","1","1","0","1","0.415163999998185","0.538616700003331","0.4571294999987","1","1","1","1","1","1","1","1","1"
"260019","img/object_images/ring03.jpg","img/object_images/TrashCan02.jpg","img/object_images/hole_puncher01.jpg","1","1","1","1","1","1","0.4571294999987","0.415163999998185","0.514493200003926","1","1","1","1","1","1","1","1","1"
"260019","img/object_images/hole_puncher01.jpg","img/object_images/ring03.jpg","img/object_images/speaker01.jpg","1","1","1","1","1","1","0.514493200003926","0.4571294999987","0.33627439999691","1","1","1","1","1","1","1","1","1"
"260019","img/object_images/speaker01.jpg","img/object_images/hole_puncher01.jpg","img/object_images/jewelry09.jpg","1","1","1","1","1","1","0.33627439999691","0.514493200003926","0.445973400004732","1","1","1","1","1","1","1","1","1"
"260019","img/object_images/jewelry09.jpg","img/object_images/speaker01.jpg","img/object_images/Pottery01.jpg","1","1","1","1","1","0","0.445973400004732","0.33627439999691","0.575827900000149","1","1","1","1","1","1","1","1","1"
"260019","img/object_images/Pottery01.jpg","img/object_images/jewelry09.jpg","img/object_images/glasses07.jpg","1","1","1","0","1","1","0.575827900000149","0.445973400004732","0.365683000003628","1","1","1","1","1","1","1","1","1"
"260019","img/object_images/glasses07.jpg","img/object_images/Pottery01.jpg","img/object_images/basket02.jpg","1","1","1","1","0","0","0.365683000003628","0.575827900000149","0.427836200004094","1","1","1","1","1","1","1","1","1"
"260019","img/object_images/basket02.jpg","img/object_images/glasses07.jpg","img/object_images/lighter01.jpg","1","1","1","0","1","1","0.427836200004094","0.365683000003628","0.427510000001348","1","1","1","1","1","1","1","1","1"
"260019","img/object_images/lighter01.jpg","img/object_images/basket02.jpg","img/object_images/tray01.jpg","1","1","1","1","0","1","0.427510000001348","0.427836200004094","0.414919499999087","1","1","1","1","1","1","1","1","1"
"260019","img/object_images/tray01.jpg","img/object_images/lighter01.jpg","img/object_images/Traffic Sign 01.jpg","1","1","1","1","1","0","0.414919499999087","0.427510000001348","0.447345600005065","1","1","1","1","1","1","1","1","1"
"260019","img/object_images/Traffic Sign 01.jpg","img/object_images/tray01.jpg","img/object_images/Kitchen_Towel.jpg","1","1","1","0","1","0","0.447345600005065","0.414919499999087","0.502161699994758","1","1","1","1","1","1","1","1","1"
"260019","img/object_images/Kitchen_Towel.jpg","img/object_images/Traffic Sign 01.jpg","img/object_images/blanket01.jpg","1","1","1","0","0","1","0.502161699994758","0.447345600005065","0.397707600001013","1","1","1","1","1","1","1","1","1"
"260019","img/object_images/blanket01.jpg","img/object_images/Kitchen_Towel.jpg",NA,"1","1",NA,"1","0",NA,"0.397707600001013","0.502161699994758",NA,"1","1",NA,"1","1",NA,"1","1",NA
"260019","img/object_images/knit04.jpg",NA,"img/object_images/knife02.jpg","1",NA,"1","1",NA,"0","0.423227699997369",NA,"0.352703899996413","1",NA,"1","1",NA,"1","1",NA,"1"
"260019","img/object_images/knife02.jpg","img/object_images/knit04.jpg","img/object_images/sponge03.jpg","1","1","1","0","1","1","0.352703899996413","0.423227699997369","0.431070400001772","1","1","1","1","1","1","1","1","1"
"260019","img/object_images/sponge03.jpg","img/object_images/knife02.jpg","img/object_images/bottle07.jpg","1","1","0","1","0","1","0.431070400001772","0.352703899996413","0.445892099996854","1","1","1","1","1","1","1","1","1"
"260019","img/object_images/bottle07.jpg","img/object_images/sponge03.jpg","img/object_images/hand_grip_exerciser01.jpg","0","1","1","1","1","0","0.445892099996854","0.431070400001772","0.413651599999867","1","1","1","1","1","1","1","1","1"
"260019","img/object_images/hand_grip_exerciser01.jpg","img/object_images/bottle07.jpg","img/object_images/stereo02.jpg","1","0","1","0","1","0","0.413651599999867","0.445892099996854","0.594549800000095","1","1","1","1","1","1","1","1","1"
"260019","img/object_images/stereo02.jpg","img/object_images/hand_grip_exerciser01.jpg","img/object_images/tool18.jpg","1","1","1","0","0","0","0.594549800000095","0.413651599999867","0.447844900001655","1","1","1","1","1","1","1","1","1"
"260019","img/object_images/tool18.jpg","img/object_images/stereo02.jpg","img/object_images/remote_controller01.jpg","1","1","1","0","0","1","0.447844900001655","0.594549800000095","0.441419900002074","1","1","1","1","1","1","1","1","1"
"260019","img/object_images/remote_controller01.jpg","img/object_images/tool18.jpg","img/object_images/basket04.jpg","1","1","1","1","0","1","0.441419900002074","0.447844900001655","0.516986900001939","1","1","1","1","1","1","1","1","1"
"260019","img/object_images/basket04.jpg","img/object_images/remote_controller01.jpg","img/object_images/blender02.jpg","1","1","1","1","1","1","0.516986900001939","0.441419900002074","0.438079100000323","1","1","1","1","1","1","1","1","1"
"260019","img/object_images/blender02.jpg","img/object_images/basket04.jpg","img/object_images/toy08.jpg","1","1","1","1","1","0","0.438079100000323","0.516986900001939","0.406990600000427","1","1","1","1","1","1","1","1","1"
"260019","img/object_images/toy08.jpg","img/object_images/blender02.jpg","img/object_images/knit03.jpg","1","1","1","0","1","1","0.406990600000427","0.438079100000323","0.481927999993786","1","1","1","1","1","1","1","1","1"
"260019","img/object_images/knit03.jpg","img/object_images/toy08.jpg","img/object_images/Statue01.jpg","1","1","1","1","0","1","0.481927999993786","0.406990600000427","0.452283500002522","1","1","1","1","1","1","1","1","1"
"260019","img/object_images/Statue01.jpg","img/object_images/knit03.jpg","img/object_images/remover01.jpg","1","1","1","1","1","1","0.452283500002522","0.481927999993786","0.424226600000111","1","1","1","1","1","1","1","1","1"
"260019","img/object_images/remover01.jpg","img/object_images/Statue01.jpg","img/object_images/gloves02.jpg","1","1","1","1","1","0","0.424226600000111","0.452283500002522","0.419515900000988","1","1","1","1","1","1","1","1","1"
"260019","img/object_images/gloves02.jpg","img/object_images/remover01.jpg","img/object_images/mail_box01.jpg","1","1","1","0","1","0","0.419515900000988","0.424226600000111","0.383503400000336","1","1","1","1","1","1","1","1","1"
"260019","img/object_images/mail_box01.jpg","img/object_images/gloves02.jpg","img/object_images/matches02.jpg","1","1","1","0","0","0","0.383503400000336","0.419515900000988","0.408464699998149","1","1","1","1","1","1","1","1","1"
"260019","img/object_images/matches02.jpg","img/object_images/mail_box01.jpg","img/object_images/dresser03.jpg","1","1","1","0","0","0","0.408464699998149","0.383503400000336","0.384083600001759","1","1","1","1","1","1","1","1","1"
"260019","img/object_images/dresser03.jpg","img/object_images/matches02.jpg","img/object_images/jacket04.jpg","1","1","1","0","0","0","0.384083600001759","0.408464699998149","0.522056599998905","1","1","1","1","1","1","1","1","1"
"260019","img/object_images/jacket04.jpg","img/object_images/dresser03.jpg","img/object_images/hoverboard01.jpg","1","1","1","0","0","0","0.522056599998905","0.384083600001759","0.480542299999797","1","1","1","1","1","1","1","1","1"
"260019","img/object_images/hoverboard01.jpg","img/object_images/jacket04.jpg","img/object_images/video_game01.jpg","1","1","1","0","0","1","0.480542299999797","0.522056599998905","0.452210500006913","1","1","1","1","1","1","1","1","1"
"260019","img/object_images/video_game01.jpg","img/object_images/hoverboard01.jpg","img/object_images/camera03.jpg","1","1","1","1","0","0","0.452210500006913","0.480542299999797","0.397660599999654","1","1","1","1","1","1","1","1","1"
"260019","img/object_images/camera03.jpg","img/object_images/video_game01.jpg","img/object_images/keyboard02.jpg","1","1","1","0","1","1","0.397660599999654","0.452210500006913","0.399715500003367","1","1","1","1","1","1","1","1","1"
"260019","img/object_images/keyboard02.jpg","img/object_images/camera03.jpg","img/object_images/backpack01.jpg","1","1","1","1","0","0","0.399715500003367","0.397660599999654","0.429300300005707","1","1","1","1","1","1","1","1","1"
"260019","img/object_images/backpack01.jpg","img/object_images/keyboard02.jpg","img/object_images/car01.jpg","1","1","1","0","1","1","0.429300300005707","0.399715500003367","0.35251199999766","1","1","1","1","1","1","1","1","1"
"260019","img/object_images/car01.jpg","img/object_images/backpack01.jpg","img/object_images/phone02.jpg","1","1","1","1","0","1","0.35251199999766","0.429300300005707","0.3740930999993","1","1","1","1","1","1","1","1","1"
"260019","img/object_images/phone02.jpg","img/object_images/car01.jpg","img/object_images/kite01.jpg","1","1","1","1","1","1","0.3740930999993","0.35251199999766","0.40621409999585","1","1","1","1","1","1","1","1","1"
"260019","img/object_images/kite01.jpg","img/object_images/phone02.jpg","img/object_images/curtain02.jpg","1","1","1","1","1","0","0.40621409999585","0.3740930999993","0.379594799996994","1","1","1","1","1","1","1","1","1"
"260019","img/object_images/curtain02.jpg","img/object_images/kite01.jpg","img/object_images/paper_cup02.jpg","1","1","1","0","1","1","0.379594799996994","0.40621409999585","0.353016500004742","1","1","1","1","1","1","1","1","1"
"260019","img/object_images/paper_cup02.jpg","img/object_images/curtain02.jpg","img/object_images/shower_head01.jpg","1","1","1","1","0","1","0.353016500004742","0.379594799996994","0.377948300003482","1","1","1","1","1","1","1","1","1"
"260019","img/object_images/shower_head01.jpg","img/object_images/paper_cup02.jpg","img/object_images/boat04.jpg","1","1","1","1","1","0","0.377948300003482","0.353016500004742","0.401521900006628","1","1","1","1","1","1","1","1","1"
"260019","img/object_images/boat04.jpg","img/object_images/shower_head01.jpg","img/object_images/flashlight03.jpg","1","1","1","0","1","0","0.401521900006628","0.377948300003482","0.417225799996231","1","1","1","1","1","1","1","1","1"
"260019","img/object_images/flashlight03.jpg","img/object_images/boat04.jpg",NA,"1","1",NA,"0","0",NA,"0.417225799996231","0.401521900006628",NA,"1","1",NA,"1","1",NA,"1","1",NA
"260019","img/object_images/tool06.jpg",NA,"img/object_images/video_game03.jpg","1",NA,"1","0",NA,"1","0.683104499999899",NA,"0.411896800003888","1",NA,"1","1",NA,"1","1",NA,"1"
"260019","img/object_images/video_game03.jpg","img/object_images/tool06.jpg","img/object_images/pen01.jpg","1","1","1","1","0","0","0.411896800003888","0.683104499999899","0.422014600000694","1","1","1","1","1","1","1","1","1"
"260019","img/object_images/pen01.jpg","img/object_images/video_game03.jpg","img/object_images/egg_slicer01.jpg","1","1","1","0","1","1","0.422014600000694","0.411896800003888","0.371809999996913","1","1","1","1","1","1","1","1","1"
"260019","img/object_images/egg_slicer01.jpg","img/object_images/pen01.jpg","img/object_images/chain01.jpg","1","1","1","1","0","0","0.371809999996913","0.422014600000694","0.349541399998998","1","1","1","1","1","1","1","1","1"
"260019","img/object_images/chain01.jpg","img/object_images/egg_slicer01.jpg","img/object_images/computer_mouse02.jpg","1","1","0","0","1","0","0.349541399998998","0.371809999996913","0.37496850000025","1","1","1","1","1","1","1","1","1"
"260019","img/object_images/computer_mouse02.jpg","img/object_images/chain01.jpg","img/object_images/tripod01.jpg","0","1","1","0","0","1","0.37496850000025","0.349541399998998","0.440463899998576","1","1","1","1","1","1","1","1","1"
"260019","img/object_images/tripod01.jpg","img/object_images/computer_mouse02.jpg","img/object_images/scarf01.jpg","1","0","1","1","0","1","0.440463899998576","0.37496850000025","0.41710630000307","1","1","1","1","1","1","1","1","1"
"260019","img/object_images/scarf01.jpg","img/object_images/tripod01.jpg","img/object_images/clip04.jpg","1","1","1","1","1","1","0.41710630000307","0.440463899998576","0.412189800001215","1","1","1","1","1","1","1","1","1"
"260019","img/object_images/clip04.jpg","img/object_images/scarf01.jpg","img/object_images/bag_pipes01.jpg","1","1","1","1","1","1","0.412189800001215","0.41710630000307","0.392853400000604","1","1","1","1","1","1","1","1","1"
"260019","img/object_images/bag_pipes01.jpg","img/object_images/clip04.jpg","img/object_images/shoes12.jpg","1","1","1","1","1","1","0.392853400000604","0.412189800001215","0.370893000006618","1","1","1","1","1","1","1","1","1"
"260019","img/object_images/shoes12.jpg","img/object_images/bag_pipes01.jpg","img/object_images/Violin01.jpg","1","1","1","1","1","0","0.370893000006618","0.392853400000604","0.561919400002807","1","1","1","1","1","1","1","1","1"
"260019","img/object_images/Violin01.jpg","img/object_images/shoes12.jpg","img/object_images/floss02.jpg","1","1","1","0","1","1","0.561919400002807","0.370893000006618","0.36437410000508","1","1","1","1","1","1","1","1","1"
"260019","img/object_images/floss02.jpg","img/object_images/Violin01.jpg","img/object_images/hair_brush01.jpg","1","1","1","1","0","1","0.36437410000508","0.561919400002807","0.427642399998149","1","1","1","1","1","1","1","1","1"
"260019","img/object_images/hair_brush01.jpg","img/object_images/floss02.jpg","img/object_images/drone01.jpg","1","1","1","1","1","1","0.427642399998149","0.36437410000508","0.380579199998465","1","1","1","1","1","1","1","1","1"
"260019","img/object_images/drone01.jpg","img/object_images/hair_brush01.jpg","img/object_images/Trowel01.jpg","1","1","1","1","1","0","0.380579199998465","0.427642399998149","0.512692999996943","1","1","1","1","1","1","1","1","1"
"260019","img/object_images/Trowel01.jpg","img/object_images/drone01.jpg","img/object_images/skate_board01.jpg","1","1","1","0","1","0","0.512692999996943","0.380579199998465","0.437385400000494","1","1","1","1","1","1","1","1","1"
"260019","img/object_images/skate_board01.jpg","img/object_images/Trowel01.jpg","img/object_images/bell03.jpg","1","1","1","0","0","0","0.437385400000494","0.512692999996943","0.434714899995015","1","1","1","1","1","1","1","1","1"
"260019","img/object_images/bell03.jpg","img/object_images/skate_board01.jpg","img/object_images/mail_box02.jpg","1","1","1","0","0","1","0.434714899995015","0.437385400000494","0.511212800003705","1","1","1","1","1","1","1","1","1"
"260019","img/object_images/mail_box02.jpg","img/object_images/bell03.jpg","img/object_images/chair06.jpg","1","1","1","1","0","0","0.511212800003705","0.434714899995015","0.533042399998521","1","1","1","1","1","1","1","1","1"
"260019","img/object_images/chair06.jpg","img/object_images/mail_box02.jpg","img/object_images/couch01.jpg","1","1","1","0","1","0","0.533042399998521","0.511212800003705","0.444062700000359","1","1","1","1","1","1","1","1","1"
"260019","img/object_images/couch01.jpg","img/object_images/chair06.jpg","img/object_images/fork02.jpg","1","1","1","0","0","0","0.444062700000359","0.533042399998521","0.571908799996891","1","1","1","1","1","1","1","1","1"
"260019","img/object_images/fork02.jpg","img/object_images/couch01.jpg","img/object_images/book02.jpg","1","1","1","0","0","1","0.571908799996891","0.444062700000359","0.383690200003912","1","1","1","1","1","1","1","1","1"
"260019","img/object_images/book02.jpg","img/object_images/fork02.jpg","img/object_images/computer_mouse01.jpg","1","1","1","1","0","1","0.383690200003912","0.571908799996891","0.411593300006643","1","1","1","1","1","1","1","1","1"
"260019","img/object_images/computer_mouse01.jpg","img/object_images/book02.jpg","img/object_images/soap03.jpg","1","1","1","1","1","0","0.411593300006643","0.383690200003912","0.425471899994591","1","1","1","1","1","1","1","1","1"
"260019","img/object_images/soap03.jpg","img/object_images/computer_mouse01.jpg","img/object_images/pitcher09.jpg","1","1","1","0","1","1","0.425471899994591","0.411593300006643","0.388921000005212","1","1","1","1","1","1","1","1","1"
"260019","img/object_images/pitcher09.jpg","img/object_images/soap03.jpg","img/object_images/box03.jpg","1","1","1","1","0","0","0.388921000005212","0.425471899994591","0.408723600005032","1","1","1","1","1","1","1","1","1"
"260019","img/object_images/box03.jpg","img/object_images/pitcher09.jpg","img/object_images/airfryer02.jpg","1","1","1","0","1","1","0.408723600005032","0.388921000005212","0.427582500000426","1","1","1","1","1","1","1","1","1"
"260019","img/object_images/airfryer02.jpg","img/object_images/box03.jpg","img/object_images/rock02.jpg","1","1","1","1","0","0","0.427582500000426","0.408723600005032","0.452758399995218","1","1","1","1","1","1","1","1","1"
"260019","img/object_images/rock02.jpg","img/object_images/airfryer02.jpg","img/object_images/toy01.jpg","1","1","1","0","1","1","0.452758399995218","0.427582500000426","0.53659680000419","1","1","1","1","1","1","1","1","1"
"260019","img/object_images/toy01.jpg","img/object_images/rock02.jpg","img/object_images/toothbrush01.jpg","1","1","1","1","0","0","0.53659680000419","0.452758399995218","0.431245800005854","1","1","1","1","1","1","1","1","1"
"260019","img/object_images/toothbrush01.jpg","img/object_images/toy01.jpg","img/object_images/blender01.jpg","1","1","1","0","1","0","0.431245800005854","0.53659680000419","0.399202500004321","1","1","1","1","1","1","1","1","1"
"260019","img/object_images/blender01.jpg","img/object_images/toothbrush01.jpg",NA,"1","1",NA,"0","0",NA,"0.399202500004321","0.431245800005854",NA,"1","1",NA,"1","1",NA,"1","1",NA
"260019","img/object_images/crutches02.jpg",NA,"img/object_images/pillows01.jpg","1",NA,"1","0",NA,"1","0.502856099999917",NA,"0.406970700001693","1",NA,"1","1",NA,"1","1",NA,"1"
"260019","img/object_images/pillows01.jpg","img/object_images/crutches02.jpg","img/object_images/Thermometer01.jpg","1","1","1","1","0","0","0.406970700001693","0.502856099999917","0.379701599995315","1","1","1","1","1","1","1","1","1"
"260019","img/object_images/Thermometer01.jpg","img/object_images/pillows01.jpg","img/object_images/pen03.jpg","1","1","1","0","1","0","0.379701599995315","0.406970700001693","0.389819700001681","1","1","1","1","1","1","1","1","1"
"260019","img/object_images/pen03.jpg","img/object_images/Thermometer01.jpg","img/object_images/note_book01.jpg","1","1","1","0","0","0","0.389819700001681","0.379701599995315","0.470401600003242","1","1","1","1","1","1","1","1","1"
"260019","img/object_images/note_book01.jpg","img/object_images/pen03.jpg","img/object_images/retainer01.jpg","1","1","1","0","0","0","0.470401600003242","0.389819700001681","0.352530800002569","1","1","1","1","1","1","1","1","1"
"260019","img/object_images/retainer01.jpg","img/object_images/note_book01.jpg","img/object_images/chair05.jpg","1","1","0","0","0","0","0.352530800002569","0.470401600003242","0.383173900001566","1","1","1","1","1","1","1","1","1"
"260019","img/object_images/chair05.jpg","img/object_images/retainer01.jpg","img/object_images/bell02.jpg","0","1","1","0","0","0","0.383173900001566","0.352530800002569","0.427909400001226","1","1","1","1","1","1","1","1","1"
"260019","img/object_images/bell02.jpg","img/object_images/chair05.jpg","img/object_images/tv02.jpg","1","0","1","0","0","0","0.427909400001226","0.383173900001566","0.371342000005825","1","1","1","1","1","1","1","1","1"
"260019","img/object_images/tv02.jpg","img/object_images/bell02.jpg","img/object_images/clip03.jpg","1","1","1","0","0","0","0.371342000005825","0.427909400001226","0.414630200000829","1","1","1","1","1","1","1","1","1"
"260019","img/object_images/clip03.jpg","img/object_images/tv02.jpg","img/object_images/Staples01.jpg","1","1","1","0","0","1","0.414630200000829","0.371342000005825","0.376452500000596","1","1","1","1","1","1","1","1","1"
"260019","img/object_images/Staples01.jpg","img/object_images/clip03.jpg","img/object_images/paint_brush04.jpg","1","1","1","1","0","0","0.376452500000596","0.414630200000829","0.451092999996035","1","1","1","1","1","1","1","1","1"
"260019","img/object_images/paint_brush04.jpg","img/object_images/Staples01.jpg","img/object_images/lid01.jpg","1","1","1","0","1","1","0.451092999996035","0.376452500000596","0.382470399999875","1","1","1","1","1","1","1","1","1"
"260019","img/object_images/lid01.jpg","img/object_images/paint_brush04.jpg","img/object_images/ear_bud01.jpg","1","1","1","1","0","1","0.382470399999875","0.451092999996035","0.398959099999047","1","1","1","1","1","1","1","1","1"
"260019","img/object_images/ear_bud01.jpg","img/object_images/lid01.jpg","img/object_images/usb02.jpg","1","1","1","1","1","0","0.398959099999047","0.382470399999875","0.35099280000577","1","1","1","1","1","1","1","1","1"
"260019","img/object_images/usb02.jpg","img/object_images/ear_bud01.jpg","img/object_images/book03.jpg","1","1","1","0","1","1","0.35099280000577","0.398959099999047","0.358162599994102","1","1","1","1","1","1","1","1","1"
"260019","img/object_images/book03.jpg","img/object_images/usb02.jpg","img/object_images/bottle01.jpg","1","1","1","1","0","0","0.358162599994102","0.35099280000577","0.386660199998005","1","1","1","1","1","1","1","1","1"
"260019","img/object_images/bottle01.jpg","img/object_images/book03.jpg","img/object_images/clock02.jpg","1","1","1","0","1","0","0.386660199998005","0.358162599994102","0.385039000000688","1","1","1","1","1","1","1","1","1"
"260019","img/object_images/clock02.jpg","img/object_images/bottle01.jpg","img/object_images/chess_piece02.jpg","1","1","1","0","0","1","0.385039000000688","0.386660199998005","0.470861099995091","1","1","1","1","1","1","1","1","1"
"260019","img/object_images/chess_piece02.jpg","img/object_images/clock02.jpg","img/object_images/Oven01.jpg","1","1","1","1","0","1","0.470861099995091","0.385039000000688","0.422339899996587","1","1","1","1","1","1","1","1","1"
"260019","img/object_images/Oven01.jpg","img/object_images/chess_piece02.jpg","img/object_images/knit05.jpg","1","1","1","1","1","1","0.422339899996587","0.470861099995091","0.478495200004545","1","1","1","1","1","1","1","1","1"
"260019","img/object_images/knit05.jpg","img/object_images/Oven01.jpg","img/object_images/tennis_racket02.jpg","1","1","1","1","1","1","0.478495200004545","0.422339899996587","0.421388800001296","1","1","1","1","1","1","1","1","1"
"260019","img/object_images/tennis_racket02.jpg","img/object_images/knit05.jpg","img/object_images/compass01.jpg","1","1","1","1","1","1","0.421388800001296","0.478495200004545","0.423877699999139","1","1","1","1","1","1","1","1","1"
"260019","img/object_images/compass01.jpg","img/object_images/tennis_racket02.jpg","img/object_images/pitcher01.jpg","1","1","1","1","1","0","0.423877699999139","0.421388800001296","0.406522299999779","1","1","1","1","1","1","1","1","1"
"260019","img/object_images/pitcher01.jpg","img/object_images/compass01.jpg","img/object_images/microscope01.jpg","1","1","1","0","1","0","0.406522299999779","0.423877699999139","0.4132924000005","1","1","1","1","1","1","1","1","1"
"260019","img/object_images/microscope01.jpg","img/object_images/pitcher01.jpg","img/object_images/motorcycle01.jpg","1","1","1","0","0","1","0.4132924000005","0.406522299999779","0.423210799999651","1","1","1","1","1","1","1","1","1"
"260019","img/object_images/motorcycle01.jpg","img/object_images/microscope01.jpg","img/object_images/knife04.jpg","1","1","1","1","0","1","0.423210799999651","0.4132924000005","0.395816100004595","1","1","1","1","1","1","1","1","1"
"260019","img/object_images/knife04.jpg","img/object_images/motorcycle01.jpg","img/object_images/floppy_disk02.jpg","1","1","1","1","1","0","0.395816100004595","0.423210799999651","0.435484300003736","1","1","1","1","1","1","1","1","1"
"260019","img/object_images/floppy_disk02.jpg","img/object_images/knife04.jpg","img/object_images/cellphone01.jpg","1","1","1","0","1","1","0.435484300003736","0.395816100004595","0.370174000003317","1","1","1","1","1","1","1","1","1"
"260019","img/object_images/cellphone01.jpg","img/object_images/floppy_disk02.jpg","img/object_images/hammer03.jpg","1","1","1","1","0","1","0.370174000003317","0.435484300003736","0.374638900000718","1","1","1","1","1","1","1","1","1"
"260019","img/object_images/hammer03.jpg","img/object_images/cellphone01.jpg","img/object_images/wire02.jpg","1","1","1","1","1","1","0.374638900000718","0.370174000003317","0.401056299997435","1","1","1","1","1","1","1","1","1"
"260019","img/object_images/wire02.jpg","img/object_images/hammer03.jpg","img/object_images/floppy_disk03.jpg","1","1","1","1","1","1","0.401056299997435","0.374638900000718","0.519116200004646","1","1","1","1","1","1","1","1","1"
"260019","img/object_images/floppy_disk03.jpg","img/object_images/wire02.jpg",NA,"1","1",NA,"1","1",NA,"0.519116200004646","0.401056299997435",NA,"1","1",NA,"1","1",NA,"1","1",NA
"260019","img/object_images/knife01.jpg",NA,"img/object_images/Candle_Holder01.jpg","1",NA,"1","1",NA,"0","0.517770799997379",NA,"0.430896600002598","1",NA,"1","1",NA,"1","1",NA,"1"
"260019","img/object_images/Candle_Holder01.jpg","img/object_images/knife01.jpg","img/object_images/Confetti 01.jpg","1","1","1","0","1","0","0.430896600002598","0.517770799997379","0.462658700002066","1","1","1","1","1","1","1","1","1"
"260019","img/object_images/Confetti 01.jpg","img/object_images/Candle_Holder01.jpg","img/object_images/camera05.jpg","1","1","1","0","0","0","0.462658700002066","0.430896600002598","0.387899700006528","1","1","1","1","1","1","1","1","1"
"260019","img/object_images/camera05.jpg","img/object_images/Confetti 01.jpg","img/object_images/duster01.jpg","1","1","1","0","0","0","0.387899700006528","0.462658700002066","0.526582099999359","1","1","1","1","1","1","1","1","1"
"260019","img/object_images/duster01.jpg","img/object_images/camera05.jpg","img/object_images/razor02.jpg","1","1","1","0","0","1","0.526582099999359","0.387899700006528","0.468914400000358","1","1","1","1","1","1","1","1","1"
"260019","img/object_images/razor02.jpg","img/object_images/duster01.jpg","img/object_images/candle02.jpg","1","1","0","1","0","0","0.468914400000358","0.526582099999359","0.34317739999824","1","1","1","1","1","1","1","1","1"
"260019","img/object_images/candle02.jpg","img/object_images/razor02.jpg","img/object_images/floss01.jpg","0","1","1","0","1","1","0.34317739999824","0.468914400000358","0.424368699998013","1","1","1","1","1","1","1","1","1"
"260019","img/object_images/floss01.jpg","img/object_images/candle02.jpg","img/object_images/bag04.jpg","1","0","1","1","0","0","0.424368699998013","0.34317739999824","0.435813800002506","1","1","1","1","1","1","1","1","1"
"260019","img/object_images/bag04.jpg","img/object_images/floss01.jpg","img/object_images/vase02.jpg","1","1","1","0","1","1","0.435813800002506","0.424368699998013","0.430405500002962","1","1","1","1","1","1","1","1","1"
"260019","img/object_images/vase02.jpg","img/object_images/bag04.jpg","img/object_images/ruler02.jpg","1","1","1","1","0","1","0.430405500002962","0.435813800002506","0.39886850000039","1","1","1","1","1","1","1","1","1"
"260019","img/object_images/ruler02.jpg","img/object_images/vase02.jpg","img/object_images/hammer02.jpg","1","1","1","1","1","0","0.39886850000039","0.430405500002962","0.449096899996221","1","1","1","1","1","1","1","1","1"
"260019","img/object_images/hammer02.jpg","img/object_images/ruler02.jpg","img/object_images/perfume01.jpg","1","1","1","0","1","0","0.449096899996221","0.39886850000039","0.43994560000283","1","1","1","1","1","1","1","1","1"
"260019","img/object_images/perfume01.jpg","img/object_images/hammer02.jpg","img/object_images/clipboard01.jpg","1","1","1","0","0","1","0.43994560000283","0.449096899996221","0.353597699999227","1","1","1","1","1","1","1","1","1"
"260019","img/object_images/clipboard01.jpg","img/object_images/perfume01.jpg","img/object_images/hat13.jpg","1","1","1","1","0","1","0.353597699999227","0.43994560000283","0.46272830000089","1","1","1","1","1","1","1","1","1"
"260019","img/object_images/hat13.jpg","img/object_images/clipboard01.jpg","img/object_images/hat09.jpg","1","1","1","1","1","0","0.46272830000089","0.353597699999227","0.446165400004247","1","1","1","1","1","1","1","1","1"
"260019","img/object_images/hat09.jpg","img/object_images/hat13.jpg","img/object_images/office_supplies01.jpg","1","1","1","0","1","1","0.446165400004247","0.46272830000089","0.41889970000193","1","1","1","1","1","1","1","1","1"
"260019","img/object_images/office_supplies01.jpg","img/object_images/hat09.jpg","img/object_images/cup01.jpg","1","1","1","1","0","0","0.41889970000193","0.446165400004247","0.513950700005807","1","1","1","1","1","1","1","1","1"
"260019","img/object_images/cup01.jpg","img/object_images/office_supplies01.jpg","img/object_images/tool13.jpg","1","1","1","0","1","1","0.513950700005807","0.41889970000193","0.47011940000084","1","1","1","1","1","1","1","1","1"
"260019","img/object_images/tool13.jpg","img/object_images/cup01.jpg","img/object_images/pen06.jpg","1","1","1","1","0","0","0.47011940000084","0.513950700005807","0.421890400000848","1","1","1","1","1","1","1","1","1"
"260019","img/object_images/pen06.jpg","img/object_images/tool13.jpg","img/object_images/spray_can01.jpg","1","1","1","0","1","0","0.421890400000848","0.47011940000084","0.409471600003599","1","1","1","1","1","1","1","1","1"
"260019","img/object_images/spray_can01.jpg","img/object_images/pen06.jpg","img/object_images/sign02.jpg","1","1","1","0","0","0","0.409471600003599","0.421890400000848","0.468169799998577","1","1","1","1","1","1","1","1","1"
"260019","img/object_images/sign02.jpg","img/object_images/spray_can01.jpg","img/object_images/glasses03.jpg","1","1","1","0","0","0","0.468169799998577","0.409471600003599","0.461068899996462","1","1","1","1","1","1","1","1","1"
"260019","img/object_images/glasses03.jpg","img/object_images/sign02.jpg","img/object_images/lemon_squeezer01.jpg","1","1","1","0","0","1","0.461068899996462","0.468169799998577","0.486241600003268","1","1","1","1","1","1","1","1","1"
"260019","img/object_images/lemon_squeezer01.jpg","img/object_images/glasses03.jpg","img/object_images/video_game02.jpg","1","1","1","1","0","1","0.486241600003268","0.461068899996462","0.390944300001138","1","1","1","1","1","1","1","1","1"
"260019","img/object_images/video_game02.jpg","img/object_images/lemon_squeezer01.jpg","img/object_images/pan03.jpg","1","1","1","1","1","1","0.390944300001138","0.486241600003268","0.341712800007372","1","1","1","1","1","1","1","1","1"
"260019","img/object_images/pan03.jpg","img/object_images/video_game02.jpg","img/object_images/dust_pan01.jpg","1","1","1","1","1","1","0.341712800007372","0.390944300001138","0.392731300002197","1","1","1","1","1","1","1","1","1"
"260019","img/object_images/dust_pan01.jpg","img/object_images/pan03.jpg","img/object_images/socks01.jpg","1","1","1","1","1","1","0.392731300002197","0.341712800007372","0.411956500000088","1","1","1","1","1","1","1","1","1"
"260019","img/object_images/socks01.jpg","img/object_images/dust_pan01.jpg","img/object_images/bow_tie03.jpg","1","1","0","1","1","1","0.411956500000088","0.392731300002197","0.402137099998072","1","1","1","1","1","1","1","1","1"
"260019","img/object_images/bow_tie03.jpg","img/object_images/socks01.jpg","img/object_images/tool20.jpg","0","1","1","1","1","0","0.402137099998072","0.411956500000088","0.415758200004348","1","1","1","1","1","1","1","1","1"
"260019","img/object_images/tool20.jpg","img/object_images/bow_tie03.jpg","img/object_images/board01.jpg","1","0","1","0","1","1","0.415758200004348","0.402137099998072","0.552229000000807","1","1","1","1","1","1","1","1","1"
"260019","img/object_images/board01.jpg","img/object_images/tool20.jpg","img/object_images/sink_filter01 (1).jpg","1","1","1","1","0","0","0.552229000000807","0.415758200004348","0.381841000002169","1","1","1","1","1","1","1","1","1"
"260019","img/object_images/sink_filter01 (1).jpg","img/object_images/board01.jpg",NA,"1","1",NA,"0","1",NA,"0.381841000002169","0.552229000000807",NA,"1","1",NA,"1","1",NA,"1","1",NA
"260019","img/object_images/drone02.jpg",NA,"img/object_images/toilet_paper01.jpg","1",NA,"1","0",NA,"1","0.444965800001228",NA,"0.38632819999475","1",NA,"1","1",NA,"1","1",NA,"1"
"260019","img/object_images/toilet_paper01.jpg","img/object_images/drone02.jpg","img/object_images/tie01.jpg","1","1","1","1","0","0","0.38632819999475","0.444965800001228","0.479550199997902","1","1","1","1","1","1","1","1","1"
"260019","img/object_images/tie01.jpg","img/object_images/toilet_paper01.jpg","img/object_images/Woopie01.jpg","1","1","1","0","1","1","0.479550199997902","0.38632819999475","0.4393063000025","1","1","1","1","1","1","1","1","1"
"260019","img/object_images/Woopie01.jpg","img/object_images/tie01.jpg","img/object_images/guitar01.jpg","1","1","1","1","0","1","0.4393063000025","0.479550199997902","0.40958849999879","1","1","1","1","1","1","1","1","1"
"260019","img/object_images/guitar01.jpg","img/object_images/Woopie01.jpg","img/object_images/video_game06.jpg","1","1","1","1","1","0","0.40958849999879","0.4393063000025","0.450365299999248","1","1","1","1","1","1","1","1","1"
"260019","img/object_images/video_game06.jpg","img/object_images/guitar01.jpg","img/object_images/soap01.jpg","1","1","1","0","1","0","0.450365299999248","0.40958849999879","0.423911700003373","1","1","1","1","1","1","1","1","1"
"260019","img/object_images/soap01.jpg","img/object_images/video_game06.jpg","img/object_images/toy_train02.jpg","1","1","1","0","0","1","0.423911700003373","0.450365299999248","0.436054999998305","1","1","1","1","1","1","1","1","1"
"260019","img/object_images/toy_train02.jpg","img/object_images/soap01.jpg","img/object_images/cochlear_implant01.jpg","1","1","1","1","0","0","0.436054999998305","0.423911700003373","0.431667800003197","1","1","1","1","1","1","1","1","1"
"260019","img/object_images/cochlear_implant01.jpg","img/object_images/toy_train02.jpg","img/object_images/chair01.jpg","1","1","1","0","1","0","0.431667800003197","0.436054999998305","0.42926759999682","1","1","1","1","1","1","1","1","1"
"260019","img/object_images/chair01.jpg","img/object_images/cochlear_implant01.jpg","img/object_images/basketball_hoop02.jpg","1","1","1","0","0","0","0.42926759999682","0.431667800003197","0.398406100001012","1","1","1","1","1","1","1","1","1"
"260019","img/object_images/basketball_hoop02.jpg","img/object_images/chair01.jpg","img/object_images/Wisk01.jpg","1","1","1","0","0","1","0.398406100001012","0.42926759999682","0.369188299999223","1","1","1","1","1","1","1","1","1"
"260019","img/object_images/Wisk01.jpg","img/object_images/basketball_hoop02.jpg","img/object_images/couch04.jpg","1","1","1","1","0","1","0.369188299999223","0.398406100001012","0.406342599999334","1","1","1","1","1","1","1","1","1"
"260019","img/object_images/couch04.jpg","img/object_images/Wisk01.jpg","img/object_images/ball01.jpg","1","1","1","1","1","1","0.406342599999334","0.369188299999223","0.450365500000771","1","1","1","1","1","1","1","1","1"
"260019","img/object_images/ball01.jpg","img/object_images/couch04.jpg","img/object_images/container01.jpg","1","1","1","1","1","0","0.450365500000771","0.406342599999334","0.354695499998343","1","1","1","1","1","1","1","1","1"
"260019","img/object_images/container01.jpg","img/object_images/ball01.jpg","img/object_images/decorative02.jpg","1","1","1","0","1","0","0.354695499998343","0.450365500000771","0.363198099999863","1","1","1","1","1","1","1","1","1"
"260019","img/object_images/decorative02.jpg","img/object_images/container01.jpg","img/object_images/razor03.jpg","1","1","1","0","0","0","0.363198099999863","0.354695499998343","0.428448699996807","1","1","1","1","1","1","1","1","1"
"260019","img/object_images/razor03.jpg","img/object_images/decorative02.jpg","img/object_images/pot01.jpg","1","1","1","0","0","0","0.428448699996807","0.363198099999863","0.429775399999926","1","1","1","1","1","1","1","1","1"
"260019","img/object_images/pot01.jpg","img/object_images/razor03.jpg","img/object_images/brief_case01.jpg","1","1","1","0","0","0","0.429775399999926","0.428448699996807","0.410437099999399","1","1","1","1","1","1","1","1","1"
"260019","img/object_images/brief_case01.jpg","img/object_images/pot01.jpg","img/object_images/lamp01.jpg","1","1","1","0","0","1","0.410437099999399","0.429775399999926","0.404560200004198","1","1","1","1","1","1","1","1","1"
"260019","img/object_images/lamp01.jpg","img/object_images/brief_case01.jpg","img/object_images/lantern01.jpg","1","1","1","1","0","1","0.404560200004198","0.410437099999399","0.385474300004716","1","1","1","1","1","1","1","1","1"
"260019","img/object_images/lantern01.jpg","img/object_images/lamp01.jpg","img/object_images/airfryer01.jpg","1","1","1","1","1","0","0.385474300004716","0.404560200004198","0.41045160000067","1","1","1","1","1","1","1","1","1"
"260019","img/object_images/airfryer01.jpg","img/object_images/lantern01.jpg","img/object_images/helmet05.jpg","1","1","1","0","1","1","0.41045160000067","0.385474300004716","0.4788217000023","1","1","1","1","1","1","1","1","1"
"260019","img/object_images/helmet05.jpg","img/object_images/airfryer01.jpg","img/object_images/pitcher03.jpg","1","1","1","1","0","1","0.4788217000023","0.41045160000067","0.389553000000888","1","1","1","1","1","1","1","1","1"
"260019","img/object_images/pitcher03.jpg","img/object_images/helmet05.jpg","img/object_images/bottle12.jpg","1","1","1","1","1","1","0.389553000000888","0.4788217000023","0.407591899995168","1","1","1","1","1","1","1","1","1"
"260019","img/object_images/bottle12.jpg","img/object_images/pitcher03.jpg","img/object_images/ironing_table02.jpg","1","1","1","1","1","0","0.407591899995168","0.389553000000888","0.502259399996547","1","1","1","1","1","1","1","1","1"
"260019","img/object_images/ironing_table02.jpg","img/object_images/bottle12.jpg","img/object_images/broom01.jpg","1","1","1","0","1","1","0.502259399996547","0.407591899995168","0.361356100002013","1","1","1","1","1","1","1","1","1"
"260019","img/object_images/broom01.jpg","img/object_images/ironing_table02.jpg","img/object_images/gloves05.jpg","1","1","1","1","0","1","0.361356100002013","0.502259399996547","0.402329199998348","1","1","1","1","1","1","1","1","1"
"260019","img/object_images/gloves05.jpg","img/object_images/broom01.jpg","img/object_images/hat02.jpg","1","1","1","1","1","0","0.402329199998348","0.361356100002013","0.413355600001523","1","1","1","1","1","1","1","1","1"
"260019","img/object_images/hat02.jpg","img/object_images/gloves05.jpg","img/object_images/brief_case02.jpg","1","1","1","0","1","1","0.413355600001523","0.402329199998348","0.364492400003655","1","1","1","1","1","1","1","1","1"
"260019","img/object_images/brief_case02.jpg","img/object_images/hat02.jpg","img/object_images/car02.jpg","1","1","1","1","0","0","0.364492400003655","0.413355600001523","0.365776700004062","1","1","1","1","1","1","1","1","1"
"260019","img/object_images/car02.jpg","img/object_images/brief_case02.jpg","img/object_images/Recycling01.jpg","1","1","1","0","1","1","0.365776700004062","0.364492400003655","0.397095699998317","1","1","1","1","1","1","1","1","1"
"260019","img/object_images/Recycling01.jpg","img/object_images/car02.jpg",NA,"1","1",NA,"1","0",NA,"0.397095699998317","0.365776700004062",NA,"1","1",NA,"1","1",NA,"1","1",NA
"260019","img/object_images/vase01.jpg",NA,"img/object_images/lock01.jpg","1",NA,"1","0",NA,"0","0.397934300002817",NA,"0.563418300000194","1",NA,"1","1",NA,"1","1",NA,"1"
"260019","img/object_images/lock01.jpg","img/object_images/vase01.jpg","img/object_images/pitcher05.jpg","1","1","1","0","0","0","0.563418300000194","0.397934300002817","0.474691399998846","1","1","1","1","1","1","1","1","1"
"260019","img/object_images/pitcher05.jpg","img/object_images/lock01.jpg","img/object_images/trash_can05.jpg","1","1","1","0","0","1","0.474691399998846","0.563418300000194","0.377023099994403","1","1","1","1","1","1","1","1","1"
"260019","img/object_images/trash_can05.jpg","img/object_images/pitcher05.jpg","img/object_images/combs01.jpg","1","1","0","1","0","1","0.377023099994403","0.474691399998846","0.40093209999759","1","1","1","1","1","1","1","1","1"
"260019","img/object_images/combs01.jpg","img/object_images/trash_can05.jpg","img/object_images/chair02.jpg","0","1","1","1","1","1","0.40093209999759","0.377023099994403","0.414025400001265","1","1","1","1","1","1","1","1","1"
"260019","img/object_images/chair02.jpg","img/object_images/combs01.jpg","img/object_images/calculator01.jpg","1","0","1","1","1","1","0.414025400001265","0.40093209999759","0.449965699997847","1","1","1","1","1","1","1","1","1"
"260019","img/object_images/calculator01.jpg","img/object_images/chair02.jpg","img/object_images/gift_box05.jpg","1","1","1","1","1","0","0.449965699997847","0.414025400001265","0.416950099999667","1","1","1","1","1","1","1","1","1"
"260019","img/object_images/gift_box05.jpg","img/object_images/calculator01.jpg","img/object_images/Vest02.jpg","1","1","1","0","1","0","0.416950099999667","0.449965699997847","0.419073600001866","1","1","1","1","1","1","1","1","1"
"260019","img/object_images/Vest02.jpg","img/object_images/gift_box05.jpg","img/object_images/robe01.jpg","1","1","1","0","0","1","0.419073600001866","0.416950099999667","0.403720300004352","1","1","1","1","1","1","1","1","1"
"260019","img/object_images/robe01.jpg","img/object_images/Vest02.jpg","img/object_images/laptop01.jpg","1","1","1","1","0","0","0.403720300004352","0.419073600001866","0.353513900001417","1","1","1","1","1","1","1","1","1"
"260019","img/object_images/laptop01.jpg","img/object_images/robe01.jpg","img/object_images/microphone03.jpg","1","1","1","0","1","1","0.353513900001417","0.403720300004352","0.522592300003453","1","1","1","1","1","1","1","1","1"
"260019","img/object_images/microphone03.jpg","img/object_images/laptop01.jpg","img/object_images/helmet02.jpg","1","1","1","1","0","0","0.522592300003453","0.353513900001417","0.384029099994223","1","1","1","1","1","1","1","1","1"
"260019","img/object_images/helmet02.jpg","img/object_images/microphone03.jpg","img/object_images/laptop03.jpg","1","1","1","0","1","1","0.384029099994223","0.522592300003453","0.3950857000018","1","1","1","1","1","1","1","1","1"
"260019","img/object_images/laptop03.jpg","img/object_images/helmet02.jpg","img/object_images/jewel03.jpg","1","1","1","1","0","1","0.3950857000018","0.384029099994223","0.437618100004329","1","1","1","1","1","1","1","1","1"
"260019","img/object_images/jewel03.jpg","img/object_images/laptop03.jpg","img/object_images/ball02.jpg","1","1","1","1","1","1","0.437618100004329","0.3950857000018","0.409583000000566","1","1","1","1","1","1","1","1","1"
"260019","img/object_images/ball02.jpg","img/object_images/jewel03.jpg","img/object_images/umbrella01.jpg","1","1","1","1","1","0","0.409583000000566","0.437618100004329","0.439621999998053","1","1","1","1","1","1","1","1","1"
"260019","img/object_images/umbrella01.jpg","img/object_images/ball02.jpg","img/object_images/fan04.jpg","1","1","1","0","1","0","0.439621999998053","0.409583000000566","0.469582099998661","1","1","1","1","1","1","1","1","1"
"260019","img/object_images/fan04.jpg","img/object_images/umbrella01.jpg","img/object_images/accardion01.jpg","1","1","1","0","0","1","0.469582099998661","0.439621999998053","0.630256700002064","1","1","1","1","1","1","1","1","1"
"260019","img/object_images/accardion01.jpg","img/object_images/fan04.jpg","img/object_images/trash_can03.jpg","1","1","1","1","0","1","0.630256700002064","0.469582099998661","0.41809810000268","1","1","1","1","1","1","1","1","1"
"260019","img/object_images/trash_can03.jpg","img/object_images/accardion01.jpg","img/object_images/Lint_Roller02.jpg","1","1","1","1","1","0","0.41809810000268","0.630256700002064","0.407743800002209","1","1","1","1","1","1","1","1","1"
"260019","img/object_images/Lint_Roller02.jpg","img/object_images/trash_can03.jpg","img/object_images/hair_brush02.jpg","1","1","1","0","1","0","0.407743800002209","0.41809810000268","0.40745859999879","1","1","1","1","1","1","1","1","1"
"260019","img/object_images/hair_brush02.jpg","img/object_images/Lint_Roller02.jpg","img/object_images/hair_dryer01.jpg","1","1","1","0","0","0","0.40745859999879","0.407743800002209","0.498556900005497","1","1","1","1","1","1","1","1","1"
"260019","img/object_images/hair_dryer01.jpg","img/object_images/hair_brush02.jpg","img/object_images/toy05.jpg","1","1","1","0","0","0","0.498556900005497","0.40745859999879","0.435420099995099","1","1","1","1","1","1","1","1","1"
"260019","img/object_images/toy05.jpg","img/object_images/hair_dryer01.jpg","img/object_images/chess_piece01.jpg","1","1","1","0","0","0","0.435420099995099","0.498556900005497","0.507147500000428","1","1","1","1","1","1","1","1","1"
"260019","img/object_images/chess_piece01.jpg","img/object_images/toy05.jpg","img/object_images/backpack03.jpg","1","1","1","0","0","1","0.507147500000428","0.435420099995099","0.444262400000298","1","1","1","1","1","1","1","1","1"
"260019","img/object_images/backpack03.jpg","img/object_images/chess_piece01.jpg","img/object_images/towels01.jpg","1","1","1","1","0","0","0.444262400000298","0.507147500000428","0.412251099995046","1","1","1","1","1","1","1","1","1"
"260019","img/object_images/towels01.jpg","img/object_images/backpack03.jpg","img/object_images/surf_board01.jpg","1","1","1","0","1","1","0.412251099995046","0.444262400000298","0.377077299999655","1","1","1","1","1","1","1","1","1"
"260019","img/object_images/surf_board01.jpg","img/object_images/towels01.jpg","img/object_images/shoes08.jpg","1","1","1","1","0","1","0.377077299999655","0.412251099995046","0.397275700001046","1","1","1","1","1","1","1","1","1"
"260019","img/object_images/shoes08.jpg","img/object_images/surf_board01.jpg","img/object_images/bucket02.jpg","1","1","1","1","1","1","0.397275700001046","0.377077299999655","0.409560700005386","1","1","1","1","1","1","1","1","1"
"260019","img/object_images/bucket02.jpg","img/object_images/shoes08.jpg","img/object_images/spatula02.jpg","1","1","1","1","1","1","0.409560700005386","0.397275700001046","0.39800280000054","1","1","1","1","1","1","1","1","1"
"260019","img/object_images/spatula02.jpg","img/object_images/bucket02.jpg","img/object_images/stove01.jpg","1","1","1","1","1","0","0.39800280000054","0.409560700005386","0.403293399998802","1","1","1","1","1","1","1","1","1"
"260019","img/object_images/stove01.jpg","img/object_images/spatula02.jpg",NA,"1","1",NA,"0","1",NA,"0.403293399998802","0.39800280000054",NA,"1","1",NA,"1","1",NA,"1","1",NA
