"participant_id","object","surpAcc","memory_surp_responses","memory_surp_rt","keep_surp_memory_trial_based_on_rt","surp_block_num","exclude_block","number_of_surp_resp_items_used","num_blocks_excluded"
"260039","img/object_images/Thermometer01.jpg","0","s","2.28114650002681",1,1,0,2,1
"260039","img/object_images/key02.jpg","1","k","1.04046990000643",1,1,0,2,1
"260039","img/object_images/dress03.jpg","1","s","0.908450399991125",1,1,0,2,1
"260039","img/object_images/Traffic Sign 01.jpg","1","k","0.699271499994211",1,1,0,2,1
"260039","img/object_images/video_game02.jpg","1","s","0.474275500047952",1,1,0,2,1
"260039","img/object_images/ToolBag01.jpg","1","s","0.403994799940847",1,1,0,2,1
"260039","img/object_images/brief_case02.jpg","1","k","0.254245099960826",1,1,0,2,1
"260039","img/object_images/purse04.jpg","1","s","0.224550000042655",1,1,0,2,1
"260039","img/object_images/MetalWire01.jpg","0","s","0.331531099975109",1,1,0,2,1
"260039","img/object_images/knife04.jpg","1","s","0.30399100005161",1,1,0,2,1
"260039","img/object_images/bow_tie01.jpg","0","k","0.105621500057168",0,1,0,2,1
"260039","img/object_images/Lint_Roller02.jpg","0","s","0.0922483999747783",0,1,0,2,1
"260039","img/object_images/fan01.jpg","0","k","0.0132812999654561",0,1,0,2,1
"260039","img/object_images/tv01.jpg","0","s","0.070890299975872",0,1,0,2,1
"260039","img/object_images/knife01.jpg","0","k","0.105621499940753",0,1,0,2,1
"260039","img/object_images/bow_tie03.jpg","1","s","0.0881014000624418",0,1,0,2,1
"260039","img/object_images/sink01.jpg","0","k","0.394356900011189",1,1,0,2,1
"260039","img/object_images/accardion01.jpg","0","k","0.240690100006759",1,1,0,2,1
"260039","img/object_images/broom01.jpg","0","s","0.36852490005549",1,1,0,2,1
"260039","img/object_images/bottle05.jpg","1","k","0.130936900037341",0,1,0,2,1
"260039","img/object_images/WoodBox01.jpg","0","s","0.0234778000740334",0,1,0,2,1
"260039","img/object_images/crown02.jpg","0","k","0.256119600031525",1,1,0,2,1
"260039","img/object_images/knit05.jpg","1","s","0.125178699963726",0,1,0,2,1
"260039","img/object_images/toaster01.jpg","1","s","1.04856530006509",1,1,0,2,1
"260039","img/object_images/cellphone03.jpg","0","s","0.368401699932292",1,1,0,2,1
"260039","img/object_images/razor01.jpg","0","s","0.250786299933679",1,1,0,2,1
"260039","img/object_images/mask01.jpg","1","k","0.23797909996938",1,1,0,2,1
"260039","img/object_images/flashlight03.jpg","1","s","0.244755199993961",1,1,0,2,1
"260039","img/object_images/pitcher02.jpg","0","k","0.205235100002028",1,1,0,2,1
"260039","img/object_images/bird_house02.jpg","0","k","0.709770199959166",1,1,0,2,1
"260039","img/object_images/ornament01.jpg","0","s","0.512382399989292",1,1,0,2,1
"260039","img/object_images/vase01.jpg","0","s","0.319268499966711",1,1,0,2,1
"260039","img/object_images/clip02.jpg","1","s","0.268496799981222",1,1,0,2,1
"260039","img/object_images/boat04.jpg","0","s","0.183456499944441",0,1,0,2,1
"260039","img/object_images/book03.jpg","0","k","0.265623899991624",1,1,0,2,1
"260039","img/object_images/matches02.jpg","0","s","0.55711039993912",1,1,0,2,1
"260039","img/object_images/hair_brush02.jpg","1","k","0.29699420009274",1,1,0,2,1
"260039","img/object_images/jewel04.jpg","1","s","0.233700499986298",1,1,0,2,1
"260039","img/object_images/pen03.jpg","1","s","0.590794799965806",1,1,0,2,1
"260039","img/object_images/perfume02.jpg","1","s","0.446808899985626",1,1,0,2,1
"260039","img/object_images/scarf01.jpg","1","k","0.0913710999302566",0,1,0,2,1
"260039","img/object_images/microphone03.jpg","1","s","0.319276400026865",1,1,0,2,1
"260039","img/object_images/knife02.jpg","1","k","0.452562299906276",1,1,0,2,1
"260039","img/object_images/Vest02.jpg","0","s","0.262181700090878",1,1,0,2,1
"260039","img/object_images/guitar02.jpg","1","k","0.206640399992466",1,1,0,2,1
"260039","img/object_images/ruler02.jpg","0","s","0.266937600099482",1,1,0,2,1
"260039","img/object_images/pot01.jpg","1","k","0.460016999975778",1,1,0,2,1
"260039","img/object_images/shower_head01.jpg","0","s","0.0965654000174254",0,1,0,2,1
"260039","img/object_images/robe01.jpg","1","s","0.683674599975348",1,2,0,2,1
"260039","img/object_images/clip04.jpg","0","k","0.323135099955834",1,2,0,2,1
"260039","img/object_images/WitchHat02.jpg","0","s","0.350233300006948",1,2,0,2,1
"260039","img/object_images/mail_box02.jpg","1","k","0.362476799986325",1,2,0,2,1
"260039","img/object_images/soap01.jpg","0","s","0.322818399989046",1,2,0,2,1
"260039","img/object_images/surf_board01.jpg","0","k","0.243120900006033",1,2,0,2,1
"260039","img/object_images/slinky_toy01.jpg","0","s","0.136704300064594",0,2,0,2,1
"260039","img/object_images/acoustic_capo01.jpg","0","k","0.373409599997103",1,2,0,2,1
"260039","img/object_images/microscope01.jpg","1","s","0.258605499984697",1,2,0,2,1
"260039","img/object_images/wallet02.jpg","1","k","0.221320600016043",1,2,0,2,1
"260039","img/object_images/projector01.jpg","0","s","0.223508800030686",1,2,0,2,1
"260039","img/object_images/tie02.jpg","1","k","0.237278999993578",1,2,0,2,1
"260039","img/object_images/board01.jpg","1","k","0.31658470002003",1,2,0,2,1
"260039","img/object_images/hammer03.jpg","1","k","0.185457399929874",0,2,0,2,1
"260039","img/object_images/TreeSlice01.jpg","0","k","0.144993899972178",0,2,0,2,1
"260039","img/object_images/ball02.jpg","0","k","0.0721709999488667",0,2,0,2,1
"260039","img/object_images/pen01.jpg","0","k","0.195578400045633",0,2,0,2,1
"260039","img/object_images/tripod01.jpg","0","k","0.133818399976008",0,2,0,2,1
"260039","img/object_images/crutches02.jpg","0","k","0.0346323000267148",0,2,0,2,1
"260039","img/object_images/pen05.jpg","1","s","0.119993300060742",0,2,0,2,1
"260039","img/object_images/helmet01.jpg","1","s","0.478423400083557",1,2,0,2,1
"260039","img/object_images/toothbrush01.jpg","0","k","0.278469100012444",1,2,0,2,1
"260039","img/object_images/hole_puncher01.jpg","1","s","0.243046900024638",1,2,0,2,1
"260039","img/object_images/lemon_squeezer02.jpg","0","k","0.0345637999707833",0,2,0,2,1
"260039","img/object_images/dice01.jpg","1","s","0.0537968999706209",0,2,0,2,1
"260039","img/object_images/trash_can05.jpg","0","k","0.305066699977033",1,2,0,2,1
"260039","img/object_images/note_book02.jpg","1","s","0.653422000003047",1,2,0,2,1
"260039","img/object_images/curtain02.jpg","0","k","3.35914019995835",1,2,0,2,1
"260039","img/object_images/airfryer01.jpg","1","k","0.140864999964833",0,2,0,2,1
"260039","img/object_images/glasses03.jpg","1","k","0.0675329000223428",0,2,0,2,1
"260039","img/object_images/ear_bud01.jpg","0","k","0.105270100058988",0,2,0,2,1
"260039","img/object_images/backpack01.jpg","0","k","0.00941759999841452",0,2,0,2,1
"260039","img/object_images/retainer01.jpg","0","k","0.0670762000372633",0,2,0,2,1
"260039","img/object_images/pitcher01.jpg","1","k","0.132517699967138",0,2,0,2,1
"260039","img/object_images/ironing_table01.jpg","0","k","0.0177064999006689",0,2,0,2,1
"260039","img/object_images/knit01.jpg","0","k","0.0440478000091389",0,2,0,2,1
"260039","img/object_images/Witchhat01.jpg","1","k","0.0991732999682426",0,2,0,2,1
"260039","img/object_images/gift_box02.jpg","1","k","0.153368000057526",0,2,0,2,1
"260039","img/object_images/vase02.jpg","0","s","0.132680000038818",0,2,0,2,1
"260039","img/object_images/bath_tub01.jpg","1","s","0.264729899936356",1,2,0,2,1
"260039","img/object_images/gauze01.jpg","0","k","0.258146000094712",1,2,0,2,1
"260039","img/object_images/boat_toy10.jpg","0","s","0.153879399993457",0,2,0,2,1
"260039","img/object_images/tool07.jpg","1","k","0.220300400047563",1,2,0,2,1
"260039","img/object_images/hat13.jpg","1","s","0.0840944000519812",0,2,0,2,1
"260039","img/object_images/pan01.jpg","0","s","0.209707100060768",1,2,0,2,1
"260039","img/object_images/ice_tray03.jpg","1","s","0.0601588999852538",0,2,0,2,1
"260039","img/object_images/lemon_squeezer01.jpg","0","s","0.308478399994783",1,2,0,2,1
"260039","img/object_images/tool11.jpg","1","s","0.174066199921072",0,2,0,2,1
"260039","img/object_images/spatula02.jpg","1","s","0.117993899970315",0,3,0,2,1
"260039","img/object_images/toy_train02.jpg","0","s","0.0642232000827789",0,3,0,2,1
"260039","img/object_images/jewelry01.jpg","0","s","0.107125499984249",0,3,0,2,1
"260039","img/object_images/video_game06.jpg","0","s","0.0733726000180468",0,3,0,2,1
"260039","img/object_images/lock03.jpg","1","s","0.175216900068335",0,3,0,2,1
"260039","img/object_images/TrashCan02.jpg","0","s","0.298106199945323",1,3,0,2,1
"260039","img/object_images/toy08.jpg","0","k","0.0409504000563174",0,3,0,2,1
"260039","img/object_images/yarn02.jpg","0","s","0.100015799980611",0,3,0,2,1
"260039","img/object_images/camera05.jpg","1","s","0.138935800059699",0,3,0,2,1
"260039","img/object_images/bucket02.jpg","1","s","0.066097000031732",0,3,0,2,1
"260039","img/object_images/note_book01.jpg","1","s","0.274457600084133",1,3,0,2,1
"260039","img/object_images/origami01.jpg","1","s","0.326781500014476",1,3,0,2,1
"260039","img/object_images/book02.jpg","0","k","0.416112500010058",1,3,0,2,1
"260039","img/object_images/water_gun01.jpg","0","s","0.103878800058737",0,3,0,2,1
"260039","img/object_images/computer_mouse01.jpg","1","s","0.0938695999793708",0,3,0,2,1
"260039","img/object_images/bookmark01.jpg","0","s","0.408012200030498",1,3,0,2,1
"260039","img/object_images/candle02.jpg","1","s","0.0607773000374436",0,3,0,2,1
"260039","img/object_images/book01.jpg","1","s","0.211891799932346",1,3,0,2,1
"260039","img/object_images/sink_filter01 (1).jpg","1","s","0.140144899953157",0,3,0,2,1
"260039","img/object_images/MeasuringCup01.jpg","0","s","0.112034899997525",0,3,0,2,1
"260039","img/object_images/Tin01.jpg","0","s","0.0278516000835225",0,3,0,2,1
"260039","img/object_images/dog_leash01.jpg","1","s","0.146941500017419",0,3,0,2,1
"260039","img/object_images/gloves05.jpg","1","s","0.0521229000296444",0,3,0,2,1
"260039","img/object_images/toy03.jpg","0","k","0.0482010999694467",0,3,0,2,1
"260039","img/object_images/Violin01.jpg","1","k","0.190113399992697",0,3,0,2,1
"260039","img/object_images/hoverboard01.jpg","1","s","0.133769399952143",0,3,0,2,1
"260039","img/object_images/fan04.jpg","0","s","0.2669859000016",1,3,0,2,1
"260039","img/object_images/basket02.jpg","1","s","0.213679100037552",1,3,0,2,1
"260039","img/object_images/Ring02.jpg","0","s","0.219593400019221",1,3,0,2,1
"260039","img/object_images/sleeping_bag01.jpg","1","k","1.21246770001017",1,3,0,2,1
"260039","img/object_images/blender01.jpg","1","s","0.294892500038259",1,3,0,2,1
"260039","img/object_images/bag04.jpg","0","s","0.0807794000720605",0,3,0,2,1
"260039","img/object_images/clock02.jpg","1","s","0.0153713999316096",0,3,0,2,1
"260039","img/object_images/toy01.jpg","0","k","0.146728600026108",0,3,0,2,1
"260039","img/object_images/bottle12.jpg","1","s","0.0191939000505954",0,3,0,2,1
"260039","img/object_images/shovel01.jpg","0","s","0.25289480003994",1,3,0,2,1
"260039","img/object_images/floppy_disk02.jpg","1","s","0.209403699962422",1,3,0,2,1
"260039","img/object_images/backpack03.jpg","1","k","0.1499023999786",0,3,0,2,1
"260039","img/object_images/exfoliater_brush01.jpg","0","s","0.0261309000197798",0,3,0,2,1
"260039","img/object_images/bottle02.jpg","1","s","0.0501799000194296",0,3,0,2,1
"260039","img/object_images/kite01.jpg","1","k","0.0412213000236079",0,3,0,2,1
"260039","img/object_images/tool02.jpg","1","k","0.165151900029741",0,3,0,2,1
"260039","img/object_images/audio_port01.jpg","1","s","0.11001900001429",0,3,0,2,1
"260039","img/object_images/Candle_Holder01.jpg","0","k","0.145189599948935",0,3,0,2,1
"260039","img/object_images/tool08.jpg","1","s","0.13730659999419",0,3,0,2,1
"260039","img/object_images/stereo02.jpg","1","s","0.123415100038983",0,3,0,2,1
"260039","img/object_images/combs01.jpg","0","s","0.0640035999240354",0,3,0,2,1
"260039","img/object_images/trumpet01.jpg","1","s","0.437795300036669",1,3,0,2,1
"260039","img/object_images/couch03.jpg","0","k","0.433787400019355",1,4,0,2,1
"260039","img/object_images/chain01.jpg","0","k","0.0401003999868408",0,4,0,2,1
"260039","img/object_images/bicycle_lock01.jpg","1","k","0.131751899956726",0,4,0,2,1
"260039","img/object_images/yo_yo01.jpg","0","k","0.0483297000173479",0,4,0,2,1
"260039","img/object_images/jewel02.jpg","1","k","0.00392799999099225",0,4,0,2,1
"260039","img/object_images/chess_piece02.jpg","0","s","0.22391089994926",1,4,0,2,1
"260039","img/object_images/bag_pipes01.jpg","0","k","0.0634611999848858",0,4,0,2,1
"260039","img/object_images/brief_case01.jpg","0","k","0.0605604000156745",0,4,0,2,1
"260039","img/object_images/bow01.jpg","1","k","0.0288162999786437",0,4,0,2,1
"260039","img/object_images/basket04.jpg","1","s","0.109369400073774",0,4,0,2,1
"260039","img/object_images/colander01.jpg","0","k","0.00662629993166775",0,4,0,2,1
"260039","img/object_images/container01.jpg","0","k","0.0446982000721619",0,4,0,2,1
"260039","img/object_images/judge_gavel01.jpg","0","k","0.0484727999428287",0,4,0,2,1
"260039","img/object_images/piggy_bank01.jpg","1","s","0.0737746999366209",0,4,0,2,1
"260039","img/object_images/flask01.jpg","0","s","0.0193332000635564",0,4,0,2,1
"260039","img/object_images/video_game07.jpg","0","s","0.544164799968712",1,4,0,2,1
"260039","img/object_images/mirror01.jpg","1","k","0.535913400002755",1,4,0,2,1
"260039","img/object_images/bean_bag02.jpg","0","s","0.0357609000056982",0,4,0,2,1
"260039","img/object_images/cards01.jpg","1","s","0.174194899969734",0,4,0,2,1
"260039","img/object_images/knit03.jpg","1","s","0.813469599932432",1,4,0,2,1
"260039","img/object_images/lighter01.jpg","0","k","0.24756950000301",1,4,0,2,1
"260039","img/object_images/Woopie01.jpg","1","s","0.27800969989039",1,4,0,2,1
"260039","img/object_images/Staples01.jpg","1","k","0.0405679999385029",0,4,0,2,1
"260039","img/object_images/Statue01.jpg","1","k","0.199299999978393",0,4,0,2,1
"260039","img/object_images/hat02.jpg","0","k","0.127035300014541",0,4,0,2,1
"260039","img/object_images/water_scooter01.jpg","1","k","0.24192839988973",1,4,0,2,1
"260039","img/object_images/lamp01.jpg","0","s","0.180877699982375",0,4,0,2,1
"260039","img/object_images/bottle09.jpg","0","k","0.0194658000255004",0,4,0,2,1
"260039","img/object_images/jacket04.jpg","0","s","0.405469099991024",1,4,0,2,1
"260039","img/object_images/hair_brush05.jpg","1","k","0.546822300064377",1,4,0,2,1
"260039","img/object_images/speaker01.jpg","1","k","0.229049499961548",1,4,0,2,1
"260039","img/object_images/bottle01.jpg","0","k","0.0829724000068381",0,4,0,2,1
"260039","img/object_images/motorcycle01.jpg","1","k","0.024725699913688",0,4,0,2,1
"260039","img/object_images/guitar01.jpg","0","k","0.0190553000429645",0,4,0,2,1
"260039","img/object_images/Wisk01.jpg","1","s","0.183672999963164",0,4,0,2,1
"260039","img/object_images/ball01.jpg","0","s","0.131983599974774",0,4,0,2,1
"260039","img/object_images/Pottery01.jpg","1","s","0.035245000035502",0,4,0,2,1
"260039","img/object_images/pitcher05.jpg","0","s","0.107609800063074",0,4,0,2,1
"260039","img/object_images/usb03.jpg","0","s","0.203476900001988",1,4,0,2,1
"260039","img/object_images/chair02.jpg","1","s","0.377934999996796",1,4,0,2,1
"260039","img/object_images/tool18.jpg","0","s","0.217865400016308",1,4,0,2,1
"260039","img/object_images/chair05.jpg","1","s","0.19849099998828",0,4,0,2,1
"260039","img/object_images/hammer01.jpg","0","s","0.326046200003475",1,4,0,2,1
"260039","img/object_images/egg_slicer01.jpg","0","s","0.181152099976316",0,4,0,2,1
"260039","img/object_images/Trowel01.jpg","0","s","0.0622750000329688",0,4,0,2,1
"260039","img/object_images/handcuffs01.jpg","1","s","0.174083499936387",0,4,0,2,1
"260039","img/object_images/joystick03.jpg","1","s","0.0528993000043556",0,4,0,2,1
"260039","img/object_images/golf_ball03.jpg","1","s","1.02162190002855",1,4,0,2,1
"260039","img/object_images/grater01.jpg","1","k","0.341157300048508",1,5,0,2,1
"260039","img/object_images/vga_port 01.jpg","0","k","0.253235499956645",1,5,0,2,1
"260039","img/object_images/coloring_pencil01.jpg","1","k","0.0661136999260634",0,5,0,2,1
"260039","img/object_images/hammer02.jpg","0","k","0.0129770999774337",0,5,0,2,1
"260039","img/object_images/shoes10.jpg","1","k","0.0538608999922872",0,5,0,2,1
"260039","img/object_images/bow_tie02.jpg","1","k","0.171090999967419",0,5,0,2,1
"260039","img/object_images/headset02.jpg","1","s","0.000541800050996244",0,5,0,2,1
"260039","img/object_images/couch04.jpg","0","s","0.0397982000140473",0,5,0,2,1
"260039","img/object_images/bag06.jpg","0","s","0.062960600014776",0,5,0,2,1
"260039","img/object_images/toy04.jpg","0","s","0.116517000016756",0,5,0,2,1
"260039","img/object_images/faucet01.jpg","0","s","0.0811271000420675",0,5,0,2,1
"260039","img/object_images/tool13.jpg","0","k","0.264671999961138",1,5,0,2,1
"260039","img/object_images/binoculars03.jpg","0","k","0.208151899976656",1,5,0,2,1
"260039","img/object_images/shoes08.jpg","0","k","0.0507512999465689",0,5,0,2,1
"260039","img/object_images/phone02.jpg","0","k","0.219966000062414",1,5,0,2,1
"260039","img/object_images/watch01.jpg","0","s","0.377106200088747",1,5,0,2,1
"260039","img/object_images/lawn_mower01.jpg","0","k","0.26490919990465",1,5,0,2,1
"260039","img/object_images/lid01.jpg","1","s","0.187226100009866",0,5,0,2,1
"260039","img/object_images/lock04.jpg","0","k","0.251252299989574",1,5,0,2,1
"260039","img/object_images/socks02.jpg","0","s","0.171968700014986",0,5,0,2,1
"260039","img/object_images/pitcher09.jpg","1","k","0.374959300039336",1,5,0,2,1
"260039","img/object_images/pitcher03.jpg","0","k","0.123386800056323",0,5,0,2,1
"260039","img/object_images/helmet05.jpg","1","s","0.00815740006510168",0,5,0,2,1
"260039","img/object_images/Kitchen_Towel.jpg","1","s","0.108849100070074",0,5,0,2,1
"260039","img/object_images/lock01.jpg","0","k","0.0728956999955699",0,5,0,2,1
"260039","img/object_images/camera07.jpg","0","k","0.226843800046481",1,5,0,2,1
"260039","img/object_images/coloring_pencil02.jpg","0","k","0.322230799938552",1,5,0,2,1
"260039","img/object_images/paint_brush04.jpg","0","s","0.192971199983731",0,5,0,2,1
"260039","img/object_images/tennis_racket01.jpg","1","s","0.270142400055192",1,5,0,2,1
"260039","img/object_images/fan05.jpg","0","k","0.184111300040968",0,5,0,2,1
"260039","img/object_images/tie01.jpg","1","k","0.154903199989349",0,5,0,2,1
"260039","img/object_images/Vacuum01.jpg","1","s","0.289060099981725",1,5,0,2,1
"260039","img/object_images/badminton01.jpg","0","k","0.307884500012733",1,5,0,2,1
"260039","img/object_images/bottle10.jpg","0","s","0.299640699988231",1,5,0,2,1
"260039","img/object_images/jewel01.jpg","0","s","0.343179100076668",1,5,0,2,1
"260039","img/object_images/helmet03.jpg","1","k","0.363593499991111",1,5,0,2,1
"260039","img/object_images/jewelry09.jpg","0","s","0.200669900048524",1,5,0,2,1
"260039","img/object_images/socks01.jpg","1","k","0.0117333999369293",0,5,0,2,1
"260039","img/object_images/sign02.jpg","0","s","0.0204132000217214",0,5,0,2,1
"260039","img/object_images/office_supplies01.jpg","1","k","0.205007400014438",1,5,0,2,1
"260039","img/object_images/razor02.jpg","0","s","0.0834266000892967",0,5,0,2,1
"260039","img/object_images/video_game01.jpg","1","s","0.122917699976824",0,5,0,2,1
"260039","img/object_images/laptop01.jpg","0","k","0.334992800024338",1,5,0,2,1
"260039","img/object_images/car04.jpg","1","s","0.190782400080934",0,5,0,2,1
"260039","img/object_images/balloon01.jpg","1","s","0.0817111999494955",0,5,0,2,1
"260039","img/object_images/bell03.jpg","0","s","0.123622299986891",0,5,0,2,1
"260039","img/object_images/dresser03.jpg","1","s","0.179556000046432",0,5,0,2,1
"260039","img/object_images/clip03.jpg","0","s","1.00110640004277",1,5,0,2,1
"260039","img/object_images/drone02.jpg","0","k","0.373253900092095",1,6,0,2,1
"260039","img/object_images/ironing_table02.jpg","0","s","0.0971252999734134",0,6,0,2,1
"260039","img/object_images/tool06.jpg","0","s","0.0822883999207988",0,6,0,2,1
"260039","img/object_images/car02.jpg","0","s","0.148900000029244",0,6,0,2,1
"260039","img/object_images/shoes07.jpg","1","s","0.429125700029544",1,6,0,2,1
"260039","img/object_images/glasses07.jpg","0","s","0.20168159995228",1,6,0,2,1
"260039","img/object_images/hand_grip_exerciser01.jpg","0","s","0.0205212000291795",0,6,0,2,1
"260039","img/object_images/fork02.jpg","0","s","0.0929370999801904",0,6,0,2,1
"260039","img/object_images/spray_can01.jpg","0","s","0.197531400015578",0,6,0,2,1
"260039","img/object_images/blender02.jpg","0","s","0.170522899948992",0,6,0,2,1
"260039","img/object_images/computer_mouse02.jpg","0","s","0.191208000062034",0,6,0,2,1
"260039","img/object_images/toaster02.jpg","1","s","0.0691138000693172",0,6,0,2,1
"260039","img/object_images/fridge03.jpg","0","s","0.0435937999282032",0,6,0,2,1
"260039","img/object_images/camera_lens01.jpg","0","s","0.230582799995318",1,6,0,2,1
"260039","img/object_images/keyboard02.jpg","0","s","0.00941030005924404",0,6,0,2,1
"260039","img/object_images/paper_cup01.jpg","1","s","0.0082282000221312",0,6,0,2,1
"260039","img/object_images/rock02.jpg","0","s","0.277896699961275",1,6,0,2,1
"260039","img/object_images/perfume01.jpg","0","s","0.0745135000906885",0,6,0,2,1
"260039","img/object_images/chair04.jpg","1","s","0.00990050006657839",0,6,0,2,1
"260039","img/object_images/piano03.jpg","0","k","0.36459010001272",1,6,0,2,1
"260039","img/object_images/funnel01.jpg","1","s","0.337742800009437",1,6,0,2,1
"260039","img/object_images/Eyeliner01.jpg","0","s","0.0876267000567168",0,6,0,2,1
"260039","img/object_images/toy05.jpg","0","s","0.0937248000409454",0,6,0,2,1
"260039","img/object_images/hair_dryer01.jpg","1","k","0.109995200065896",0,6,0,2,1
"260039","img/object_images/cup03.jpg","1","s","0.0968104000203311",0,6,0,2,1
"260039","img/object_images/soap03.jpg","1","s","0.10476070002187",0,6,0,2,1
"260039","img/object_images/gift_box05.jpg","0","s","0.150165700004436",0,6,0,2,1
"260039","img/object_images/cutting_board01.jpg","1","s","0.425988200004213",1,6,0,2,1
"260039","img/object_images/shower_head03.jpg","1","s","0.345017899991944",1,6,0,2,1
"260039","img/object_images/purse01.jpg","0","s","0.401324899983592",1,6,0,2,1
"260039","img/object_images/remote_controller01.jpg","1","k","0.0627047000452876",0,6,0,2,1
"260039","img/object_images/paper_cup02.jpg","1","s","0.32370519998949",1,6,0,2,1
"260039","img/object_images/belt01.jpg","1","k","0.192883300012909",0,6,0,2,1
"260039","img/object_images/Sprayer01.jpg","0","s","0.151039200020023",0,6,0,2,1
"260039","img/object_images/hot_air_balloon02.jpg","1","k","0.000538600026629865",0,6,0,2,1
"260039","img/object_images/tool19.jpg","0","s","0.0495670000091195",0,6,0,2,1
"260039","img/object_images/jewelry07.jpg","0","s","0.136429500067607",0,6,0,2,1
"260039","img/object_images/ribbon01.jpg","1","k","0.00754109991248697",0,6,0,2,1
"260039","img/object_images/jewel03.jpg","0","k","0.0914183999411762",0,6,0,2,1
"260039","img/object_images/shoes12.jpg","0","s","0.196354200015776",0,6,0,2,1
"260039","img/object_images/trash_can03.jpg","0","s","2.94251419999637",1,6,0,2,1
"260039","img/object_images/usb02.jpg","1","s","0.0930388000560924",0,6,0,2,1
"260039","img/object_images/hair_brush01.jpg","1","k","0.0452068999875337",0,6,0,2,1
"260039","img/object_images/scale02.jpg","1","s","0.145120499888435",0,6,0,2,1
"260039","img/object_images/umbrella01.jpg","1","s","0.0683131999103352",0,6,0,2,1
"260039","img/object_images/tray01.jpg","0","s","0.0767728999489918",0,6,0,2,1
"260039","img/object_images/bucket01.jpg","1","k","0.0837499999906868",0,6,0,2,1
"260039","img/object_images/pitcher07.jpg","1","k","0.213272299966775",1,6,0,2,1
"260039","img/object_images/razor03.jpg","0","s","0.148907300084829",0,7,0,2,1
"260039","img/object_images/basketball_hoop02.jpg","1","k","0.419492800021544",1,7,0,2,1
"260039","img/object_images/towels01.jpg","1","s","0.214290699921548",1,7,0,2,1
"260039","img/object_images/cochlear_implant01.jpg","1","k","0.00307700003031641",0,7,0,2,1
"260039","img/object_images/compass01.jpg","1","k","0.30324749997817",1,7,0,2,1
"260039","img/object_images/decorative02.jpg","1","s","0.100422300049104",0,7,0,2,1
"260039","img/object_images/towel02.jpg","1","s","0.0434209000086412",0,7,0,2,1
"260039","img/object_images/floss02.jpg","1","s","0.0888661999488249",0,7,0,2,1
"260039","img/object_images/fork03.jpg","1","s","0.146601699991152",0,7,0,2,1
"260039","img/object_images/wire02.jpg","0","s","0.0772547000087798",0,7,0,2,1
"260039","img/object_images/frame01.jpg","1","s","0.591541000059806",1,7,0,2,1
"260039","img/object_images/Stool01.jpg","0","s","0.319286199985072",1,7,0,2,1
"260039","img/object_images/car01.jpg","0","s","0.1945758999791",0,7,0,2,1
"260039","img/object_images/remover01.jpg","1","k","0.0438963000196964",0,7,0,2,1
"260039","img/object_images/clipboard01.jpg","1","s","0.0713795999763533",0,7,0,2,1
"260039","img/object_images/tv02.jpg","0","k","0.206329700071365",1,7,0,2,1
"260039","img/object_images/pen06.jpg","1","s","0.15382640005555",0,7,0,2,1
"260039","img/object_images/video_game03.jpg","1","s","0.0098838999401778",0,7,0,2,1
"260039","img/object_images/stapler.jpg","0","k","0.239758800016716",1,7,0,2,1
"260039","img/object_images/handkerchief01.jpg","0","k","0.168912700028159",0,7,0,2,1
"260039","img/object_images/tennis_racket02.jpg","1","s","0.0739001999609172",0,7,0,2,1
"260039","img/object_images/camera03.jpg","1","s","0.043021299992688",0,7,0,2,1
"260039","img/object_images/duster01.jpg","0","s","0.174734100000933",0,7,0,2,1
"260039","img/object_images/hair_clips01.jpg","1","k","0.117905999999493",0,7,0,2,1
"260039","img/object_images/ring03.jpg","0","k","0.0920473999576643",0,7,0,2,1
"260039","img/object_images/bottle06.jpg","1","k","0.00780049990862608",0,7,0,2,1
"260039","img/object_images/screwdriver01.jpg","0","k","0.0208275999175385",0,7,0,2,1
"260039","img/object_images/chair03.jpg","0","s","0.0889431999530643",0,7,0,2,1
"260039","img/object_images/yoga_mat01.jpg","1","k","0.0470906000118703",0,7,0,2,1
"260039","img/object_images/car03.jpg","1","s","0.0816722000017762",0,7,0,2,1
"260039","img/object_images/bicycle01.jpg","0","k","0.0891021999996156",0,7,0,2,1
"260039","img/object_images/bell02.jpg","0","s","0.0237705999752507",0,7,0,2,1
"260039","img/object_images/hat09.jpg","1","s","0.0331101999618113",0,7,0,2,1
"260039","img/object_images/cup01.jpg","0","s","0.164412699989043",0,7,0,2,1
"260039","img/object_images/Confetti 01.jpg","1","s","0.0341074999887496",0,7,0,2,1
"260039","img/object_images/rock03.jpg","0","s","0.175107200047933",0,7,0,2,1
"260039","img/object_images/outlet01.jpg","1","s","0.366802499978803",1,7,0,2,1
"260039","img/object_images/measuring_tape02.jpg","0","k","0.116581700043753",0,7,0,2,1
"260039","img/object_images/glasses06.jpg","1","k","0.359831599984318",1,7,0,2,1
"260039","img/object_images/box03.jpg","1","s","0.00802599999587983",0,7,0,2,1
"260039","img/object_images/chair06.jpg","1","s","0.120691999909468",0,7,0,2,1
"260039","img/object_images/stove01.jpg","0","s","0.021047699963674",0,7,0,2,1
"260039","img/object_images/Oven01.jpg","1","s","0.379339499981143",1,7,0,2,1
"260039","img/object_images/fan02.jpg","1","s","0.0979585000313818",0,7,0,2,1
"260039","img/object_images/gloves02.jpg","1","s","0.220985400024801",1,7,0,2,1
"260039","img/object_images/boat02.jpg","0","s","0.113689900026657",0,7,0,2,1
"260039","img/object_images/mail_box01.jpg","0","s","0.367499499931",1,7,0,2,1
"260039","img/object_images/jacket03.jpg","0","k","0.0650386000052094",0,7,0,2,1
"260039","img/object_images/belt03.jpg","0","s","0.0365727000171319",0,8,1,2,1
"260039","img/object_images/helmet04.jpg","1","s","0.0130114000057802",0,8,1,2,1
"260039","img/object_images/helmet02.jpg","0","s","0.0348045999417081",0,8,1,2,1
"260039","img/object_images/Shoes05.jpg","1","s","0.0847112000919878",0,8,1,2,1
"260039","img/object_images/tool20.jpg","0","s","0.0472399999853224",0,8,1,2,1
"260039","img/object_images/Screws01.jpg","1","s","0.00699619995430112",0,8,1,2,1
"260039","img/object_images/pot01 (1).jpg","0","s","0.0594995999708772",0,8,1,2,1
"260039","img/object_images/ladle02.jpg","0","s","0.139701799955219",0,8,1,2,1
"260039","img/object_images/gift_box01.jpg","1","s","0.00475710001774132",0,8,1,2,1
"260039","img/object_images/pillows01.jpg","0","s","0.0765387000283226",0,8,1,2,1
"260039","img/object_images/gift_box03.jpg","0","s","0.0722537999972701",0,8,1,2,1
"260039","img/object_images/fire_extinguisher01.jpg","1","s","0.0343125000363216",0,8,1,2,1
"260039","img/object_images/hat06.jpg","1","s","0.311057699960656",1,8,1,2,1
"260039","img/object_images/calculator01.jpg","0","s","0.0327901999698952",0,8,1,2,1
"260039","img/object_images/skate_board01.jpg","1","s","0.048824500059709",0,8,1,2,1
"260039","img/object_images/satellite01.jpg","0","s","0.060941300005652",0,8,1,2,1
"260039","img/object_images/wagon_cart03.jpg","0","s","0.142893300042488",0,8,1,2,1
"260039","img/object_images/airfryer02.jpg","0","s","0.0134064999874681",0,8,1,2,1
"260039","img/object_images/Recycling01.jpg","0","s","0.214161599986255",1,8,1,2,1
"260039","img/object_images/laptop03.jpg","0","s","0.0378807000815868",0,8,1,2,1
"260039","img/object_images/tool09.jpg","0","s","0.123499299981631",0,8,1,2,1
"260039","img/object_images/cellphone02.jpg","0","s","0.0514827000442892",0,8,1,2,1
"260039","img/object_images/nut_cracker01.jpg","0","s","0.137390800053254",0,8,1,2,1
"260039","img/object_images/knit04.jpg","1","s","0.247144000022672",1,8,1,2,1
"260039","img/object_images/couch01.jpg","1","s","0.212979299947619",1,8,1,2,1
"260039","img/object_images/drone01.jpg","1","s","0.00713449995964766",0,8,1,2,1
"260039","img/object_images/sponge03.jpg","0","s","0.163376900018193",0,8,1,2,1
"260039","img/object_images/cellphone01.jpg","1","s","0.0523887999588624",0,8,1,2,1
"260039","img/object_images/chair01.jpg","1","s","0.146367299952544",0,8,1,2,1
"260039","img/object_images/toilet_paper01.jpg","1","k","0.0524785999441519",0,8,1,2,1
"260039","img/object_images/bottle07.jpg","0","s","0.106669000000693",0,8,1,2,1
"260039","img/object_images/floss01.jpg","0","s","0.0207646999042481",0,8,1,2,1
"260039","img/object_images/toilet_paper_dispenser01.jpg","0","s","0.137427399982698",0,8,1,2,1
"260039","img/object_images/shovel03.jpg","0","s","0.102600799989887",0,8,1,2,1
"260039","img/object_images/dart01.jpg","0","s","0.0416196000296623",0,8,1,2,1
"260039","img/object_images/Safe01.jpg","1","s","0.0861279000528157",0,8,1,2,1
"260039","img/object_images/chess_piece01.jpg","0","s","0.0813257999252528",0,8,1,2,1
"260039","img/object_images/gift_box04.jpg","0","s","0.0760980999330059",0,8,1,2,1
"260039","img/object_images/egg_basket01.jpg","1","s","0.0348517999518663",0,8,1,2,1
"260039","img/object_images/floppy_disk03.jpg","1","k","0.0609624000499025",0,8,1,2,1
"260039","img/object_images/dresser04.jpg","0","s","0.0207946000155061",0,8,1,2,1
"260039","img/object_images/dust_pan01.jpg","1","s","0.133544099982828",0,8,1,2,1
"260039","img/object_images/phone04.jpg","0","s","0.090713799931109",0,8,1,2,1
"260039","img/object_images/lantern01.jpg","0","s","0.252326100016944",1,8,1,2,1
"260039","img/object_images/blanket01.jpg","1","s","0.0992827999871224",0,8,1,2,1
"260039","img/object_images/frisbee01.jpg","0","s","0.0422402999829501",0,8,1,2,1
"260039","img/object_images/pan03.jpg","1","s","0.00446219998411834",0,8,1,2,1
"260039","img/object_images/scoreboard01.jpg","1","s","0.246421599993482",1,8,1,2,1
