"participant_id","current_trial_object","pre_trial_object","post_trial_object","current_trial_accuracy","pre_trial_accuracy","post_trial_accuracy","current_trial_congruency","pre_trial_congruency","post_trial_congruency","current_trial_rt","pre_trial_rt","post_trial_rt","current_trial_responded","pre_trial_responded","post_trial_responded","current_trial_legitResponse","pre_trial_legitResponse","post_trial_legitResponse","current_trial_resp_nums","pre_trial_resp_nums","post_trial_resp_nums"
"260037","img/object_images/pillows01.jpg",NA,"img/object_images/chair05.jpg","1",NA,"0","1",NA,"0","0.389202299993485",NA,"0.575920299976133","1",NA,"1","1",NA,"1","1",NA,"1"
"260037","img/object_images/chair05.jpg","img/object_images/pillows01.jpg","img/object_images/knife04.jpg","0","1","1","0","1","1","0.575920299976133","0.389202299993485","0.413286199967843","1","1","1","1","1","1","1","1","1"
"260037","img/object_images/knife04.jpg","img/object_images/chair05.jpg","img/object_images/bell02.jpg","1","0","0","1","0","0","0.413286199967843","0.575920299976133","0.627610900031868","1","1","1","1","1","1","1","1","1"
"260037","img/object_images/bell02.jpg","img/object_images/knife04.jpg","img/object_images/motorcycle01.jpg","0","1","1","0","1","1","0.627610900031868","0.413286199967843","0.443007899972145","1","1","1","1","1","1","1","1","1"
"260037","img/object_images/motorcycle01.jpg","img/object_images/bell02.jpg","img/object_images/ear_bud01.jpg","1","0","1","1","0","1","0.443007899972145","0.627610900031868","0.350740999972913","1","1","1","1","1","1","1","1","1"
"260037","img/object_images/ear_bud01.jpg","img/object_images/motorcycle01.jpg","img/object_images/microscope01.jpg","1","1","1","1","1","0","0.350740999972913","0.443007899972145","0.389541300013661","1","1","1","1","1","1","1","1","1"
"260037","img/object_images/microscope01.jpg","img/object_images/ear_bud01.jpg","img/object_images/note_book01.jpg","1","1","1","0","1","0","0.389541300013661","0.350740999972913","0.505787900008727","1","1","1","1","1","1","1","1","1"
"260037","img/object_images/note_book01.jpg","img/object_images/microscope01.jpg","img/object_images/wire02.jpg","1","1","1","0","0","1","0.505787900008727","0.389541300013661","0.391978200001177","1","1","1","1","1","1","1","1","1"
"260037","img/object_images/wire02.jpg","img/object_images/note_book01.jpg","img/object_images/hammer03.jpg","1","1","1","1","0","1","0.391978200001177","0.505787900008727","0.409625599975698","1","1","1","1","1","1","1","1","1"
"260037","img/object_images/hammer03.jpg","img/object_images/wire02.jpg","img/object_images/Staples01.jpg","1","1","1","1","1","1","0.409625599975698","0.391978200001177","0.406916900014039","1","1","1","1","1","1","1","1","1"
"260037","img/object_images/Staples01.jpg","img/object_images/hammer03.jpg","img/object_images/pitcher01.jpg","1","1","1","1","1","0","0.406916900014039","0.409625599975698","0.425659200001974","1","1","1","1","1","1","1","1","1"
"260037","img/object_images/pitcher01.jpg","img/object_images/Staples01.jpg","img/object_images/lid01.jpg","1","1","1","0","1","1","0.425659200001974","0.406916900014039","0.346833699964918","1","1","1","1","1","1","1","1","1"
"260037","img/object_images/lid01.jpg","img/object_images/pitcher01.jpg","img/object_images/tv02.jpg","1","1","1","1","0","0","0.346833699964918","0.425659200001974","0.581317599979229","1","1","1","1","1","1","1","1","1"
"260037","img/object_images/tv02.jpg","img/object_images/lid01.jpg","img/object_images/Thermometer01.jpg","1","1","1","0","1","0","0.581317599979229","0.346833699964918","0.624672500009183","1","1","1","1","1","1","1","1","1"
"260037","img/object_images/Thermometer01.jpg","img/object_images/tv02.jpg","img/object_images/book03.jpg","1","1","1","0","0","1","0.624672500009183","0.581317599979229","0.456158799992409","1","1","1","1","1","1","1","1","1"
"260037","img/object_images/book03.jpg","img/object_images/Thermometer01.jpg","img/object_images/retainer01.jpg","1","1","1","1","0","0","0.456158799992409","0.624672500009183","0.536422100034542","1","1","1","1","1","1","1","1","1"
"260037","img/object_images/retainer01.jpg","img/object_images/book03.jpg","img/object_images/knit05.jpg","1","1","1","0","1","1","0.536422100034542","0.456158799992409","0.641399700019974","1","1","1","1","1","1","1","1","1"
"260037","img/object_images/knit05.jpg","img/object_images/retainer01.jpg","img/object_images/crutches02.jpg","1","1","1","1","0","0","0.641399700019974","0.536422100034542","0.450331299973186","1","1","1","1","1","1","1","1","1"
"260037","img/object_images/crutches02.jpg","img/object_images/knit05.jpg","img/object_images/floppy_disk03.jpg","1","1","1","0","1","1","0.450331299973186","0.641399700019974","0.454438999993727","1","1","1","1","1","1","1","1","1"
"260037","img/object_images/floppy_disk03.jpg","img/object_images/crutches02.jpg","img/object_images/pen03.jpg","1","1","0","1","0","0","0.454438999993727","0.450331299973186","0.441498000000138","1","1","1","1","1","1","1","1","1"
"260037","img/object_images/pen03.jpg","img/object_images/floppy_disk03.jpg","img/object_images/cellphone01.jpg","0","1","1","0","1","1","0.441498000000138","0.454438999993727","0.407690900028683","1","1","1","1","1","1","1","1","1"
"260037","img/object_images/cellphone01.jpg","img/object_images/pen03.jpg","img/object_images/clip03.jpg","1","0","1","1","0","0","0.407690900028683","0.441498000000138","0.417683200037572","1","1","1","1","1","1","1","1","1"
"260037","img/object_images/clip03.jpg","img/object_images/cellphone01.jpg","img/object_images/bottle01.jpg","1","1","0","0","1","0","0.417683200037572","0.407690900028683","0.602184300019871","1","1","1","1","1","1","1","1","2"
"260037","img/object_images/bottle01.jpg","img/object_images/clip03.jpg","img/object_images/clock02.jpg","0","1","1","0","0","0","0.602184300019871","0.417683200037572","0.58064950001426","1","1","1","1","1","1","2","1","1"
"260037","img/object_images/clock02.jpg","img/object_images/bottle01.jpg","img/object_images/compass01.jpg","1","0","1","0","0","1","0.58064950001426","0.602184300019871","0.445942799968179","1","1","1","1","1","1","1","2","1"
"260037","img/object_images/compass01.jpg","img/object_images/clock02.jpg","img/object_images/floppy_disk02.jpg","1","1","1","1","0","0","0.445942799968179","0.58064950001426","0.496306799992453","1","1","1","1","1","1","1","1","1"
"260037","img/object_images/floppy_disk02.jpg","img/object_images/compass01.jpg","img/object_images/paint_brush04.jpg","1","1","1","0","1","0","0.496306799992453","0.445942799968179","0.458156699954998","1","1","1","1","1","1","1","1","1"
"260037","img/object_images/paint_brush04.jpg","img/object_images/floppy_disk02.jpg","img/object_images/usb02.jpg","1","1","1","0","0","0","0.458156699954998","0.496306799992453","0.586842799966689","1","1","1","1","1","1","1","1","1"
"260037","img/object_images/usb02.jpg","img/object_images/paint_brush04.jpg","img/object_images/Oven01.jpg","1","1","1","0","0","1","0.586842799966689","0.458156699954998","0.448013400018681","1","1","1","1","1","1","1","1","1"
"260037","img/object_images/Oven01.jpg","img/object_images/usb02.jpg","img/object_images/tennis_racket02.jpg","1","1","1","1","0","1","0.448013400018681","0.586842799966689","0.408771299989894","1","1","1","1","1","1","1","1","1"
"260037","img/object_images/tennis_racket02.jpg","img/object_images/Oven01.jpg","img/object_images/chess_piece02.jpg","1","1","1","1","1","1","0.408771299989894","0.448013400018681","0.391198900004383","1","1","1","1","1","1","1","1","1"
"260037","img/object_images/chess_piece02.jpg","img/object_images/tennis_racket02.jpg",NA,"1","1",NA,"1","1",NA,"0.391198900004383","0.408771299989894",NA,"1","1",NA,"1","1",NA,"1","1",NA
"260037","img/object_images/frame01.jpg",NA,"img/object_images/Safe01.jpg","1",NA,"1","1",NA,"1","0.459014599968214",NA,"0.422095799993258","1",NA,"1","1",NA,"1","1",NA,"1"
"260037","img/object_images/Safe01.jpg","img/object_images/frame01.jpg","img/object_images/pitcher07.jpg","1","1","1","1","1","1","0.422095799993258","0.459014599968214","0.411370599991642","1","1","1","1","1","1","1","1","1"
"260037","img/object_images/pitcher07.jpg","img/object_images/Safe01.jpg","img/object_images/headset02.jpg","1","1","1","1","1","0","0.411370599991642","0.422095799993258","0.471758100029547","1","1","1","1","1","1","1","1","1"
"260037","img/object_images/headset02.jpg","img/object_images/pitcher07.jpg","img/object_images/ToolBag01.jpg","1","1","1","0","1","0","0.471758100029547","0.411370599991642","0.460772699967492","1","1","1","1","1","1","1","1","1"
"260037","img/object_images/ToolBag01.jpg","img/object_images/headset02.jpg","img/object_images/scale02.jpg","1","1","1","0","0","0","0.460772699967492","0.471758100029547","0.45330999995349","1","1","1","1","1","1","1","1","1"
"260037","img/object_images/scale02.jpg","img/object_images/ToolBag01.jpg","img/object_images/lock03.jpg","1","1","1","0","0","1","0.45330999995349","0.460772699967492","0.413411999994423","1","1","1","1","1","1","1","1","1"
"260037","img/object_images/lock03.jpg","img/object_images/scale02.jpg","img/object_images/jewel02.jpg","1","1","1","1","0","0","0.413411999994423","0.45330999995349","0.595423399994615","1","1","1","1","1","1","1","1","1"
"260037","img/object_images/jewel02.jpg","img/object_images/lock03.jpg","img/object_images/Eyeliner01.jpg","1","1","1","0","1","1","0.595423399994615","0.413411999994423","0.364717400050722","1","1","1","1","1","1","1","1","1"
"260037","img/object_images/Eyeliner01.jpg","img/object_images/jewel02.jpg","img/object_images/note_book02.jpg","1","1","1","1","0","0","0.364717400050722","0.595423399994615","0.537910100014415","1","1","1","1","1","1","1","1","1"
"260037","img/object_images/note_book02.jpg","img/object_images/Eyeliner01.jpg","img/object_images/bucket01.jpg","1","1","1","0","1","1","0.537910100014415","0.364717400050722","0.482400499982759","1","1","1","1","1","1","1","1","1"
"260037","img/object_images/bucket01.jpg","img/object_images/note_book02.jpg","img/object_images/nut_cracker01.jpg","1","1","1","1","0","1","0.482400499982759","0.537910100014415","0.45865040004719","1","1","1","1","1","1","1","1","1"
"260037","img/object_images/nut_cracker01.jpg","img/object_images/bucket01.jpg","img/object_images/fan01.jpg","1","1","1","1","1","0","0.45865040004719","0.482400499982759","0.568048299988732","1","1","1","1","1","1","1","1","1"
"260037","img/object_images/fan01.jpg","img/object_images/nut_cracker01.jpg","img/object_images/trumpet01.jpg","1","1","1","0","1","0","0.568048299988732","0.45865040004719","0.496607200009748","1","1","1","1","1","1","1","1","1"
"260037","img/object_images/trumpet01.jpg","img/object_images/fan01.jpg","img/object_images/usb03.jpg","1","1","1","0","0","0","0.496607200009748","0.568048299988732","0.481821299996227","1","1","1","1","1","1","1","1","1"
"260037","img/object_images/usb03.jpg","img/object_images/trumpet01.jpg","img/object_images/piano03.jpg","1","1","1","0","0","0","0.481821299996227","0.496607200009748","0.39441710000392","1","1","1","1","1","1","1","1","1"
"260037","img/object_images/piano03.jpg","img/object_images/usb03.jpg","img/object_images/phone04.jpg","1","1","1","0","0","1","0.39441710000392","0.481821299996227","0.486951099999715","1","1","1","1","1","1","1","1","1"
"260037","img/object_images/phone04.jpg","img/object_images/piano03.jpg","img/object_images/Shoes05.jpg","1","1","1","1","0","0","0.486951099999715","0.39441710000392","0.529231599997729","1","1","1","1","1","1","1","1","1"
"260037","img/object_images/Shoes05.jpg","img/object_images/phone04.jpg","img/object_images/TreeSlice01.jpg","1","1","1","0","1","1","0.529231599997729","0.486951099999715","0.456690099963453","1","1","1","1","1","1","1","1","1"
"260037","img/object_images/TreeSlice01.jpg","img/object_images/Shoes05.jpg","img/object_images/helmet03.jpg","1","1","1","1","0","1","0.456690099963453","0.529231599997729","0.495383700006642","1","1","1","1","1","1","1","1","1"
"260037","img/object_images/helmet03.jpg","img/object_images/TreeSlice01.jpg","img/object_images/water_gun01.jpg","1","1","1","1","1","1","0.495383700006642","0.456690099963453","0.421728599991184","1","1","1","1","1","1","1","1","1"
"260037","img/object_images/water_gun01.jpg","img/object_images/helmet03.jpg","img/object_images/badminton01.jpg","1","1","1","1","1","1","0.421728599991184","0.495383700006642","0.425898600020446","1","1","1","1","1","1","1","1","1"
"260037","img/object_images/badminton01.jpg","img/object_images/water_gun01.jpg","img/object_images/origami01.jpg","1","1","1","1","1","1","0.425898600020446","0.421728599991184","0.537872300017625","1","1","1","1","1","1","1","1","1"
"260037","img/object_images/origami01.jpg","img/object_images/badminton01.jpg","img/object_images/bookmark01.jpg","1","1","1","1","1","0","0.537872300017625","0.425898600020446","0.665343200031202","1","1","1","1","1","1","1","1","1"
"260037","img/object_images/bookmark01.jpg","img/object_images/origami01.jpg","img/object_images/yoga_mat01.jpg","1","1","1","0","1","0","0.665343200031202","0.537872300017625","0.520337399968412","1","1","1","1","1","1","1","1","1"
"260037","img/object_images/yoga_mat01.jpg","img/object_images/bookmark01.jpg","img/object_images/bottle06.jpg","1","1","1","0","0","0","0.520337399968412","0.665343200031202","0.654133400006685","1","1","1","1","1","1","1","1","1"
"260037","img/object_images/bottle06.jpg","img/object_images/yoga_mat01.jpg","img/object_images/tennis_racket01.jpg","1","1","1","0","0","1","0.654133400006685","0.520337399968412","0.428791799989995","1","1","1","1","1","1","1","1","1"
"260037","img/object_images/tennis_racket01.jpg","img/object_images/bottle06.jpg","img/object_images/joystick03.jpg","1","1","1","1","0","1","0.428791799989995","0.654133400006685","0.496096000017133","1","1","1","1","1","1","1","1","1"
"260037","img/object_images/joystick03.jpg","img/object_images/tennis_racket01.jpg","img/object_images/dice01.jpg","1","1","1","1","1","0","0.496096000017133","0.428791799989995","0.443109899992123","1","1","1","1","1","1","1","1","1"
"260037","img/object_images/dice01.jpg","img/object_images/joystick03.jpg","img/object_images/egg_basket01.jpg","1","1","1","0","1","1","0.443109899992123","0.496096000017133","0.536885000008624","1","1","1","1","1","1","1","1","1"
"260037","img/object_images/egg_basket01.jpg","img/object_images/dice01.jpg","img/object_images/belt03.jpg","1","1","1","1","0","0","0.536885000008624","0.443109899992123","0.499717300001066","1","1","1","1","1","1","1","1","1"
"260037","img/object_images/belt03.jpg","img/object_images/egg_basket01.jpg","img/object_images/shovel01.jpg","1","1","1","0","1","0","0.499717300001066","0.536885000008624","0.473727599950507","1","1","1","1","1","1","1","1","1"
"260037","img/object_images/shovel01.jpg","img/object_images/belt03.jpg",NA,"1","1",NA,"0","0",NA,"0.473727599950507","0.499717300001066",NA,"1","1",NA,"1","1",NA,"1","1",NA
"260037","img/object_images/sponge03.jpg",NA,"img/object_images/camera03.jpg","1",NA,"1","1",NA,"0","0.555209400015883",NA,"0.431796299992129","1",NA,"1","1",NA,"1","1",NA,"1"
"260037","img/object_images/camera03.jpg","img/object_images/sponge03.jpg","img/object_images/paper_cup02.jpg","1","1","1","0","1","1","0.431796299992129","0.555209400015883","0.494413199950941","1","1","1","1","1","1","1","1","1"
"260037","img/object_images/paper_cup02.jpg","img/object_images/camera03.jpg","img/object_images/hand_grip_exerciser01.jpg","1","1","1","1","0","0","0.494413199950941","0.431796299992129","0.476818699971773","1","1","1","1","1","1","1","1","1"
"260037","img/object_images/hand_grip_exerciser01.jpg","img/object_images/paper_cup02.jpg","img/object_images/backpack01.jpg","1","1","1","0","1","0","0.476818699971773","0.494413199950941","0.478541299991775","1","1","1","1","1","1","1","1","1"
"260037","img/object_images/backpack01.jpg","img/object_images/hand_grip_exerciser01.jpg","img/object_images/video_game01.jpg","1","1","1","0","0","1","0.478541299991775","0.476818699971773","0.378874299989548","1","1","1","1","1","1","1","1","1"
"260037","img/object_images/video_game01.jpg","img/object_images/backpack01.jpg","img/object_images/car01.jpg","1","1","1","1","0","1","0.378874299989548","0.478541299991775","0.472919899970293","1","1","1","1","1","1","1","1","1"
"260037","img/object_images/car01.jpg","img/object_images/video_game01.jpg","img/object_images/boat04.jpg","1","1","1","1","1","0","0.472919899970293","0.378874299989548","0.523104400024749","1","1","1","1","1","1","1","1","1"
"260037","img/object_images/boat04.jpg","img/object_images/car01.jpg","img/object_images/dresser03.jpg","1","1","1","0","1","0","0.523104400024749","0.472919899970293","0.447072900016792","1","1","1","1","1","1","1","1","1"
"260037","img/object_images/dresser03.jpg","img/object_images/boat04.jpg","img/object_images/tool18.jpg","1","1","1","0","0","0","0.447072900016792","0.523104400024749","0.458587499975692","1","1","1","1","1","1","1","1","1"
"260037","img/object_images/tool18.jpg","img/object_images/dresser03.jpg","img/object_images/Statue01.jpg","1","1","0","0","0","1","0.458587499975692","0.447072900016792","0.488785399997141","1","1","1","1","1","1","1","1","1"
"260037","img/object_images/Statue01.jpg","img/object_images/tool18.jpg","img/object_images/kite01.jpg","0","1","1","1","0","1","0.488785399997141","0.458587499975692","0.49675400002161","1","1","1","1","1","1","1","1","1"
"260037","img/object_images/kite01.jpg","img/object_images/Statue01.jpg","img/object_images/flashlight03.jpg","1","0","1","1","1","0","0.49675400002161","0.488785399997141","0.423367400013376","1","1","1","1","1","1","1","1","1"
"260037","img/object_images/flashlight03.jpg","img/object_images/kite01.jpg","img/object_images/knife02.jpg","1","1","1","0","1","0","0.423367400013376","0.49675400002161","0.448797999997623","1","1","1","1","1","1","1","1","1"
"260037","img/object_images/knife02.jpg","img/object_images/flashlight03.jpg","img/object_images/toy08.jpg","1","1","1","0","0","0","0.448797999997623","0.423367400013376","0.488948599959258","1","1","1","1","1","1","1","1","1"
"260037","img/object_images/toy08.jpg","img/object_images/knife02.jpg","img/object_images/keyboard02.jpg","1","1","1","0","0","1","0.488948599959258","0.448797999997623","0.437876500014681","1","1","1","1","1","1","1","1","1"
"260037","img/object_images/keyboard02.jpg","img/object_images/toy08.jpg","img/object_images/curtain02.jpg","1","1","1","1","0","0","0.437876500014681","0.488948599959258","0.464185499993619","1","1","1","1","1","1","1","1","1"
"260037","img/object_images/curtain02.jpg","img/object_images/keyboard02.jpg","img/object_images/blender02.jpg","1","1","1","0","1","1","0.464185499993619","0.437876500014681","0.351529000035953","1","1","1","1","1","1","1","1","1"
"260037","img/object_images/blender02.jpg","img/object_images/curtain02.jpg","img/object_images/jacket04.jpg","1","1","1","1","0","0","0.351529000035953","0.464185499993619","0.480033200001344","1","1","1","1","1","1","1","1","1"
"260037","img/object_images/jacket04.jpg","img/object_images/blender02.jpg","img/object_images/knit04.jpg","1","1","1","0","1","1","0.480033200001344","0.351529000035953","0.389788800035603","1","1","1","1","1","1","1","1","1"
"260037","img/object_images/knit04.jpg","img/object_images/jacket04.jpg","img/object_images/gloves02.jpg","1","1","1","1","0","0","0.389788800035603","0.480033200001344","0.533021300041582","1","1","1","1","1","1","1","1","1"
"260037","img/object_images/gloves02.jpg","img/object_images/knit04.jpg","img/object_images/matches02.jpg","1","1","1","0","1","0","0.533021300041582","0.389788800035603","0.737209299986716","1","1","1","1","1","1","1","1","1"
"260037","img/object_images/matches02.jpg","img/object_images/gloves02.jpg","img/object_images/mail_box01.jpg","1","1","1","0","0","0","0.737209299986716","0.533021300041582","0.454985400021542","1","1","1","1","1","1","1","1","1"
"260037","img/object_images/mail_box01.jpg","img/object_images/matches02.jpg","img/object_images/basket04.jpg","1","1","1","0","0","1","0.454985400021542","0.737209299986716","0.529330799996387","1","1","1","1","1","1","1","1","1"
"260037","img/object_images/basket04.jpg","img/object_images/mail_box01.jpg","img/object_images/phone02.jpg","1","1","1","1","0","1","0.529330799996387","0.454985400021542","0.453771400032565","1","1","1","1","1","1","1","1","1"
"260037","img/object_images/phone02.jpg","img/object_images/basket04.jpg","img/object_images/remover01.jpg","1","1","1","1","1","1","0.453771400032565","0.529330799996387","0.57694860000629","1","1","1","1","1","1","1","1","1"
"260037","img/object_images/remover01.jpg","img/object_images/phone02.jpg","img/object_images/knit03.jpg","1","1","1","1","1","1","0.57694860000629","0.453771400032565","0.379904799978249","1","1","1","1","1","1","1","1","1"
"260037","img/object_images/knit03.jpg","img/object_images/remover01.jpg","img/object_images/stereo02.jpg","1","1","0","1","1","0","0.379904799978249","0.57694860000629","0.474981700011995","1","1","1","1","1","1","1","1","2"
"260037","img/object_images/stereo02.jpg","img/object_images/knit03.jpg","img/object_images/hoverboard01.jpg","0","1","1","0","1","0","0.474981700011995","0.379904799978249","0.426679699972738","1","1","1","1","1","1","2","1","1"
"260037","img/object_images/hoverboard01.jpg","img/object_images/stereo02.jpg","img/object_images/shower_head01.jpg","1","0","1","0","0","1","0.426679699972738","0.474981700011995","0.477793800004292","1","1","1","1","1","1","1","2","1"
"260037","img/object_images/shower_head01.jpg","img/object_images/hoverboard01.jpg","img/object_images/bottle07.jpg","1","1","1","1","0","1","0.477793800004292","0.426679699972738","0.373909899964929","1","1","1","1","1","1","1","1","1"
"260037","img/object_images/bottle07.jpg","img/object_images/shower_head01.jpg","img/object_images/remote_controller01.jpg","1","1","1","1","1","1","0.373909899964929","0.477793800004292","0.446742400003131","1","1","1","1","1","1","1","1","1"
"260037","img/object_images/remote_controller01.jpg","img/object_images/bottle07.jpg",NA,"1","1",NA,"1","1",NA,"0.446742400003131","0.373909899964929",NA,"1","1",NA,"1","1",NA,"1","1",NA
"260037","img/object_images/camera05.jpg",NA,"img/object_images/lemon_squeezer01.jpg","1",NA,"1","0",NA,"1","0.543847799999639",NA,"0.403564800042659","1",NA,"1","1",NA,"1","1",NA,"1"
"260037","img/object_images/lemon_squeezer01.jpg","img/object_images/camera05.jpg","img/object_images/sign02.jpg","1","1","1","1","0","0","0.403564800042659","0.543847799999639","0.471239799982868","1","1","1","1","1","1","1","1","1"
"260037","img/object_images/sign02.jpg","img/object_images/lemon_squeezer01.jpg","img/object_images/bow_tie03.jpg","1","1","1","0","1","1","0.471239799982868","0.403564800042659","0.386422399955336","1","1","1","1","1","1","1","1","1"
"260037","img/object_images/bow_tie03.jpg","img/object_images/sign02.jpg","img/object_images/hammer02.jpg","1","1","1","1","0","0","0.386422399955336","0.471239799982868","0.366846100019757","1","1","1","1","1","1","1","1","1"
"260037","img/object_images/hammer02.jpg","img/object_images/bow_tie03.jpg","img/object_images/perfume01.jpg","1","1","1","0","1","0","0.366846100019757","0.386422399955336","0.360609700030182","1","1","1","1","1","1","1","1","1"
"260037","img/object_images/perfume01.jpg","img/object_images/hammer02.jpg","img/object_images/duster01.jpg","1","1","1","0","0","0","0.360609700030182","0.366846100019757","0.384281100006774","1","1","1","1","1","1","1","1","1"
"260037","img/object_images/duster01.jpg","img/object_images/perfume01.jpg","img/object_images/ruler02.jpg","1","1","1","0","0","1","0.384281100006774","0.360609700030182","0.434646900044754","1","1","1","1","1","1","1","1","1"
"260037","img/object_images/ruler02.jpg","img/object_images/duster01.jpg","img/object_images/socks01.jpg","1","1","1","1","0","1","0.434646900044754","0.384281100006774","0.46921690000454","1","1","1","1","1","1","1","1","1"
"260037","img/object_images/socks01.jpg","img/object_images/ruler02.jpg","img/object_images/board01.jpg","1","1","1","1","1","1","0.46921690000454","0.434646900044754","0.405120500014164","1","1","1","1","1","1","1","1","1"
"260037","img/object_images/board01.jpg","img/object_images/socks01.jpg","img/object_images/floss01.jpg","1","1","0","1","1","1","0.405120500014164","0.46921690000454",NA,"1","1","0","1","1","0","1","1","0"
"260037","img/object_images/floss01.jpg","img/object_images/board01.jpg","img/object_images/pan03.jpg","0","1","1","1","1","1",NA,"0.405120500014164","0.565031800011639","0","1","1","0","1","1","0","1","1"
"260037","img/object_images/pan03.jpg","img/object_images/floss01.jpg","img/object_images/bag04.jpg","1","0","1","1","1","0","0.565031800011639",NA,"0.552249900007155","1","0","1","1","0","1","1","0","1"
"260037","img/object_images/bag04.jpg","img/object_images/pan03.jpg","img/object_images/tool13.jpg","1","1","1","0","1","1","0.552249900007155","0.565031800011639","0.448729499999899","1","1","1","1","1","1","1","1","1"
"260037","img/object_images/tool13.jpg","img/object_images/bag04.jpg","img/object_images/Candle_Holder01.jpg","1","1","1","1","0","0","0.448729499999899","0.552249900007155","0.487171199987642","1","1","1","1","1","1","1","1","1"
"260037","img/object_images/Candle_Holder01.jpg","img/object_images/tool13.jpg","img/object_images/pen06.jpg","1","1","1","0","1","0","0.487171199987642","0.448729499999899","0.470046099973843","1","1","1","1","1","1","1","1","1"
"260037","img/object_images/pen06.jpg","img/object_images/Candle_Holder01.jpg","img/object_images/video_game02.jpg","1","1","1","0","0","1","0.470046099973843","0.487171199987642","0.415569999953732","1","1","1","1","1","1","1","1","1"
"260037","img/object_images/video_game02.jpg","img/object_images/pen06.jpg","img/object_images/hat09.jpg","1","1","1","1","0","0","0.415569999953732","0.470046099973843","0.455207799968775","1","1","1","1","1","1","1","1","1"
"260037","img/object_images/hat09.jpg","img/object_images/video_game02.jpg","img/object_images/hat13.jpg","1","1","1","0","1","1","0.455207799968775","0.415569999953732","0.378291599976365","1","1","1","1","1","1","1","1","1"
"260037","img/object_images/hat13.jpg","img/object_images/hat09.jpg","img/object_images/knife01.jpg","1","1","1","1","0","1","0.378291599976365","0.455207799968775","0.374866900034249","1","1","1","1","1","1","1","1","1"
"260037","img/object_images/knife01.jpg","img/object_images/hat13.jpg","img/object_images/clipboard01.jpg","1","1","1","1","1","1","0.374866900034249","0.378291599976365","0.361911899992265","1","1","1","1","1","1","1","1","1"
"260037","img/object_images/clipboard01.jpg","img/object_images/knife01.jpg","img/object_images/office_supplies01.jpg","1","1","1","1","1","1","0.361911899992265","0.374866900034249","0.461782199970912","1","1","1","1","1","1","1","1","1"
"260037","img/object_images/office_supplies01.jpg","img/object_images/clipboard01.jpg","img/object_images/tool20.jpg","1","1","1","1","1","0","0.461782199970912","0.361911899992265","0.501601200026926","1","1","1","1","1","1","1","1","1"
"260037","img/object_images/tool20.jpg","img/object_images/office_supplies01.jpg","img/object_images/sink_filter01 (1).jpg","1","1","1","0","1","0","0.501601200026926","0.461782199970912","0.468438300013077","1","1","1","1","1","1","1","1","1"
"260037","img/object_images/sink_filter01 (1).jpg","img/object_images/tool20.jpg","img/object_images/vase02.jpg","1","1","1","0","0","1","0.468438300013077","0.501601200026926","0.392812600010075","1","1","1","1","1","1","1","1","1"
"260037","img/object_images/vase02.jpg","img/object_images/sink_filter01 (1).jpg","img/object_images/cup01.jpg","1","1","1","1","0","0","0.392812600010075","0.468438300013077","0.440712900017388","1","1","1","1","1","1","1","1","1"
"260037","img/object_images/cup01.jpg","img/object_images/vase02.jpg","img/object_images/spray_can01.jpg","1","1","0","0","1","0","0.440712900017388","0.392812600010075","0.318157999950927","1","1","1","1","1","1","1","1","1"
"260037","img/object_images/spray_can01.jpg","img/object_images/cup01.jpg","img/object_images/dust_pan01.jpg","0","1","1","0","0","1","0.318157999950927","0.440712900017388","0.553553299978375","1","1","1","1","1","1","1","1","1"
"260037","img/object_images/dust_pan01.jpg","img/object_images/spray_can01.jpg","img/object_images/candle02.jpg","1","0","1","1","0","0","0.553553299978375","0.318157999950927","0.415147099993192","1","1","1","1","1","1","1","1","1"
"260037","img/object_images/candle02.jpg","img/object_images/dust_pan01.jpg","img/object_images/Confetti 01.jpg","1","1","1","0","1","0","0.415147099993192","0.553553299978375","0.589698700001463","1","1","1","1","1","1","1","1","1"
"260037","img/object_images/Confetti 01.jpg","img/object_images/candle02.jpg","img/object_images/glasses03.jpg","1","1","1","0","0","0","0.589698700001463","0.415147099993192","0.466294000041671","1","1","1","1","1","1","1","1","1"
"260037","img/object_images/glasses03.jpg","img/object_images/Confetti 01.jpg","img/object_images/razor02.jpg","1","1","1","0","0","1","0.466294000041671","0.589698700001463","0.400031599972863","1","1","1","1","1","1","1","1","1"
"260037","img/object_images/razor02.jpg","img/object_images/glasses03.jpg",NA,"1","1",NA,"1","0",NA,"0.400031599972863","0.466294000041671",NA,"1","1",NA,"1","1",NA,"1","1",NA
"260037","img/object_images/razor01.jpg",NA,"img/object_images/cards01.jpg","0",NA,"1","0",NA,"0",NA,NA,"0.489192000008188","0",NA,"1","0",NA,"1","0",NA,"1"
"260037","img/object_images/cards01.jpg","img/object_images/razor01.jpg","img/object_images/mask01.jpg","1","0","1","0","0","0","0.489192000008188",NA,"0.421082499960903","1","0","1","1","0","1","1","0","1"
"260037","img/object_images/mask01.jpg","img/object_images/cards01.jpg","img/object_images/fan05.jpg","1","1","1","0","0","0","0.421082499960903","0.489192000008188","0.44285970000783","1","1","1","1","1","1","1","1","1"
"260037","img/object_images/fan05.jpg","img/object_images/mask01.jpg","img/object_images/car03.jpg","1","1","1","0","0","0","0.44285970000783","0.421082499960903","0.349781800003257","1","1","1","1","1","1","1","1","1"
"260037","img/object_images/car03.jpg","img/object_images/fan05.jpg","img/object_images/shower_head03.jpg","1","1","1","0","0","1","0.349781800003257","0.44285970000783","0.369643199956045","1","1","1","1","1","1","1","1","1"
"260037","img/object_images/shower_head03.jpg","img/object_images/car03.jpg","img/object_images/ladle02.jpg","1","1","1","1","0","0","0.369643199956045","0.349781800003257","0.42498319997685","1","1","1","1","1","1","1","1","1"
"260037","img/object_images/ladle02.jpg","img/object_images/shower_head03.jpg","img/object_images/hair_brush05.jpg","1","1","1","0","1","1","0.42498319997685","0.369643199956045","0.368026199983433","1","1","1","1","1","1","1","1","1"
"260037","img/object_images/hair_brush05.jpg","img/object_images/ladle02.jpg","img/object_images/car04.jpg","1","1","0","1","0","0","0.368026199983433","0.42498319997685","0.52030360000208","1","1","1","1","1","1","1","1","1"
"260037","img/object_images/car04.jpg","img/object_images/hair_brush05.jpg","img/object_images/slinky_toy01.jpg","0","1","1","0","1","1","0.52030360000208","0.368026199983433","0.33898160001263","1","1","1","1","1","1","1","1","1"
"260037","img/object_images/slinky_toy01.jpg","img/object_images/car04.jpg","img/object_images/tv01.jpg","1","0","1","1","0","0","0.33898160001263","0.52030360000208","0.60474289994454","1","1","1","1","1","1","1","1","1"
"260037","img/object_images/tv01.jpg","img/object_images/slinky_toy01.jpg","img/object_images/bag06.jpg","1","1","1","0","1","1","0.60474289994454","0.33898160001263","0.469795100041665","1","1","1","1","1","1","1","1","1"
"260037","img/object_images/bag06.jpg","img/object_images/tv01.jpg","img/object_images/screwdriver01.jpg","1","1","1","1","0","0","0.469795100041665","0.60474289994454","0.43562570004724","1","1","1","1","1","1","1","1","1"
"260037","img/object_images/screwdriver01.jpg","img/object_images/bag06.jpg","img/object_images/jewel01.jpg","1","1","1","0","1","0","0.43562570004724","0.469795100041665","0.434322399960365","1","1","1","1","1","1","1","1","1"
"260037","img/object_images/jewel01.jpg","img/object_images/screwdriver01.jpg","img/object_images/chair04.jpg","1","1","1","0","0","1","0.434322399960365","0.43562570004724","0.445538200030569","1","1","1","1","1","1","1","1","1"
"260037","img/object_images/chair04.jpg","img/object_images/jewel01.jpg","img/object_images/lemon_squeezer02.jpg","1","1","1","1","0","1","0.445538200030569","0.434322399960365","0.369600299978629","1","1","1","1","1","1","1","1","1"
"260037","img/object_images/lemon_squeezer02.jpg","img/object_images/chair04.jpg","img/object_images/toaster02.jpg","1","1","1","1","1","1","0.369600299978629","0.445538200030569","0.369200200017076","1","1","1","1","1","1","1","1","1"
"260037","img/object_images/toaster02.jpg","img/object_images/lemon_squeezer02.jpg","img/object_images/key02.jpg","1","1","1","1","1","1","0.369200200017076","0.369600299978629","0.295088700018823","1","1","1","1","1","1","1","1","1"
"260037","img/object_images/key02.jpg","img/object_images/toaster02.jpg","img/object_images/belt01.jpg","1","1","1","1","1","0","0.295088700018823","0.369200200017076","0.400520200026222","1","1","1","1","1","1","1","1","1"
"260037","img/object_images/belt01.jpg","img/object_images/key02.jpg","img/object_images/satellite01.jpg","1","1","1","0","1","0","0.400520200026222","0.295088700018823","0.444711800024379","1","1","1","1","1","1","1","1","1"
"260037","img/object_images/satellite01.jpg","img/object_images/belt01.jpg","img/object_images/dress03.jpg","1","1","1","0","0","1","0.444711800024379","0.400520200026222","0.426330799993593","1","1","1","1","1","1","1","1","1"
"260037","img/object_images/dress03.jpg","img/object_images/satellite01.jpg","img/object_images/shoes10.jpg","1","1","1","1","0","0","0.426330799993593","0.444711800024379","0.482306199963205","1","1","1","1","1","1","1","1","1"
"260037","img/object_images/shoes10.jpg","img/object_images/dress03.jpg","img/object_images/ice_tray03.jpg","1","1","1","0","1","1","0.482306199963205","0.426330799993593","0.506413600000087","1","1","1","1","1","1","1","1","1"
"260037","img/object_images/ice_tray03.jpg","img/object_images/shoes10.jpg","img/object_images/rock03.jpg","1","1","1","1","0","0","0.506413600000087","0.482306199963205","0.639398999977857","1","1","1","1","1","1","1","1","2"
"260037","img/object_images/rock03.jpg","img/object_images/ice_tray03.jpg","img/object_images/WitchHat02.jpg","1","1","1","0","1","1","0.639398999977857","0.506413600000087","0.449121300014667","1","1","1","1","1","1","2","1","1"
"260037","img/object_images/WitchHat02.jpg","img/object_images/rock03.jpg","img/object_images/yarn02.jpg","1","1","1","1","0","0","0.449121300014667","0.639398999977857","0.563194799993653","1","1","1","1","1","1","1","2","1"
"260037","img/object_images/yarn02.jpg","img/object_images/WitchHat02.jpg","img/object_images/cutting_board01.jpg","1","1","1","0","1","1","0.563194799993653","0.449121300014667","0.47369479999179","1","1","1","1","1","1","1","1","1"
"260037","img/object_images/cutting_board01.jpg","img/object_images/yarn02.jpg","img/object_images/tool11.jpg","1","1","1","1","0","1","0.47369479999179","0.563194799993653","0.493036800005939","1","1","1","1","1","1","1","1","1"
"260037","img/object_images/tool11.jpg","img/object_images/cutting_board01.jpg","img/object_images/ribbon01.jpg","1","1","1","1","1","0","0.493036800005939","0.47369479999179","0.565930100041442","1","1","1","1","1","1","1","1","1"
"260037","img/object_images/ribbon01.jpg","img/object_images/tool11.jpg","img/object_images/jewelry07.jpg","1","1","1","0","1","1","0.565930100041442","0.493036800005939","0.429236299998593","1","1","1","1","1","1","1","1","1"
"260037","img/object_images/jewelry07.jpg","img/object_images/ribbon01.jpg","img/object_images/binoculars03.jpg","1","1","1","1","0","1","0.429236299998593","0.565930100041442","0.460445899982005","1","1","1","1","1","1","1","1","1"
"260037","img/object_images/binoculars03.jpg","img/object_images/jewelry07.jpg","img/object_images/MeasuringCup01.jpg","1","1","1","1","1","1","0.460445899982005","0.429236299998593","0.443289799964987","1","1","1","1","1","1","1","1","1"
"260037","img/object_images/MeasuringCup01.jpg","img/object_images/binoculars03.jpg",NA,"1","1",NA,"1","1",NA,"0.443289799964987","0.460445899982005",NA,"1","1",NA,"1","1",NA,"1","1",NA
"260037","img/object_images/pen05.jpg",NA,"img/object_images/boat_toy10.jpg","1",NA,"1","0",NA,"0","0.433379900001455",NA,"0.418676800036337","1",NA,"1","1",NA,"1","1",NA,"1"
"260037","img/object_images/boat_toy10.jpg","img/object_images/pen05.jpg","img/object_images/purse04.jpg","1","1","1","0","0","1","0.418676800036337","0.433379900001455","0.621850900002755","1","1","1","1","1","1","1","1","1"
"260037","img/object_images/purse04.jpg","img/object_images/boat_toy10.jpg","img/object_images/scoreboard01.jpg","1","1","1","1","0","1","0.621850900002755","0.418676800036337","0.406174500007182","1","1","1","1","1","1","1","1","1"
"260037","img/object_images/scoreboard01.jpg","img/object_images/purse04.jpg","img/object_images/hat06.jpg","1","1","1","1","1","0","0.406174500007182","0.621850900002755","0.612805399985518","1","1","1","1","1","1","1","1","1"
"260037","img/object_images/hat06.jpg","img/object_images/scoreboard01.jpg","img/object_images/boat02.jpg","1","1","1","0","1","1","0.612805399985518","0.406174500007182","0.446219200035557","1","1","1","1","1","1","1","1","1"
"260037","img/object_images/boat02.jpg","img/object_images/hat06.jpg","img/object_images/bottle02.jpg","1","1","1","1","0","1","0.446219200035557","0.612805399985518","0.341412500012666","1","1","1","1","1","1","1","1","1"
"260037","img/object_images/bottle02.jpg","img/object_images/boat02.jpg","img/object_images/bean_bag02.jpg","1","1","1","1","1","1","0.341412500012666","0.446219200035557","0.377170899999328","1","1","1","1","1","1","1","1","1"
"260037","img/object_images/bean_bag02.jpg","img/object_images/bottle02.jpg","img/object_images/coloring_pencil02.jpg","1","1","1","1","1","0","0.377170899999328","0.341412500012666","0.501508199959062","1","1","1","1","1","1","1","1","1"
"260037","img/object_images/coloring_pencil02.jpg","img/object_images/bean_bag02.jpg","img/object_images/knit01.jpg","1","1","1","0","1","0","0.501508199959062","0.377170899999328","0.420016599993687","1","1","1","1","1","1","1","1","1"
"260037","img/object_images/knit01.jpg","img/object_images/coloring_pencil02.jpg","img/object_images/tie02.jpg","1","1","1","0","0","0","0.420016599993687","0.501508199959062","0.526380099996459","1","1","1","1","1","1","1","1","1"
"260037","img/object_images/tie02.jpg","img/object_images/knit01.jpg","img/object_images/helmet04.jpg","1","1","1","0","0","1","0.526380099996459","0.420016599993687","0.525481300021056","1","1","1","1","1","1","1","1","1"
"260037","img/object_images/helmet04.jpg","img/object_images/tie02.jpg","img/object_images/audio_port01.jpg","1","1","1","1","0","1","0.525481300021056","0.526380099996459","0.455372900003567","1","1","1","1","1","1","1","1","1"
"260037","img/object_images/audio_port01.jpg","img/object_images/helmet04.jpg","img/object_images/bicycle01.jpg","1","1","1","1","1","1","0.455372900003567","0.525481300021056","0.382366800040472","1","1","1","1","1","1","1","1","1"
"260037","img/object_images/bicycle01.jpg","img/object_images/audio_port01.jpg","img/object_images/toaster01.jpg","1","1","1","1","1","1","0.382366800040472","0.455372900003567","0.466292199969757","1","1","1","1","1","1","1","1","1"
"260037","img/object_images/toaster01.jpg","img/object_images/bicycle01.jpg","img/object_images/hot_air_balloon02.jpg","1","1","1","1","1","0","0.466292199969757","0.382366800040472","0.508646900008898","1","1","1","1","1","1","1","1","1"
"260037","img/object_images/hot_air_balloon02.jpg","img/object_images/toaster01.jpg","img/object_images/perfume02.jpg","1","1","1","0","1","0","0.508646900008898","0.466292199969757","0.415542300033849","1","1","1","1","1","1","1","1","1"
"260037","img/object_images/perfume02.jpg","img/object_images/hot_air_balloon02.jpg","img/object_images/toilet_paper_dispenser01.jpg","1","1","1","0","0","1","0.415542300033849","0.508646900008898","0.474564199976157","1","1","1","1","1","1","1","1","1"
"260037","img/object_images/toilet_paper_dispenser01.jpg","img/object_images/perfume02.jpg","img/object_images/cellphone03.jpg","1","1","1","1","0","0","0.474564199976157","0.415542300033849","0.506542899995111","1","1","1","1","1","1","1","1","1"
"260037","img/object_images/cellphone03.jpg","img/object_images/toilet_paper_dispenser01.jpg","img/object_images/wagon_cart03.jpg","1","1","1","0","1","1","0.506542899995111","0.474564199976157","0.454671900020912","1","1","1","1","1","1","1","1","1"
"260037","img/object_images/wagon_cart03.jpg","img/object_images/cellphone03.jpg","img/object_images/camera_lens01.jpg","1","1","1","1","0","1","0.454671900020912","0.506542899995111","0.429730499978177","1","1","1","1","1","1","1","1","1"
"260037","img/object_images/camera_lens01.jpg","img/object_images/wagon_cart03.jpg","img/object_images/bottle10.jpg","1","1","1","1","1","1","0.429730499978177","0.454671900020912","0.398750699998345","1","1","1","1","1","1","1","1","1"
"260037","img/object_images/bottle10.jpg","img/object_images/camera_lens01.jpg","img/object_images/bottle09.jpg","1","1","1","1","1","0","0.398750699998345","0.429730499978177","0.51747699995758","1","1","1","1","1","1","1","1","1"
"260037","img/object_images/bottle09.jpg","img/object_images/bottle10.jpg","img/object_images/WoodBox01.jpg","1","1","1","0","1","0","0.51747699995758","0.398750699998345","0.498399400035851","1","1","1","1","1","1","1","1","1"
"260037","img/object_images/WoodBox01.jpg","img/object_images/bottle09.jpg","img/object_images/chair03.jpg","1","1","1","0","0","0","0.498399400035851","0.51747699995758","0.514450400019996","1","1","1","1","1","1","1","1","1"
"260037","img/object_images/chair03.jpg","img/object_images/WoodBox01.jpg","img/object_images/fan02.jpg","1","1","1","0","0","0","0.514450400019996","0.498399400035851","0.432575799990445","1","1","1","1","1","1","1","1","1"
"260037","img/object_images/fan02.jpg","img/object_images/chair03.jpg","img/object_images/flask01.jpg","1","1","1","0","0","0","0.432575799990445","0.514450400019996","0.812021800025832","1","1","1","1","1","1","1","1","1"
"260037","img/object_images/flask01.jpg","img/object_images/fan02.jpg","img/object_images/dog_leash01.jpg","1","1","1","0","0","0","0.812021800025832","0.432575799990445","0.468284300004598","1","1","1","1","1","1","1","1","1"
"260037","img/object_images/dog_leash01.jpg","img/object_images/flask01.jpg","img/object_images/shoes07.jpg","1","1","0","0","0","0","0.468284300004598","0.812021800025832","0.529190200031735","1","1","1","1","1","1","1","1","1"
"260037","img/object_images/shoes07.jpg","img/object_images/dog_leash01.jpg","img/object_images/piggy_bank01.jpg","0","1","1","0","0","1","0.529190200031735","0.468284300004598","0.606323999993037","1","1","1","1","1","1","1","1","1"
"260037","img/object_images/piggy_bank01.jpg","img/object_images/shoes07.jpg","img/object_images/water_scooter01.jpg","1","0","1","1","0","1","0.606323999993037","0.529190200031735","0.414040000003297","1","1","1","1","1","1","1","1","1"
"260037","img/object_images/water_scooter01.jpg","img/object_images/piggy_bank01.jpg","img/object_images/tool19.jpg","1","1","1","1","1","1","0.414040000003297","0.606323999993037","0.392099699995015","1","1","1","1","1","1","1","1","1"
"260037","img/object_images/tool19.jpg","img/object_images/water_scooter01.jpg",NA,"1","1",NA,"1","1",NA,"0.392099699995015","0.414040000003297",NA,"1","1",NA,"1","1",NA,"1","1",NA
"260037","img/object_images/lawn_mower01.jpg",NA,"img/object_images/camera07.jpg","1",NA,"0","1",NA,"1","0.480877500027418",NA,NA,"1",NA,"0","1",NA,"0","1",NA,"0"
"260037","img/object_images/camera07.jpg","img/object_images/lawn_mower01.jpg","img/object_images/jewelry01.jpg","0","1","0","1","1","1",NA,"0.480877500027418",NA,"0","1","0","0","1","0","0","1","0"
"260037","img/object_images/jewelry01.jpg","img/object_images/camera07.jpg","img/object_images/pitcher02.jpg","0","0","1","1","1","1",NA,NA,"0.462371899979189","0","0","1","0","0","1","0","0","1"
"260037","img/object_images/pitcher02.jpg","img/object_images/jewelry01.jpg","img/object_images/bow_tie01.jpg","1","0","1","1","1","0","0.462371899979189",NA,"0.446598800015636","1","0","1","1","0","1","1","0","1"
"260037","img/object_images/bow_tie01.jpg","img/object_images/pitcher02.jpg","img/object_images/ironing_table01.jpg","1","1","1","0","1","0","0.446598800015636","0.462371899979189","0.557704599981662","1","1","1","1","1","1","1","1","1"
"260037","img/object_images/ironing_table01.jpg","img/object_images/bow_tie01.jpg","img/object_images/dresser04.jpg","1","1","0","0","0","0","0.557704599981662","0.446598800015636",NA,"1","1","0","1","1","0","1","1","0"
"260037","img/object_images/dresser04.jpg","img/object_images/ironing_table01.jpg","img/object_images/hammer01.jpg","0","1","0","0","0","0",NA,"0.557704599981662",NA,"0","1","0","0","1","0","0","1","0"
"260037","img/object_images/hammer01.jpg","img/object_images/dresser04.jpg","img/object_images/golf_ball03.jpg","0","0","0","0","0","1",NA,NA,NA,"0","0","0","0","0","0","0","0","0"
"260037","img/object_images/golf_ball03.jpg","img/object_images/hammer01.jpg","img/object_images/balloon01.jpg","0","0","0","1","0","0",NA,NA,NA,"0","0","0","0","0","0","0","0","0"
"260037","img/object_images/balloon01.jpg","img/object_images/golf_ball03.jpg","img/object_images/gift_box02.jpg","0","0","1","0","1","1",NA,NA,"0.547433900006581","0","0","1","0","0","1","0","0","1"
"260037","img/object_images/gift_box02.jpg","img/object_images/balloon01.jpg","img/object_images/clip02.jpg","1","0","1","1","0","1","0.547433900006581",NA,"0.413146000006236","1","0","1","1","0","1","1","0","1"
"260037","img/object_images/clip02.jpg","img/object_images/gift_box02.jpg","img/object_images/bath_tub01.jpg","1","1","0","1","1","0","0.413146000006236","0.547433900006581",NA,"1","1","0","1","1","0","1","1","0"
"260037","img/object_images/bath_tub01.jpg","img/object_images/clip02.jpg","img/object_images/coloring_pencil01.jpg","0","1","1","0","1","1",NA,"0.413146000006236","0.422561199986376","0","1","1","0","1","1","0","1","1"
"260037","img/object_images/coloring_pencil01.jpg","img/object_images/bath_tub01.jpg","img/object_images/socks02.jpg","1","0","1","1","0","0","0.422561199986376",NA,"0.391256199975032","1","0","1","1","0","1","1","0","1"
"260037","img/object_images/socks02.jpg","img/object_images/coloring_pencil01.jpg","img/object_images/measuring_tape02.jpg","1","1","1","0","1","1","0.391256199975032","0.422561199986376","0.485037899983581","1","1","1","1","1","1","1","1","1"
"260037","img/object_images/measuring_tape02.jpg","img/object_images/socks02.jpg","img/object_images/vga_port 01.jpg","1","1","0","1","0","0","0.485037899983581","0.391256199975032",NA,"1","1","0","1","1","0","1","1","0"
"260037","img/object_images/vga_port 01.jpg","img/object_images/measuring_tape02.jpg","img/object_images/bow_tie02.jpg","0","1","0","0","1","0",NA,"0.485037899983581",NA,"0","1","0","0","1","0","0","1","0"
"260037","img/object_images/bow_tie02.jpg","img/object_images/vga_port 01.jpg","img/object_images/fork03.jpg","0","0","0","0","0","1",NA,NA,NA,"0","0","0","0","0","0","0","0","0"
"260037","img/object_images/fork03.jpg","img/object_images/bow_tie02.jpg","img/object_images/funnel01.jpg","0","0","0","1","0","0",NA,NA,NA,"0","0","0","0","0","0","0","0","0"
"260037","img/object_images/funnel01.jpg","img/object_images/fork03.jpg","img/object_images/Witchhat01.jpg","0","0","0","0","1","1",NA,NA,NA,"0","0","0","0","0","0","0","0","0"
"260037","img/object_images/Witchhat01.jpg","img/object_images/funnel01.jpg","img/object_images/Screws01.jpg","0","0","0","1","0","1",NA,NA,NA,"0","0","0","0","0","0","0","0","0"
"260037","img/object_images/Screws01.jpg","img/object_images/Witchhat01.jpg","img/object_images/grater01.jpg","0","0","1","1","1","1",NA,NA,"0.575446700036991","0","0","1","0","0","1","0","0","1"
"260037","img/object_images/grater01.jpg","img/object_images/Screws01.jpg","img/object_images/gift_box03.jpg","1","0","1","1","1","0","0.575446700036991",NA,"0.44879240001319","1","0","1","1","0","1","1","0","1"
"260037","img/object_images/gift_box03.jpg","img/object_images/grater01.jpg","img/object_images/lock04.jpg","1","1","0","0","1","1","0.44879240001319","0.575446700036991",NA,"1","1","0","1","1","0","1","1","0"
"260037","img/object_images/lock04.jpg","img/object_images/gift_box03.jpg","img/object_images/couch03.jpg","0","1","1","1","0","0",NA,"0.44879240001319","0.543781900021713","0","1","1","0","1","1","0","1","1"
"260037","img/object_images/couch03.jpg","img/object_images/lock04.jpg","img/object_images/sleeping_bag01.jpg","1","0","0","0","1","0","0.543781900021713",NA,NA,"1","0","0","1","0","0","1","0","0"
"260037","img/object_images/sleeping_bag01.jpg","img/object_images/couch03.jpg","img/object_images/handkerchief01.jpg","0","1","0","0","0","0",NA,"0.543781900021713",NA,"0","1","0","0","1","0","0","1","0"
"260037","img/object_images/handkerchief01.jpg","img/object_images/sleeping_bag01.jpg","img/object_images/wallet02.jpg","0","0","1","0","0","1",NA,NA,"0.392951499961782","0","0","1","0","0","1","0","0","1"
"260037","img/object_images/wallet02.jpg","img/object_images/handkerchief01.jpg","img/object_images/jacket03.jpg","1","0","1","1","0","0","0.392951499961782",NA,"0.531972499971744","1","0","1","1","0","1","1","0","1"
"260037","img/object_images/jacket03.jpg","img/object_images/wallet02.jpg","img/object_images/gift_box01.jpg","1","1","0","0","1","1","0.531972499971744","0.392951499961782",NA,"1","1","0","1","1","0","1","1","0"
"260037","img/object_images/gift_box01.jpg","img/object_images/jacket03.jpg","img/object_images/paper_cup01.jpg","0","1","1","1","0","0",NA,"0.531972499971744","0.52067050000187","0","1","1","0","1","1","0","1","1"
"260037","img/object_images/paper_cup01.jpg","img/object_images/gift_box01.jpg",NA,"1","0",NA,"0","1",NA,"0.52067050000187",NA,NA,"1","0",NA,"1","0",NA,"1","0",NA
"260037","img/object_images/projector01.jpg",NA,"img/object_images/tool07.jpg","0",NA,"1","0",NA,"0",NA,NA,"0.47432249999838","0",NA,"1","0",NA,"1","0",NA,"1"
"260037","img/object_images/tool07.jpg","img/object_images/projector01.jpg","img/object_images/glasses06.jpg","1","0","1","0","0","1","0.47432249999838",NA,"0.396250699996017","1","0","1","1","0","1","1","0","1"
"260037","img/object_images/glasses06.jpg","img/object_images/tool07.jpg","img/object_images/hole_puncher01.jpg","1","1","1","1","0","1","0.396250699996017","0.47432249999838","0.342683799972292","1","1","1","1","1","1","1","1","1"
"260037","img/object_images/hole_puncher01.jpg","img/object_images/glasses06.jpg","img/object_images/bicycle_lock01.jpg","1","1","1","1","1","0","0.342683799972292","0.396250699996017","0.501402899972163","1","1","1","1","1","1","1","1","1"
"260037","img/object_images/bicycle_lock01.jpg","img/object_images/hole_puncher01.jpg","img/object_images/Pottery01.jpg","1","1","1","0","1","0","0.501402899972163","0.342683799972292","0.415433200018015","1","1","1","1","1","1","1","1","1"
"260037","img/object_images/Pottery01.jpg","img/object_images/bicycle_lock01.jpg","img/object_images/jewelry09.jpg","1","1","1","0","0","1","0.415433200018015","0.501402899972163","0.452415300009307","1","1","1","1","1","1","1","1","1"
"260037","img/object_images/jewelry09.jpg","img/object_images/Pottery01.jpg","img/object_images/basket02.jpg","1","1","1","1","0","0","0.452415300009307","0.415433200018015","0.518654299958143","1","1","1","1","1","1","1","1","1"
"260037","img/object_images/basket02.jpg","img/object_images/jewelry09.jpg","img/object_images/book01.jpg","1","1","1","0","1","1","0.518654299958143","0.452415300009307","0.408659100008663","1","1","1","1","1","1","1","1","1"
"260037","img/object_images/book01.jpg","img/object_images/basket02.jpg","img/object_images/speaker01.jpg","1","1","1","1","0","1","0.408659100008663","0.518654299958143","0.459453099989332","1","1","1","1","1","1","1","1","1"
"260037","img/object_images/speaker01.jpg","img/object_images/book01.jpg","img/object_images/yo_yo01.jpg","1","1","1","1","1","0","0.459453099989332","0.408659100008663","0.486297699972056","1","1","1","1","1","1","1","1","1"
"260037","img/object_images/yo_yo01.jpg","img/object_images/speaker01.jpg","img/object_images/faucet01.jpg","1","1","1","0","1","0","0.486297699972056","0.459453099989332","0.511437300010584","1","1","1","1","1","1","1","1","1"
"260037","img/object_images/faucet01.jpg","img/object_images/yo_yo01.jpg","img/object_images/Traffic Sign 01.jpg","1","1","1","0","0","0","0.511437300010584","0.486297699972056","0.637138099991716","1","1","1","1","1","1","1","1","1"
"260037","img/object_images/Traffic Sign 01.jpg","img/object_images/faucet01.jpg","img/object_images/cup03.jpg","1","1","1","0","0","1","0.637138099991716","0.511437300010584","0.478426899993792","1","1","1","1","1","1","1","1","1"
"260037","img/object_images/cup03.jpg","img/object_images/Traffic Sign 01.jpg","img/object_images/hair_clips01.jpg","1","1","1","1","0","1","0.478426899993792","0.637138099991716","0.527748699998483","1","1","1","1","1","1","1","1","1"
"260037","img/object_images/hair_clips01.jpg","img/object_images/cup03.jpg","img/object_images/exfoliater_brush01.jpg","1","1","1","1","1","0","0.527748699998483","0.478426899993792","0.579524800006766","1","1","1","1","1","1","1","1","1"
"260037","img/object_images/exfoliater_brush01.jpg","img/object_images/hair_clips01.jpg","img/object_images/Sprayer01.jpg","1","1","1","0","1","0","0.579524800006766","0.527748699998483","0.433080099988729","1","1","1","1","1","1","1","1","1"
"260037","img/object_images/Sprayer01.jpg","img/object_images/exfoliater_brush01.jpg","img/object_images/glasses07.jpg","1","1","1","0","0","1","0.433080099988729","0.579524800006766","0.464520599984098","1","1","1","1","1","1","1","1","1"
"260037","img/object_images/glasses07.jpg","img/object_images/Sprayer01.jpg","img/object_images/colander01.jpg","1","1","1","1","0","0","0.464520599984098","0.433080099988729","0.578364100016188","1","1","1","1","1","1","1","1","1"
"260037","img/object_images/colander01.jpg","img/object_images/glasses07.jpg","img/object_images/fire_extinguisher01.jpg","1","1","1","0","1","0","0.578364100016188","0.464520599984098","0.642261500004679","1","1","1","1","1","1","1","1","1"
"260037","img/object_images/fire_extinguisher01.jpg","img/object_images/colander01.jpg","img/object_images/purse01.jpg","1","1","1","0","0","1","0.642261500004679","0.578364100016188","0.398163000005297","1","1","1","1","1","1","1","1","1"
"260037","img/object_images/purse01.jpg","img/object_images/fire_extinguisher01.jpg","img/object_images/pan01.jpg","1","1","1","1","0","1","0.398163000005297","0.642261500004679","0.50690110004507","1","1","1","1","1","1","1","1","1"
"260037","img/object_images/pan01.jpg","img/object_images/purse01.jpg","img/object_images/TrashCan02.jpg","1","1","1","1","1","1","0.50690110004507","0.398163000005297","0.448649400030263","1","1","1","1","1","1","1","1","1"
"260037","img/object_images/TrashCan02.jpg","img/object_images/pan01.jpg","img/object_images/tray01.jpg","1","1","1","1","1","1","0.448649400030263","0.50690110004507","0.419604299997445","1","1","1","1","1","1","1","1","1"
"260037","img/object_images/tray01.jpg","img/object_images/TrashCan02.jpg","img/object_images/ring03.jpg","1","1","1","1","1","1","0.419604299997445","0.448649400030263","0.39970920002088","1","1","1","1","1","1","1","1","1"
"260037","img/object_images/ring03.jpg","img/object_images/tray01.jpg","img/object_images/gift_box04.jpg","1","1","1","1","1","0","0.39970920002088","0.419604299997445","0.460830500000156","1","1","1","1","1","1","1","1","1"
"260037","img/object_images/gift_box04.jpg","img/object_images/ring03.jpg","img/object_images/handcuffs01.jpg","1","1","1","0","1","0","0.460830500000156","0.39970920002088","0.439198300009593","1","1","1","1","1","1","1","1","1"
"260037","img/object_images/handcuffs01.jpg","img/object_images/gift_box04.jpg","img/object_images/Kitchen_Towel.jpg","1","1","1","0","0","0","0.439198300009593","0.460830500000156","0.346962700015865","1","1","1","1","1","1","1","1","1"
"260037","img/object_images/Kitchen_Towel.jpg","img/object_images/handcuffs01.jpg","img/object_images/tool08.jpg","1","1","1","0","0","0","0.346962700015865","0.439198300009593","0.494462200033013","1","1","1","1","1","1","1","1","1"
"260037","img/object_images/tool08.jpg","img/object_images/Kitchen_Towel.jpg","img/object_images/blanket01.jpg","1","1","1","0","0","1","0.494462200033013","0.346962700015865","0.431152300036047","1","1","1","1","1","1","1","1","1"
"260037","img/object_images/blanket01.jpg","img/object_images/tool08.jpg","img/object_images/lighter01.jpg","1","1","1","1","0","1","0.431152300036047","0.494462200033013","0.447599199949764","1","1","1","1","1","1","1","1","1"
"260037","img/object_images/lighter01.jpg","img/object_images/blanket01.jpg","img/object_images/cellphone02.jpg","1","1","1","1","1","1","0.447599199949764","0.431152300036047","0.450670499994885","1","1","1","1","1","1","1","1","1"
"260037","img/object_images/cellphone02.jpg","img/object_images/lighter01.jpg",NA,"1","1",NA,"1","1",NA,"0.450670499994885","0.447599199949764",NA,"1","1",NA,"1","1",NA,"1","1",NA
"260037","img/object_images/pot01 (1).jpg",NA,"img/object_images/gauze01.jpg","0",NA,"1","0",NA,"0","0.932552799989935",NA,"0.47871870000381","1",NA,"1","1",NA,"1","1",NA,"1"
"260037","img/object_images/gauze01.jpg","img/object_images/pot01 (1).jpg","img/object_images/outlet01.jpg","1","0","1","0","0","0","0.47871870000381","0.932552799989935","0.402162900019903","1","1","1","1","1","1","1","1","1"
"260037","img/object_images/outlet01.jpg","img/object_images/gauze01.jpg","img/object_images/toy04.jpg","1","1","1","0","0","0","0.402162900019903","0.47871870000381","0.36785909999162","1","1","1","1","1","1","1","1","1"
"260037","img/object_images/toy04.jpg","img/object_images/outlet01.jpg","img/object_images/dart01.jpg","1","1","1","0","0","0","0.36785909999162","0.402162900019903","0.416692700004205","1","1","1","1","1","1","1","1","1"
"260037","img/object_images/dart01.jpg","img/object_images/toy04.jpg","img/object_images/bow01.jpg","1","1","1","0","0","1","0.416692700004205","0.36785909999162","0.498901200015098","1","1","1","1","1","1","1","1","1"
"260037","img/object_images/bow01.jpg","img/object_images/dart01.jpg","img/object_images/acoustic_capo01.jpg","1","1","1","1","0","1","0.498901200015098","0.416692700004205","0.53361829998903","1","1","1","1","1","1","1","1","1"
"260037","img/object_images/acoustic_capo01.jpg","img/object_images/bow01.jpg","img/object_images/tool09.jpg","1","1","1","1","1","1","0.53361829998903","0.498901200015098","0.420332600013353","1","1","1","1","1","1","1","1","1"
"260037","img/object_images/tool09.jpg","img/object_images/acoustic_capo01.jpg","img/object_images/Ring02.jpg","1","1","1","1","1","0","0.420332600013353","0.53361829998903","0.469837999960873","1","1","1","1","1","1","1","1","1"
"260037","img/object_images/Ring02.jpg","img/object_images/tool09.jpg","img/object_images/mirror01.jpg","1","1","1","0","1","1","0.469837999960873","0.420332600013353","0.491590899997391","1","1","1","1","1","1","1","1","1"
"260037","img/object_images/mirror01.jpg","img/object_images/Ring02.jpg","img/object_images/fridge03.jpg","1","1","1","1","0","0","0.491590899997391","0.469837999960873","0.545320499979425","1","1","1","1","1","1","1","1","1"
"260037","img/object_images/fridge03.jpg","img/object_images/mirror01.jpg","img/object_images/shovel03.jpg","1","1","1","0","1","1","0.545320499979425","0.491590899997391","0.399573899980169","1","1","1","1","1","1","1","1","1"
"260037","img/object_images/shovel03.jpg","img/object_images/fridge03.jpg","img/object_images/Vacuum01.jpg","1","1","0","1","0","0","0.399573899980169","0.545320499979425","0.358429700019769","1","1","1","1","1","1","1","1","1"
"260037","img/object_images/Vacuum01.jpg","img/object_images/shovel03.jpg","img/object_images/bird_house02.jpg","0","1","1","0","1","1","0.358429700019769","0.399573899980169","0.40084159997059","1","1","1","1","1","1","1","1","1"
"260037","img/object_images/bird_house02.jpg","img/object_images/Vacuum01.jpg","img/object_images/frisbee01.jpg","1","0","1","1","0","1","0.40084159997059","0.358429700019769","0.448554200003855","1","1","1","1","1","1","1","1","1"
"260037","img/object_images/frisbee01.jpg","img/object_images/bird_house02.jpg","img/object_images/bottle05.jpg","1","1","0","1","1","0","0.448554200003855","0.40084159997059","0.449983400001656","1","1","1","1","1","1","1","1","1"
"260037","img/object_images/bottle05.jpg","img/object_images/frisbee01.jpg","img/object_images/sink01.jpg","0","1","1","0","1","0","0.449983400001656","0.448554200003855","0.41616999998223","1","1","1","1","1","1","1","1","1"
"260037","img/object_images/sink01.jpg","img/object_images/bottle05.jpg","img/object_images/video_game07.jpg","1","0","1","0","0","1","0.41616999998223","0.449983400001656","0.411135500005912","1","1","1","1","1","1","1","1","1"
"260037","img/object_images/video_game07.jpg","img/object_images/sink01.jpg","img/object_images/crown02.jpg","1","1","1","1","0","1","0.411135500005912","0.41616999998223","0.336628000019118","1","1","1","1","1","1","1","1","1"
"260037","img/object_images/crown02.jpg","img/object_images/video_game07.jpg","img/object_images/toy03.jpg","1","1","1","1","1","1","0.336628000019118","0.411135500005912","0.462786299991421","1","1","1","1","1","1","1","1","1"
"260037","img/object_images/toy03.jpg","img/object_images/crown02.jpg","img/object_images/Stool01.jpg","1","1","1","1","1","0","0.462786299991421","0.336628000019118","0.586566999962088","1","1","1","1","1","1","1","1","1"
"260037","img/object_images/Stool01.jpg","img/object_images/toy03.jpg","img/object_images/watch01.jpg","1","1","1","0","1","0","0.586566999962088","0.462786299991421","0.419195699971169","1","1","1","1","1","1","1","1","1"
"260037","img/object_images/watch01.jpg","img/object_images/Stool01.jpg","img/object_images/tool02.jpg","1","1","1","0","0","1","0.419195699971169","0.586566999962088","0.628933000029065","1","1","1","1","1","1","1","1","1"
"260037","img/object_images/tool02.jpg","img/object_images/watch01.jpg","img/object_images/jewel04.jpg","1","1","1","1","0","0","0.628933000029065","0.419195699971169","0.360885499976575","1","1","1","1","1","1","1","1","1"
"260037","img/object_images/jewel04.jpg","img/object_images/tool02.jpg","img/object_images/Tin01.jpg","1","1","1","0","1","1","0.360885499976575","0.628933000029065","0.534635199990589","1","1","1","1","1","1","1","1","1"
"260037","img/object_images/Tin01.jpg","img/object_images/jewel04.jpg","img/object_images/towel02.jpg","1","1","1","1","0","1","0.534635199990589","0.360885499976575","0.492204100009985","1","1","1","1","1","1","1","1","1"
"260037","img/object_images/towel02.jpg","img/object_images/Tin01.jpg","img/object_images/MetalWire01.jpg","1","1","1","1","1","0","0.492204100009985","0.534635199990589","0.575246000022162","1","1","1","1","1","1","1","1","1"
"260037","img/object_images/MetalWire01.jpg","img/object_images/towel02.jpg","img/object_images/judge_gavel01.jpg","1","1","1","0","1","1","0.575246000022162","0.492204100009985","0.46058339998126","1","1","1","1","1","1","1","1","1"
"260037","img/object_images/judge_gavel01.jpg","img/object_images/MetalWire01.jpg","img/object_images/helmet01.jpg","1","1","1","1","0","0","0.46058339998126","0.575246000022162","0.440374199999496","1","1","1","1","1","1","1","1","1"
"260037","img/object_images/helmet01.jpg","img/object_images/judge_gavel01.jpg","img/object_images/ornament01.jpg","1","1","1","0","1","1","0.440374199999496","0.46058339998126","0.383626099966932","1","1","1","1","1","1","1","1","1"
"260037","img/object_images/ornament01.jpg","img/object_images/helmet01.jpg","img/object_images/stapler.jpg","1","1","1","1","0","1","0.383626099966932","0.440374199999496","0.405922199948691","1","1","1","1","1","1","1","1","1"
"260037","img/object_images/stapler.jpg","img/object_images/ornament01.jpg","img/object_images/guitar02.jpg","1","1","1","1","1","0","0.405922199948691","0.383626099966932","0.403524399967864","1","1","1","1","1","1","1","1","1"
"260037","img/object_images/guitar02.jpg","img/object_images/stapler.jpg",NA,"1","1",NA,"0","1",NA,"0.403524399967864","0.405922199948691",NA,"1","1",NA,"1","1",NA,"1","1",NA
"260037","img/object_images/Lint_Roller02.jpg",NA,"img/object_images/robe01.jpg","0",NA,"1","0",NA,"1",NA,NA,"0.36402579996502","0",NA,"1","0",NA,"1","0",NA,"1"
"260037","img/object_images/robe01.jpg","img/object_images/Lint_Roller02.jpg","img/object_images/chair02.jpg","1","0","1","1","0","1","0.36402579996502",NA,"0.440497499948833","1","0","1","1","0","1","1","0","1"
"260037","img/object_images/chair02.jpg","img/object_images/robe01.jpg","img/object_images/microphone03.jpg","1","1","1","1","1","1","0.440497499948833","0.36402579996502","0.362376799981575","1","1","1","1","1","1","1","1","1"
"260037","img/object_images/microphone03.jpg","img/object_images/chair02.jpg","img/object_images/ball02.jpg","1","1","1","1","1","1","0.362376799981575","0.440497499948833","0.519136300019454","1","1","1","1","1","1","1","1","1"
"260037","img/object_images/ball02.jpg","img/object_images/microphone03.jpg","img/object_images/laptop01.jpg","1","1","0","1","1","0","0.519136300019454","0.362376799981575","0.463668500015047","1","1","1","1","1","1","1","1","2"
"260037","img/object_images/laptop01.jpg","img/object_images/ball02.jpg","img/object_images/chess_piece01.jpg","0","1","1","0","1","0","0.463668500015047","0.519136300019454","0.413256700034253","1","1","1","1","1","1","2","1","1"
"260037","img/object_images/chess_piece01.jpg","img/object_images/laptop01.jpg","img/object_images/bucket02.jpg","1","0","1","0","0","1","0.413256700034253","0.463668500015047","0.455353899975307","1","1","1","1","1","1","1","2","1"
"260037","img/object_images/bucket02.jpg","img/object_images/chess_piece01.jpg","img/object_images/shoes08.jpg","1","1","1","1","0","1","0.455353899975307","0.413256700034253","0.613591399975121","1","1","1","1","1","1","1","1","1"
"260037","img/object_images/shoes08.jpg","img/object_images/bucket02.jpg","img/object_images/stove01.jpg","1","1","1","1","1","0","0.613591399975121","0.455353899975307","0.415548600023612","1","1","1","1","1","1","1","1","1"
"260037","img/object_images/stove01.jpg","img/object_images/shoes08.jpg","img/object_images/towels01.jpg","1","1","1","0","1","0","0.415548600023612","0.613591399975121","0.45477369998116","1","1","1","1","1","1","1","1","1"
"260037","img/object_images/towels01.jpg","img/object_images/stove01.jpg","img/object_images/laptop03.jpg","1","1","0","0","0","1","0.45477369998116","0.415548600023612",NA,"1","1","0","1","1","0","1","1","0"
"260037","img/object_images/laptop03.jpg","img/object_images/towels01.jpg","img/object_images/jewel03.jpg","0","1","1","1","0","1",NA,"0.45477369998116","0.372290899977088","0","1","1","0","1","1","0","1","1"
"260037","img/object_images/jewel03.jpg","img/object_images/laptop03.jpg","img/object_images/surf_board01.jpg","1","0","1","1","1","1","0.372290899977088",NA,"0.425228599982802","1","0","1","1","0","1","1","0","1"
"260037","img/object_images/surf_board01.jpg","img/object_images/jewel03.jpg","img/object_images/trash_can03.jpg","1","1","1","1","1","1","0.425228599982802","0.372290899977088","0.494349099986721","1","1","1","1","1","1","1","1","1"
"260037","img/object_images/trash_can03.jpg","img/object_images/surf_board01.jpg","img/object_images/trash_can05.jpg","1","1","1","1","1","1","0.494349099986721","0.425228599982802","0.523745200014673","1","1","1","1","1","1","1","1","1"
"260037","img/object_images/trash_can05.jpg","img/object_images/trash_can03.jpg","img/object_images/pitcher05.jpg","1","1","1","1","1","0","0.523745200014673","0.494349099986721","0.422934799978975","1","1","1","1","1","1","1","1","1"
"260037","img/object_images/pitcher05.jpg","img/object_images/trash_can05.jpg","img/object_images/helmet02.jpg","1","1","1","0","1","0","0.422934799978975","0.523745200014673","0.442100499989465","1","1","1","1","1","1","1","1","1"
"260037","img/object_images/helmet02.jpg","img/object_images/pitcher05.jpg","img/object_images/hair_dryer01.jpg","1","1","1","0","0","0","0.442100499989465","0.422934799978975","0.543437300017104","1","1","1","1","1","1","1","1","1"
"260037","img/object_images/hair_dryer01.jpg","img/object_images/helmet02.jpg","img/object_images/gift_box05.jpg","1","1","1","0","0","0","0.543437300017104","0.442100499989465","0.478584299969953","1","1","1","1","1","1","1","1","1"
"260037","img/object_images/gift_box05.jpg","img/object_images/hair_dryer01.jpg","img/object_images/umbrella01.jpg","1","1","1","0","0","0","0.478584299969953","0.543437300017104","0.612080999999307","1","1","1","1","1","1","1","1","1"
"260037","img/object_images/umbrella01.jpg","img/object_images/gift_box05.jpg","img/object_images/calculator01.jpg","1","1","1","0","0","1","0.612080999999307","0.478584299969953","0.512576700013597","1","1","1","1","1","1","1","1","1"
"260037","img/object_images/calculator01.jpg","img/object_images/umbrella01.jpg","img/object_images/spatula02.jpg","1","1","1","1","0","1","0.512576700013597","0.612080999999307","0.475196900020819","1","1","1","1","1","1","1","1","1"
"260037","img/object_images/spatula02.jpg","img/object_images/calculator01.jpg","img/object_images/toy05.jpg","1","1","1","1","1","0","0.475196900020819","0.512576700013597","0.437763000023551","1","1","1","1","1","1","1","1","1"
"260037","img/object_images/toy05.jpg","img/object_images/spatula02.jpg","img/object_images/backpack03.jpg","1","1","1","0","1","1","0.437763000023551","0.475196900020819","0.375816599989776","1","1","1","1","1","1","1","1","1"
"260037","img/object_images/backpack03.jpg","img/object_images/toy05.jpg","img/object_images/accardion01.jpg","1","1","1","1","0","1","0.375816599989776","0.437763000023551","0.473431500024162","1","1","1","1","1","1","1","1","1"
"260037","img/object_images/accardion01.jpg","img/object_images/backpack03.jpg","img/object_images/combs01.jpg","1","1","1","1","1","1","0.473431500024162","0.375816599989776","0.49782430002233","1","1","1","1","1","1","1","1","1"
"260037","img/object_images/combs01.jpg","img/object_images/accardion01.jpg","img/object_images/Vest02.jpg","1","1","1","1","1","0","0.49782430002233","0.473431500024162","0.41363010002533","1","1","1","1","1","1","1","1","1"
"260037","img/object_images/Vest02.jpg","img/object_images/combs01.jpg","img/object_images/hair_brush02.jpg","1","1","1","0","1","0","0.41363010002533","0.49782430002233","0.534313299984206","1","1","1","1","1","1","1","1","1"
"260037","img/object_images/hair_brush02.jpg","img/object_images/Vest02.jpg","img/object_images/fan04.jpg","1","1","1","0","0","0","0.534313299984206","0.41363010002533","0.409737700014375","1","1","1","1","1","1","1","1","1"
"260037","img/object_images/fan04.jpg","img/object_images/hair_brush02.jpg","img/object_images/lock01.jpg","1","1","1","0","0","0","0.409737700014375","0.534313299984206","0.471047400031239","1","1","1","1","1","1","1","1","1"
"260037","img/object_images/lock01.jpg","img/object_images/fan04.jpg","img/object_images/vase01.jpg","1","1","1","0","0","0","0.471047400031239","0.409737700014375","0.420344699989073","1","1","1","1","1","1","1","1","1"
"260037","img/object_images/vase01.jpg","img/object_images/lock01.jpg",NA,"1","1",NA,"0","0",NA,"0.420344699989073","0.471047400031239",NA,"1","1",NA,"1","1",NA,"1","1",NA
"260037","img/object_images/toy_train02.jpg",NA,"img/object_images/guitar01.jpg","1",NA,"1","1",NA,"1","0.38601070002187",NA,"0.487280500004999","1",NA,"1","1",NA,"1","1",NA,"1"
"260037","img/object_images/guitar01.jpg","img/object_images/toy_train02.jpg","img/object_images/basketball_hoop02.jpg","1","1","1","1","1","0","0.487280500004999","0.38601070002187","0.558675699983723","1","1","1","1","1","1","1","1","1"
"260037","img/object_images/basketball_hoop02.jpg","img/object_images/guitar01.jpg","img/object_images/Wisk01.jpg","1","1","1","0","1","1","0.558675699983723","0.487280500004999","0.453168699983507","1","1","1","1","1","1","1","1","1"
"260037","img/object_images/Wisk01.jpg","img/object_images/basketball_hoop02.jpg","img/object_images/pot01.jpg","1","1","1","1","0","0","0.453168699983507","0.558675699983723","0.403549299982842","1","1","1","1","1","1","1","1","1"
"260037","img/object_images/pot01.jpg","img/object_images/Wisk01.jpg","img/object_images/soap01.jpg","1","1","1","0","1","0","0.403549299982842","0.453168699983507","0.642447199963499","1","1","1","1","1","1","1","1","1"
"260037","img/object_images/soap01.jpg","img/object_images/pot01.jpg","img/object_images/tie01.jpg","1","1","1","0","0","0","0.642447199963499","0.403549299982842","0.535450200026389","1","1","1","1","1","1","1","1","1"
"260037","img/object_images/tie01.jpg","img/object_images/soap01.jpg","img/object_images/video_game06.jpg","1","1","1","0","0","0","0.535450200026389","0.642447199963499","0.462150499981362","1","1","1","1","1","1","1","1","1"
"260037","img/object_images/video_game06.jpg","img/object_images/tie01.jpg","img/object_images/cochlear_implant01.jpg","1","1","1","0","0","0","0.462150499981362","0.535450200026389","0.487436800030991","1","1","1","1","1","1","1","1","1"
"260037","img/object_images/cochlear_implant01.jpg","img/object_images/video_game06.jpg","img/object_images/bottle12.jpg","1","1","1","0","0","1","0.487436800030991","0.462150499981362","0.694630300044082","1","1","1","1","1","1","1","1","1"
"260037","img/object_images/bottle12.jpg","img/object_images/cochlear_implant01.jpg","img/object_images/car02.jpg","1","1","1","1","0","0","0.694630300044082","0.487436800030991","0.848309499968309","1","1","1","1","1","1","1","1","1"
"260037","img/object_images/car02.jpg","img/object_images/bottle12.jpg","img/object_images/ironing_table02.jpg","1","1","1","0","1","0","0.848309499968309","0.694630300044082","0.557601100008469","1","1","1","1","1","1","1","1","1"
"260037","img/object_images/ironing_table02.jpg","img/object_images/car02.jpg","img/object_images/razor03.jpg","1","1","1","0","0","0","0.557601100008469","0.848309499968309","0.428207200020552","1","1","1","1","1","1","1","1","1"
"260037","img/object_images/razor03.jpg","img/object_images/ironing_table02.jpg","img/object_images/drone02.jpg","1","1","1","0","0","0","0.428207200020552","0.557601100008469","0.456179700035136","1","1","1","1","1","1","1","1","1"
"260037","img/object_images/drone02.jpg","img/object_images/razor03.jpg","img/object_images/toilet_paper01.jpg","1","1","1","0","0","1","0.456179700035136","0.428207200020552","0.429407900024671","1","1","1","1","1","1","1","1","1"
"260037","img/object_images/toilet_paper01.jpg","img/object_images/drone02.jpg","img/object_images/lantern01.jpg","1","1","1","1","0","1","0.429407900024671","0.456179700035136","0.389671300014015","1","1","1","1","1","1","1","1","1"
"260037","img/object_images/lantern01.jpg","img/object_images/toilet_paper01.jpg","img/object_images/pitcher03.jpg","1","1","1","1","1","1","0.389671300014015","0.429407900024671","0.497257000009995","1","1","1","1","1","1","1","1","1"
"260037","img/object_images/pitcher03.jpg","img/object_images/lantern01.jpg","img/object_images/chair01.jpg","1","1","1","1","1","0","0.497257000009995","0.389671300014015","0.47316569997929","1","1","1","1","1","1","1","1","1"
"260037","img/object_images/chair01.jpg","img/object_images/pitcher03.jpg","img/object_images/Recycling01.jpg","1","1","1","0","1","1","0.47316569997929","0.497257000009995","0.416521599981934","1","1","1","1","1","1","1","1","1"
"260037","img/object_images/Recycling01.jpg","img/object_images/chair01.jpg","img/object_images/brief_case01.jpg","1","1","1","1","0","0","0.416521599981934","0.47316569997929","0.395239499979652","1","1","1","1","1","1","1","1","1"
"260037","img/object_images/brief_case01.jpg","img/object_images/Recycling01.jpg","img/object_images/gloves05.jpg","1","1","1","0","1","1","0.395239499979652","0.416521599981934","0.499471400049515","1","1","1","1","1","1","1","1","1"
"260037","img/object_images/gloves05.jpg","img/object_images/brief_case01.jpg","img/object_images/hat02.jpg","1","1","0","1","0","0","0.499471400049515","0.395239499979652","0.764594800013583","1","1","1","1","1","1","1","1","1"
"260037","img/object_images/hat02.jpg","img/object_images/gloves05.jpg","img/object_images/airfryer01.jpg","0","1","1","0","1","0","0.764594800013583","0.499471400049515","0.559765199956018","1","1","1","1","1","1","1","1","1"
"260037","img/object_images/airfryer01.jpg","img/object_images/hat02.jpg","img/object_images/broom01.jpg","1","0","1","0","0","1","0.559765199956018","0.764594800013583","0.4205396999605","1","1","1","1","1","1","1","1","1"
"260037","img/object_images/broom01.jpg","img/object_images/airfryer01.jpg","img/object_images/decorative02.jpg","1","1","1","1","0","0","0.4205396999605","0.559765199956018","0.470691499998793","1","1","1","1","1","1","1","1","1"
"260037","img/object_images/decorative02.jpg","img/object_images/broom01.jpg","img/object_images/container01.jpg","1","1","1","0","1","0","0.470691499998793","0.4205396999605","0.41444619995309","1","1","1","1","1","1","1","1","1"
"260037","img/object_images/container01.jpg","img/object_images/decorative02.jpg","img/object_images/Woopie01.jpg","1","1","1","0","0","1","0.41444619995309","0.470691499998793","0.343107799999416","1","1","1","1","1","1","1","1","1"
"260037","img/object_images/Woopie01.jpg","img/object_images/container01.jpg","img/object_images/lamp01.jpg","1","1","1","1","0","1","0.343107799999416","0.41444619995309","0.358169100014493","1","1","1","1","1","1","1","1","1"
"260037","img/object_images/lamp01.jpg","img/object_images/Woopie01.jpg","img/object_images/ball01.jpg","1","1","1","1","1","1","0.358169100014493","0.343107799999416","0.380702100053895","1","1","1","1","1","1","1","1","1"
"260037","img/object_images/ball01.jpg","img/object_images/lamp01.jpg","img/object_images/helmet05.jpg","1","1","1","1","1","1","0.380702100053895","0.358169100014493","0.401384800032247","1","1","1","1","1","1","1","1","1"
"260037","img/object_images/helmet05.jpg","img/object_images/ball01.jpg","img/object_images/couch04.jpg","1","1","1","1","1","1","0.401384800032247","0.380702100053895","0.410113199963234","1","1","1","1","1","1","1","1","1"
"260037","img/object_images/couch04.jpg","img/object_images/helmet05.jpg","img/object_images/brief_case02.jpg","1","1","1","1","1","1","0.410113199963234","0.401384800032247","0.482868099992629","1","1","1","1","1","1","1","1","1"
"260037","img/object_images/brief_case02.jpg","img/object_images/couch04.jpg",NA,"1","1",NA,"1","1",NA,"0.482868099992629","0.410113199963234",NA,"1","1",NA,"1","1",NA,"1","1",NA
"260037","img/object_images/blender01.jpg",NA,"img/object_images/bell03.jpg","1",NA,"0","0",NA,"0","0.57199780002702",NA,NA,"1",NA,"0","1",NA,"0","1",NA,"0"
"260037","img/object_images/bell03.jpg","img/object_images/blender01.jpg","img/object_images/rock02.jpg","0","1","1","0","0","0",NA,"0.57199780002702","0.490321099990979","0","1","1","0","1","1","0","1","1"
"260037","img/object_images/rock02.jpg","img/object_images/bell03.jpg","img/object_images/scarf01.jpg","1","0","1","0","0","1","0.490321099990979",NA,"0.469097499968484","1","0","1","1","0","1","1","0","1"
"260037","img/object_images/scarf01.jpg","img/object_images/rock02.jpg","img/object_images/couch01.jpg","1","1","1","1","0","0","0.469097499968484","0.490321099990979","0.410401400004048","1","1","1","1","1","1","1","1","1"
"260037","img/object_images/couch01.jpg","img/object_images/scarf01.jpg","img/object_images/toothbrush01.jpg","1","1","1","0","1","0","0.410401400004048","0.469097499968484","0.338708600029349","1","1","1","1","1","1","1","1","1"
"260037","img/object_images/toothbrush01.jpg","img/object_images/couch01.jpg","img/object_images/fork02.jpg","1","1","1","0","0","0","0.338708600029349","0.410401400004048","0.426720899995416","1","1","1","1","1","1","1","1","1"
"260037","img/object_images/fork02.jpg","img/object_images/toothbrush01.jpg","img/object_images/Violin01.jpg","1","1","1","0","0","0","0.426720899995416","0.338708600029349","0.595023999980185","1","1","1","1","1","1","1","1","1"
"260037","img/object_images/Violin01.jpg","img/object_images/fork02.jpg","img/object_images/drone01.jpg","1","1","1","0","0","1","0.595023999980185","0.426720899995416","0.345775399997365","1","1","1","1","1","1","1","1","1"
"260037","img/object_images/drone01.jpg","img/object_images/Violin01.jpg","img/object_images/chair06.jpg","1","1","1","1","0","0","0.345775399997365","0.595023999980185","0.422016599972267","1","1","1","1","1","1","1","1","1"
"260037","img/object_images/chair06.jpg","img/object_images/drone01.jpg","img/object_images/hair_brush01.jpg","1","1","1","0","1","1","0.422016599972267","0.345775399997365","0.44532319996506","1","1","1","1","1","1","1","1","1"
"260037","img/object_images/hair_brush01.jpg","img/object_images/chair06.jpg","img/object_images/chain01.jpg","1","1","1","1","0","0","0.44532319996506","0.422016599972267","0.506402399973013","1","1","1","1","1","1","1","1","1"
"260037","img/object_images/chain01.jpg","img/object_images/hair_brush01.jpg","img/object_images/shoes12.jpg","1","1","1","0","1","1","0.506402399973013","0.44532319996506","0.474240400013514","1","1","1","1","1","1","1","1","1"
"260037","img/object_images/shoes12.jpg","img/object_images/chain01.jpg","img/object_images/computer_mouse01.jpg","1","1","1","1","0","1","0.474240400013514","0.506402399973013","0.454700300004333","1","1","1","1","1","1","1","1","1"
"260037","img/object_images/computer_mouse01.jpg","img/object_images/shoes12.jpg","img/object_images/pitcher09.jpg","1","1","1","1","1","1","0.454700300004333","0.474240400013514","0.350933299981989","1","1","1","1","1","1","1","1","1"
"260037","img/object_images/pitcher09.jpg","img/object_images/computer_mouse01.jpg","img/object_images/clip04.jpg","1","1","1","1","1","1","0.350933299981989","0.454700300004333","0.441537599952426","1","1","1","1","1","1","1","1","1"
"260037","img/object_images/clip04.jpg","img/object_images/pitcher09.jpg","img/object_images/egg_slicer01.jpg","1","1","1","1","1","1","0.441537599952426","0.350933299981989","0.356830299948342","1","1","1","1","1","1","1","1","1"
"260037","img/object_images/egg_slicer01.jpg","img/object_images/clip04.jpg","img/object_images/tripod01.jpg","1","1","1","1","1","1","0.356830299948342","0.441537599952426","0.402816199988592","1","1","1","1","1","1","1","1","1"
"260037","img/object_images/tripod01.jpg","img/object_images/egg_slicer01.jpg","img/object_images/airfryer02.jpg","1","1","1","1","1","1","0.402816199988592","0.356830299948342","0.482189600006677","1","1","1","1","1","1","1","1","1"
"260037","img/object_images/airfryer02.jpg","img/object_images/tripod01.jpg","img/object_images/Trowel01.jpg","1","1","1","1","1","0","0.482189600006677","0.402816199988592","0.475790099997539","1","1","1","1","1","1","1","1","1"
"260037","img/object_images/Trowel01.jpg","img/object_images/airfryer02.jpg","img/object_images/bag_pipes01.jpg","1","1","1","0","1","1","0.475790099997539","0.482189600006677","0.54829410003731","1","1","1","1","1","1","1","1","1"
"260037","img/object_images/bag_pipes01.jpg","img/object_images/Trowel01.jpg","img/object_images/soap03.jpg","1","1","1","1","0","0","0.54829410003731","0.475790099997539","0.384523400047328","1","1","1","1","1","1","1","1","1"
"260037","img/object_images/soap03.jpg","img/object_images/bag_pipes01.jpg","img/object_images/box03.jpg","1","1","1","0","1","0","0.384523400047328","0.54829410003731","0.441719700000249","1","1","1","1","1","1","1","1","1"
"260037","img/object_images/box03.jpg","img/object_images/soap03.jpg","img/object_images/tool06.jpg","1","1","1","0","0","0","0.441719700000249","0.384523400047328","0.45382790005533","1","1","1","1","1","1","1","1","1"
"260037","img/object_images/tool06.jpg","img/object_images/box03.jpg","img/object_images/toy01.jpg","1","1","1","0","0","1","0.45382790005533","0.441719700000249","0.607522799982689","1","1","1","1","1","1","1","1","1"
"260037","img/object_images/toy01.jpg","img/object_images/tool06.jpg","img/object_images/pen01.jpg","1","1","1","1","0","0","0.607522799982689","0.45382790005533","0.521164799982216","1","1","1","1","1","1","1","1","1"
"260037","img/object_images/pen01.jpg","img/object_images/toy01.jpg","img/object_images/computer_mouse02.jpg","1","1","1","0","1","0","0.521164799982216","0.607522799982689","0.677877600013744","1","1","1","1","1","1","1","1","1"
"260037","img/object_images/computer_mouse02.jpg","img/object_images/pen01.jpg","img/object_images/mail_box02.jpg","1","1","1","0","0","1","0.677877600013744","0.521164799982216","0.484474400000181","1","1","1","1","1","1","1","1","1"
"260037","img/object_images/mail_box02.jpg","img/object_images/computer_mouse02.jpg","img/object_images/floss02.jpg","1","1","1","1","0","1","0.484474400000181","0.677877600013744","0.452707400021609","1","1","1","1","1","1","1","1","1"
"260037","img/object_images/floss02.jpg","img/object_images/mail_box02.jpg","img/object_images/skate_board01.jpg","1","1","1","1","1","0","0.452707400021609","0.484474400000181","0.412367800017819","1","1","1","1","1","1","1","1","1"
"260037","img/object_images/skate_board01.jpg","img/object_images/floss02.jpg","img/object_images/book02.jpg","1","1","1","0","1","1","0.412367800017819","0.452707400021609","0.398975500022061","1","1","1","1","1","1","1","1","1"
"260037","img/object_images/book02.jpg","img/object_images/skate_board01.jpg","img/object_images/video_game03.jpg","1","1","1","1","0","1","0.398975500022061","0.412367800017819","0.420255400007591","1","1","1","1","1","1","1","1","1"
"260037","img/object_images/video_game03.jpg","img/object_images/book02.jpg",NA,"1","1",NA,"1","1",NA,"0.420255400007591","0.398975500022061",NA,"1","1",NA,"1","1",NA,"1","1",NA
