"participant_id","current_trial_object","pre_trial_object","post_trial_object","current_trial_accuracy","pre_trial_accuracy","post_trial_accuracy","current_trial_congruency","pre_trial_congruency","post_trial_congruency","current_trial_rt","pre_trial_rt","post_trial_rt","current_trial_responded","pre_trial_responded","post_trial_responded","current_trial_legitResponse","pre_trial_legitResponse","post_trial_legitResponse","current_trial_resp_nums","pre_trial_resp_nums","post_trial_resp_nums"
"260030","img/object_images/fridge03.jpg",NA,"img/object_images/Stool01.jpg","0",NA,"0","0",NA,"0","1.67754079995211",NA,"1.70703020005021","1",NA,"1","1",NA,"1","1",NA,"1"
"260030","img/object_images/Stool01.jpg","img/object_images/fridge03.jpg","img/object_images/sink01.jpg","0","0","1","0","0","0","1.70703020005021","1.67754079995211","1.8037323000608","1","1","1","1","1","1","1","1","1"
"260030","img/object_images/sink01.jpg","img/object_images/Stool01.jpg","img/object_images/helmet01.jpg","1","0","1","0","0","0","1.8037323000608","1.70703020005021","1.22428840002976","1","1","1","1","1","1","1","1","1"
"260030","img/object_images/helmet01.jpg","img/object_images/sink01.jpg","img/object_images/toy04.jpg","1","1","1","0","0","0","1.22428840002976","1.8037323000608","0.518398600048386","1","1","1","1","1","1","1","1","1"
"260030","img/object_images/toy04.jpg","img/object_images/helmet01.jpg","img/object_images/towel02.jpg","1","1","1","0","0","1","0.518398600048386","1.22428840002976","0.62207479996141","1","1","1","1","1","1","1","1","1"
"260030","img/object_images/towel02.jpg","img/object_images/toy04.jpg","img/object_images/dart01.jpg","1","1","1","1","0","0","0.62207479996141","0.518398600048386","0.547190699959174","1","1","1","1","1","1","1","1","1"
"260030","img/object_images/dart01.jpg","img/object_images/towel02.jpg","img/object_images/gauze01.jpg","1","1","1","0","1","0","0.547190699959174","0.62207479996141","0.718466899939813","1","1","1","1","1","1","1","1","1"
"260030","img/object_images/gauze01.jpg","img/object_images/dart01.jpg","img/object_images/tool02.jpg","1","1","1","0","0","1","0.718466899939813","0.547190699959174","0.664063300006092","1","1","1","1","1","1","1","1","1"
"260030","img/object_images/tool02.jpg","img/object_images/gauze01.jpg","img/object_images/outlet01.jpg","1","1","1","1","0","0","0.664063300006092","0.718466899939813","0.560213700053282","1","1","1","1","1","1","1","1","1"
"260030","img/object_images/outlet01.jpg","img/object_images/tool02.jpg","img/object_images/ornament01.jpg","1","1","1","0","1","1","0.560213700053282","0.664063300006092","0.584072800003923","1","1","1","1","1","1","1","1","1"
"260030","img/object_images/ornament01.jpg","img/object_images/outlet01.jpg","img/object_images/jewel04.jpg","1","1","1","1","0","0","0.584072800003923","0.560213700053282","0.592065499979071","1","1","1","1","1","1","1","1","1"
"260030","img/object_images/jewel04.jpg","img/object_images/ornament01.jpg","img/object_images/guitar02.jpg","1","1","1","0","1","0","0.592065499979071","0.584072800003923","0.541679700021632","1","1","1","1","1","1","1","1","1"
"260030","img/object_images/guitar02.jpg","img/object_images/jewel04.jpg","img/object_images/crown02.jpg","1","1","1","0","0","1","0.541679700021632","0.592065499979071","0.589603599975817","1","1","1","1","1","1","1","1","1"
"260030","img/object_images/crown02.jpg","img/object_images/guitar02.jpg","img/object_images/tool09.jpg","1","1","1","1","0","1","0.589603599975817","0.541679700021632","0.509708400000818","1","1","1","1","1","1","1","1","1"
"260030","img/object_images/tool09.jpg","img/object_images/crown02.jpg","img/object_images/bird_house02.jpg","1","1","1","1","1","1","0.509708400000818","0.589603599975817","0.728770500048995","1","1","1","1","1","1","1","1","1"
"260030","img/object_images/bird_house02.jpg","img/object_images/tool09.jpg","img/object_images/bow01.jpg","1","1","1","1","1","1","0.728770500048995","0.509708400000818","0.540886099915951","1","1","1","1","1","1","1","1","1"
"260030","img/object_images/bow01.jpg","img/object_images/bird_house02.jpg","img/object_images/stapler.jpg","1","1","1","1","1","1","0.540886099915951","0.728770500048995","0.560392100014724","1","1","1","1","1","1","1","1","1"
"260030","img/object_images/stapler.jpg","img/object_images/bow01.jpg","img/object_images/Vacuum01.jpg","1","1","1","1","1","0","0.560392100014724","0.540886099915951","0.61184039991349","1","1","1","1","1","1","1","1","1"
"260030","img/object_images/Vacuum01.jpg","img/object_images/stapler.jpg","img/object_images/video_game07.jpg","1","1","1","0","1","1","0.61184039991349","0.560392100014724","0.584876599954441","1","1","1","1","1","1","1","1","1"
"260030","img/object_images/video_game07.jpg","img/object_images/Vacuum01.jpg","img/object_images/MetalWire01.jpg","1","1","1","1","0","0","0.584876599954441","0.61184039991349","0.542537100031041","1","1","1","1","1","1","1","1","1"
"260030","img/object_images/MetalWire01.jpg","img/object_images/video_game07.jpg","img/object_images/shovel03.jpg","1","1","1","0","1","1","0.542537100031041","0.584876599954441","0.605060800095089","1","1","1","1","1","1","1","1","1"
"260030","img/object_images/shovel03.jpg","img/object_images/MetalWire01.jpg","img/object_images/Ring02.jpg","1","1","1","1","0","0","0.605060800095089","0.542537100031041","0.565897000022233","1","1","1","1","1","1","1","1","1"
"260030","img/object_images/Ring02.jpg","img/object_images/shovel03.jpg","img/object_images/bottle05.jpg","1","1","1","0","1","0","0.565897000022233","0.605060800095089","0.625157000031322","1","1","1","1","1","1","1","1","1"
"260030","img/object_images/bottle05.jpg","img/object_images/Ring02.jpg","img/object_images/pot01 (1).jpg","1","1","1","0","0","0","0.625157000031322","0.565897000022233","0.654314300045371","1","1","1","1","1","1","1","1","1"
"260030","img/object_images/pot01 (1).jpg","img/object_images/bottle05.jpg","img/object_images/mirror01.jpg","1","1","1","0","0","1","0.654314300045371","0.625157000031322","0.610755099914968","1","1","1","1","1","1","1","1","1"
"260030","img/object_images/mirror01.jpg","img/object_images/pot01 (1).jpg","img/object_images/judge_gavel01.jpg","1","1","1","1","0","1","0.610755099914968","0.654314300045371","0.668458199943416","1","1","1","1","1","1","1","1","1"
"260030","img/object_images/judge_gavel01.jpg","img/object_images/mirror01.jpg","img/object_images/acoustic_capo01.jpg","1","1","1","1","1","1","0.668458199943416","0.610755099914968","1.01290440000594","1","1","1","1","1","1","1","1","1"
"260030","img/object_images/acoustic_capo01.jpg","img/object_images/judge_gavel01.jpg","img/object_images/frisbee01.jpg","1","1","1","1","1","1","1.01290440000594","0.668458199943416","0.555145399994217","1","1","1","1","1","1","1","1","1"
"260030","img/object_images/frisbee01.jpg","img/object_images/acoustic_capo01.jpg","img/object_images/Tin01.jpg","1","1","1","1","1","1","0.555145399994217","1.01290440000594","0.478112999931909","1","1","1","1","1","1","1","1","1"
"260030","img/object_images/Tin01.jpg","img/object_images/frisbee01.jpg","img/object_images/toy03.jpg","1","1","1","1","1","1","0.478112999931909","0.555145399994217","1.20959370001219","1","1","1","1","1","1","1","1","1"
"260030","img/object_images/toy03.jpg","img/object_images/Tin01.jpg","img/object_images/watch01.jpg","1","1","1","1","1","0","1.20959370001219","0.478112999931909","0.683367399964482","1","1","1","1","1","1","1","1","1"
"260030","img/object_images/watch01.jpg","img/object_images/toy03.jpg",NA,"1","1",NA,"0","1",NA,"0.683367399964482","1.20959370001219",NA,"1","1",NA,"1","1",NA,"1","1",NA
"260030","img/object_images/brief_case01.jpg",NA,"img/object_images/guitar01.jpg","1",NA,"1","0",NA,"1","0.784873500000685",NA,"0.832916999934241","1",NA,"1","1",NA,"1","1",NA,"1"
"260030","img/object_images/guitar01.jpg","img/object_images/brief_case01.jpg","img/object_images/broom01.jpg","1","1","1","1","0","1","0.832916999934241","0.784873500000685","0.456616300041787","1","1","1","1","1","1","1","1","1"
"260030","img/object_images/broom01.jpg","img/object_images/guitar01.jpg","img/object_images/Woopie01.jpg","1","1","1","1","1","1","0.456616300041787","0.832916999934241","0.38824699993711","1","1","1","1","1","1","1","1","1"
"260030","img/object_images/Woopie01.jpg","img/object_images/broom01.jpg","img/object_images/bottle12.jpg","1","1","1","1","1","1","0.38824699993711","0.456616300041787","0.509867500048131","1","1","1","1","1","1","1","1","1"
"260030","img/object_images/bottle12.jpg","img/object_images/Woopie01.jpg","img/object_images/ironing_table02.jpg","1","1","1","1","1","0","0.509867500048131","0.38824699993711","0.429543499951251","1","1","1","1","1","1","1","1","1"
"260030","img/object_images/ironing_table02.jpg","img/object_images/bottle12.jpg","img/object_images/toy_train02.jpg","1","1","1","0","1","1","0.429543499951251","0.509867500048131","0.442187399952672","1","1","1","1","1","1","1","1","1"
"260030","img/object_images/toy_train02.jpg","img/object_images/ironing_table02.jpg","img/object_images/video_game06.jpg","1","1","1","1","0","0","0.442187399952672","0.429543499951251","0.47230920009315","1","1","1","1","1","1","1","1","1"
"260030","img/object_images/video_game06.jpg","img/object_images/toy_train02.jpg","img/object_images/Wisk01.jpg","1","1","0","0","1","1","0.47230920009315","0.442187399952672","0.355312500032596","1","1","1","1","1","1","1","1","1"
"260030","img/object_images/Wisk01.jpg","img/object_images/video_game06.jpg","img/object_images/brief_case02.jpg","0","1","1","1","0","1","0.355312500032596","0.47230920009315","0.468150699976832","1","1","1","1","1","1","1","1","1"
"260030","img/object_images/brief_case02.jpg","img/object_images/Wisk01.jpg","img/object_images/razor03.jpg","1","0","1","1","1","0","0.468150699976832","0.355312500032596","0.683124100090936","1","1","1","1","1","1","1","1","1"
"260030","img/object_images/razor03.jpg","img/object_images/brief_case02.jpg","img/object_images/container01.jpg","1","1","1","0","1","0","0.683124100090936","0.468150699976832","0.599639600026421","1","1","1","1","1","1","1","1","1"
"260030","img/object_images/container01.jpg","img/object_images/razor03.jpg","img/object_images/ball01.jpg","1","1","1","0","0","1","0.599639600026421","0.683124100090936","0.473910399945453","1","1","1","1","1","1","1","1","1"
"260030","img/object_images/ball01.jpg","img/object_images/container01.jpg","img/object_images/helmet05.jpg","1","1","1","1","0","1","0.473910399945453","0.599639600026421","0.539772900054231","1","1","1","1","1","1","1","1","1"
"260030","img/object_images/helmet05.jpg","img/object_images/ball01.jpg","img/object_images/tie01.jpg","1","1","1","1","1","0","0.539772900054231","0.473910399945453","0.497371100005694","1","1","1","1","1","1","1","1","1"
"260030","img/object_images/tie01.jpg","img/object_images/helmet05.jpg","img/object_images/drone02.jpg","1","1","1","0","1","0","0.497371100005694","0.539772900054231","0.571970700053498","1","1","1","1","1","1","1","1","1"
"260030","img/object_images/drone02.jpg","img/object_images/tie01.jpg","img/object_images/lantern01.jpg","1","1","1","0","0","1","0.571970700053498","0.497371100005694","0.542002800037153","1","1","1","1","1","1","1","1","1"
"260030","img/object_images/lantern01.jpg","img/object_images/drone02.jpg","img/object_images/decorative02.jpg","1","1","0","1","0","0","0.542002800037153","0.571970700053498","0.398255400010385","1","1","1","1","1","1","1","1","1"
"260030","img/object_images/decorative02.jpg","img/object_images/lantern01.jpg","img/object_images/car02.jpg","0","1","1","0","1","0","0.398255400010385","0.542002800037153","0.51166189997457","1","1","1","1","1","1","1","1","1"
"260030","img/object_images/car02.jpg","img/object_images/decorative02.jpg","img/object_images/toilet_paper01.jpg","1","0","1","0","0","1","0.51166189997457","0.398255400010385","0.501250999979675","1","1","1","1","1","1","1","1","1"
"260030","img/object_images/toilet_paper01.jpg","img/object_images/car02.jpg","img/object_images/pot01.jpg","1","1","1","1","0","0","0.501250999979675","0.51166189997457","0.578002299997024","1","1","1","1","1","1","1","1","1"
"260030","img/object_images/pot01.jpg","img/object_images/toilet_paper01.jpg","img/object_images/couch04.jpg","1","1","1","0","1","1","0.578002299997024","0.501250999979675","0.617644599988125","1","1","1","1","1","1","1","1","1"
"260030","img/object_images/couch04.jpg","img/object_images/pot01.jpg","img/object_images/basketball_hoop02.jpg","1","1","1","1","0","0","0.617644599988125","0.578002299997024","0.418289000052027","1","1","1","1","1","1","1","1","1"
"260030","img/object_images/basketball_hoop02.jpg","img/object_images/couch04.jpg","img/object_images/cochlear_implant01.jpg","1","1","1","0","1","0","0.418289000052027","0.617644599988125","0.459685300011188","1","1","1","1","1","1","1","1","1"
"260030","img/object_images/cochlear_implant01.jpg","img/object_images/basketball_hoop02.jpg","img/object_images/soap01.jpg","1","1","1","0","0","0","0.459685300011188","0.418289000052027","0.468452800065279","1","1","1","1","1","1","1","1","1"
"260030","img/object_images/soap01.jpg","img/object_images/cochlear_implant01.jpg","img/object_images/gloves05.jpg","1","1","1","0","0","1","0.468452800065279","0.459685300011188","0.487830799887888","1","1","1","1","1","1","1","1","1"
"260030","img/object_images/gloves05.jpg","img/object_images/soap01.jpg","img/object_images/lamp01.jpg","1","1","1","1","0","1","0.487830799887888","0.468452800065279","0.393067099968903","1","1","1","1","1","1","1","1","1"
"260030","img/object_images/lamp01.jpg","img/object_images/gloves05.jpg","img/object_images/chair01.jpg","1","1","1","1","1","0","0.393067099968903","0.487830799887888","0.578084300039336","1","1","1","1","1","1","1","1","1"
"260030","img/object_images/chair01.jpg","img/object_images/lamp01.jpg","img/object_images/pitcher03.jpg","1","1","1","0","1","1","0.578084300039336","0.393067099968903","0.477743100025691","1","1","1","1","1","1","1","1","1"
"260030","img/object_images/pitcher03.jpg","img/object_images/chair01.jpg","img/object_images/Recycling01.jpg","1","1","1","1","0","1","0.477743100025691","0.578084300039336","0.482035599998199","1","1","1","1","1","1","1","1","1"
"260030","img/object_images/Recycling01.jpg","img/object_images/pitcher03.jpg","img/object_images/hat02.jpg","1","1","1","1","1","0","0.482035599998199","0.477743100025691","0.495470299967565","1","1","1","1","1","1","1","1","1"
"260030","img/object_images/hat02.jpg","img/object_images/Recycling01.jpg","img/object_images/airfryer01.jpg","1","1","1","0","1","0","0.495470299967565","0.482035599998199","0.454957099980675","1","1","1","1","1","1","1","1","1"
"260030","img/object_images/airfryer01.jpg","img/object_images/hat02.jpg",NA,"1","1",NA,"0","0",NA,"0.454957099980675","0.495470299967565",NA,"1","1",NA,"1","1",NA,"1","1",NA
"260030","img/object_images/kite01.jpg",NA,"img/object_images/paper_cup02.jpg","1",NA,"1","1",NA,"1","0.703996600001119",NA,"0.648016299935989","1",NA,"1","1",NA,"1","1",NA,"1"
"260030","img/object_images/paper_cup02.jpg","img/object_images/kite01.jpg","img/object_images/knit03.jpg","1","1","1","1","1","1","0.648016299935989","0.703996600001119","0.562495699967258","1","1","1","1","1","1","1","1","1"
"260030","img/object_images/knit03.jpg","img/object_images/paper_cup02.jpg","img/object_images/knife02.jpg","1","1","1","1","1","0","0.562495699967258","0.648016299935989","0.593591100070626","1","1","1","1","1","1","1","1","1"
"260030","img/object_images/knife02.jpg","img/object_images/knit03.jpg","img/object_images/keyboard02.jpg","1","1","1","0","1","1","0.593591100070626","0.562495699967258","0.530740199959837","1","1","1","1","1","1","1","1","1"
"260030","img/object_images/keyboard02.jpg","img/object_images/knife02.jpg","img/object_images/hand_grip_exerciser01.jpg","1","1","1","1","0","0","0.530740199959837","0.593591100070626","0.573195400065742","1","1","1","1","1","1","1","1","1"
"260030","img/object_images/hand_grip_exerciser01.jpg","img/object_images/keyboard02.jpg","img/object_images/boat04.jpg","1","1","1","0","1","0","0.573195400065742","0.530740199959837","0.415483799995854","1","1","1","1","1","1","1","1","1"
"260030","img/object_images/boat04.jpg","img/object_images/hand_grip_exerciser01.jpg","img/object_images/backpack01.jpg","1","1","1","0","0","0","0.415483799995854","0.573195400065742","0.457050499971956","1","1","1","1","1","1","1","1","1"
"260030","img/object_images/backpack01.jpg","img/object_images/boat04.jpg","img/object_images/bottle07.jpg","1","1","1","0","0","1","0.457050499971956","0.415483799995854","0.370062900008634","1","1","1","1","1","1","1","1","1"
"260030","img/object_images/bottle07.jpg","img/object_images/backpack01.jpg","img/object_images/shower_head01.jpg","1","1","1","1","0","1","0.370062900008634","0.457050499971956","0.45173099997919","1","1","1","1","1","1","1","1","1"
"260030","img/object_images/shower_head01.jpg","img/object_images/bottle07.jpg","img/object_images/stereo02.jpg","1","1","1","1","1","0","0.45173099997919","0.370062900008634","0.496090800035745","1","1","1","1","1","1","1","1","1"
"260030","img/object_images/stereo02.jpg","img/object_images/shower_head01.jpg","img/object_images/mail_box01.jpg","1","1","1","0","1","0","0.496090800035745","0.45173099997919","0.558630699990317","1","1","1","1","1","1","1","1","1"
"260030","img/object_images/mail_box01.jpg","img/object_images/stereo02.jpg","img/object_images/jacket04.jpg","1","1","1","0","0","0","0.558630699990317","0.496090800035745","0.485837999964133","1","1","1","1","1","1","1","1","1"
"260030","img/object_images/jacket04.jpg","img/object_images/mail_box01.jpg","img/object_images/basket04.jpg","1","1","1","0","0","1","0.485837999964133","0.558630699990317","0.5048206000356","1","1","1","1","1","1","1","1","1"
"260030","img/object_images/basket04.jpg","img/object_images/jacket04.jpg","img/object_images/car01.jpg","1","1","1","1","0","1","0.5048206000356","0.485837999964133","0.390891900053248","1","1","1","1","1","1","1","1","1"
"260030","img/object_images/car01.jpg","img/object_images/basket04.jpg","img/object_images/blender02.jpg","1","1","1","1","1","1","0.390891900053248","0.5048206000356","0.678858699975535","1","1","1","1","1","1","1","1","1"
"260030","img/object_images/blender02.jpg","img/object_images/car01.jpg","img/object_images/remover01.jpg","1","1","1","1","1","1","0.678858699975535","0.390891900053248","0.467531199916266","1","1","1","1","1","1","1","1","1"
"260030","img/object_images/remover01.jpg","img/object_images/blender02.jpg","img/object_images/dresser03.jpg","1","1","0","1","1","0","0.467531199916266","0.678858699975535","0.44385450007394","1","1","1","1","1","1","1","1","1"
"260030","img/object_images/dresser03.jpg","img/object_images/remover01.jpg","img/object_images/tool18.jpg","0","1","1","0","1","0","0.44385450007394","0.467531199916266","0.382313100039028","1","1","1","1","1","1","1","1","1"
"260030","img/object_images/tool18.jpg","img/object_images/dresser03.jpg","img/object_images/toy08.jpg","1","0","1","0","0","0","0.382313100039028","0.44385450007394","0.581163500086404","1","1","1","1","1","1","1","1","1"
"260030","img/object_images/toy08.jpg","img/object_images/tool18.jpg","img/object_images/remote_controller01.jpg","1","1","0","0","0","1","0.581163500086404","0.382313100039028","0.424653500085697","1","1","1","1","1","1","1","1","1"
"260030","img/object_images/remote_controller01.jpg","img/object_images/toy08.jpg","img/object_images/gloves02.jpg","0","1","1","1","0","0","0.424653500085697","0.581163500086404","0.44990610005334","1","1","1","1","1","1","1","1","1"
"260030","img/object_images/gloves02.jpg","img/object_images/remote_controller01.jpg","img/object_images/matches02.jpg","1","0","1","0","1","0","0.44990610005334","0.424653500085697","0.460480900015682","1","1","1","1","1","1","1","1","1"
"260030","img/object_images/matches02.jpg","img/object_images/gloves02.jpg","img/object_images/knit04.jpg","1","1","1","0","0","1","0.460480900015682","0.44990610005334","0.512774700066075","1","1","1","1","1","1","1","1","1"
"260030","img/object_images/knit04.jpg","img/object_images/matches02.jpg","img/object_images/phone02.jpg","1","1","1","1","0","1","0.512774700066075","0.460480900015682","0.572915800032206","1","1","1","1","1","1","1","1","1"
"260030","img/object_images/phone02.jpg","img/object_images/knit04.jpg","img/object_images/hoverboard01.jpg","1","1","1","1","1","0","0.572915800032206","0.512774700066075","0.473237300058827","1","1","1","1","1","1","1","1","1"
"260030","img/object_images/hoverboard01.jpg","img/object_images/phone02.jpg","img/object_images/curtain02.jpg","1","1","1","0","1","0","0.473237300058827","0.572915800032206","0.466017800034024","1","1","1","1","1","1","1","1","1"
"260030","img/object_images/curtain02.jpg","img/object_images/hoverboard01.jpg","img/object_images/video_game01.jpg","1","1","1","0","0","1","0.466017800034024","0.473237300058827","0.351827400038019","1","1","1","1","1","1","1","1","1"
"260030","img/object_images/video_game01.jpg","img/object_images/curtain02.jpg","img/object_images/sponge03.jpg","1","1","1","1","0","1","0.351827400038019","0.466017800034024","0.382485200068913","1","1","1","1","1","1","1","1","1"
"260030","img/object_images/sponge03.jpg","img/object_images/video_game01.jpg","img/object_images/Statue01.jpg","1","1","1","1","1","1","0.382485200068913","0.351827400038019","0.508301900001243","1","1","1","1","1","1","1","1","1"
"260030","img/object_images/Statue01.jpg","img/object_images/sponge03.jpg","img/object_images/camera03.jpg","1","1","1","1","1","0","0.508301900001243","0.382485200068913","0.448497899924405","1","1","1","1","1","1","1","1","1"
"260030","img/object_images/camera03.jpg","img/object_images/Statue01.jpg","img/object_images/flashlight03.jpg","1","1","1","0","1","0","0.448497899924405","0.508301900001243","0.441880099941045","1","1","1","1","1","1","1","1","1"
"260030","img/object_images/flashlight03.jpg","img/object_images/camera03.jpg",NA,"1","1",NA,"0","0",NA,"0.441880099941045","0.448497899924405",NA,"1","1",NA,"1","1",NA,"1","1",NA
"260030","img/object_images/razor01.jpg",NA,"img/object_images/satellite01.jpg","1",NA,"1","0",NA,"0","0.620344499940984",NA,"0.422831299947575","1",NA,"1","1",NA,"1","1",NA,"1"
"260030","img/object_images/satellite01.jpg","img/object_images/razor01.jpg","img/object_images/cards01.jpg","1","1","1","0","0","0","0.422831299947575","0.620344499940984","0.446901299990714","1","1","1","1","1","1","1","1","1"
"260030","img/object_images/cards01.jpg","img/object_images/satellite01.jpg","img/object_images/car04.jpg","1","1","1","0","0","0","0.446901299990714","0.422831299947575","0.493210099986754","1","1","1","1","1","1","1","1","1"
"260030","img/object_images/car04.jpg","img/object_images/cards01.jpg","img/object_images/lemon_squeezer02.jpg","1","1","1","0","0","1","0.493210099986754","0.446901299990714","0.448895800043829","1","1","1","1","1","1","1","1","1"
"260030","img/object_images/lemon_squeezer02.jpg","img/object_images/car04.jpg","img/object_images/slinky_toy01.jpg","1","1","1","1","0","1","0.448895800043829","0.493210099986754","0.369857600075193","1","1","1","1","1","1","1","1","1"
"260030","img/object_images/slinky_toy01.jpg","img/object_images/lemon_squeezer02.jpg","img/object_images/ribbon01.jpg","1","1","1","1","1","0","0.369857600075193","0.448895800043829","0.385674599907361","1","1","1","1","1","1","1","1","1"
"260030","img/object_images/ribbon01.jpg","img/object_images/slinky_toy01.jpg","img/object_images/shoes10.jpg","1","1","0","0","1","0","0.385674599907361","0.369857600075193","0.399877300020307","1","1","1","1","1","1","1","1","1"
"260030","img/object_images/shoes10.jpg","img/object_images/ribbon01.jpg","img/object_images/belt01.jpg","0","1","1","0","0","0","0.399877300020307","0.385674599907361","0.37147879996337","1","1","1","1","1","1","1","1","1"
"260030","img/object_images/belt01.jpg","img/object_images/shoes10.jpg","img/object_images/binoculars03.jpg","1","0","1","0","0","1","0.37147879996337","0.399877300020307","0.360214999993332","1","1","1","1","1","1","1","1","1"
"260030","img/object_images/binoculars03.jpg","img/object_images/belt01.jpg","img/object_images/jewelry07.jpg","1","1","1","1","0","1","0.360214999993332","0.37147879996337","0.508549200021662","1","1","1","1","1","1","1","1","1"
"260030","img/object_images/jewelry07.jpg","img/object_images/binoculars03.jpg","img/object_images/mask01.jpg","1","1","1","1","1","0","0.508549200021662","0.360214999993332","0.49647360004019","1","1","1","1","1","1","1","1","1"
"260030","img/object_images/mask01.jpg","img/object_images/jewelry07.jpg","img/object_images/yarn02.jpg","1","1","0","0","1","0","0.49647360004019","0.508549200021662","0.503827099921182","1","1","1","1","1","1","1","1","3"
"260030","img/object_images/yarn02.jpg","img/object_images/mask01.jpg","img/object_images/screwdriver01.jpg","0","1","1","0","0","0","0.503827099921182","0.49647360004019","0.530685000005178","1","1","1","1","1","1","3","1","1"
"260030","img/object_images/screwdriver01.jpg","img/object_images/yarn02.jpg","img/object_images/chair04.jpg","1","0","1","0","0","1","0.530685000005178","0.503827099921182","0.563897400046699","1","1","1","1","1","1","1","3","1"
"260030","img/object_images/chair04.jpg","img/object_images/screwdriver01.jpg","img/object_images/shower_head03.jpg","1","1","1","1","0","1","0.563897400046699","0.530685000005178","0.531934499973431","1","1","1","1","1","1","1","1","1"
"260030","img/object_images/shower_head03.jpg","img/object_images/chair04.jpg","img/object_images/dress03.jpg","1","1","1","1","1","1","0.531934499973431","0.563897400046699","0.445378599921241","1","1","1","1","1","1","1","1","1"
"260030","img/object_images/dress03.jpg","img/object_images/shower_head03.jpg","img/object_images/hair_brush05.jpg","1","1","1","1","1","1","0.445378599921241","0.531934499973431","0.400431200047024","1","1","1","1","1","1","1","1","1"
"260030","img/object_images/hair_brush05.jpg","img/object_images/dress03.jpg","img/object_images/bag06.jpg","1","1","1","1","1","1","0.400431200047024","0.445378599921241","0.459406199981458","1","1","1","1","1","1","1","1","1"
"260030","img/object_images/bag06.jpg","img/object_images/hair_brush05.jpg","img/object_images/tool11.jpg","1","1","1","1","1","1","0.459406199981458","0.400431200047024","0.57144019997213","1","1","1","1","1","1","1","1","1"
"260030","img/object_images/tool11.jpg","img/object_images/bag06.jpg","img/object_images/cutting_board01.jpg","1","1","1","1","1","1","0.57144019997213","0.459406199981458","0.447623600019142","1","1","1","1","1","1","1","1","1"
"260030","img/object_images/cutting_board01.jpg","img/object_images/tool11.jpg","img/object_images/ice_tray03.jpg","1","1","1","1","1","1","0.447623600019142","0.57144019997213","0.40024580003228","1","1","1","1","1","1","1","1","1"
"260030","img/object_images/ice_tray03.jpg","img/object_images/cutting_board01.jpg","img/object_images/key02.jpg","1","1","1","1","1","1","0.40024580003228","0.447623600019142","0.53881649998948","1","1","1","1","1","1","1","1","1"
"260030","img/object_images/key02.jpg","img/object_images/ice_tray03.jpg","img/object_images/car03.jpg","1","1","0","1","1","0","0.53881649998948","0.40024580003228","0.526605900027789","1","1","1","1","1","1","1","1","2"
"260030","img/object_images/car03.jpg","img/object_images/key02.jpg","img/object_images/rock03.jpg","0","1","1","0","1","0","0.526605900027789","0.53881649998948","0.636919799959287","1","1","1","1","1","1","2","1","1"
"260030","img/object_images/rock03.jpg","img/object_images/car03.jpg","img/object_images/WitchHat02.jpg","1","0","1","0","0","1","0.636919799959287","0.526605900027789","0.471788899973035","1","1","1","1","1","1","1","2","1"
"260030","img/object_images/WitchHat02.jpg","img/object_images/rock03.jpg","img/object_images/ladle02.jpg","1","1","1","1","0","0","0.471788899973035","0.636919799959287","0.447220499976538","1","1","1","1","1","1","1","1","1"
"260030","img/object_images/ladle02.jpg","img/object_images/WitchHat02.jpg","img/object_images/jewel01.jpg","1","1","1","0","1","0","0.447220499976538","0.471788899973035","0.402701599989086","1","1","1","1","1","1","1","1","1"
"260030","img/object_images/jewel01.jpg","img/object_images/ladle02.jpg","img/object_images/MeasuringCup01.jpg","1","1","1","0","0","1","0.402701599989086","0.447220499976538","0.465197099954821","1","1","1","1","1","1","1","1","1"
"260030","img/object_images/MeasuringCup01.jpg","img/object_images/jewel01.jpg","img/object_images/tv01.jpg","1","1","1","1","0","0","0.465197099954821","0.402701599989086","0.488922900054604","1","1","1","1","1","1","1","1","1"
"260030","img/object_images/tv01.jpg","img/object_images/MeasuringCup01.jpg","img/object_images/toaster02.jpg","1","1","1","0","1","1","0.488922900054604","0.465197099954821","0.597118799923919","1","1","1","1","1","1","1","1","1"
"260030","img/object_images/toaster02.jpg","img/object_images/tv01.jpg","img/object_images/fan05.jpg","1","1","0","1","0","0","0.597118799923919","0.488922900054604","0.476654800004326","1","1","1","1","1","1","1","1","1"
"260030","img/object_images/fan05.jpg","img/object_images/toaster02.jpg",NA,"0","1",NA,"0","1",NA,"0.476654800004326","0.597118799923919",NA,"1","1",NA,"1","1",NA,"1","1",NA
"260030","img/object_images/shovel01.jpg",NA,"img/object_images/pitcher07.jpg","1",NA,"1","0",NA,"1","0.727989299921319",NA,"0.581602400052361","1",NA,"1","1",NA,"1","1",NA,"1"
"260030","img/object_images/pitcher07.jpg","img/object_images/shovel01.jpg","img/object_images/badminton01.jpg","1","1","1","1","0","1","0.581602400052361","0.727989299921319","0.495278300018981","1","1","1","1","1","1","1","1","1"
"260030","img/object_images/badminton01.jpg","img/object_images/pitcher07.jpg","img/object_images/bookmark01.jpg","1","1","1","1","1","0","0.495278300018981","0.581602400052361","0.431945700081997","1","1","1","1","1","1","1","1","1"
"260030","img/object_images/bookmark01.jpg","img/object_images/badminton01.jpg","img/object_images/tennis_racket01.jpg","1","1","1","0","1","1","0.431945700081997","0.495278300018981","0.482171299983747","1","1","1","1","1","1","1","1","1"
"260030","img/object_images/tennis_racket01.jpg","img/object_images/bookmark01.jpg","img/object_images/egg_basket01.jpg","1","1","1","1","0","1","0.482171299983747","0.431945700081997","0.553104700054973","1","1","1","1","1","1","1","1","1"
"260030","img/object_images/egg_basket01.jpg","img/object_images/tennis_racket01.jpg","img/object_images/scale02.jpg","1","1","1","1","1","0","0.553104700054973","0.482171299983747","0.539868599968031","1","1","1","1","1","1","1","1","1"
"260030","img/object_images/scale02.jpg","img/object_images/egg_basket01.jpg","img/object_images/ToolBag01.jpg","1","1","1","0","1","0","0.539868599968031","0.553104700054973","0.591632299940102","1","1","1","1","1","1","1","1","1"
"260030","img/object_images/ToolBag01.jpg","img/object_images/scale02.jpg","img/object_images/bottle06.jpg","1","1","1","0","0","0","0.591632299940102","0.539868599968031","0.469272600021213","1","1","1","1","1","1","1","1","1"
"260030","img/object_images/bottle06.jpg","img/object_images/ToolBag01.jpg","img/object_images/Safe01.jpg","1","1","1","0","0","1","0.469272600021213","0.591632299940102","0.51293299999088","1","1","1","1","1","1","1","1","1"
"260030","img/object_images/Safe01.jpg","img/object_images/bottle06.jpg","img/object_images/frame01.jpg","1","1","1","1","0","1","0.51293299999088","0.469272600021213","0.511443699942902","1","1","1","1","1","1","1","1","1"
"260030","img/object_images/frame01.jpg","img/object_images/Safe01.jpg","img/object_images/origami01.jpg","1","1","1","1","1","1","0.511443699942902","0.51293299999088","0.519691299996339","1","1","1","1","1","1","1","1","1"
"260030","img/object_images/origami01.jpg","img/object_images/frame01.jpg","img/object_images/helmet03.jpg","1","1","1","1","1","1","0.519691299996339","0.511443699942902","0.542873000027612","1","1","1","1","1","1","1","1","1"
"260030","img/object_images/helmet03.jpg","img/object_images/origami01.jpg","img/object_images/note_book02.jpg","1","1","1","1","1","0","0.542873000027612","0.519691299996339","0.577781499945559","1","1","1","1","1","1","1","1","1"
"260030","img/object_images/note_book02.jpg","img/object_images/helmet03.jpg","img/object_images/belt03.jpg","1","1","1","0","1","0","0.577781499945559","0.542873000027612","0.469826699933037","1","1","1","1","1","1","1","1","1"
"260030","img/object_images/belt03.jpg","img/object_images/note_book02.jpg","img/object_images/Eyeliner01.jpg","1","1","1","0","0","1","0.469826699933037","0.577781499945559","0.535636099986732","1","1","1","1","1","1","1","1","1"
"260030","img/object_images/Eyeliner01.jpg","img/object_images/belt03.jpg","img/object_images/nut_cracker01.jpg","1","1","1","1","0","1","0.535636099986732","0.469826699933037","0.481451999978162","1","1","1","1","1","1","1","1","1"
"260030","img/object_images/nut_cracker01.jpg","img/object_images/Eyeliner01.jpg","img/object_images/piano03.jpg","1","1","1","1","1","0","0.481451999978162","0.535636099986732","0.448645700002089","1","1","1","1","1","1","1","1","1"
"260030","img/object_images/piano03.jpg","img/object_images/nut_cracker01.jpg","img/object_images/lock03.jpg","1","1","1","0","1","1","0.448645700002089","0.481451999978162","0.518095400067978","1","1","1","1","1","1","1","1","1"
"260030","img/object_images/lock03.jpg","img/object_images/piano03.jpg","img/object_images/water_gun01.jpg","1","1","1","1","0","1","0.518095400067978","0.448645700002089","0.506428999942727","1","1","1","1","1","1","1","1","1"
"260030","img/object_images/water_gun01.jpg","img/object_images/lock03.jpg","img/object_images/Shoes05.jpg","1","1","1","1","1","0","0.506428999942727","0.518095400067978","0.518705299939029","1","1","1","1","1","1","1","1","1"
"260030","img/object_images/Shoes05.jpg","img/object_images/water_gun01.jpg","img/object_images/TreeSlice01.jpg","1","1","1","0","1","1","0.518705299939029","0.506428999942727","0.491224299999885","1","1","1","1","1","1","1","1","1"
"260030","img/object_images/TreeSlice01.jpg","img/object_images/Shoes05.jpg","img/object_images/fan01.jpg","1","1","1","1","0","0","0.491224299999885","0.518705299939029","0.556861400022171","1","1","1","1","1","1","1","1","1"
"260030","img/object_images/fan01.jpg","img/object_images/TreeSlice01.jpg","img/object_images/dice01.jpg","1","1","1","0","1","0","0.556861400022171","0.491224299999885","0.502947099972516","1","1","1","1","1","1","1","1","1"
"260030","img/object_images/dice01.jpg","img/object_images/fan01.jpg","img/object_images/phone04.jpg","1","1","1","0","0","1","0.502947099972516","0.556861400022171","0.511393600027077","1","1","1","1","1","1","1","1","1"
"260030","img/object_images/phone04.jpg","img/object_images/dice01.jpg","img/object_images/bucket01.jpg","1","1","1","1","0","1","0.511393600027077","0.502947099972516","0.499009100021794","1","1","1","1","1","1","1","1","1"
"260030","img/object_images/bucket01.jpg","img/object_images/phone04.jpg","img/object_images/jewel02.jpg","1","1","1","1","1","0","0.499009100021794","0.511393600027077","0.562500800006092","1","1","1","1","1","1","1","1","1"
"260030","img/object_images/jewel02.jpg","img/object_images/bucket01.jpg","img/object_images/joystick03.jpg","1","1","1","0","1","1","0.562500800006092","0.499009100021794","0.441108700004406","1","1","1","1","1","1","1","1","1"
"260030","img/object_images/joystick03.jpg","img/object_images/jewel02.jpg","img/object_images/yoga_mat01.jpg","1","1","1","1","0","0","0.441108700004406","0.562500800006092","0.606136200018227","1","1","1","1","1","1","1","1","1"
"260030","img/object_images/yoga_mat01.jpg","img/object_images/joystick03.jpg","img/object_images/usb03.jpg","1","1","1","0","1","0","0.606136200018227","0.441108700004406","0.438060399959795","1","1","1","1","1","1","1","1","1"
"260030","img/object_images/usb03.jpg","img/object_images/yoga_mat01.jpg","img/object_images/headset02.jpg","1","1","1","0","0","0","0.438060399959795","0.606136200018227","0.41490099998191","1","1","1","1","1","1","1","1","1"
"260030","img/object_images/headset02.jpg","img/object_images/usb03.jpg","img/object_images/trumpet01.jpg","1","1","1","0","0","0","0.41490099998191","0.438060399959795","0.484985299990512","1","1","1","1","1","1","1","1","1"
"260030","img/object_images/trumpet01.jpg","img/object_images/headset02.jpg",NA,"1","1",NA,"0","0",NA,"0.484985299990512","0.41490099998191",NA,"1","1",NA,"1","1",NA,"1","1",NA
"260030","img/object_images/projector01.jpg",NA,"img/object_images/hole_puncher01.jpg","1",NA,"1","0",NA,"1","0.684762499993667",NA,"0.443555600009859","1",NA,"1","1",NA,"1","1",NA,"1"
"260030","img/object_images/hole_puncher01.jpg","img/object_images/projector01.jpg","img/object_images/lighter01.jpg","1","1","1","1","0","1","0.443555600009859","0.684762499993667","0.46922780002933","1","1","1","1","1","1","1","1","1"
"260030","img/object_images/lighter01.jpg","img/object_images/hole_puncher01.jpg","img/object_images/ring03.jpg","1","1","1","1","1","1","0.46922780002933","0.443555600009859","0.521486300043762","1","1","1","1","1","1","1","1","1"
"260030","img/object_images/ring03.jpg","img/object_images/lighter01.jpg","img/object_images/basket02.jpg","1","1","1","1","1","0","0.521486300043762","0.46922780002933","0.403718899935484","1","1","1","1","1","1","1","1","1"
"260030","img/object_images/basket02.jpg","img/object_images/ring03.jpg","img/object_images/glasses06.jpg","1","1","1","0","1","1","0.403718899935484","0.521486300043762","0.356940900092013","1","1","1","1","1","1","1","1","1"
"260030","img/object_images/glasses06.jpg","img/object_images/basket02.jpg","img/object_images/tool08.jpg","1","1","1","1","0","0","0.356940900092013","0.403718899935484","0.638883899897337","1","1","1","1","1","1","1","1","1"
"260030","img/object_images/tool08.jpg","img/object_images/glasses06.jpg","img/object_images/Traffic Sign 01.jpg","1","1","1","0","1","0","0.638883899897337","0.356940900092013","0.52478350000456","1","1","1","1","1","1","1","1","1"
"260030","img/object_images/Traffic Sign 01.jpg","img/object_images/tool08.jpg","img/object_images/Sprayer01.jpg","1","1","1","0","0","0","0.52478350000456","0.638883899897337","0.509786000009626","1","1","1","1","1","1","1","1","1"
"260030","img/object_images/Sprayer01.jpg","img/object_images/Traffic Sign 01.jpg","img/object_images/purse01.jpg","1","1","1","0","0","1","0.509786000009626","0.52478350000456","0.421922600013204","1","1","1","1","1","1","1","1","1"
"260030","img/object_images/purse01.jpg","img/object_images/Sprayer01.jpg","img/object_images/Kitchen_Towel.jpg","1","1","1","1","0","0","0.421922600013204","0.509786000009626","0.544356000027619","1","1","1","1","1","1","1","1","1"
"260030","img/object_images/Kitchen_Towel.jpg","img/object_images/purse01.jpg","img/object_images/exfoliater_brush01.jpg","1","1","1","0","1","0","0.544356000027619","0.421922600013204","0.437494500074536","1","1","1","1","1","1","1","1","1"
"260030","img/object_images/exfoliater_brush01.jpg","img/object_images/Kitchen_Towel.jpg","img/object_images/pan01.jpg","1","1","1","0","0","1","0.437494500074536","0.544356000027619","0.458485699957237","1","1","1","1","1","1","1","1","1"
"260030","img/object_images/pan01.jpg","img/object_images/exfoliater_brush01.jpg","img/object_images/fire_extinguisher01.jpg","1","1","1","1","0","0","0.458485699957237","0.437494500074536","0.403653500019573","1","1","1","1","1","1","1","1","1"
"260030","img/object_images/fire_extinguisher01.jpg","img/object_images/pan01.jpg","img/object_images/colander01.jpg","1","1","1","0","1","0","0.403653500019573","0.458485699957237","0.370615700026974","1","1","1","1","1","1","1","1","1"
"260030","img/object_images/colander01.jpg","img/object_images/fire_extinguisher01.jpg","img/object_images/tool07.jpg","1","1","1","0","0","0","0.370615700026974","0.403653500019573","0.620013399980962","1","1","1","1","1","1","1","1","1"
"260030","img/object_images/tool07.jpg","img/object_images/colander01.jpg","img/object_images/gift_box04.jpg","1","1","1","0","0","0","0.620013399980962","0.370615700026974","0.421466600033455","1","1","1","1","1","1","1","1","1"
"260030","img/object_images/gift_box04.jpg","img/object_images/tool07.jpg","img/object_images/speaker01.jpg","1","1","1","0","0","1","0.421466600033455","0.620013399980962","0.559194199973717","1","1","1","1","1","1","1","1","1"
"260030","img/object_images/speaker01.jpg","img/object_images/gift_box04.jpg","img/object_images/cellphone02.jpg","1","1","1","1","0","1","0.559194199973717","0.421466600033455","0.414355000015348","1","1","1","1","1","1","1","1","1"
"260030","img/object_images/cellphone02.jpg","img/object_images/speaker01.jpg","img/object_images/glasses07.jpg","1","1","1","1","1","1","0.414355000015348","0.559194199973717","0.562141599948518","1","1","1","1","1","1","1","1","1"
"260030","img/object_images/glasses07.jpg","img/object_images/cellphone02.jpg","img/object_images/blanket01.jpg","1","1","1","1","1","1","0.562141599948518","0.414355000015348","0.618449400062673","1","1","1","1","1","1","1","1","1"
"260030","img/object_images/blanket01.jpg","img/object_images/glasses07.jpg","img/object_images/book01.jpg","1","1","1","1","1","1","0.618449400062673","0.562141599948518","0.462770399986766","1","1","1","1","1","1","1","1","1"
"260030","img/object_images/book01.jpg","img/object_images/blanket01.jpg","img/object_images/faucet01.jpg","1","1","1","1","1","0","0.462770399986766","0.618449400062673","0.471587099949829","1","1","1","1","1","1","1","1","1"
"260030","img/object_images/faucet01.jpg","img/object_images/book01.jpg","img/object_images/bicycle_lock01.jpg","1","1","0","0","1","0","0.471587099949829","0.462770399986766","0.429958299966529","1","1","1","1","1","1","1","1","1"
"260030","img/object_images/bicycle_lock01.jpg","img/object_images/faucet01.jpg","img/object_images/Pottery01.jpg","0","1","1","0","0","0","0.429958299966529","0.471587099949829","0.527490000007674","1","1","1","1","1","1","1","1","1"
"260030","img/object_images/Pottery01.jpg","img/object_images/bicycle_lock01.jpg","img/object_images/TrashCan02.jpg","1","0","1","0","0","1","0.527490000007674","0.429958299966529","0.554960999987088","1","1","1","1","1","1","1","1","1"
"260030","img/object_images/TrashCan02.jpg","img/object_images/Pottery01.jpg","img/object_images/handcuffs01.jpg","1","1","1","1","0","0","0.554960999987088","0.527490000007674","0.353469299967401","1","1","1","1","1","1","1","1","1"
"260030","img/object_images/handcuffs01.jpg","img/object_images/TrashCan02.jpg","img/object_images/hair_clips01.jpg","1","1","1","0","1","1","0.353469299967401","0.554960999987088","0.363492700038478","1","1","1","1","1","1","1","1","1"
"260030","img/object_images/hair_clips01.jpg","img/object_images/handcuffs01.jpg","img/object_images/tray01.jpg","1","1","1","1","0","1","0.363492700038478","0.353469299967401","0.476345999981277","1","1","1","1","1","1","1","1","1"
"260030","img/object_images/tray01.jpg","img/object_images/hair_clips01.jpg","img/object_images/jewelry09.jpg","1","1","1","1","1","1","0.476345999981277","0.363492700038478","0.41118529997766","1","1","1","1","1","1","1","1","1"
"260030","img/object_images/jewelry09.jpg","img/object_images/tray01.jpg","img/object_images/cup03.jpg","1","1","1","1","1","1","0.41118529997766","0.476345999981277","0.465042199939489","1","1","1","1","1","1","1","1","1"
"260030","img/object_images/cup03.jpg","img/object_images/jewelry09.jpg","img/object_images/yo_yo01.jpg","1","1","1","1","1","0","0.465042199939489","0.41118529997766","0.453540200018324","1","1","1","1","1","1","1","1","1"
"260030","img/object_images/yo_yo01.jpg","img/object_images/cup03.jpg",NA,"1","1",NA,"0","1",NA,"0.453540200018324","0.465042199939489",NA,"1","1",NA,"1","1",NA,"1","1",NA
"260030","img/object_images/hammer01.jpg",NA,"img/object_images/golf_ball03.jpg","1",NA,"1","0",NA,"1","0.511209400021471",NA,"0.424151800107211","1",NA,"1","1",NA,"1","1",NA,"1"
"260030","img/object_images/golf_ball03.jpg","img/object_images/hammer01.jpg","img/object_images/balloon01.jpg","1","1","1","1","0","0","0.424151800107211","0.511209400021471","0.398760700016282","1","1","1","1","1","1","1","1","1"
"260030","img/object_images/balloon01.jpg","img/object_images/golf_ball03.jpg","img/object_images/jewelry01.jpg","1","1","1","0","1","1","0.398760700016282","0.424151800107211","0.482850799919106","1","1","1","1","1","1","1","1","1"
"260030","img/object_images/jewelry01.jpg","img/object_images/balloon01.jpg","img/object_images/lawn_mower01.jpg","1","1","1","1","0","1","0.482850799919106","0.398760700016282","0.3838610999519","1","1","1","1","1","1","1","1","1"
"260030","img/object_images/lawn_mower01.jpg","img/object_images/jewelry01.jpg","img/object_images/sleeping_bag01.jpg","1","1","1","1","1","0","0.3838610999519","0.482850799919106","0.503968799952418","1","1","1","1","1","1","1","1","1"
"260030","img/object_images/sleeping_bag01.jpg","img/object_images/lawn_mower01.jpg","img/object_images/bow_tie01.jpg","1","1","1","0","1","0","0.503968799952418","0.3838610999519","0.503434699960053","1","1","1","1","1","1","1","1","1"
"260030","img/object_images/bow_tie01.jpg","img/object_images/sleeping_bag01.jpg","img/object_images/pitcher02.jpg","1","1","1","0","0","1","0.503434699960053","0.503968799952418","0.435805600020103","1","1","1","1","1","1","1","1","1"
"260030","img/object_images/pitcher02.jpg","img/object_images/bow_tie01.jpg","img/object_images/jacket03.jpg","1","1","1","1","0","0","0.435805600020103","0.503434699960053","0.472243000054732","1","1","1","1","1","1","1","1","1"
"260030","img/object_images/jacket03.jpg","img/object_images/pitcher02.jpg","img/object_images/clip02.jpg","1","1","1","0","1","1","0.472243000054732","0.435805600020103","0.517496299929917","1","1","1","1","1","1","1","1","1"
"260030","img/object_images/clip02.jpg","img/object_images/jacket03.jpg","img/object_images/gift_box02.jpg","1","1","1","1","0","1","0.517496299929917","0.472243000054732","0.365648500039242","1","1","1","1","1","1","1","1","1"
"260030","img/object_images/gift_box02.jpg","img/object_images/clip02.jpg","img/object_images/ironing_table01.jpg","1","1","1","1","1","0","0.365648500039242","0.517496299929917","0.331402000039816","1","1","1","1","1","1","1","1","1"
"260030","img/object_images/ironing_table01.jpg","img/object_images/gift_box02.jpg","img/object_images/paper_cup01.jpg","1","1","1","0","1","0","0.331402000039816","0.365648500039242","0.463408199953847","1","1","1","1","1","1","1","1","1"
"260030","img/object_images/paper_cup01.jpg","img/object_images/ironing_table01.jpg","img/object_images/gift_box03.jpg","1","1","1","0","0","0","0.463408199953847","0.331402000039816","0.483641400001943","1","1","1","1","1","1","1","1","1"
"260030","img/object_images/gift_box03.jpg","img/object_images/paper_cup01.jpg","img/object_images/lock04.jpg","1","1","1","0","0","1","0.483641400001943","0.463408199953847","0.441874200012535","1","1","1","1","1","1","1","1","1"
"260030","img/object_images/lock04.jpg","img/object_images/gift_box03.jpg","img/object_images/Screws01.jpg","1","1","1","1","0","1","0.441874200012535","0.483641400001943","0.524426800082438","1","1","1","1","1","1","1","1","1"
"260030","img/object_images/Screws01.jpg","img/object_images/lock04.jpg","img/object_images/fork03.jpg","1","1","1","1","1","1","0.524426800082438","0.441874200012535","0.406275700079277","1","1","1","1","1","1","1","1","1"
"260030","img/object_images/fork03.jpg","img/object_images/Screws01.jpg","img/object_images/socks02.jpg","1","1","1","1","1","0","0.406275700079277","0.524426800082438","0.54587549995631","1","1","1","1","1","1","1","1","1"
"260030","img/object_images/socks02.jpg","img/object_images/fork03.jpg","img/object_images/coloring_pencil01.jpg","1","1","1","0","1","1","0.54587549995631","0.406275700079277","0.372304699965753","1","1","1","1","1","1","1","1","1"
"260030","img/object_images/coloring_pencil01.jpg","img/object_images/socks02.jpg","img/object_images/handkerchief01.jpg","1","1","0","1","0","0","0.372304699965753","0.54587549995631","0.362693600007333","1","1","1","1","1","1","1","1","1"
"260030","img/object_images/handkerchief01.jpg","img/object_images/coloring_pencil01.jpg","img/object_images/Witchhat01.jpg","0","1","1","0","1","1","0.362693600007333","0.372304699965753","0.490350999985822","1","1","1","1","1","1","1","1","1"
"260030","img/object_images/Witchhat01.jpg","img/object_images/handkerchief01.jpg","img/object_images/grater01.jpg","1","0","1","1","0","1","0.490350999985822","0.362693600007333","0.541783099994063","1","1","1","1","1","1","1","1","1"
"260030","img/object_images/grater01.jpg","img/object_images/Witchhat01.jpg","img/object_images/camera07.jpg","1","1","1","1","1","1","0.541783099994063","0.490350999985822","0.50520580005832","1","1","1","1","1","1","1","1","1"
"260030","img/object_images/camera07.jpg","img/object_images/grater01.jpg","img/object_images/vga_port 01.jpg","1","1","1","1","1","0","0.50520580005832","0.541783099994063","0.553685299935751","1","1","1","1","1","1","1","1","1"
"260030","img/object_images/vga_port 01.jpg","img/object_images/camera07.jpg","img/object_images/couch03.jpg","1","1","1","0","1","0","0.553685299935751","0.50520580005832","0.443417000002228","1","1","1","1","1","1","1","1","1"
"260030","img/object_images/couch03.jpg","img/object_images/vga_port 01.jpg","img/object_images/bath_tub01.jpg","1","1","1","0","0","0","0.443417000002228","0.553685299935751","0.4638077999698","1","1","1","1","1","1","1","1","1"
"260030","img/object_images/bath_tub01.jpg","img/object_images/couch03.jpg","img/object_images/measuring_tape02.jpg","1","1","1","0","0","1","0.4638077999698","0.443417000002228","0.401983800111338","1","1","1","1","1","1","1","1","1"
"260030","img/object_images/measuring_tape02.jpg","img/object_images/bath_tub01.jpg","img/object_images/funnel01.jpg","1","1","1","1","0","0","0.401983800111338","0.4638077999698","0.502582899993286","1","1","1","1","1","1","1","1","1"
"260030","img/object_images/funnel01.jpg","img/object_images/measuring_tape02.jpg","img/object_images/gift_box01.jpg","1","1","1","0","1","1","0.502582899993286","0.401983800111338","0.417814300046302","1","1","1","1","1","1","1","1","1"
"260030","img/object_images/gift_box01.jpg","img/object_images/funnel01.jpg","img/object_images/dresser04.jpg","1","1","1","1","0","0","0.417814300046302","0.502582899993286","0.541884100064635","1","1","1","1","1","1","1","1","1"
"260030","img/object_images/dresser04.jpg","img/object_images/gift_box01.jpg","img/object_images/bow_tie02.jpg","1","1","1","0","1","0","0.541884100064635","0.417814300046302","0.530769600067288","1","1","1","1","1","1","1","1","1"
"260030","img/object_images/bow_tie02.jpg","img/object_images/dresser04.jpg","img/object_images/wallet02.jpg","1","1","1","0","0","1","0.530769600067288","0.541884100064635","0.438822300056927","1","1","1","1","1","1","1","1","1"
"260030","img/object_images/wallet02.jpg","img/object_images/bow_tie02.jpg",NA,"1","1",NA,"1","0",NA,"0.438822300056927","0.530769600067288",NA,"1","1",NA,"1","1",NA,"1","1",NA
"260030","img/object_images/crutches02.jpg",NA,"img/object_images/bottle01.jpg","1",NA,"1","0",NA,"0","0.526428299956024",NA,"0.510846000048332","1",NA,"1","1",NA,"1","1",NA,"1"
"260030","img/object_images/bottle01.jpg","img/object_images/crutches02.jpg","img/object_images/wire02.jpg","1","1","1","0","0","1","0.510846000048332","0.526428299956024","0.434752300032414","1","1","1","1","1","1","1","1","1"
"260030","img/object_images/wire02.jpg","img/object_images/bottle01.jpg","img/object_images/floppy_disk02.jpg","1","1","1","1","0","0","0.434752300032414","0.510846000048332","0.464154300047085","1","1","1","1","1","1","1","1","1"
"260030","img/object_images/floppy_disk02.jpg","img/object_images/wire02.jpg","img/object_images/bell02.jpg","1","1","1","0","1","0","0.464154300047085","0.434752300032414","0.550119699910283","1","1","1","1","1","1","1","1","1"
"260030","img/object_images/bell02.jpg","img/object_images/floppy_disk02.jpg","img/object_images/lid01.jpg","1","1","1","0","0","1","0.550119699910283","0.464154300047085","0.457633899990469","1","1","1","1","1","1","1","1","1"
"260030","img/object_images/lid01.jpg","img/object_images/bell02.jpg","img/object_images/ear_bud01.jpg","1","1","1","1","0","1","0.457633899990469","0.550119699910283","0.452995399944484","1","1","1","1","1","1","1","1","1"
"260030","img/object_images/ear_bud01.jpg","img/object_images/lid01.jpg","img/object_images/hammer03.jpg","1","1","0","1","1","1","0.452995399944484","0.457633899990469","0.423703700071201","1","1","1","1","1","1","1","1","1"
"260030","img/object_images/hammer03.jpg","img/object_images/ear_bud01.jpg","img/object_images/clip03.jpg","0","1","1","1","1","0","0.423703700071201","0.452995399944484","0.418740299995989","1","1","1","1","1","1","1","1","1"
"260030","img/object_images/clip03.jpg","img/object_images/hammer03.jpg","img/object_images/note_book01.jpg","1","0","1","0","1","0","0.418740299995989","0.423703700071201","0.43424720002804","1","1","1","1","1","1","1","1","1"
"260030","img/object_images/note_book01.jpg","img/object_images/clip03.jpg","img/object_images/chair05.jpg","1","1","1","0","0","0","0.43424720002804","0.418740299995989","0.456584800034761","1","1","1","1","1","1","1","1","1"
"260030","img/object_images/chair05.jpg","img/object_images/note_book01.jpg","img/object_images/Oven01.jpg","1","1","1","0","0","1","0.456584800034761","0.43424720002804","0.501420399989001","1","1","1","1","1","1","1","1","1"
"260030","img/object_images/Oven01.jpg","img/object_images/chair05.jpg","img/object_images/usb02.jpg","1","1","1","1","0","0","0.501420399989001","0.456584800034761","0.463367300108075","1","1","1","1","1","1","1","1","1"
"260030","img/object_images/usb02.jpg","img/object_images/Oven01.jpg","img/object_images/compass01.jpg","1","1","1","0","1","1","0.463367300108075","0.501420399989001","0.432202499941923","1","1","1","1","1","1","1","1","1"
"260030","img/object_images/compass01.jpg","img/object_images/usb02.jpg","img/object_images/tennis_racket02.jpg","1","1","1","1","0","1","0.432202499941923","0.463367300108075","0.56316300004255","1","1","1","1","1","1","1","1","1"
"260030","img/object_images/tennis_racket02.jpg","img/object_images/compass01.jpg","img/object_images/pen03.jpg","1","1","1","1","1","0","0.56316300004255","0.432202499941923","0.526306800078601","1","1","1","1","1","1","1","1","1"
"260030","img/object_images/pen03.jpg","img/object_images/tennis_racket02.jpg","img/object_images/Thermometer01.jpg","1","1","1","0","1","0","0.526306800078601","0.56316300004255","0.397690300014801","1","1","1","1","1","1","1","1","1"
"260030","img/object_images/Thermometer01.jpg","img/object_images/pen03.jpg","img/object_images/knit05.jpg","1","1","1","0","0","1","0.397690300014801","0.526306800078601","0.495253999950364","1","1","1","1","1","1","1","1","1"
"260030","img/object_images/knit05.jpg","img/object_images/Thermometer01.jpg","img/object_images/clock02.jpg","1","1","1","1","0","0","0.495253999950364","0.397690300014801","0.508279799949378","1","1","1","1","1","1","1","1","1"
"260030","img/object_images/clock02.jpg","img/object_images/knit05.jpg","img/object_images/tv02.jpg","1","1","1","0","1","0","0.508279799949378","0.495253999950364","0.503867299994454","1","1","1","1","1","1","1","1","1"
"260030","img/object_images/tv02.jpg","img/object_images/clock02.jpg","img/object_images/pitcher01.jpg","1","1","1","0","0","0","0.503867299994454","0.508279799949378","0.4111147999065","1","1","1","1","1","1","1","1","1"
"260030","img/object_images/pitcher01.jpg","img/object_images/tv02.jpg","img/object_images/paint_brush04.jpg","1","1","1","0","0","0","0.4111147999065","0.503867299994454","0.432700300007127","1","1","1","1","1","1","1","1","1"
"260030","img/object_images/paint_brush04.jpg","img/object_images/pitcher01.jpg","img/object_images/cellphone01.jpg","1","1","1","0","0","1","0.432700300007127","0.4111147999065","0.535492799943313","1","1","1","1","1","1","1","1","1"
"260030","img/object_images/cellphone01.jpg","img/object_images/paint_brush04.jpg","img/object_images/book03.jpg","1","1","0","1","0","1","0.535492799943313","0.432700300007127","0.444987799972296","1","1","1","1","1","1","1","1","1"
"260030","img/object_images/book03.jpg","img/object_images/cellphone01.jpg","img/object_images/floppy_disk03.jpg","0","1","1","1","1","1","0.444987799972296","0.535492799943313","0.511680399999022","1","1","1","1","1","1","1","1","1"
"260030","img/object_images/floppy_disk03.jpg","img/object_images/book03.jpg","img/object_images/motorcycle01.jpg","1","0","1","1","1","1","0.511680399999022","0.444987799972296","0.397103999974206","1","1","1","1","1","1","1","1","1"
"260030","img/object_images/motorcycle01.jpg","img/object_images/floppy_disk03.jpg","img/object_images/chess_piece02.jpg","1","1","1","1","1","1","0.397103999974206","0.511680399999022","0.471645000041462","1","1","1","1","1","1","1","1","1"
"260030","img/object_images/chess_piece02.jpg","img/object_images/motorcycle01.jpg","img/object_images/microscope01.jpg","1","1","1","1","1","0","0.471645000041462","0.397103999974206","0.462037399993278","1","1","1","1","1","1","1","1","1"
"260030","img/object_images/microscope01.jpg","img/object_images/chess_piece02.jpg","img/object_images/pillows01.jpg","1","1","1","0","1","1","0.462037399993278","0.471645000041462","0.464744900004007","1","1","1","1","1","1","1","1","1"
"260030","img/object_images/pillows01.jpg","img/object_images/microscope01.jpg","img/object_images/knife04.jpg","1","1","1","1","0","1","0.464744900004007","0.462037399993278","0.511014500050806","1","1","1","1","1","1","1","1","1"
"260030","img/object_images/knife04.jpg","img/object_images/pillows01.jpg","img/object_images/Staples01.jpg","1","1","1","1","1","1","0.511014500050806","0.464744900004007","0.513970599975437","1","1","1","1","1","1","1","1","1"
"260030","img/object_images/Staples01.jpg","img/object_images/knife04.jpg","img/object_images/retainer01.jpg","1","1","1","1","1","0","0.513970599975437","0.511014500050806","0.407651899964549","1","1","1","1","1","1","1","1","1"
"260030","img/object_images/retainer01.jpg","img/object_images/Staples01.jpg",NA,"1","1",NA,"0","1",NA,"0.407651899964549","0.513970599975437",NA,"1","1",NA,"1","1",NA,"1","1",NA
"260030","img/object_images/chain01.jpg",NA,"img/object_images/clip04.jpg","1",NA,"1","0",NA,"1","0.458851400064304",NA,"0.482172999996692","1",NA,"1","1",NA,"1","1",NA,"1"
"260030","img/object_images/clip04.jpg","img/object_images/chain01.jpg","img/object_images/pen01.jpg","1","1","1","1","0","0","0.482172999996692","0.458851400064304","0.647957100067288","1","1","1","1","1","1","1","1","1"
"260030","img/object_images/pen01.jpg","img/object_images/clip04.jpg","img/object_images/bag_pipes01.jpg","1","1","1","0","1","1","0.647957100067288","0.482172999996692","0.42357029998675","1","1","1","1","1","1","1","1","1"
"260030","img/object_images/bag_pipes01.jpg","img/object_images/pen01.jpg","img/object_images/Violin01.jpg","1","1","1","1","0","0","0.42357029998675","0.647957100067288","0.511917300056666","1","1","1","1","1","1","1","1","1"
"260030","img/object_images/Violin01.jpg","img/object_images/bag_pipes01.jpg","img/object_images/computer_mouse02.jpg","1","1","1","0","1","0","0.511917300056666","0.42357029998675","0.459028400015086","1","1","1","1","1","1","1","1","1"
"260030","img/object_images/computer_mouse02.jpg","img/object_images/Violin01.jpg","img/object_images/computer_mouse01.jpg","1","1","1","0","0","1","0.459028400015086","0.511917300056666","0.458643200108782","1","1","1","1","1","1","1","1","1"
"260030","img/object_images/computer_mouse01.jpg","img/object_images/computer_mouse02.jpg","img/object_images/couch01.jpg","1","1","1","1","0","0","0.458643200108782","0.459028400015086","0.507307499996386","1","1","1","1","1","1","1","1","1"
"260030","img/object_images/couch01.jpg","img/object_images/computer_mouse01.jpg","img/object_images/tool06.jpg","1","1","1","0","1","0","0.507307499996386","0.458643200108782","0.558699800050817","1","1","1","1","1","1","1","1","1"
"260030","img/object_images/tool06.jpg","img/object_images/couch01.jpg","img/object_images/floss02.jpg","1","1","1","0","0","1","0.558699800050817","0.507307499996386","0.629732999950647","1","1","1","1","1","1","1","1","1"
"260030","img/object_images/floss02.jpg","img/object_images/tool06.jpg","img/object_images/box03.jpg","1","1","1","1","0","0","0.629732999950647","0.558699800050817","0.476878999965265","1","1","1","1","1","1","1","1","1"
"260030","img/object_images/box03.jpg","img/object_images/floss02.jpg","img/object_images/scarf01.jpg","1","1","1","0","1","1","0.476878999965265","0.629732999950647","0.478513299953192","1","1","1","1","1","1","1","1","1"
"260030","img/object_images/scarf01.jpg","img/object_images/box03.jpg","img/object_images/fork02.jpg","1","1","1","1","0","0","0.478513299953192","0.476878999965265","0.464054899988696","1","1","1","1","1","1","1","1","1"
"260030","img/object_images/fork02.jpg","img/object_images/scarf01.jpg","img/object_images/pitcher09.jpg","1","1","1","0","1","1","0.464054899988696","0.478513299953192","0.437466899980791","1","1","1","1","1","1","1","1","1"
"260030","img/object_images/pitcher09.jpg","img/object_images/fork02.jpg","img/object_images/video_game03.jpg","1","1","1","1","0","1","0.437466899980791","0.464054899988696","0.427067399956286","1","1","1","1","1","1","1","1","1"
"260030","img/object_images/video_game03.jpg","img/object_images/pitcher09.jpg","img/object_images/airfryer02.jpg","1","1","1","1","1","1","0.427067399956286","0.437466899980791","0.409341200022027","1","1","1","1","1","1","1","1","1"
"260030","img/object_images/airfryer02.jpg","img/object_images/video_game03.jpg","img/object_images/soap03.jpg","1","1","1","1","1","0","0.409341200022027","0.427067399956286","0.532670399989001","1","1","1","1","1","1","1","1","1"
"260030","img/object_images/soap03.jpg","img/object_images/airfryer02.jpg","img/object_images/hair_brush01.jpg","1","1","1","0","1","1","0.532670399989001","0.409341200022027","0.446342200040817","1","1","1","1","1","1","1","1","1"
"260030","img/object_images/hair_brush01.jpg","img/object_images/soap03.jpg","img/object_images/drone01.jpg","1","1","1","1","0","1","0.446342200040817","0.532670399989001","0.400913799996488","1","1","1","1","1","1","1","1","1"
"260030","img/object_images/drone01.jpg","img/object_images/hair_brush01.jpg","img/object_images/blender01.jpg","1","1","1","1","1","0","0.400913799996488","0.446342200040817","0.445342799997889","1","1","1","1","1","1","1","1","1"
"260030","img/object_images/blender01.jpg","img/object_images/drone01.jpg","img/object_images/mail_box02.jpg","1","1","1","0","1","1","0.445342799997889","0.400913799996488","0.407771599944681","1","1","1","1","1","1","1","1","1"
"260030","img/object_images/mail_box02.jpg","img/object_images/blender01.jpg","img/object_images/shoes12.jpg","1","1","1","1","0","1","0.407771599944681","0.445342799997889","0.401520699961111","1","1","1","1","1","1","1","1","1"
"260030","img/object_images/shoes12.jpg","img/object_images/mail_box02.jpg","img/object_images/rock02.jpg","1","1","1","1","1","0","0.401520699961111","0.407771599944681","0.381708599976264","1","1","1","1","1","1","1","1","1"
"260030","img/object_images/rock02.jpg","img/object_images/shoes12.jpg","img/object_images/bell03.jpg","1","1","1","0","1","0","0.381708599976264","0.401520699961111","0.379603300010786","1","1","1","1","1","1","1","1","1"
"260030","img/object_images/bell03.jpg","img/object_images/rock02.jpg","img/object_images/chair06.jpg","1","1","1","0","0","0","0.379603300010786","0.381708599976264","0.369585299980827","1","1","1","1","1","1","1","1","1"
"260030","img/object_images/chair06.jpg","img/object_images/bell03.jpg","img/object_images/toothbrush01.jpg","1","1","1","0","0","0","0.369585299980827","0.379603300010786","0.4121812999947","1","1","1","1","1","1","1","1","1"
"260030","img/object_images/toothbrush01.jpg","img/object_images/chair06.jpg","img/object_images/egg_slicer01.jpg","1","1","1","0","0","1","0.4121812999947","0.369585299980827","0.358493800042197","1","1","1","1","1","1","1","1","1"
"260030","img/object_images/egg_slicer01.jpg","img/object_images/toothbrush01.jpg","img/object_images/book02.jpg","1","1","1","1","0","1","0.358493800042197","0.4121812999947","0.472799499984831","1","1","1","1","1","1","1","1","1"
"260030","img/object_images/book02.jpg","img/object_images/egg_slicer01.jpg","img/object_images/Trowel01.jpg","1","1","0","1","1","0","0.472799499984831","0.358493800042197","0.430479099974036","1","1","1","1","1","1","1","1","1"
"260030","img/object_images/Trowel01.jpg","img/object_images/book02.jpg","img/object_images/skate_board01.jpg","0","1","1","0","1","0","0.430479099974036","0.472799499984831","0.370845000026748","1","1","1","1","1","1","1","1","1"
"260030","img/object_images/skate_board01.jpg","img/object_images/Trowel01.jpg","img/object_images/tripod01.jpg","1","0","1","0","0","1","0.370845000026748","0.430479099974036","0.385520400013775","1","1","1","1","1","1","1","1","1"
"260030","img/object_images/tripod01.jpg","img/object_images/skate_board01.jpg","img/object_images/toy01.jpg","1","1","1","1","0","1","0.385520400013775","0.370845000026748","0.620221200049855","1","1","1","1","1","1","1","1","1"
"260030","img/object_images/toy01.jpg","img/object_images/tripod01.jpg",NA,"1","1",NA,"1","1",NA,"0.620221200049855","0.385520400013775",NA,"1","1",NA,"1","1",NA,"1","1",NA
"260030","img/object_images/pen05.jpg",NA,"img/object_images/hot_air_balloon02.jpg","1",NA,"1","0",NA,"0","0.433567800093442",NA,"0.437379499897361","1",NA,"1","1",NA,"1","1",NA,"1"
"260030","img/object_images/hot_air_balloon02.jpg","img/object_images/pen05.jpg","img/object_images/scoreboard01.jpg","1","1","1","0","0","1","0.437379499897361","0.433567800093442","0.44761999999173","1","1","1","1","1","1","1","1","1"
"260030","img/object_images/scoreboard01.jpg","img/object_images/hot_air_balloon02.jpg","img/object_images/knit01.jpg","1","1","1","1","0","0","0.44761999999173","0.437379499897361","0.471770900068805","1","1","1","1","1","1","1","1","1"
"260030","img/object_images/knit01.jpg","img/object_images/scoreboard01.jpg","img/object_images/boat02.jpg","1","1","1","0","1","1","0.471770900068805","0.44761999999173","0.438485000049695","1","1","1","1","1","1","1","1","1"
"260030","img/object_images/boat02.jpg","img/object_images/knit01.jpg","img/object_images/WoodBox01.jpg","1","1","1","1","0","0","0.438485000049695","0.471770900068805","0.539323499891907","1","1","1","1","1","1","1","1","1"
"260030","img/object_images/WoodBox01.jpg","img/object_images/boat02.jpg","img/object_images/helmet04.jpg","1","1","1","0","1","1","0.539323499891907","0.438485000049695","0.444407399976626","1","1","1","1","1","1","1","1","1"
"260030","img/object_images/helmet04.jpg","img/object_images/WoodBox01.jpg","img/object_images/cellphone03.jpg","1","1","1","1","0","0","0.444407399976626","0.539323499891907","0.535526599967852","1","1","1","1","1","1","1","1","1"
"260030","img/object_images/cellphone03.jpg","img/object_images/helmet04.jpg","img/object_images/dog_leash01.jpg","1","1","1","0","1","0","0.535526599967852","0.444407399976626","0.567927299998701","1","1","1","1","1","1","1","1","1"
"260030","img/object_images/dog_leash01.jpg","img/object_images/cellphone03.jpg","img/object_images/wagon_cart03.jpg","1","1","1","0","0","1","0.567927299998701","0.535526599967852","0.545628200052306","1","1","1","1","1","1","1","1","1"
"260030","img/object_images/wagon_cart03.jpg","img/object_images/dog_leash01.jpg","img/object_images/water_scooter01.jpg","1","1","1","1","0","1","0.545628200052306","0.567927299998701","0.459434699965641","1","1","1","1","1","1","1","1","1"
"260030","img/object_images/water_scooter01.jpg","img/object_images/wagon_cart03.jpg","img/object_images/bottle10.jpg","1","1","1","1","1","1","0.459434699965641","0.545628200052306","0.488986000069417","1","1","1","1","1","1","1","1","1"
"260030","img/object_images/bottle10.jpg","img/object_images/water_scooter01.jpg","img/object_images/toilet_paper_dispenser01.jpg","1","1","1","1","1","1","0.488986000069417","0.459434699965641","0.393297899980098","1","1","1","1","1","1","1","1","1"
"260030","img/object_images/toilet_paper_dispenser01.jpg","img/object_images/bottle10.jpg","img/object_images/hat06.jpg","1","1","1","1","1","0","0.393297899980098","0.488986000069417","0.461603299947456","1","1","1","1","1","1","1","1","1"
"260030","img/object_images/hat06.jpg","img/object_images/toilet_paper_dispenser01.jpg","img/object_images/bicycle01.jpg","1","1","1","0","1","1","0.461603299947456","0.393297899980098","0.434633300057612","1","1","1","1","1","1","1","1","1"
"260030","img/object_images/bicycle01.jpg","img/object_images/hat06.jpg","img/object_images/chair03.jpg","1","1","1","1","0","0","0.434633300057612","0.461603299947456","0.860893200035207","1","1","1","1","1","1","1","1","1"
"260030","img/object_images/chair03.jpg","img/object_images/bicycle01.jpg","img/object_images/bottle09.jpg","1","1","1","0","1","0","0.860893200035207","0.434633300057612","0.496327900094911","1","1","1","1","1","1","1","1","1"
"260030","img/object_images/bottle09.jpg","img/object_images/chair03.jpg","img/object_images/flask01.jpg","1","1","1","0","0","0","0.496327900094911","0.860893200035207","0.371533600031398","1","1","1","1","1","1","1","1","1"
"260030","img/object_images/flask01.jpg","img/object_images/bottle09.jpg","img/object_images/tie02.jpg","1","1","1","0","0","0","0.371533600031398","0.496327900094911","0.46117830008734","1","1","1","1","1","1","1","1","1"
"260030","img/object_images/tie02.jpg","img/object_images/flask01.jpg","img/object_images/tool19.jpg","1","1","1","0","0","1","0.46117830008734","0.371533600031398","0.545237999991514","1","1","1","1","1","1","1","1","1"
"260030","img/object_images/tool19.jpg","img/object_images/tie02.jpg","img/object_images/toaster01.jpg","1","1","1","1","0","1","0.545237999991514","0.46117830008734","0.436510500032455","1","1","1","1","1","1","1","1","1"
"260030","img/object_images/toaster01.jpg","img/object_images/tool19.jpg","img/object_images/purse04.jpg","1","1","1","1","1","1","0.436510500032455","0.545237999991514","0.424027999979444","1","1","1","1","1","1","1","1","1"
"260030","img/object_images/purse04.jpg","img/object_images/toaster01.jpg","img/object_images/piggy_bank01.jpg","1","1","1","1","1","1","0.424027999979444","0.436510500032455","0.47157439996954","1","1","1","1","1","1","1","1","1"
"260030","img/object_images/piggy_bank01.jpg","img/object_images/purse04.jpg","img/object_images/fan02.jpg","1","1","1","1","1","0","0.47157439996954","0.424027999979444","0.447164899902418","1","1","1","1","1","1","1","1","1"
"260030","img/object_images/fan02.jpg","img/object_images/piggy_bank01.jpg","img/object_images/perfume02.jpg","1","1","1","0","1","0","0.447164899902418","0.47157439996954","0.533491399954073","1","1","1","1","1","1","1","1","1"
"260030","img/object_images/perfume02.jpg","img/object_images/fan02.jpg","img/object_images/boat_toy10.jpg","1","1","1","0","0","0","0.533491399954073","0.447164899902418","0.452550400048494","1","1","1","1","1","1","1","1","1"
"260030","img/object_images/boat_toy10.jpg","img/object_images/perfume02.jpg","img/object_images/audio_port01.jpg","1","1","1","0","0","1","0.452550400048494","0.533491399954073","0.41234339994844","1","1","1","1","1","1","1","1","1"
"260030","img/object_images/audio_port01.jpg","img/object_images/boat_toy10.jpg","img/object_images/shoes07.jpg","1","1","1","1","0","0","0.41234339994844","0.452550400048494","0.562018999946304","1","1","1","1","1","1","1","1","1"
"260030","img/object_images/shoes07.jpg","img/object_images/audio_port01.jpg","img/object_images/bottle02.jpg","1","1","1","0","1","1","0.562018999946304","0.41234339994844","0.443651900044642","1","1","1","1","1","1","1","1","1"
"260030","img/object_images/bottle02.jpg","img/object_images/shoes07.jpg","img/object_images/bean_bag02.jpg","1","1","1","1","0","1","0.443651900044642","0.562018999946304","0.410824800026603","1","1","1","1","1","1","1","1","1"
"260030","img/object_images/bean_bag02.jpg","img/object_images/bottle02.jpg","img/object_images/coloring_pencil02.jpg","1","1","1","1","1","0","0.410824800026603","0.443651900044642","0.437796400045045","1","1","1","1","1","1","1","1","1"
"260030","img/object_images/coloring_pencil02.jpg","img/object_images/bean_bag02.jpg","img/object_images/camera_lens01.jpg","1","1","1","0","1","1","0.437796400045045","0.410824800026603","0.524721800000407","1","1","1","1","1","1","1","1","1"
"260030","img/object_images/camera_lens01.jpg","img/object_images/coloring_pencil02.jpg",NA,"1","1",NA,"1","0",NA,"0.524721800000407","0.437796400045045",NA,"1","1",NA,"1","1",NA,"1","1",NA
"260030","img/object_images/microphone03.jpg",NA,"img/object_images/chess_piece01.jpg","1",NA,"0","1",NA,"0","0.524085700046271",NA,"0.438251200015657","1",NA,"1","1",NA,"1","1",NA,"1"
"260030","img/object_images/chess_piece01.jpg","img/object_images/microphone03.jpg","img/object_images/vase01.jpg","0","1","1","0","1","0","0.438251200015657","0.524085700046271","0.499839200056158","1","1","1","1","1","1","1","1","1"
"260030","img/object_images/vase01.jpg","img/object_images/chess_piece01.jpg","img/object_images/shoes08.jpg","1","0","1","0","0","1","0.499839200056158","0.438251200015657","0.54822029999923","1","1","1","1","1","1","1","1","1"
"260030","img/object_images/shoes08.jpg","img/object_images/vase01.jpg","img/object_images/lock01.jpg","1","1","1","1","0","0","0.54822029999923","0.499839200056158","0.523048499948345","1","1","1","1","1","1","1","1","1"
"260030","img/object_images/lock01.jpg","img/object_images/shoes08.jpg","img/object_images/trash_can03.jpg","1","1","1","0","1","1","0.523048499948345","0.54822029999923","0.383896099985577","1","1","1","1","1","1","1","1","1"
"260030","img/object_images/trash_can03.jpg","img/object_images/lock01.jpg","img/object_images/chair02.jpg","1","1","1","1","0","1","0.383896099985577","0.523048499948345","0.361978400032967","1","1","1","1","1","1","1","1","1"
"260030","img/object_images/chair02.jpg","img/object_images/trash_can03.jpg","img/object_images/Vest02.jpg","1","1","1","1","1","0","0.361978400032967","0.383896099985577","0.432109799934551","1","1","1","1","1","1","1","1","1"
"260030","img/object_images/Vest02.jpg","img/object_images/chair02.jpg","img/object_images/calculator01.jpg","1","1","1","0","1","1","0.432109799934551","0.361978400032967","0.411037299898453","1","1","1","1","1","1","1","1","1"
"260030","img/object_images/calculator01.jpg","img/object_images/Vest02.jpg","img/object_images/pitcher05.jpg","1","1","1","1","0","0","0.411037299898453","0.432109799934551","0.391212700051256","1","1","1","1","1","1","1","1","1"
"260030","img/object_images/pitcher05.jpg","img/object_images/calculator01.jpg","img/object_images/fan04.jpg","1","1","1","0","1","0","0.391212700051256","0.411037299898453","0.470899899955839","1","1","1","1","1","1","1","1","1"
"260030","img/object_images/fan04.jpg","img/object_images/pitcher05.jpg","img/object_images/ball02.jpg","1","1","1","0","0","1","0.470899899955839","0.391212700051256","0.407265699934214","1","1","1","1","1","1","1","1","1"
"260030","img/object_images/ball02.jpg","img/object_images/fan04.jpg","img/object_images/accardion01.jpg","1","1","1","1","0","1","0.407265699934214","0.470899899955839","0.400424399995245","1","1","1","1","1","1","1","1","1"
"260030","img/object_images/accardion01.jpg","img/object_images/ball02.jpg","img/object_images/Lint_Roller02.jpg","1","1","1","1","1","0","0.400424399995245","0.407265699934214","0.509618800017051","1","1","1","1","1","1","1","1","1"
"260030","img/object_images/Lint_Roller02.jpg","img/object_images/accardion01.jpg","img/object_images/robe01.jpg","1","1","1","0","1","1","0.509618800017051","0.400424399995245","0.419867099961266","1","1","1","1","1","1","1","1","1"
"260030","img/object_images/robe01.jpg","img/object_images/Lint_Roller02.jpg","img/object_images/jewel03.jpg","1","1","1","1","0","1","0.419867099961266","0.509618800017051","0.419804799952544","1","1","1","1","1","1","1","1","1"
"260030","img/object_images/jewel03.jpg","img/object_images/robe01.jpg","img/object_images/helmet02.jpg","1","1","1","1","1","0","0.419804799952544","0.419867099961266","0.366200000047684","1","1","1","1","1","1","1","1","1"
"260030","img/object_images/helmet02.jpg","img/object_images/jewel03.jpg","img/object_images/umbrella01.jpg","1","1","1","0","1","0","0.366200000047684","0.419804799952544","0.340145699912682","1","1","1","1","1","1","1","1","1"
"260030","img/object_images/umbrella01.jpg","img/object_images/helmet02.jpg","img/object_images/gift_box05.jpg","1","1","1","0","0","0","0.340145699912682","0.366200000047684","0.577922599972226","1","1","1","1","1","1","1","1","1"
"260030","img/object_images/gift_box05.jpg","img/object_images/umbrella01.jpg","img/object_images/backpack03.jpg","1","1","1","0","0","1","0.577922599972226","0.340145699912682","0.509798799990676","1","1","1","1","1","1","1","1","1"
"260030","img/object_images/backpack03.jpg","img/object_images/gift_box05.jpg","img/object_images/laptop03.jpg","1","1","1","1","0","1","0.509798799990676","0.577922599972226","0.387778100091964","1","1","1","1","1","1","1","1","1"
"260030","img/object_images/laptop03.jpg","img/object_images/backpack03.jpg","img/object_images/toy05.jpg","1","1","1","1","1","0","0.387778100091964","0.509798799990676","0.338910599937662","1","1","1","1","1","1","1","1","1"
"260030","img/object_images/toy05.jpg","img/object_images/laptop03.jpg","img/object_images/hair_dryer01.jpg","1","1","1","0","1","0","0.338910599937662","0.387778100091964","0.383224899997003","1","1","1","1","1","1","1","1","1"
"260030","img/object_images/hair_dryer01.jpg","img/object_images/toy05.jpg","img/object_images/hair_brush02.jpg","1","1","1","0","0","0","0.383224899997003","0.338910599937662","0.46150029997807","1","1","1","1","1","1","1","1","1"
"260030","img/object_images/hair_brush02.jpg","img/object_images/hair_dryer01.jpg","img/object_images/combs01.jpg","1","1","1","0","0","1","0.46150029997807","0.383224899997003","0.482438400038518","1","1","1","1","1","1","1","1","1"
"260030","img/object_images/combs01.jpg","img/object_images/hair_brush02.jpg","img/object_images/trash_can05.jpg","1","1","1","1","0","1","0.482438400038518","0.46150029997807","0.620043899980374","1","1","1","1","1","1","1","1","1"
"260030","img/object_images/trash_can05.jpg","img/object_images/combs01.jpg","img/object_images/surf_board01.jpg","1","1","1","1","1","1","0.620043899980374","0.482438400038518","0.472321000066586","1","1","1","1","1","1","1","1","1"
"260030","img/object_images/surf_board01.jpg","img/object_images/trash_can05.jpg","img/object_images/spatula02.jpg","1","1","1","1","1","1","0.472321000066586","0.620043899980374","0.583266800036654","1","1","1","1","1","1","1","1","1"
"260030","img/object_images/spatula02.jpg","img/object_images/surf_board01.jpg","img/object_images/bucket02.jpg","1","1","1","1","1","1","0.583266800036654","0.472321000066586","0.489464499987662","1","1","1","1","1","1","1","1","1"
"260030","img/object_images/bucket02.jpg","img/object_images/spatula02.jpg","img/object_images/stove01.jpg","1","1","1","1","1","0","0.489464499987662","0.583266800036654","0.51981510000769","1","1","1","1","1","1","1","1","1"
"260030","img/object_images/stove01.jpg","img/object_images/bucket02.jpg","img/object_images/towels01.jpg","1","1","1","0","1","0","0.51981510000769","0.489464499987662","0.355790000059642","1","1","1","1","1","1","1","1","1"
"260030","img/object_images/towels01.jpg","img/object_images/stove01.jpg","img/object_images/laptop01.jpg","1","1","0","0","0","0","0.355790000059642","0.51981510000769","0.45698480005376","1","1","1","1","1","1","1","1","1"
"260030","img/object_images/laptop01.jpg","img/object_images/towels01.jpg",NA,"0","1",NA,"0","0",NA,"0.45698480005376","0.355790000059642",NA,"1","1",NA,"1","1",NA,"1","1",NA
"260030","img/object_images/lemon_squeezer01.jpg",NA,"img/object_images/pan03.jpg","1",NA,"1","1",NA,"1","0.492890800000168",NA,"0.37710819998756","1",NA,"1","1",NA,"1","1",NA,"1"
"260030","img/object_images/pan03.jpg","img/object_images/lemon_squeezer01.jpg","img/object_images/ruler02.jpg","1","1","1","1","1","1","0.37710819998756","0.492890800000168","0.48480269999709","1","1","1","1","1","1","1","1","1"
"260030","img/object_images/ruler02.jpg","img/object_images/pan03.jpg","img/object_images/video_game02.jpg","1","1","1","1","1","1","0.48480269999709","0.37710819998756","0.501875199959613","1","1","1","1","1","1","1","1","1"
"260030","img/object_images/video_game02.jpg","img/object_images/ruler02.jpg","img/object_images/board01.jpg","1","1","1","1","1","1","0.501875199959613","0.48480269999709","0.373547800001688","1","1","1","1","1","1","1","1","1"
"260030","img/object_images/board01.jpg","img/object_images/video_game02.jpg","img/object_images/sink_filter01 (1).jpg","1","1","1","1","1","0","0.373547800001688","0.501875199959613","0.426231699995696","1","1","1","1","1","1","1","1","1"
"260030","img/object_images/sink_filter01 (1).jpg","img/object_images/board01.jpg","img/object_images/bag04.jpg","1","1","1","0","1","0","0.426231699995696","0.373547800001688","0.482700499938801","1","1","1","1","1","1","1","1","1"
"260030","img/object_images/bag04.jpg","img/object_images/sink_filter01 (1).jpg","img/object_images/socks01.jpg","1","1","1","0","0","1","0.482700499938801","0.426231699995696","0.406941199908033","1","1","1","1","1","1","1","1","1"
"260030","img/object_images/socks01.jpg","img/object_images/bag04.jpg","img/object_images/spray_can01.jpg","1","1","1","1","0","0","0.406941199908033","0.482700499938801","0.365065599908121","1","1","1","1","1","1","1","1","1"
"260030","img/object_images/spray_can01.jpg","img/object_images/socks01.jpg","img/object_images/pen06.jpg","1","1","1","0","1","0","0.365065599908121","0.406941199908033","0.418288600048982","1","1","1","1","1","1","1","1","1"
"260030","img/object_images/pen06.jpg","img/object_images/spray_can01.jpg","img/object_images/floss01.jpg","1","1","1","0","0","1","0.418288600048982","0.365065599908121","0.517571900039911","1","1","1","1","1","1","1","1","1"
"260030","img/object_images/floss01.jpg","img/object_images/pen06.jpg","img/object_images/tool20.jpg","1","1","1","1","0","0","0.517571900039911","0.418288600048982","0.410687500028871","1","1","1","1","1","1","1","1","1"
"260030","img/object_images/tool20.jpg","img/object_images/floss01.jpg","img/object_images/clipboard01.jpg","1","1","1","0","1","1","0.410687500028871","0.517571900039911","0.407227399991825","1","1","1","1","1","1","1","1","1"
"260030","img/object_images/clipboard01.jpg","img/object_images/tool20.jpg","img/object_images/camera05.jpg","1","1","1","1","0","0","0.407227399991825","0.410687500028871","0.427584100048989","1","1","1","1","1","1","1","1","1"
"260030","img/object_images/camera05.jpg","img/object_images/clipboard01.jpg","img/object_images/razor02.jpg","1","1","1","0","1","1","0.427584100048989","0.407227399991825","0.467078299960122","1","1","1","1","1","1","1","1","1"
"260030","img/object_images/razor02.jpg","img/object_images/camera05.jpg","img/object_images/sign02.jpg","1","1","0","1","0","0","0.467078299960122","0.427584100048989","0.460927299922332","1","1","1","1","1","1","1","1","1"
"260030","img/object_images/sign02.jpg","img/object_images/razor02.jpg","img/object_images/Confetti 01.jpg","0","1","1","0","1","0","0.460927299922332","0.467078299960122","0.424783500027843","1","1","1","1","1","1","1","1","1"
"260030","img/object_images/Confetti 01.jpg","img/object_images/sign02.jpg","img/object_images/dust_pan01.jpg","1","0","1","0","0","1","0.424783500027843","0.460927299922332","0.482341100112535","1","1","1","1","1","1","1","1","1"
"260030","img/object_images/dust_pan01.jpg","img/object_images/Confetti 01.jpg","img/object_images/Candle_Holder01.jpg","1","1","1","1","0","0","0.482341100112535","0.424783500027843","0.456427800003439","1","1","1","1","1","1","1","1","1"
"260030","img/object_images/Candle_Holder01.jpg","img/object_images/dust_pan01.jpg","img/object_images/knife01.jpg","1","1","1","0","1","1","0.456427800003439","0.482341100112535","0.444372300058603","1","1","1","1","1","1","1","1","1"
"260030","img/object_images/knife01.jpg","img/object_images/Candle_Holder01.jpg","img/object_images/glasses03.jpg","1","1","1","1","0","0","0.444372300058603","0.456427800003439","0.460405699908733","1","1","1","1","1","1","1","1","1"
"260030","img/object_images/glasses03.jpg","img/object_images/knife01.jpg","img/object_images/tool13.jpg","1","1","1","0","1","1","0.460405699908733","0.444372300058603","0.404159100027755","1","1","1","1","1","1","1","1","1"
"260030","img/object_images/tool13.jpg","img/object_images/glasses03.jpg","img/object_images/duster01.jpg","1","1","1","1","0","0","0.404159100027755","0.460405699908733","0.841901000007056","1","1","1","1","1","1","1","1","1"
"260030","img/object_images/duster01.jpg","img/object_images/tool13.jpg","img/object_images/cup01.jpg","1","1","0","0","1","0","0.841901000007056","0.404159100027755","0.593617600039579","1","1","1","1","1","1","1","1","1"
"260030","img/object_images/cup01.jpg","img/object_images/duster01.jpg","img/object_images/hammer02.jpg","0","1","1","0","0","0","0.593617600039579","0.841901000007056","0.451100799953565","1","1","1","1","1","1","1","1","1"
"260030","img/object_images/hammer02.jpg","img/object_images/cup01.jpg","img/object_images/hat09.jpg","1","0","1","0","0","0","0.451100799953565","0.593617600039579","0.423425899934955","1","1","1","1","1","1","1","1","1"
"260030","img/object_images/hat09.jpg","img/object_images/hammer02.jpg","img/object_images/office_supplies01.jpg","1","1","1","0","0","1","0.423425899934955","0.451100799953565","0.50338649994228","1","1","1","1","1","1","1","1","1"
"260030","img/object_images/office_supplies01.jpg","img/object_images/hat09.jpg","img/object_images/perfume01.jpg","1","1","1","1","0","0","0.50338649994228","0.423425899934955","0.385333399986848","1","1","1","1","1","1","1","1","1"
"260030","img/object_images/perfume01.jpg","img/object_images/office_supplies01.jpg","img/object_images/vase02.jpg","1","1","1","0","1","1","0.385333399986848","0.50338649994228","0.360618800041266","1","1","1","1","1","1","1","1","1"
"260030","img/object_images/vase02.jpg","img/object_images/perfume01.jpg","img/object_images/bow_tie03.jpg","1","1","1","1","0","1","0.360618800041266","0.385333399986848","0.452717900043353","1","1","1","1","1","1","1","1","1"
"260030","img/object_images/bow_tie03.jpg","img/object_images/vase02.jpg","img/object_images/hat13.jpg","1","1","1","1","1","1","0.452717900043353","0.360618800041266","0.443544200039469","1","1","1","1","1","1","1","1","1"
"260030","img/object_images/hat13.jpg","img/object_images/bow_tie03.jpg","img/object_images/candle02.jpg","1","1","1","1","1","0","0.443544200039469","0.452717900043353","0.471646099933423","1","1","1","1","1","1","1","1","1"
"260030","img/object_images/candle02.jpg","img/object_images/hat13.jpg",NA,"1","1",NA,"0","1",NA,"0.471646099933423","0.443544200039469",NA,"1","1",NA,"1","1",NA,"1","1",NA
