"participant_id","object","surpAcc","memory_surp_responses","memory_surp_rt","keep_surp_memory_trial_based_on_rt","surp_block_num","exclude_block","number_of_surp_resp_items_used","num_blocks_excluded"
"260038","img/object_images/matches02.jpg","0","k","3.14827419997891",1,1,0,2,0
"260038","img/object_images/Thermometer01.jpg","1","k","1.8009369999636",1,1,0,2,0
"260038","img/object_images/shower_head01.jpg","1","s","7.16786709998269",1,1,0,2,0
"260038","img/object_images/Traffic Sign 01.jpg","0","s","2.40461040002992",1,1,0,2,0
"260038","img/object_images/ruler02.jpg","0","k","2.51521370001137",1,1,0,2,0
"260038","img/object_images/toaster01.jpg","0","k","2.66912249999586",1,1,0,2,0
"260038","img/object_images/vase01.jpg","1","s","1.54279560002033",1,1,0,2,0
"260038","img/object_images/pen03.jpg","1","s","1.46965569996973",1,1,0,2,0
"260038","img/object_images/clip02.jpg","1","k","3.56861390004633",1,1,0,2,0
"260038","img/object_images/purse04.jpg","1","k","3.16355449997354",1,1,0,2,0
"260038","img/object_images/ornament01.jpg","0","k","1.37815869995393",1,1,0,2,0
"260038","img/object_images/Vest02.jpg","0","s","3.63346779998392",1,1,0,2,0
"260038","img/object_images/microphone03.jpg","0","s","1.20651219994761",1,1,0,2,0
"260038","img/object_images/guitar02.jpg","1","k","1.1990109999897",1,1,0,2,0
"260038","img/object_images/boat04.jpg","1","k","1.5173136999947",1,1,0,2,0
"260038","img/object_images/fan01.jpg","1","k","2.61303320003208",1,1,0,2,0
"260038","img/object_images/bow_tie03.jpg","1","s","1.05889790004585",1,1,0,2,0
"260038","img/object_images/crown02.jpg","1","s","0.948326100013219",1,1,0,2,0
"260038","img/object_images/WoodBox01.jpg","1","k","2.83581870002672",1,1,0,2,0
"260038","img/object_images/perfume02.jpg","1","s","1.73109449999174",1,1,0,2,0
"260038","img/object_images/razor01.jpg","1","k","1.23563849995844",1,1,0,2,0
"260038","img/object_images/mask01.jpg","1","k","3.68470079998951",1,1,0,2,0
"260038","img/object_images/key02.jpg","1","k","1.17681679996895",1,1,0,2,0
"260038","img/object_images/jewel04.jpg","1","k","1.34138349996647",1,1,0,2,0
"260038","img/object_images/accardion01.jpg","0","k","2.83559400000377",1,1,0,2,0
"260038","img/object_images/video_game02.jpg","1","k","1.33276120002847",1,1,0,2,0
"260038","img/object_images/dress03.jpg","0","s","1.97470540000359",1,1,0,2,0
"260038","img/object_images/ToolBag01.jpg","1","s","2.16861680004513",1,1,0,2,0
"260038","img/object_images/tv01.jpg","0","k","1.31236909999279",1,1,0,2,0
"260038","img/object_images/bird_house02.jpg","0","s","3.84276079997653",1,1,0,2,0
"260038","img/object_images/brief_case02.jpg","0","k","2.37505370000144",1,1,0,2,0
"260038","img/object_images/bow_tie01.jpg","1","s","1.13484020001488",1,1,0,2,0
"260038","img/object_images/knife04.jpg","0","k","2.31095380004263",1,1,0,2,0
"260038","img/object_images/scarf01.jpg","1","s","1.30977809999604",1,1,0,2,0
"260038","img/object_images/pitcher02.jpg","1","k","2.5411463000346",1,1,0,2,0
"260038","img/object_images/cellphone03.jpg","1","k","1.51239299995359",1,1,0,2,0
"260038","img/object_images/Lint_Roller02.jpg","1","k","1.92876139999134",1,1,0,2,0
"260038","img/object_images/knit05.jpg","1","k","1.1990334999864",1,1,0,2,0
"260038","img/object_images/pot01.jpg","1","s","2.64324710000074",1,1,0,2,0
"260038","img/object_images/sink01.jpg","0","s","4.77785440004664",1,1,0,2,0
"260038","img/object_images/hair_brush02.jpg","1","s","1.49076539999805",1,1,0,2,0
"260038","img/object_images/knife01.jpg","1","k","3.1945534000406",1,1,0,2,0
"260038","img/object_images/bottle05.jpg","1","s","1.06490050000139",1,1,0,2,0
"260038","img/object_images/flashlight03.jpg","1","s","2.43596410000464",1,1,0,2,0
"260038","img/object_images/knife02.jpg","1","s","1.4241447999957",1,1,0,2,0
"260038","img/object_images/book03.jpg","0","s","1.29862369998591",1,1,0,2,0
"260038","img/object_images/broom01.jpg","1","s","1.62814670003718",1,1,0,2,0
"260038","img/object_images/MetalWire01.jpg","1","k","2.50437219999731",1,1,0,2,0
"260038","img/object_images/note_book02.jpg","0","k","2.26975569996284",1,2,0,2,0
"260038","img/object_images/tripod01.jpg","1","s","3.9269688000204",1,2,0,2,0
"260038","img/object_images/ear_bud01.jpg","1","s","1.24208799999906",1,2,0,2,0
"260038","img/object_images/pitcher01.jpg","1","s","1.03739770001266",1,2,0,2,0
"260038","img/object_images/board01.jpg","1","k","2.48795360000804",1,2,0,2,0
"260038","img/object_images/backpack01.jpg","0","k","2.47581130004255",1,2,0,2,0
"260038","img/object_images/pen01.jpg","1","s","2.79615589999594",1,2,0,2,0
"260038","img/object_images/dice01.jpg","1","k","1.0006970000104",1,2,0,2,0
"260038","img/object_images/toothbrush01.jpg","0","s","4.45175179996295",1,2,0,2,0
"260038","img/object_images/bath_tub01.jpg","0","k","5.80983659997582",1,2,0,2,0
"260038","img/object_images/boat_toy10.jpg","1","k","2.06717799999751",1,2,0,2,0
"260038","img/object_images/projector01.jpg","0","s","3.09541160002118",1,2,0,2,0
"260038","img/object_images/helmet01.jpg","1","k","1.64049059996614",1,2,0,2,0
"260038","img/object_images/glasses03.jpg","0","s","1.97898849996272",1,2,0,2,0
"260038","img/object_images/soap01.jpg","1","s","2.65555389999645",1,2,0,2,0
"260038","img/object_images/hat13.jpg","0","k","3.83161890000338",1,2,0,2,0
"260038","img/object_images/Witchhat01.jpg","1","s","2.19116530002793",1,2,0,2,0
"260038","img/object_images/lemon_squeezer01.jpg","1","s","2.31422020000173",1,2,0,2,0
"260038","img/object_images/ironing_table01.jpg","0","k","3.69521279999754",1,2,0,2,0
"260038","img/object_images/airfryer01.jpg","1","k","2.37318740005139",1,2,0,2,0
"260038","img/object_images/vase02.jpg","1","s","1.73887280002236",1,2,0,2,0
"260038","img/object_images/microscope01.jpg","1","s","3.94712490000529",1,2,0,2,0
"260038","img/object_images/gauze01.jpg","0","k","1.72605450003175",1,2,0,2,0
"260038","img/object_images/clip04.jpg","1","k","2.1717494999757",1,2,0,2,0
"260038","img/object_images/gift_box02.jpg","1","s","1.10421670001233",1,2,0,2,0
"260038","img/object_images/surf_board01.jpg","1","s","2.21778439998161",1,2,0,2,0
"260038","img/object_images/tool11.jpg","0","s","0.965590600040741",1,2,0,2,0
"260038","img/object_images/trash_can05.jpg","1","k","1.66664719994878",1,2,0,2,0
"260038","img/object_images/WitchHat02.jpg","0","k","3.6473475000239",1,2,0,2,0
"260038","img/object_images/knit01.jpg","0","k","5.63347389997216",1,2,0,2,0
"260038","img/object_images/pen05.jpg","0","s","3.00384030002169",1,2,0,2,0
"260038","img/object_images/curtain02.jpg","1","s","2.56269539997447",1,2,0,2,0
"260038","img/object_images/tie02.jpg","1","s","1.766651599959",1,2,0,2,0
"260038","img/object_images/hammer03.jpg","1","k","1.4228848000057",1,2,0,2,0
"260038","img/object_images/crutches02.jpg","0","s","3.46871950000059",1,2,0,2,0
"260038","img/object_images/TreeSlice01.jpg","0","k","1.41405439999653",1,2,0,2,0
"260038","img/object_images/acoustic_capo01.jpg","0","s","1.82762659998843",1,2,0,2,0
"260038","img/object_images/robe01.jpg","0","k","1.34405950002838",1,2,0,2,0
"260038","img/object_images/mail_box02.jpg","1","k","4.15900169999804",1,2,0,2,0
"260038","img/object_images/hole_puncher01.jpg","0","k","2.39068169996608",1,2,0,2,0
"260038","img/object_images/wallet02.jpg","1","k","4.18800939997891",1,2,0,2,0
"260038","img/object_images/lemon_squeezer02.jpg","0","k","2.65332419995684",1,2,0,2,0
"260038","img/object_images/retainer01.jpg","1","s","2.58856300002662",1,2,0,2,0
"260038","img/object_images/tool07.jpg","0","k","4.20762050000485",1,2,0,2,0
"260038","img/object_images/ball02.jpg","1","s","2.65695109998342",1,2,0,2,0
"260038","img/object_images/ice_tray03.jpg","0","s","3.86393230000976",1,2,0,2,0
"260038","img/object_images/pan01.jpg","1","k","2.95245430001523",1,2,0,2,0
"260038","img/object_images/slinky_toy01.jpg","1","s","1.46992420003517",1,2,0,2,0
"260038","img/object_images/shovel01.jpg","1","s","1.92851759999758",1,3,0,2,0
"260038","img/object_images/dog_leash01.jpg","1","s","3.95366070000455",1,3,0,2,0
"260038","img/object_images/lock03.jpg","0","k","2.330253800028",1,3,0,2,0
"260038","img/object_images/yarn02.jpg","1","k","4.20842509996146",1,3,0,2,0
"260038","img/object_images/floppy_disk02.jpg","0","s","1.58181930001592",1,3,0,2,0
"260038","img/object_images/stereo02.jpg","1","s","1.46293029998196",1,3,0,2,0
"260038","img/object_images/combs01.jpg","1","s","1.84178959997371",1,3,0,2,0
"260038","img/object_images/toy01.jpg","1","k","1.57674280001083",1,3,0,2,0
"260038","img/object_images/sleeping_bag01.jpg","1","s","2.87452670000494",1,3,0,2,0
"260038","img/object_images/water_gun01.jpg","0","s","2.49708110000938",1,3,0,2,0
"260038","img/object_images/blender01.jpg","0","k","1.30918770004064",1,3,0,2,0
"260038","img/object_images/Violin01.jpg","0","s","1.75215329998173",1,3,0,2,0
"260038","img/object_images/MeasuringCup01.jpg","0","k","3.43118549999781",1,3,0,2,0
"260038","img/object_images/TrashCan02.jpg","0","k","3.10547700000461",1,3,0,2,0
"260038","img/object_images/clock02.jpg","1","k","1.3871190000209",1,3,0,2,0
"260038","img/object_images/kite01.jpg","1","k","2.688899700006",1,3,0,2,0
"260038","img/object_images/Tin01.jpg","0","s","1.63727770000696",1,3,0,2,0
"260038","img/object_images/camera05.jpg","1","s","2.49073239997961",1,3,0,2,0
"260038","img/object_images/sink_filter01 (1).jpg","1","s","4.56798069999786",1,3,0,2,0
"260038","img/object_images/hoverboard01.jpg","1","k","1.15115059999516",1,3,0,2,0
"260038","img/object_images/jewelry01.jpg","1","k","1.38881840003887",1,3,0,2,0
"260038","img/object_images/bottle02.jpg","1","s","3.43475339998258",1,3,0,2,0
"260038","img/object_images/fan04.jpg","1","k","3.90751509997062",1,3,0,2,0
"260038","img/object_images/origami01.jpg","1","s","1.58369639999",1,3,0,2,0
"260038","img/object_images/bucket02.jpg","0","k","1.3818820999586",1,3,0,2,0
"260038","img/object_images/exfoliater_brush01.jpg","1","s","1.20058859995333",1,3,0,2,0
"260038","img/object_images/basket02.jpg","1","k","2.37344330002088",1,3,0,2,0
"260038","img/object_images/toy_train02.jpg","1","s","1.15000790002523",1,3,0,2,0
"260038","img/object_images/trumpet01.jpg","1","k","2.8903443000163",1,3,0,2,0
"260038","img/object_images/backpack03.jpg","0","s","2.31751730001997",1,3,0,2,0
"260038","img/object_images/tool08.jpg","0","s","5.3989446000196",1,3,0,2,0
"260038","img/object_images/video_game06.jpg","1","s","1.63267979997909",1,3,0,2,0
"260038","img/object_images/Candle_Holder01.jpg","1","s","2.31445509998593",1,3,0,2,0
"260038","img/object_images/bag04.jpg","1","k","2.69742689997656",1,3,0,2,0
"260038","img/object_images/gloves05.jpg","0","k","1.19594309997046",1,3,0,2,0
"260038","img/object_images/bottle12.jpg","1","k","3.37993240001379",1,3,0,2,0
"260038","img/object_images/tool02.jpg","1","s","1.20260849996703",1,3,0,2,0
"260038","img/object_images/book02.jpg","0","k","1.55510879994836",1,3,0,2,0
"260038","img/object_images/note_book01.jpg","0","k","3.73130559996935",1,3,0,2,0
"260038","img/object_images/audio_port01.jpg","0","k","3.04821710003307",1,3,0,2,0
"260038","img/object_images/book01.jpg","0","k","1.86425189999864",1,3,0,2,0
"260038","img/object_images/candle02.jpg","0","s","1.06294610002078",1,3,0,2,0
"260038","img/object_images/toy08.jpg","1","k","1.80367349996231",1,3,0,2,0
"260038","img/object_images/Ring02.jpg","1","s","2.24613480002154",1,3,0,2,0
"260038","img/object_images/bookmark01.jpg","1","k","1.38580649998039",1,3,0,2,0
"260038","img/object_images/computer_mouse01.jpg","0","k","1.90824449999491",1,3,0,2,0
"260038","img/object_images/spatula02.jpg","1","s","1.64527320000343",1,3,0,2,0
"260038","img/object_images/toy03.jpg","0","k","3.00686099997256",1,3,0,2,0
"260038","img/object_images/video_game07.jpg","0","s","3.33307769999374",1,4,0,2,0
"260038","img/object_images/piggy_bank01.jpg","1","s","0.744992399995681",1,4,0,2,0
"260038","img/object_images/bag_pipes01.jpg","0","s","2.91355530003784",1,4,0,2,0
"260038","img/object_images/bean_bag02.jpg","0","s","1.97919259994524",1,4,0,2,0
"260038","img/object_images/water_scooter01.jpg","0","k","2.52963949996047",1,4,0,2,0
"260038","img/object_images/speaker01.jpg","0","k","2.26772589999018",1,4,0,2,0
"260038","img/object_images/Staples01.jpg","0","k","3.58162189996801",1,4,0,2,0
"260038","img/object_images/guitar01.jpg","0","s","1.97554049995961",1,4,0,2,0
"260038","img/object_images/hammer01.jpg","1","s","2.73740280000493",1,4,0,2,0
"260038","img/object_images/ball01.jpg","1","s","1.63309070002288",1,4,0,2,0
"260038","img/object_images/bottle01.jpg","1","k","1.24618590000318",1,4,0,2,0
"260038","img/object_images/motorcycle01.jpg","1","s","1.62936739996076",1,4,0,2,0
"260038","img/object_images/chess_piece02.jpg","0","s","1.8137687999988",1,4,0,2,0
"260038","img/object_images/lighter01.jpg","1","k","1.92412149999291",1,4,0,2,0
"260038","img/object_images/cards01.jpg","1","s","2.01527059997898",1,4,0,2,0
"260038","img/object_images/couch03.jpg","0","k","2.09502619999694",1,4,0,2,0
"260038","img/object_images/usb03.jpg","0","k","2.35817790002329",1,4,0,2,0
"260038","img/object_images/brief_case01.jpg","1","k","1.22099129995331",1,4,0,2,0
"260038","img/object_images/judge_gavel01.jpg","0","s","0.773435000039171",1,4,0,2,0
"260038","img/object_images/bottle09.jpg","1","s","1.78548740001861",1,4,0,2,0
"260038","img/object_images/hair_brush05.jpg","1","s","1.82656259997748",1,4,0,2,0
"260038","img/object_images/jacket04.jpg","1","s","2.44292530004168",1,4,0,2,0
"260038","img/object_images/knit03.jpg","1","k","1.60803870001109",1,4,0,2,0
"260038","img/object_images/basket04.jpg","0","k","1.53513160004513",1,4,0,2,0
"260038","img/object_images/egg_slicer01.jpg","1","s","2.05478959996253",1,4,0,2,0
"260038","img/object_images/chain01.jpg","1","s","0.937509400013369",1,4,0,2,0
"260038","img/object_images/tool18.jpg","1","s","1.52021210000385",1,4,0,2,0
"260038","img/object_images/container01.jpg","1","k","3.1037771999836",1,4,0,2,0
"260038","img/object_images/flask01.jpg","1","s","2.58944689994678",1,4,0,2,0
"260038","img/object_images/Trowel01.jpg","1","k","1.16436890000477",1,4,0,2,0
"260038","img/object_images/chair05.jpg","1","k","4.17819649999728",1,4,0,2,0
"260038","img/object_images/handcuffs01.jpg","1","s","1.80818140000338",1,4,0,2,0
"260038","img/object_images/Woopie01.jpg","1","s","0.988060800009407",1,4,0,2,0
"260038","img/object_images/colander01.jpg","1","k","1.81833209999604",1,4,0,2,0
"260038","img/object_images/chair02.jpg","0","s","1.3107805000036",1,4,0,2,0
"260038","img/object_images/pitcher05.jpg","0","k","3.33605490002083",1,4,0,2,0
"260038","img/object_images/jewel02.jpg","0","s","1.37746909999987",1,4,0,2,0
"260038","img/object_images/hat02.jpg","1","k","1.21813130000373",1,4,0,2,0
"260038","img/object_images/mirror01.jpg","0","s","2.7822967999964",1,4,0,2,0
"260038","img/object_images/lamp01.jpg","1","k","2.91872390004573",1,4,0,2,0
"260038","img/object_images/Wisk01.jpg","1","s","3.2858556000283",1,4,0,2,0
"260038","img/object_images/bow01.jpg","1","s","2.07721079996554",1,4,0,2,0
"260038","img/object_images/Statue01.jpg","1","s","1.1915369000053",1,4,0,2,0
"260038","img/object_images/joystick03.jpg","1","k","1.36588669999037",1,4,0,2,0
"260038","img/object_images/bicycle_lock01.jpg","1","k","4.58508339995751",1,4,0,2,0
"260038","img/object_images/yo_yo01.jpg","0","s","2.87940570001956",1,4,0,2,0
"260038","img/object_images/Pottery01.jpg","1","s","0.999369199969806",1,4,0,2,0
"260038","img/object_images/golf_ball03.jpg","1","k","2.42770310002379",1,4,0,2,0
"260038","img/object_images/Kitchen_Towel.jpg","0","s","2.07509319996461",1,5,0,2,0
"260038","img/object_images/car04.jpg","0","s","1.20743509999011",1,5,0,2,0
"260038","img/object_images/lock01.jpg","0","k","1.21582520002266",1,5,0,2,0
"260038","img/object_images/badminton01.jpg","0","k","2.58312749996549",1,5,0,2,0
"260038","img/object_images/helmet05.jpg","0","s","1.4761118000024",1,5,0,2,0
"260038","img/object_images/razor02.jpg","1","s","1.55691759998444",1,5,0,2,0
"260038","img/object_images/paint_brush04.jpg","1","k","1.21445060003316",1,5,0,2,0
"260038","img/object_images/helmet03.jpg","1","k","2.89258059998974",1,5,0,2,0
"260038","img/object_images/hammer02.jpg","1","k","2.96293079998577",1,5,0,2,0
"260038","img/object_images/coloring_pencil01.jpg","1","k","3.17902159999358",1,5,0,2,0
"260038","img/object_images/binoculars03.jpg","1","s","1.3236788000213",1,5,0,2,0
"260038","img/object_images/faucet01.jpg","1","s","1.87429479998536",1,5,0,2,0
"260038","img/object_images/office_supplies01.jpg","0","s","1.7658047999721",1,5,0,2,0
"260038","img/object_images/clip03.jpg","0","k","1.47725279995939",1,5,0,2,0
"260038","img/object_images/grater01.jpg","0","s","2.46515030000592",1,5,0,2,0
"260038","img/object_images/bottle10.jpg","0","k","1.22916879999684",1,5,0,2,0
"260038","img/object_images/video_game01.jpg","1","s","1.3448390000267",1,5,0,2,0
"260038","img/object_images/fan05.jpg","1","s","3.81045739998808",1,5,0,2,0
"260038","img/object_images/sign02.jpg","0","k","1.98483669996494",1,5,0,2,0
"260038","img/object_images/lawn_mower01.jpg","1","k","2.03409849997843",1,5,0,2,0
"260038","img/object_images/socks02.jpg","0","s","1.39794779999647",1,5,0,2,0
"260038","img/object_images/jewelry09.jpg","1","k","1.30443269998068",1,5,0,2,0
"260038","img/object_images/tie01.jpg","1","s","1.12289830000373",1,5,0,2,0
"260038","img/object_images/pitcher09.jpg","1","k","1.33126379997702",1,5,0,2,0
"260038","img/object_images/camera07.jpg","1","s","1.37244710000232",1,5,0,2,0
"260038","img/object_images/couch04.jpg","0","k","2.13586020004004",1,5,0,2,0
"260038","img/object_images/lid01.jpg","1","k","1.19843529997161",1,5,0,2,0
"260038","img/object_images/headset02.jpg","0","k","2.42771139997058",1,5,0,2,0
"260038","img/object_images/balloon01.jpg","1","s","1.50337769999169",1,5,0,2,0
"260038","img/object_images/socks01.jpg","1","s","2.06689529999858",1,5,0,2,0
"260038","img/object_images/bow_tie02.jpg","1","k","1.53150440001627",1,5,0,2,0
"260038","img/object_images/bag06.jpg","1","k","2.40198060002876",1,5,0,2,0
"260038","img/object_images/phone02.jpg","1","s","2.4958031999995",1,5,0,2,0
"260038","img/object_images/lock04.jpg","0","k","3.40615759999491",1,5,0,2,0
"260038","img/object_images/pitcher03.jpg","1","s","1.23867590003647",1,5,0,2,0
"260038","img/object_images/dresser03.jpg","0","k","1.47230299998773",1,5,0,2,0
"260038","img/object_images/laptop01.jpg","0","k","3.44166850001784",1,5,0,2,0
"260038","img/object_images/bell03.jpg","1","s","2.57258320000255",1,5,0,2,0
"260038","img/object_images/shoes10.jpg","1","k","1.48751810000977",1,5,0,2,0
"260038","img/object_images/tool13.jpg","0","s","1.14492320001591",1,5,0,2,0
"260038","img/object_images/Vacuum01.jpg","1","k","1.17299549997551",1,5,0,2,0
"260038","img/object_images/tennis_racket01.jpg","1","k","2.0189767999691",1,5,0,2,0
"260038","img/object_images/toy04.jpg","1","s","1.75263479998102",1,5,0,2,0
"260038","img/object_images/jewel01.jpg","1","s","1.52315959997941",1,5,0,2,0
"260038","img/object_images/vga_port 01.jpg","1","s","1.99393570004031",1,5,0,2,0
"260038","img/object_images/coloring_pencil02.jpg","1","k","1.75090390001424",1,5,0,2,0
"260038","img/object_images/shoes08.jpg","0","s","2.09206240001367",1,5,0,2,0
"260038","img/object_images/watch01.jpg","0","s","2.06814300001133",1,5,0,2,0
"260038","img/object_images/soap03.jpg","1","s","1.50955640000757",1,6,0,2,0
"260038","img/object_images/trash_can03.jpg","1","s","1.97035829996457",1,6,0,2,0
"260038","img/object_images/hand_grip_exerciser01.jpg","0","k","1.20469549996778",1,6,0,2,0
"260038","img/object_images/shower_head03.jpg","0","s","0.930373900046106",1,6,0,2,0
"260038","img/object_images/shoes07.jpg","0","s","1.82257759995991",1,6,0,2,0
"260038","img/object_images/umbrella01.jpg","1","k","1.07567499997094",1,6,0,2,0
"260038","img/object_images/tool06.jpg","1","k","2.62945799995214",1,6,0,2,0
"260038","img/object_images/remote_controller01.jpg","1","s","2.07528210000601",1,6,0,2,0
"260038","img/object_images/blender02.jpg","0","k","2.28355280001415",1,6,0,2,0
"260038","img/object_images/belt01.jpg","1","k","1.23103480000282",1,6,0,2,0
"260038","img/object_images/glasses07.jpg","1","k","2.10143769998103",1,6,0,2,0
"260038","img/object_images/toaster02.jpg","1","k","1.69949839997571",1,6,0,2,0
"260038","img/object_images/keyboard02.jpg","1","k","1.55528269999195",1,6,0,2,0
"260038","img/object_images/hair_dryer01.jpg","0","s","1.71079409995582",1,6,0,2,0
"260038","img/object_images/rock02.jpg","1","s","1.67665199999465",1,6,0,2,0
"260038","img/object_images/shoes12.jpg","0","s","1.54108180000912",1,6,0,2,0
"260038","img/object_images/fork02.jpg","1","k","1.44352049997542",1,6,0,2,0
"260038","img/object_images/cutting_board01.jpg","1","k","1.08836260001408",1,6,0,2,0
"260038","img/object_images/paper_cup01.jpg","0","s","0.851821699994616",1,6,0,2,0
"260038","img/object_images/hair_brush01.jpg","0","s","2.59841870004311",1,6,0,2,0
"260038","img/object_images/tray01.jpg","0","s","3.17589130002307",1,6,0,2,0
"260038","img/object_images/chair04.jpg","1","k","1.31648870004574",1,6,0,2,0
"260038","img/object_images/gift_box05.jpg","1","k","1.2886580999475",1,6,0,2,0
"260038","img/object_images/toy05.jpg","1","k","2.2673375000013",1,6,0,2,0
"260038","img/object_images/Sprayer01.jpg","0","s","3.53924760001246",1,6,0,2,0
"260038","img/object_images/scale02.jpg","1","k","1.80657399998745",1,6,0,2,0
"260038","img/object_images/cup03.jpg","0","s","1.44945109996479",1,6,0,2,0
"260038","img/object_images/purse01.jpg","1","s","1.52760689996649",1,6,0,2,0
"260038","img/object_images/tool19.jpg","0","k","1.40230319998227",1,6,0,2,0
"260038","img/object_images/jewel03.jpg","1","k","1.47365060000448",1,6,0,2,0
"260038","img/object_images/bucket01.jpg","0","s","1.14111389999744",1,6,0,2,0
"260038","img/object_images/perfume01.jpg","1","k","1.36976819997653",1,6,0,2,0
"260038","img/object_images/usb02.jpg","0","k","2.06689919997007",1,6,0,2,0
"260038","img/object_images/funnel01.jpg","1","s","2.15148679999402",1,6,0,2,0
"260038","img/object_images/piano03.jpg","1","s","2.09740219998639",1,6,0,2,0
"260038","img/object_images/computer_mouse02.jpg","1","s","0.984469300019555",1,6,0,2,0
"260038","img/object_images/hot_air_balloon02.jpg","1","k","1.28359419998014",1,6,0,2,0
"260038","img/object_images/jewelry07.jpg","1","k","1.25834350002697",1,6,0,2,0
"260038","img/object_images/ribbon01.jpg","1","k","2.51946119999047",1,6,0,2,0
"260038","img/object_images/car02.jpg","1","k","2.56196039996576",1,6,0,2,0
"260038","img/object_images/fridge03.jpg","1","s","1.73512510000728",1,6,0,2,0
"260038","img/object_images/camera_lens01.jpg","1","s","2.14854920003563",1,6,0,2,0
"260038","img/object_images/drone02.jpg","0","s","1.65703130001202",1,6,0,2,0
"260038","img/object_images/pitcher07.jpg","1","s","1.59634439996444",1,6,0,2,0
"260038","img/object_images/ironing_table02.jpg","1","k","2.33402779995231",1,6,0,2,0
"260038","img/object_images/spray_can01.jpg","0","s","2.56068559997948",1,6,0,2,0
"260038","img/object_images/Eyeliner01.jpg","0","k","1.45287109998753",1,6,0,2,0
"260038","img/object_images/paper_cup02.jpg","1","k","1.01706480002031",1,6,0,2,0
"260038","img/object_images/pen06.jpg","1","s","1.20314110000618",1,7,0,2,0
"260038","img/object_images/fan02.jpg","1","k","5.52610309998272",1,7,0,2,0
"260038","img/object_images/razor03.jpg","0","k","2.83381199999712",1,7,0,2,0
"260038","img/object_images/mail_box01.jpg","0","k","1.73103389999596",1,7,0,2,0
"260038","img/object_images/floss02.jpg","0","s","1.42168919998221",1,7,0,2,0
"260038","img/object_images/cochlear_implant01.jpg","0","s","1.7776920000324",1,7,0,2,0
"260038","img/object_images/car01.jpg","1","s","1.35737340000924",1,7,0,2,0
"260038","img/object_images/Stool01.jpg","0","k","1.02239709999412",1,7,0,2,0
"260038","img/object_images/wire02.jpg","0","k","2.64136239996878",1,7,0,2,0
"260038","img/object_images/compass01.jpg","0","s","2.15378539997619",1,7,0,2,0
"260038","img/object_images/ring03.jpg","1","s","1.27707369998097",1,7,0,2,0
"260038","img/object_images/rock03.jpg","1","s","1.75461240002187",1,7,0,2,0
"260038","img/object_images/towel02.jpg","1","k","2.31616079999367",1,7,0,2,0
"260038","img/object_images/box03.jpg","0","k","1.33481899998151",1,7,0,2,0
"260038","img/object_images/towels01.jpg","1","k","2.53102510003373",1,7,0,2,0
"260038","img/object_images/frame01.jpg","1","k","2.12922140001319",1,7,0,2,0
"260038","img/object_images/bicycle01.jpg","0","s","2.11648629995761",1,7,0,2,0
"260038","img/object_images/stove01.jpg","1","k","1.10165080003208",1,7,0,2,0
"260038","img/object_images/Oven01.jpg","0","k","2.15216539998073",1,7,0,2,0
"260038","img/object_images/remover01.jpg","0","s","2.09908939996967",1,7,0,2,0
"260038","img/object_images/outlet01.jpg","0","s","1.35339599999133",1,7,0,2,0
"260038","img/object_images/car03.jpg","0","k","2.21763440000359",1,7,0,2,0
"260038","img/object_images/screwdriver01.jpg","1","s","1.39785619999748",1,7,0,2,0
"260038","img/object_images/clipboard01.jpg","1","s","0.915452499990352",1,7,0,2,0
"260038","img/object_images/boat02.jpg","0","s","3.06446099997265",1,7,0,2,0
"260038","img/object_images/tv02.jpg","0","k","1.30204500001855",1,7,0,2,0
"260038","img/object_images/handkerchief01.jpg","1","s","0.947568800009321",1,7,0,2,0
"260038","img/object_images/stapler.jpg","1","s","1.21658939996269",1,7,0,2,0
"260038","img/object_images/hat09.jpg","1","s","1.99433709995355",1,7,0,2,0
"260038","img/object_images/hair_clips01.jpg","1","k","1.51734230003785",1,7,0,2,0
"260038","img/object_images/chair03.jpg","0","k","1.76649470004486",1,7,0,2,0
"260038","img/object_images/video_game03.jpg","0","s","2.36178360000486",1,7,0,2,0
"260038","img/object_images/glasses06.jpg","1","s","1.40889399999287",1,7,0,2,0
"260038","img/object_images/fork03.jpg","1","k","1.61349129996961",1,7,0,2,0
"260038","img/object_images/decorative02.jpg","0","s","1.9983694999828",1,7,0,2,0
"260038","img/object_images/camera03.jpg","0","s","2.31943989999127",1,7,0,2,0
"260038","img/object_images/basketball_hoop02.jpg","1","s","1.715856899973",1,7,0,2,0
"260038","img/object_images/yoga_mat01.jpg","1","k","1.37836209998932",1,7,0,2,0
"260038","img/object_images/tennis_racket02.jpg","1","s","1.86757000000216",1,7,0,2,0
"260038","img/object_images/chair06.jpg","1","k","1.3842888000072",1,7,0,2,0
"260038","img/object_images/duster01.jpg","0","k","1.61462349997601",1,7,0,2,0
"260038","img/object_images/bell02.jpg","0","k","1.29339290002827",1,7,0,2,0
"260038","img/object_images/jacket03.jpg","1","s","2.09293470002012",1,7,0,2,0
"260038","img/object_images/Confetti 01.jpg","1","s","2.67237789998762",1,7,0,2,0
"260038","img/object_images/bottle06.jpg","1","s","1.76087930001086",1,7,0,2,0
"260038","img/object_images/gloves02.jpg","1","s","1.6277940000291",1,7,0,2,0
"260038","img/object_images/measuring_tape02.jpg","1","s","1.36544209998101",1,7,0,2,0
"260038","img/object_images/cup01.jpg","1","k","1.87110330001451",1,7,0,2,0
"260038","img/object_images/calculator01.jpg","0","s","1.72336010000436",1,8,0,2,0
"260038","img/object_images/bottle07.jpg","1","k","1.94044630002463",1,8,0,2,0
"260038","img/object_images/belt03.jpg","1","k","1.36718790000305",1,8,0,2,0
"260038","img/object_images/lantern01.jpg","0","s","1.39465979998931",1,8,0,2,0
"260038","img/object_images/shovel03.jpg","0","k","2.54317989997799",1,8,0,2,0
"260038","img/object_images/Recycling01.jpg","1","k","2.69425639999099",1,8,0,2,0
"260038","img/object_images/knit04.jpg","1","k","1.4681036999682",1,8,0,2,0
"260038","img/object_images/dart01.jpg","1","s","1.2812544000335",1,8,0,2,0
"260038","img/object_images/tool20.jpg","0","s","1.4216190999723",1,8,0,2,0
"260038","img/object_images/toilet_paper01.jpg","0","s","1.56372179999016",1,8,0,2,0
"260038","img/object_images/airfryer02.jpg","1","k","1.10721079999348",1,8,0,2,0
"260038","img/object_images/toilet_paper_dispenser01.jpg","0","s","1.50534600001993",1,8,0,2,0
"260038","img/object_images/dresser04.jpg","1","s","1.45225560001563",1,8,0,2,0
"260038","img/object_images/skate_board01.jpg","0","s","3.69219039997552",1,8,0,2,0
"260038","img/object_images/couch01.jpg","1","s","1.23058850003872",1,8,0,2,0
"260038","img/object_images/phone04.jpg","1","k","1.11629600002198",1,8,0,2,0
"260038","img/object_images/Screws01.jpg","0","k","2.1127435999806",1,8,0,2,0
"260038","img/object_images/floppy_disk03.jpg","0","k","1.37967629998457",1,8,0,2,0
"260038","img/object_images/nut_cracker01.jpg","1","k","1.04204219998792",1,8,0,2,0
"260038","img/object_images/dust_pan01.jpg","0","s","0.886817699996755",1,8,0,2,0
"260038","img/object_images/chess_piece01.jpg","1","s","1.11475130001782",1,8,0,2,0
"260038","img/object_images/wagon_cart03.jpg","0","s","1.20085060002748",1,8,0,2,0
"260038","img/object_images/ladle02.jpg","1","k","1.19370050000725",1,8,0,2,0
"260038","img/object_images/scoreboard01.jpg","0","s","1.62818830000469",1,8,0,2,0
"260038","img/object_images/satellite01.jpg","0","k","2.14191339997342",1,8,0,2,0
"260038","img/object_images/laptop03.jpg","1","s","1.43898540001828",1,8,0,2,0
"260038","img/object_images/cellphone02.jpg","0","k","1.44634060002863",1,8,0,2,0
"260038","img/object_images/blanket01.jpg","0","k","1.15423290000763",1,8,0,2,0
"260038","img/object_images/sponge03.jpg","1","k","1.38800679997075",1,8,0,2,0
"260038","img/object_images/pan03.jpg","1","s","1.54849319998175",1,8,0,2,0
"260038","img/object_images/helmet04.jpg","1","k","1.69167319999542",1,8,0,2,0
"260038","img/object_images/fire_extinguisher01.jpg","0","s","2.04339880001498",1,8,0,2,0
"260038","img/object_images/cellphone01.jpg","0","s","1.80218120000791",1,8,0,2,0
"260038","img/object_images/gift_box04.jpg","1","s","1.5884544000146",1,8,0,2,0
"260038","img/object_images/drone01.jpg","1","k","1.1232791999937",1,8,0,2,0
"260038","img/object_images/pillows01.jpg","1","k","2.04893609997816",1,8,0,2,0
"260038","img/object_images/Safe01.jpg","1","s","1.4515869000461",1,8,0,2,0
"260038","img/object_images/egg_basket01.jpg","1","s","1.2081147999852",1,8,0,2,0
"260038","img/object_images/chair01.jpg","1","k","2.57596029998967",1,8,0,2,0
"260038","img/object_images/floss01.jpg","0","s","1.65080160001526",1,8,0,2,0
"260038","img/object_images/tool09.jpg","0","k","1.23370580002666",1,8,0,2,0
"260038","img/object_images/frisbee01.jpg","1","k","0.978410099982284",1,8,0,2,0
"260038","img/object_images/Shoes05.jpg","0","s","1.19526389997918",1,8,0,2,0
"260038","img/object_images/gift_box03.jpg","0","s","1.82316720002564",1,8,0,2,0
"260038","img/object_images/hat06.jpg","0","s","1.70527619996574",1,8,0,2,0
"260038","img/object_images/gift_box01.jpg","1","s","1.82654979999643",1,8,0,2,0
"260038","img/object_images/helmet02.jpg","0","k","1.42607109999517",1,8,0,2,0
"260038","img/object_images/pot01 (1).jpg","1","k","1.67169849999482",1,8,0,2,0
