"participant_id","object","surpAcc","memory_surp_responses","memory_surp_rt","keep_surp_memory_trial_based_on_rt","surp_block_num","exclude_block","number_of_surp_resp_items_used","num_blocks_excluded"
"260016","img/object_images/WoodBox01.jpg","0","s","4.3422675000038",1,1,0,2,0
"260016","img/object_images/ToolBag01.jpg","0","k","1.89526779996231",1,1,0,2,0
"260016","img/object_images/cellphone03.jpg","0","k","1.20163820002927",1,1,0,2,0
"260016","img/object_images/matches02.jpg","1","s","1.18072119995486",1,1,0,2,0
"260016","img/object_images/perfume02.jpg","1","k","2.37022939999588",1,1,0,2,0
"260016","img/object_images/razor01.jpg","1","k","2.04675420001149",1,1,0,2,0
"260016","img/object_images/toaster01.jpg","0","s","1.609905899968",1,1,0,2,0
"260016","img/object_images/dress03.jpg","1","s","1.33765150001273",1,1,0,2,0
"260016","img/object_images/brief_case02.jpg","0","s","1.54447160003474",1,1,0,2,0
"260016","img/object_images/accardion01.jpg","1","k","1.08729589998256",1,1,0,2,0
"260016","img/object_images/video_game02.jpg","0","s","1.63238419999834",1,1,0,2,0
"260016","img/object_images/MetalWire01.jpg","0","k","1.55714440002339",1,1,0,2,0
"260016","img/object_images/pen03.jpg","1","s","1.06480509997346",1,1,0,2,0
"260016","img/object_images/mask01.jpg","1","s","0.91518739995081",1,1,0,2,0
"260016","img/object_images/Vest02.jpg","0","s","2.57368909998331",1,1,0,2,0
"260016","img/object_images/scarf01.jpg","1","k","1.47000520001166",1,1,0,2,0
"260016","img/object_images/sink01.jpg","0","s","2.31612400000449",1,1,0,2,0
"260016","img/object_images/jewel04.jpg","0","s","1.8066660000477",1,1,0,2,0
"260016","img/object_images/crown02.jpg","1","s","0.895156799990218",1,1,0,2,0
"260016","img/object_images/hair_brush02.jpg","1","s","1.32738319999771",1,1,0,2,0
"260016","img/object_images/pitcher02.jpg","1","s","1.03776620002463",1,1,0,2,0
"260016","img/object_images/clip02.jpg","0","s","1.56186590000289",1,1,0,2,0
"260016","img/object_images/ruler02.jpg","0","s","1.73839700000826",1,1,0,2,0
"260016","img/object_images/purse04.jpg","1","k","0.907508000032976",1,1,0,2,0
"260016","img/object_images/bow_tie03.jpg","1","s","1.54116649995558",1,1,0,2,0
"260016","img/object_images/fan01.jpg","0","s","1.06587470002705",1,1,0,2,0
"260016","img/object_images/Thermometer01.jpg","1","k","1.10241559997667",1,1,0,2,0
"260016","img/object_images/knit05.jpg","0","s","1.08910799998557",1,1,0,2,0
"260016","img/object_images/pot01.jpg","0","s","1.41822789999424",1,1,0,2,0
"260016","img/object_images/Traffic Sign 01.jpg","0","k","1.10337969998363",1,1,0,2,0
"260016","img/object_images/knife01.jpg","1","s","3.37879339995561",1,1,0,2,0
"260016","img/object_images/Lint_Roller02.jpg","0","s","3.4227613999974",1,1,0,2,0
"260016","img/object_images/key02.jpg","1","s","1.43146190000698",1,1,0,2,0
"260016","img/object_images/vase01.jpg","1","s","1.01886609999929",1,1,0,2,0
"260016","img/object_images/bottle05.jpg","1","k","2.7825206000125",1,1,0,2,0
"260016","img/object_images/flashlight03.jpg","0","k","3.17494299996179",1,1,0,2,0
"260016","img/object_images/knife04.jpg","0","k","6.75809600000503",1,1,0,2,0
"260016","img/object_images/microphone03.jpg","1","s","1.22154410002986",1,1,0,2,0
"260016","img/object_images/knife02.jpg","0","s","1.21968640002888",1,1,0,2,0
"260016","img/object_images/bird_house02.jpg","1","s","1.66590530000394",1,1,0,2,0
"260016","img/object_images/ornament01.jpg","1","k","1.61896880000131",1,1,0,2,0
"260016","img/object_images/broom01.jpg","1","k","1.12118139996892",1,1,0,2,0
"260016","img/object_images/boat04.jpg","0","s","2.51189369999338",1,1,0,2,0
"260016","img/object_images/book03.jpg","0","k","2.10617089999141",1,1,0,2,0
"260016","img/object_images/tv01.jpg","0","k","1.93361559999175",1,1,0,2,0
"260016","img/object_images/shower_head01.jpg","0","s","1.41215160000138",1,1,0,2,0
"260016","img/object_images/bow_tie01.jpg","0","k","0.917307700030506",1,1,0,2,0
"260016","img/object_images/guitar02.jpg","1","s","1.25461350003025",1,1,0,2,0
"260016","img/object_images/trash_can05.jpg","1","s","5.06681370001752",1,2,0,2,0
"260016","img/object_images/soap01.jpg","1","s","3.9518720000051",1,2,0,2,0
"260016","img/object_images/ear_bud01.jpg","0","k","1.46721459995024",1,2,0,2,0
"260016","img/object_images/mail_box02.jpg","1","s","2.08253309997963",1,2,0,2,0
"260016","img/object_images/ironing_table01.jpg","1","s","1.2944267000421",1,2,0,2,0
"260016","img/object_images/Witchhat01.jpg","0","s","1.70009190001292",1,2,0,2,0
"260016","img/object_images/WitchHat02.jpg","0","s","1.40389800001867",1,2,0,2,0
"260016","img/object_images/tripod01.jpg","0","k","1.8245481000049",1,2,0,2,0
"260016","img/object_images/clip04.jpg","1","s","4.28298419999192",1,2,0,2,0
"260016","img/object_images/lemon_squeezer02.jpg","1","k","1.81929650000529",1,2,0,2,0
"260016","img/object_images/retainer01.jpg","0","k","6.41427470004419",1,2,0,2,0
"260016","img/object_images/tool07.jpg","1","s","1.73533029999817",1,2,0,2,0
"260016","img/object_images/airfryer01.jpg","0","k","1.81539830000838",1,2,0,2,0
"260016","img/object_images/boat_toy10.jpg","1","s","1.1891428999952",1,2,0,2,0
"260016","img/object_images/microscope01.jpg","0","k","3.45325479999883",1,2,0,2,0
"260016","img/object_images/hole_puncher01.jpg","1","k","2.23575300001539",1,2,0,2,0
"260016","img/object_images/pen05.jpg","0","s","1.48177989997203",1,2,0,2,0
"260016","img/object_images/tool11.jpg","1","s","1.88797929999419",1,2,0,2,0
"260016","img/object_images/bath_tub01.jpg","0","s","1.42962519999128",1,2,0,2,0
"260016","img/object_images/pitcher01.jpg","1","s","1.84549380000681",1,2,0,2,0
"260016","img/object_images/lemon_squeezer01.jpg","0","k","1.14110090001486",1,2,0,2,0
"260016","img/object_images/toothbrush01.jpg","1","k","1.1404589000158",1,2,0,2,0
"260016","img/object_images/pan01.jpg","1","k","2.36663580004824",1,2,0,2,0
"260016","img/object_images/gift_box02.jpg","1","k","1.8907611000468",1,2,0,2,0
"260016","img/object_images/acoustic_capo01.jpg","1","k","2.92035299999407",1,2,0,2,0
"260016","img/object_images/hat13.jpg","1","k","4.76478430000134",1,2,0,2,0
"260016","img/object_images/note_book02.jpg","1","s","2.21459940000204",1,2,0,2,0
"260016","img/object_images/TreeSlice01.jpg","0","s","2.2186376999598",1,2,0,2,0
"260016","img/object_images/dice01.jpg","1","k","1.41506500000833",1,2,0,2,0
"260016","img/object_images/gauze01.jpg","0","k","4.08983779995469",1,2,0,2,0
"260016","img/object_images/glasses03.jpg","1","k","2.72443040000508",1,2,0,2,0
"260016","img/object_images/wallet02.jpg","1","s","1.87366350000957",1,2,0,2,0
"260016","img/object_images/backpack01.jpg","1","s","1.20084300002782",1,2,0,2,0
"260016","img/object_images/slinky_toy01.jpg","0","s","1.26899210002739",1,2,0,2,0
"260016","img/object_images/board01.jpg","0","k","2.025495400012",1,2,0,2,0
"260016","img/object_images/vase02.jpg","1","s","3.07583350001369",1,2,0,2,0
"260016","img/object_images/tie02.jpg","0","k","1.61065490002511",1,2,0,2,0
"260016","img/object_images/ball02.jpg","0","s","1.42464109999128",1,2,0,2,0
"260016","img/object_images/helmet01.jpg","1","s","2.10186490003252",1,2,0,2,0
"260016","img/object_images/projector01.jpg","1","k","3.13807739998447",1,2,0,2,0
"260016","img/object_images/ice_tray03.jpg","1","s","1.63898940000217",1,2,0,2,0
"260016","img/object_images/hammer03.jpg","1","k","2.01854389999062",1,2,0,2,0
"260016","img/object_images/surf_board01.jpg","0","k","1.27459800004726",1,2,0,2,0
"260016","img/object_images/crutches02.jpg","0","k","1.19578450004337",1,2,0,2,0
"260016","img/object_images/curtain02.jpg","1","s","1.07432640000479",1,2,0,2,0
"260016","img/object_images/pen01.jpg","0","k","0.838063500006683",1,2,0,2,0
"260016","img/object_images/knit01.jpg","0","s","1.20696400001179",1,2,0,2,0
"260016","img/object_images/robe01.jpg","0","k","0.928671200003009",1,2,0,2,0
"260016","img/object_images/Candle_Holder01.jpg","0","s","5.93002620001789",1,3,0,2,0
"260016","img/object_images/bottle12.jpg","1","k","3.12323560001096",1,3,0,2,0
"260016","img/object_images/shovel01.jpg","1","s","1.29356759996153",1,3,0,2,0
"260016","img/object_images/jewelry01.jpg","1","s","4.68576840002788",1,3,0,2,0
"260016","img/object_images/candle02.jpg","0","s","1.44793769996613",1,3,0,2,0
"260016","img/object_images/Ring02.jpg","1","k","2.18936510005733",1,3,0,2,0
"260016","img/object_images/note_book01.jpg","0","s","1.91519139998127",1,3,0,2,0
"260016","img/object_images/yarn02.jpg","1","s","3.92079669999657",1,3,0,2,0
"260016","img/object_images/video_game06.jpg","1","s","3.77803260000655",1,3,0,2,0
"260016","img/object_images/dog_leash01.jpg","0","s","2.77686610003002",1,3,0,2,0
"260016","img/object_images/toy08.jpg","0","k","4.52371929999208",1,3,0,2,0
"260016","img/object_images/water_gun01.jpg","0","s","3.9737649000017",1,3,0,2,0
"260016","img/object_images/combs01.jpg","0","k","5.15317649999633",1,3,0,2,0
"260016","img/object_images/exfoliater_brush01.jpg","1","s","2.9178689000546",1,3,0,2,0
"260016","img/object_images/tool02.jpg","0","k","2.65253060002578",1,3,0,2,0
"260016","img/object_images/book01.jpg","0","s","4.17087349999929",1,3,0,2,0
"260016","img/object_images/sink_filter01 (1).jpg","1","s","1.36126899998635",1,3,0,2,0
"260016","img/object_images/TrashCan02.jpg","1","s","1.5824597000028",1,3,0,2,0
"260016","img/object_images/Tin01.jpg","0","k","1.10162679996574",1,3,0,2,0
"260016","img/object_images/toy01.jpg","0","k","1.14334399998188",1,3,0,2,0
"260016","img/object_images/clock02.jpg","1","k","2.25978570000734",1,3,0,2,0
"260016","img/object_images/hoverboard01.jpg","0","k","3.30266710004071",1,3,0,2,0
"260016","img/object_images/lock03.jpg","1","s","1.09506939997664",1,3,0,2,0
"260016","img/object_images/stereo02.jpg","1","s","2.02142669999739",1,3,0,2,0
"260016","img/object_images/fan04.jpg","0","s","13.6922628000029",1,3,0,2,0
"260016","img/object_images/sleeping_bag01.jpg","1","s","2.82734249997884",1,3,0,2,0
"260016","img/object_images/bookmark01.jpg","1","s","2.5899950999883",1,3,0,2,0
"260016","img/object_images/floppy_disk02.jpg","0","s","2.19040079996921",1,3,0,2,0
"260016","img/object_images/backpack03.jpg","1","k","1.11292770004366",1,3,0,2,0
"260016","img/object_images/computer_mouse01.jpg","1","s","1.58854040002916",1,3,0,2,0
"260016","img/object_images/trumpet01.jpg","0","k","8.63186009996571",1,3,0,2,0
"260016","img/object_images/MeasuringCup01.jpg","1","s","2.1886102000135",1,3,0,2,0
"260016","img/object_images/audio_port01.jpg","1","s","1.8014317000052",1,3,0,2,0
"260016","img/object_images/Violin01.jpg","0","s","2.61770330002764",1,3,0,2,0
"260016","img/object_images/bag04.jpg","0","k","4.17648249998456",1,3,0,2,0
"260016","img/object_images/blender01.jpg","1","k","3.27613089996157",1,3,0,2,0
"260016","img/object_images/book02.jpg","0","k","2.29546779999509",1,3,0,2,0
"260016","img/object_images/kite01.jpg","1","s","7.34436270000879",1,3,0,2,0
"260016","img/object_images/toy03.jpg","1","s","1.75168610003311",1,3,0,2,0
"260016","img/object_images/bottle02.jpg","0","s","4.55979470000602",1,3,0,2,0
"260016","img/object_images/tool08.jpg","1","k","2.47315440000966",1,3,0,2,0
"260016","img/object_images/bucket02.jpg","1","k","4.54207070003031",1,3,0,2,0
"260016","img/object_images/origami01.jpg","0","k","4.49009739997564",1,3,0,2,0
"260016","img/object_images/gloves05.jpg","0","s","4.72338610002771",1,3,0,2,0
"260016","img/object_images/basket02.jpg","0","k","3.00518059998285",1,3,0,2,0
"260016","img/object_images/toy_train02.jpg","1","k","2.17431060003582",1,3,0,2,0
"260016","img/object_images/camera05.jpg","1","s","1.58407590002753",1,3,0,2,0
"260016","img/object_images/spatula02.jpg","1","k","8.79863630002365",1,3,0,2,0
"260016","img/object_images/lighter01.jpg","1","s","1.38904889998958",1,4,0,2,0
"260016","img/object_images/bag_pipes01.jpg","1","k","2.6350791999721",1,4,0,2,0
"260016","img/object_images/judge_gavel01.jpg","1","k","1.61868839996168",1,4,0,2,0
"260016","img/object_images/cards01.jpg","1","k","1.19372499996098",1,4,0,2,0
"260016","img/object_images/colander01.jpg","1","s","2.2127873999998",1,4,0,2,0
"260016","img/object_images/container01.jpg","1","k","0.950246199965477",1,4,0,2,0
"260016","img/object_images/chain01.jpg","0","s","3.61568310001167",1,4,0,2,0
"260016","img/object_images/speaker01.jpg","1","s","1.29425019997871",1,4,0,2,0
"260016","img/object_images/Pottery01.jpg","0","s","1.75327660003677",1,4,0,2,0
"260016","img/object_images/pitcher05.jpg","1","s","1.22324840002693",1,4,0,2,0
"260016","img/object_images/flask01.jpg","1","k","1.83110200002557",1,4,0,2,0
"260016","img/object_images/chess_piece02.jpg","1","k","1.4031576999696",1,4,0,2,0
"260016","img/object_images/knit03.jpg","1","k","3.61302389996126",1,4,0,2,0
"260016","img/object_images/Trowel01.jpg","1","k","3.86055570002645",1,4,0,2,0
"260016","img/object_images/joystick03.jpg","0","s","1.19952229998307",1,4,0,2,0
"260016","img/object_images/hammer01.jpg","1","s","1.53878369997256",1,4,0,2,0
"260016","img/object_images/Staples01.jpg","1","s","3.92430690000765",1,4,0,2,0
"260016","img/object_images/usb03.jpg","0","s","1.50782100000652",1,4,0,2,0
"260016","img/object_images/mirror01.jpg","0","s","1.93720860005124",1,4,0,2,0
"260016","img/object_images/bow01.jpg","1","s","3.40515350003261",1,4,0,2,0
"260016","img/object_images/bottle01.jpg","1","k","5.68515089998255",1,4,0,2,0
"260016","img/object_images/lamp01.jpg","0","s","4.31283500004793",1,4,0,2,0
"260016","img/object_images/yo_yo01.jpg","1","s","1.83880550001049",1,4,0,2,0
"260016","img/object_images/video_game07.jpg","0","s","1.66676649998408",1,4,0,2,0
"260016","img/object_images/brief_case01.jpg","1","s","2.83869299996877",1,4,0,2,0
"260016","img/object_images/bicycle_lock01.jpg","1","s","1.9483620999963",1,4,0,2,0
"260016","img/object_images/jacket04.jpg","1","s","4.53557880001608",1,4,0,2,0
"260016","img/object_images/ball01.jpg","1","k","4.03536039998289",1,4,0,2,0
"260016","img/object_images/Wisk01.jpg","0","k","5.50854589999653",1,4,0,2,0
"260016","img/object_images/chair05.jpg","1","s","0.95203980000224",1,4,0,2,0
"260016","img/object_images/hat02.jpg","1","s","1.93933090002974",1,4,0,2,0
"260016","img/object_images/golf_ball03.jpg","0","k","3.41578669997398",1,4,0,2,0
"260016","img/object_images/jewel02.jpg","0","s","1.64257909997832",1,4,0,2,0
"260016","img/object_images/handcuffs01.jpg","0","k","6.06190209998749",1,4,0,2,0
"260016","img/object_images/Woopie01.jpg","1","s","3.03447459999006",1,4,0,2,0
"260016","img/object_images/chair02.jpg","1","s","1.82520999998087",1,4,0,2,0
"260016","img/object_images/egg_slicer01.jpg","1","s","1.7534187999554",1,4,0,2,0
"260016","img/object_images/couch03.jpg","1","s","2.22909529996105",1,4,0,2,0
"260016","img/object_images/water_scooter01.jpg","1","k","1.74806589999935",1,4,0,2,0
"260016","img/object_images/basket04.jpg","1","s","1.68180369999027",1,4,0,2,0
"260016","img/object_images/bottle09.jpg","0","s","2.06862330000149",1,4,0,2,0
"260016","img/object_images/hair_brush05.jpg","0","s","3.54818800004432",1,4,0,2,0
"260016","img/object_images/tool18.jpg","0","k","1.99569630000042",1,4,0,2,0
"260016","img/object_images/motorcycle01.jpg","1","k","1.15783789998386",1,4,0,2,0
"260016","img/object_images/guitar01.jpg","0","k","1.23028310004156",1,4,0,2,0
"260016","img/object_images/piggy_bank01.jpg","1","k","6.76069670001743",1,4,0,2,0
"260016","img/object_images/bean_bag02.jpg","1","s","1.09456729999511",1,4,0,2,0
"260016","img/object_images/Statue01.jpg","0","k","5.41386329999659",1,4,0,2,0
"260016","img/object_images/bottle10.jpg","1","s","30.715107099968",1,5,0,2,0
"260016","img/object_images/camera07.jpg","1","s","1.64364409999689",1,5,0,2,0
"260016","img/object_images/socks01.jpg","0","s","1.07503700000234",1,5,0,2,0
"260016","img/object_images/clip03.jpg","1","k","0.917848400014918",1,5,0,2,0
"260016","img/object_images/hammer02.jpg","1","k","2.47722300002351",1,5,0,2,0
"260016","img/object_images/bell03.jpg","1","s","1.63562690000981",1,5,0,2,0
"260016","img/object_images/jewelry09.jpg","0","k","3.83565090002958",1,5,0,2,0
"260016","img/object_images/shoes10.jpg","1","s","0.755639299983159",1,5,0,2,0
"260016","img/object_images/lawn_mower01.jpg","1","s","4.28139630000805",1,5,0,2,0
"260016","img/object_images/helmet03.jpg","0","s","1.29979290004121",1,5,0,2,0
"260016","img/object_images/vga_port 01.jpg","1","s","1.8969994999934",1,5,0,2,0
"260016","img/object_images/coloring_pencil01.jpg","1","s","1.97674429998733",1,5,0,2,0
"260016","img/object_images/tennis_racket01.jpg","1","k","6.04916819999926",1,5,0,2,0
"260016","img/object_images/Vacuum01.jpg","1","s","1.2172361999983",1,5,0,2,0
"260016","img/object_images/lock04.jpg","1","k","1.72969439998269",1,5,0,2,0
"260016","img/object_images/pitcher03.jpg","0","k","9.86052879999625",1,5,0,2,0
"260016","img/object_images/video_game01.jpg","1","s","2.54400220001116",1,5,0,2,0
"260016","img/object_images/headset02.jpg","1","k","4.6771718999953",1,5,0,2,0
"260016","img/object_images/bag06.jpg","1","s","2.49765720003052",1,5,0,2,0
"260016","img/object_images/socks02.jpg","0","s","1.509653599991",1,5,0,2,0
"260016","img/object_images/laptop01.jpg","1","s","0.715800999954809",1,5,0,2,0
"260016","img/object_images/badminton01.jpg","0","k","1.99331099999836",1,5,0,2,0
"260016","img/object_images/car04.jpg","0","k","1.38410349999322",1,5,0,2,0
"260016","img/object_images/balloon01.jpg","1","s","1.47033900005044",1,5,0,2,0
"260016","img/object_images/watch01.jpg","0","s","3.27409249998163",1,5,0,2,0
"260016","img/object_images/binoculars03.jpg","0","s","3.08596230001422",1,5,0,2,0
"260016","img/object_images/grater01.jpg","0","s","1.77686179999728",1,5,0,2,0
"260016","img/object_images/sign02.jpg","0","k","3.776091000007",1,5,0,2,0
"260016","img/object_images/shoes08.jpg","1","k","2.00145360000897",1,5,0,2,0
"260016","img/object_images/tie01.jpg","0","s","1.48116059997119",1,5,0,2,0
"260016","img/object_images/dresser03.jpg","1","k","1.37944069999503",1,5,0,2,0
"260016","img/object_images/Kitchen_Towel.jpg","0","s","4.51615640003001",1,5,0,2,0
"260016","img/object_images/fan05.jpg","0","s","1.40582840004936",1,5,0,2,0
"260016","img/object_images/coloring_pencil02.jpg","1","k","1.57676880003419",1,5,0,2,0
"260016","img/object_images/faucet01.jpg","0","s","1.85065279999981",1,5,0,2,0
"260016","img/object_images/phone02.jpg","0","k","1.28683409997029",1,5,0,2,0
"260016","img/object_images/paint_brush04.jpg","1","k","1.1480577000184",1,5,0,2,0
"260016","img/object_images/razor02.jpg","1","s","0.893591600004584",1,5,0,2,0
"260016","img/object_images/jewel01.jpg","1","s","0.790050900017377",1,5,0,2,0
"260016","img/object_images/couch04.jpg","0","k","3.46993660001317",1,5,0,2,0
"260016","img/object_images/toy04.jpg","0","k","1.42336950002937",1,5,0,2,0
"260016","img/object_images/lid01.jpg","0","k","4.47840239998186",1,5,0,2,0
"260016","img/object_images/tool13.jpg","1","k","1.28363429999445",1,5,0,2,0
"260016","img/object_images/helmet05.jpg","1","s","0.884540800005198",1,5,0,2,0
"260016","img/object_images/pitcher09.jpg","0","s","1.28426430001855",1,5,0,2,0
"260016","img/object_images/office_supplies01.jpg","1","k","1.62464250001358",1,5,0,2,0
"260016","img/object_images/lock01.jpg","0","s","1.68279460002668",1,5,0,2,0
"260016","img/object_images/bow_tie02.jpg","1","s","2.5442580000381",1,5,0,2,0
"260016","img/object_images/toaster02.jpg","0","k","1.68847649998497",1,6,0,2,0
"260016","img/object_images/chair04.jpg","1","k","3.269420000026",1,6,0,2,0
"260016","img/object_images/keyboard02.jpg","0","s","4.77038070000708",1,6,0,2,0
"260016","img/object_images/camera_lens01.jpg","0","s","1.94635060004657",1,6,0,2,0
"260016","img/object_images/remote_controller01.jpg","0","k","1.15759320004145",1,6,0,2,0
"260016","img/object_images/hair_dryer01.jpg","0","k","1.33826440002304",1,6,0,2,0
"260016","img/object_images/cup03.jpg","1","s","1.4417073999648",1,6,0,2,0
"260016","img/object_images/hand_grip_exerciser01.jpg","0","s","1.7072685000021",1,6,0,2,0
"260016","img/object_images/pitcher07.jpg","1","s","1.11683790001553",1,6,0,2,0
"260016","img/object_images/car02.jpg","0","s","0.957979700004216",1,6,0,2,0
"260016","img/object_images/shower_head03.jpg","1","k","0.819467700028326",1,6,0,2,0
"260016","img/object_images/rock02.jpg","0","s","2.53824010002427",1,6,0,2,0
"260016","img/object_images/umbrella01.jpg","1","k","1.66828979999991",1,6,0,2,0
"260016","img/object_images/glasses07.jpg","0","s","1.18959149997681",1,6,0,2,0
"260016","img/object_images/computer_mouse02.jpg","1","s","1.25759029999608",1,6,0,2,0
"260016","img/object_images/toy05.jpg","0","k","1.84830449998844",1,6,0,2,0
"260016","img/object_images/trash_can03.jpg","1","k","2.28844659996685",1,6,0,2,0
"260016","img/object_images/cutting_board01.jpg","0","s","2.93679579999298",1,6,0,2,0
"260016","img/object_images/funnel01.jpg","1","k","1.34043009998277",1,6,0,2,0
"260016","img/object_images/jewelry07.jpg","0","s","1.37551320000784",1,6,0,2,0
"260016","img/object_images/paper_cup02.jpg","1","k","1.23195929999929",1,6,0,2,0
"260016","img/object_images/shoes12.jpg","0","s","1.22664890001761",1,6,0,2,0
"260016","img/object_images/bucket01.jpg","1","k","1.12954200000968",1,6,0,2,0
"260016","img/object_images/fork02.jpg","1","k","2.87949049996678",1,6,0,2,0
"260016","img/object_images/drone02.jpg","1","k","4.93042420002166",1,6,0,2,0
"260016","img/object_images/usb02.jpg","1","k","2.47418290004134",1,6,0,2,0
"260016","img/object_images/tool19.jpg","0","k","1.66327590000583",1,6,0,2,0
"260016","img/object_images/piano03.jpg","1","s","2.5986939999857",1,6,0,2,0
"260016","img/object_images/belt01.jpg","1","k","1.15601079998305",1,6,0,2,0
"260016","img/object_images/tray01.jpg","1","k","2.12450959999114",1,6,0,2,0
"260016","img/object_images/hair_brush01.jpg","1","s","2.35132840002188",1,6,0,2,0
"260016","img/object_images/purse01.jpg","1","s","0.986938500020187",1,6,0,2,0
"260016","img/object_images/fridge03.jpg","1","s","1.32182439998724",1,6,0,2,0
"260016","img/object_images/shoes07.jpg","0","s","2.01722149999114",1,6,0,2,0
"260016","img/object_images/hot_air_balloon02.jpg","1","k","1.2735260000336",1,6,0,2,0
"260016","img/object_images/Sprayer01.jpg","0","s","1.14374130003853",1,6,0,2,0
"260016","img/object_images/perfume01.jpg","1","k","1.22442069998942",1,6,0,2,0
"260016","img/object_images/paper_cup01.jpg","1","s","2.47866600000998",1,6,0,2,0
"260016","img/object_images/spray_can01.jpg","0","k","1.40569639997557",1,6,0,2,0
"260016","img/object_images/blender02.jpg","1","k","1.31246599997394",1,6,0,2,0
"260016","img/object_images/jewel03.jpg","1","s","1.22575129999314",1,6,0,2,0
"260016","img/object_images/gift_box05.jpg","0","s","0.984189599985257",1,6,0,2,0
"260016","img/object_images/scale02.jpg","1","k","0.988403399998788",1,6,0,2,0
"260016","img/object_images/soap03.jpg","0","s","1.22606109996559",1,6,0,2,0
"260016","img/object_images/ironing_table02.jpg","0","s","1.7320646000444",1,6,0,2,0
"260016","img/object_images/tool06.jpg","1","k","1.567065500014",1,6,0,2,0
"260016","img/object_images/ribbon01.jpg","1","k","2.53463100001682",1,6,0,2,0
"260016","img/object_images/Eyeliner01.jpg","0","k","1.315494999988",1,6,0,2,0
"260016","img/object_images/cochlear_implant01.jpg","1","k","2.39730710000731",1,7,0,2,0
"260016","img/object_images/floss02.jpg","0","k","3.31405019998783",1,7,0,2,0
"260016","img/object_images/compass01.jpg","1","s","1.00467300001765",1,7,0,2,0
"260016","img/object_images/jacket03.jpg","0","k","1.61532360001002",1,7,0,2,0
"260016","img/object_images/tennis_racket02.jpg","1","k","1.06298549997155",1,7,0,2,0
"260016","img/object_images/video_game03.jpg","1","s","0.725171700003557",1,7,0,2,0
"260016","img/object_images/stove01.jpg","1","k","0.977783999987878",1,7,0,2,0
"260016","img/object_images/duster01.jpg","0","s","0.937293700000737",1,7,0,2,0
"260016","img/object_images/chair06.jpg","1","k","0.842635700013489",1,7,0,2,0
"260016","img/object_images/gloves02.jpg","0","k","1.52897909999592",1,7,0,2,0
"260016","img/object_images/frame01.jpg","1","s","1.31314789998578",1,7,0,2,0
"260016","img/object_images/basketball_hoop02.jpg","0","k","0.952087900019251",1,7,0,2,0
"260016","img/object_images/Oven01.jpg","0","k","1.83660689997487",1,7,0,2,0
"260016","img/object_images/decorative02.jpg","0","k","1.21095810004044",1,7,0,2,0
"260016","img/object_images/chair03.jpg","0","s","0.70666829997208",1,7,0,2,0
"260016","img/object_images/camera03.jpg","1","s","1.343548200035",1,7,0,2,0
"260016","img/object_images/wire02.jpg","0","k","1.08936149999499",1,7,0,2,0
"260016","img/object_images/rock03.jpg","0","k","0.908377900021151",1,7,0,2,0
"260016","img/object_images/towel02.jpg","1","k","0.940215200011153",1,7,0,2,0
"260016","img/object_images/hat09.jpg","1","k","1.24499969999306",1,7,0,2,0
"260016","img/object_images/fan02.jpg","0","k","2.33445999998366",1,7,0,2,0
"260016","img/object_images/box03.jpg","0","k","2.69695160002448",1,7,0,2,0
"260016","img/object_images/handkerchief01.jpg","0","s","1.15074060001643",1,7,0,2,0
"260016","img/object_images/tv02.jpg","0","k","1.10951370000839",1,7,0,2,0
"260016","img/object_images/mail_box01.jpg","0","s","1.81646399997408",1,7,0,2,0
"260016","img/object_images/car01.jpg","0","k","1.59789880004246",1,7,0,2,0
"260016","img/object_images/screwdriver01.jpg","1","s","0.864918300008867",1,7,0,2,0
"260016","img/object_images/ring03.jpg","1","s","1.19497040001443",1,7,0,2,0
"260016","img/object_images/boat02.jpg","1","k","1.71751530002803",1,7,0,2,0
"260016","img/object_images/stapler.jpg","0","s","1.01720810000552",1,7,0,2,0
"260016","img/object_images/car03.jpg","1","s","1.05363660003059",1,7,0,2,0
"260016","img/object_images/bicycle01.jpg","0","k","0.799327299988363",1,7,0,2,0
"260016","img/object_images/cup01.jpg","0","s","0.931795000040438",1,7,0,2,0
"260016","img/object_images/glasses06.jpg","1","s","1.39335450000362",1,7,0,2,0
"260016","img/object_images/razor03.jpg","0","k","1.61603710002964",1,7,0,2,0
"260016","img/object_images/clipboard01.jpg","0","k","0.893640800029971",1,7,0,2,0
"260016","img/object_images/fork03.jpg","1","s","1.14905270002782",1,7,0,2,0
"260016","img/object_images/towels01.jpg","1","k","0.969697499996982",1,7,0,2,0
"260016","img/object_images/outlet01.jpg","0","s","0.808328999963123",1,7,0,2,0
"260016","img/object_images/pen06.jpg","0","s","1.45179640001152",1,7,0,2,0
"260016","img/object_images/yoga_mat01.jpg","0","k","1.62219319998985",1,7,0,2,0
"260016","img/object_images/bell02.jpg","1","s","0.733373700059019",1,7,0,2,0
"260016","img/object_images/Confetti 01.jpg","0","s","0.93136930000037",1,7,0,2,0
"260016","img/object_images/remover01.jpg","0","s","1.24731260002591",1,7,0,2,0
"260016","img/object_images/bottle06.jpg","1","k","0.830344500020146",1,7,0,2,0
"260016","img/object_images/hair_clips01.jpg","0","k","0.920093900000211",1,7,0,2,0
"260016","img/object_images/Stool01.jpg","0","s","0.976010800048243",1,7,0,2,0
"260016","img/object_images/measuring_tape02.jpg","0","k","1.1532052999828",1,7,0,2,0
"260016","img/object_images/tool09.jpg","0","s","2.8870224999846",1,8,0,2,0
"260016","img/object_images/drone01.jpg","1","k","1.16813170001842",1,8,0,2,0
"260016","img/object_images/satellite01.jpg","0","k","1.31528540002182",1,8,0,2,0
"260016","img/object_images/pillows01.jpg","1","s","0.869399799965322",1,8,0,2,0
"260016","img/object_images/calculator01.jpg","1","s","1.54151750000892",1,8,0,2,0
"260016","img/object_images/gift_box04.jpg","1","s","1.13401969999541",1,8,0,2,0
"260016","img/object_images/Recycling01.jpg","0","s","1.20469929999672",1,8,0,2,0
"260016","img/object_images/belt03.jpg","0","s","1.76521300000604",1,8,0,2,0
"260016","img/object_images/cellphone02.jpg","0","s","1.28629720001481",1,8,0,2,0
"260016","img/object_images/floppy_disk03.jpg","1","k","0.972540199989453",1,8,0,2,0
"260016","img/object_images/gift_box01.jpg","1","k","3.5537028000108",1,8,0,2,0
"260016","img/object_images/floss01.jpg","1","k","2.06616479996592",1,8,0,2,0
"260016","img/object_images/tool20.jpg","0","k","2.1744161999668",1,8,0,2,0
"260016","img/object_images/gift_box03.jpg","0","s","1.7350120000192",1,8,0,2,0
"260016","img/object_images/knit04.jpg","1","k","1.84159140003612",1,8,0,2,0
"260016","img/object_images/scoreboard01.jpg","1","k","1.52774770004908",1,8,0,2,0
"260016","img/object_images/chair01.jpg","0","s","3.87179040000774",1,8,0,2,0
"260016","img/object_images/egg_basket01.jpg","1","k","1.35382670001127",1,8,0,2,0
"260016","img/object_images/sponge03.jpg","0","s","1.00395710003795",1,8,0,2,0
"260016","img/object_images/blanket01.jpg","1","s","1.01877229998354",1,8,0,2,0
"260016","img/object_images/Shoes05.jpg","0","s","1.32932339998661",1,8,0,2,0
"260016","img/object_images/shovel03.jpg","1","s","1.90084410004783",1,8,0,2,0
"260016","img/object_images/toilet_paper_dispenser01.jpg","0","k","1.95580680004787",1,8,0,2,0
"260016","img/object_images/phone04.jpg","1","k","1.27982669998892",1,8,0,2,0
"260016","img/object_images/chess_piece01.jpg","0","s","3.59879149997141",1,8,0,2,0
"260016","img/object_images/couch01.jpg","1","s","1.45152030000463",1,8,0,2,0
"260016","img/object_images/toilet_paper01.jpg","0","k","1.61470530001679",1,8,0,2,0
"260016","img/object_images/nut_cracker01.jpg","1","k","1.46015070000431",1,8,0,2,0
"260016","img/object_images/helmet04.jpg","0","s","1.56043050001608",1,8,0,2,0
"260016","img/object_images/ladle02.jpg","0","k","1.28453059995081",1,8,0,2,0
"260016","img/object_images/helmet02.jpg","1","k","1.05383920000168",1,8,0,2,0
"260016","img/object_images/dart01.jpg","1","s","1.21806909999577",1,8,0,2,0
"260016","img/object_images/laptop03.jpg","0","k","1.08537019998766",1,8,0,2,0
"260016","img/object_images/pot01 (1).jpg","1","k","1.54065989999799",1,8,0,2,0
"260016","img/object_images/fire_extinguisher01.jpg","0","s","1.03273799997987",1,8,0,2,0
"260016","img/object_images/hat06.jpg","1","k","0.833428999991156",1,8,0,2,0
"260016","img/object_images/Safe01.jpg","0","k","1.25929900002666",1,8,0,2,0
"260016","img/object_images/bottle07.jpg","0","k","1.17349039996043",1,8,0,2,0
"260016","img/object_images/wagon_cart03.jpg","0","k","1.55615980003495",1,8,0,2,0
"260016","img/object_images/dresser04.jpg","1","k","1.44992599997204",1,8,0,2,0
"260016","img/object_images/skate_board01.jpg","1","k","1.60905259998981",1,8,0,2,0
"260016","img/object_images/lantern01.jpg","0","s","1.09501759998966",1,8,0,2,0
"260016","img/object_images/airfryer02.jpg","1","k","2.22355420002714",1,8,0,2,0
"260016","img/object_images/Screws01.jpg","0","s","1.5075918000075",1,8,0,2,0
"260016","img/object_images/frisbee01.jpg","1","s","1.46658180002123",1,8,0,2,0
"260016","img/object_images/cellphone01.jpg","0","k","1.16721530002542",1,8,0,2,0
"260016","img/object_images/dust_pan01.jpg","1","k","1.09564910002518",1,8,0,2,0
"260016","img/object_images/pan03.jpg","1","k","1.45804700005101",1,8,0,2,0
