"participant_id","current_trial_object","pre_trial_object","post_trial_object","current_trial_accuracy","pre_trial_accuracy","post_trial_accuracy","current_trial_congruency","pre_trial_congruency","post_trial_congruency","current_trial_rt","pre_trial_rt","post_trial_rt","current_trial_responded","pre_trial_responded","post_trial_responded","current_trial_legitResponse","pre_trial_legitResponse","post_trial_legitResponse","current_trial_resp_nums","pre_trial_resp_nums","post_trial_resp_nums"
"260049","img/object_images/tool11.jpg",NA,"img/object_images/rock03.jpg","1",NA,"1","1",NA,"0","0.674377599731088",NA,"0.597361799329519","1",NA,"1","1",NA,"1","1",NA,"1"
"260049","img/object_images/rock03.jpg","img/object_images/tool11.jpg","img/object_images/satellite01.jpg","1","1","1","0","1","0","0.597361799329519","0.674377599731088","0.719042599666864","1","1","1","1","1","1","1","1","1"
"260049","img/object_images/satellite01.jpg","img/object_images/rock03.jpg","img/object_images/belt01.jpg","1","1","1","0","0","0","0.719042599666864","0.597361799329519","0.731145599856973","1","1","1","1","1","1","1","1","1"
"260049","img/object_images/belt01.jpg","img/object_images/satellite01.jpg","img/object_images/tv01.jpg","1","1","1","0","0","0","0.731145599856973","0.719042599666864","0.654472099617124","1","1","1","1","1","1","1","1","1"
"260049","img/object_images/tv01.jpg","img/object_images/belt01.jpg","img/object_images/jewel01.jpg","1","1","1","0","0","0","0.654472099617124","0.731145599856973","0.544234999921173","1","1","1","1","1","1","1","1","1"
"260049","img/object_images/jewel01.jpg","img/object_images/tv01.jpg","img/object_images/bag06.jpg","1","1","1","0","0","1","0.544234999921173","0.654472099617124","0.479567899834365","1","1","1","1","1","1","1","1","1"
"260049","img/object_images/bag06.jpg","img/object_images/jewel01.jpg","img/object_images/jewelry07.jpg","1","1","1","1","0","1","0.479567899834365","0.544234999921173","0.501865799538791","1","1","1","1","1","1","1","1","1"
"260049","img/object_images/jewelry07.jpg","img/object_images/bag06.jpg","img/object_images/WitchHat02.jpg","1","1","1","1","1","1","0.501865799538791","0.479567899834365","0.544815699569881","1","1","1","1","1","1","1","1","1"
"260049","img/object_images/WitchHat02.jpg","img/object_images/jewelry07.jpg","img/object_images/hair_brush05.jpg","1","1","1","1","1","1","0.544815699569881","0.501865799538791","0.55807159980759","1","1","1","1","1","1","1","1","1"
"260049","img/object_images/hair_brush05.jpg","img/object_images/WitchHat02.jpg","img/object_images/mask01.jpg","1","1","1","1","1","0","0.55807159980759","0.544815699569881","0.545443099457771","1","1","1","1","1","1","1","1","1"
"260049","img/object_images/mask01.jpg","img/object_images/hair_brush05.jpg","img/object_images/toaster02.jpg","1","1","1","0","1","1","0.545443099457771","0.55807159980759","0.600507099647075","1","1","1","1","1","1","1","1","1"
"260049","img/object_images/toaster02.jpg","img/object_images/mask01.jpg","img/object_images/screwdriver01.jpg","1","1","1","1","0","0","0.600507099647075","0.545443099457771","0.583816799800843","1","1","1","1","1","1","1","1","1"
"260049","img/object_images/screwdriver01.jpg","img/object_images/toaster02.jpg","img/object_images/cutting_board01.jpg","1","1","1","0","1","1","0.583816799800843","0.600507099647075","0.553147399798036","1","1","1","1","1","1","1","1","1"
"260049","img/object_images/cutting_board01.jpg","img/object_images/screwdriver01.jpg","img/object_images/cards01.jpg","1","1","1","1","0","0","0.553147399798036","0.583816799800843","0.506677599623799","1","1","1","1","1","1","1","1","1"
"260049","img/object_images/cards01.jpg","img/object_images/cutting_board01.jpg","img/object_images/key02.jpg","1","1","1","0","1","1","0.506677599623799","0.553147399798036","0.47167809959501","1","1","1","1","1","1","1","1","1"
"260049","img/object_images/key02.jpg","img/object_images/cards01.jpg","img/object_images/ribbon01.jpg","1","1","1","1","0","0","0.47167809959501","0.506677599623799","0.566802699584514","1","1","1","1","1","1","1","1","1"
"260049","img/object_images/ribbon01.jpg","img/object_images/key02.jpg","img/object_images/ladle02.jpg","1","1","1","0","1","0","0.566802699584514","0.47167809959501","0.515920099802315","1","1","1","1","1","1","1","1","1"
"260049","img/object_images/ladle02.jpg","img/object_images/ribbon01.jpg","img/object_images/MeasuringCup01.jpg","1","1","1","0","0","1","0.515920099802315","0.566802699584514","0.510190199594945","1","1","1","1","1","1","1","1","1"
"260049","img/object_images/MeasuringCup01.jpg","img/object_images/ladle02.jpg","img/object_images/car04.jpg","1","1","1","1","0","0","0.510190199594945","0.515920099802315","0.507193699479103","1","1","1","1","1","1","1","1","1"
"260049","img/object_images/car04.jpg","img/object_images/MeasuringCup01.jpg","img/object_images/lemon_squeezer02.jpg","1","1","1","0","1","1","0.507193699479103","0.510190199594945","0.436879300046712","1","1","1","1","1","1","1","1","1"
"260049","img/object_images/lemon_squeezer02.jpg","img/object_images/car04.jpg","img/object_images/shower_head03.jpg","1","1","1","1","0","1","0.436879300046712","0.507193699479103","0.392730699852109","1","1","1","1","1","1","1","1","1"
"260049","img/object_images/shower_head03.jpg","img/object_images/lemon_squeezer02.jpg","img/object_images/shoes10.jpg","1","1","1","1","1","0","0.392730699852109","0.436879300046712","0.55802289955318","1","1","1","1","1","1","1","1","1"
"260049","img/object_images/shoes10.jpg","img/object_images/shower_head03.jpg","img/object_images/razor01.jpg","1","1","1","0","1","0","0.55802289955318","0.392730699852109","0.552330599632114","1","1","1","1","1","1","1","1","1"
"260049","img/object_images/razor01.jpg","img/object_images/shoes10.jpg","img/object_images/chair04.jpg","1","1","1","0","0","1","0.552330599632114","0.55802289955318","0.577359499409795","1","1","1","1","1","1","1","1","1"
"260049","img/object_images/chair04.jpg","img/object_images/razor01.jpg","img/object_images/binoculars03.jpg","1","1","1","1","0","1","0.577359499409795","0.552330599632114","0.587646599858999","1","1","1","1","1","1","1","1","1"
"260049","img/object_images/binoculars03.jpg","img/object_images/chair04.jpg","img/object_images/car03.jpg","1","1","1","1","1","0","0.587646599858999","0.577359499409795","0.563565299846232","1","1","1","1","1","1","1","1","1"
"260049","img/object_images/car03.jpg","img/object_images/binoculars03.jpg","img/object_images/yarn02.jpg","1","1","1","0","1","0","0.563565299846232","0.587646599858999","0.592202199622989","1","1","1","1","1","1","1","1","1"
"260049","img/object_images/yarn02.jpg","img/object_images/car03.jpg","img/object_images/ice_tray03.jpg","1","1","1","0","0","1","0.592202199622989","0.563565299846232","0.464161399751902","1","1","1","1","1","1","1","1","1"
"260049","img/object_images/ice_tray03.jpg","img/object_images/yarn02.jpg","img/object_images/dress03.jpg","1","1","1","1","0","1","0.464161399751902","0.592202199622989","0.451784399338067","1","1","1","1","1","1","1","1","1"
"260049","img/object_images/dress03.jpg","img/object_images/ice_tray03.jpg","img/object_images/slinky_toy01.jpg","1","1","1","1","1","1","0.451784399338067","0.464161399751902","0.473561899736524","1","1","1","1","1","1","1","1","1"
"260049","img/object_images/slinky_toy01.jpg","img/object_images/dress03.jpg","img/object_images/fan05.jpg","1","1","1","1","1","0","0.473561899736524","0.451784399338067","0.51651329966262","1","1","1","1","1","1","1","1","1"
"260049","img/object_images/fan05.jpg","img/object_images/slinky_toy01.jpg",NA,"1","1",NA,"0","1",NA,"0.51651329966262","0.473561899736524",NA,"1","1",NA,"1","1",NA,"1","1",NA
"260049","img/object_images/fridge03.jpg",NA,"img/object_images/bird_house02.jpg","1",NA,"1","0",NA,"1","0.416659299749881",NA,"0.432227799668908","1",NA,"1","1",NA,"1","1",NA,"1"
"260049","img/object_images/bird_house02.jpg","img/object_images/fridge03.jpg","img/object_images/jewel04.jpg","1","1","1","1","0","0","0.432227799668908","0.416659299749881","0.314918299671263","1","1","1","1","1","1","1","1","1"
"260049","img/object_images/jewel04.jpg","img/object_images/bird_house02.jpg","img/object_images/sink01.jpg","1","1","1","0","1","0","0.314918299671263","0.432227799668908","0.324898399412632","1","1","1","1","1","1","1","1","1"
"260049","img/object_images/sink01.jpg","img/object_images/jewel04.jpg","img/object_images/gauze01.jpg","1","1","0","0","0","0","0.324898399412632","0.314918299671263","0.297998499590904","1","1","1","1","1","1","1","1","1"
"260049","img/object_images/gauze01.jpg","img/object_images/sink01.jpg","img/object_images/shovel03.jpg","0","1","1","0","0","1","0.297998499590904","0.324898399412632","0.357961299829185","1","1","1","1","1","1","1","1","1"
"260049","img/object_images/shovel03.jpg","img/object_images/gauze01.jpg","img/object_images/bow01.jpg","1","0","1","1","0","1","0.357961299829185","0.297998499590904","0.401015099603683","1","1","1","1","1","1","1","1","1"
"260049","img/object_images/bow01.jpg","img/object_images/shovel03.jpg","img/object_images/bottle05.jpg","1","1","1","1","1","0","0.401015099603683","0.357961299829185","0.371406399644911","1","1","1","1","1","1","1","1","1"
"260049","img/object_images/bottle05.jpg","img/object_images/bow01.jpg","img/object_images/toy03.jpg","1","1","1","0","1","1","0.371406399644911","0.401015099603683","0.393350799567998","1","1","1","1","1","1","1","1","1"
"260049","img/object_images/toy03.jpg","img/object_images/bottle05.jpg","img/object_images/helmet01.jpg","1","1","1","1","0","0","0.393350799567998","0.371406399644911","0.37368609989062","1","1","1","1","1","1","1","1","1"
"260049","img/object_images/helmet01.jpg","img/object_images/toy03.jpg","img/object_images/MetalWire01.jpg","1","1","1","0","1","0","0.37368609989062","0.393350799567998","0.345484899822623","1","1","1","1","1","1","1","1","1"
"260049","img/object_images/MetalWire01.jpg","img/object_images/helmet01.jpg","img/object_images/ornament01.jpg","1","1","1","0","0","1","0.345484899822623","0.37368609989062","0.366485899314284","1","1","1","1","1","1","1","1","1"
"260049","img/object_images/ornament01.jpg","img/object_images/MetalWire01.jpg","img/object_images/Tin01.jpg","1","1","1","1","0","1","0.366485899314284","0.345484899822623","0.360521499533206","1","1","1","1","1","1","1","1","1"
"260049","img/object_images/Tin01.jpg","img/object_images/ornament01.jpg","img/object_images/tool02.jpg","1","1","1","1","1","1","0.360521499533206","0.366485899314284","0.406661099288613","1","1","1","1","1","1","1","1","1"
"260049","img/object_images/tool02.jpg","img/object_images/Tin01.jpg","img/object_images/toy04.jpg","1","1","0","1","1","0","0.406661099288613","0.360521499533206","0.361935299821198","1","1","1","1","1","1","1","1","1"
"260049","img/object_images/toy04.jpg","img/object_images/tool02.jpg","img/object_images/Vacuum01.jpg","0","1","1","0","1","0","0.361935299821198","0.406661099288613","0.499679199419916","1","1","1","1","1","1","1","1","1"
"260049","img/object_images/Vacuum01.jpg","img/object_images/toy04.jpg","img/object_images/outlet01.jpg","1","0","1","0","0","0","0.499679199419916","0.361935299821198","0.409302699845284","1","1","1","1","1","1","1","1","1"
"260049","img/object_images/outlet01.jpg","img/object_images/Vacuum01.jpg","img/object_images/watch01.jpg","1","1","1","0","0","0","0.409302699845284","0.499679199419916","0.440482199657708","1","1","1","1","1","1","1","1","1"
"260049","img/object_images/watch01.jpg","img/object_images/outlet01.jpg","img/object_images/judge_gavel01.jpg","1","1","1","0","0","1","0.440482199657708","0.409302699845284","0.388779599685222","1","1","1","1","1","1","1","1","1"
"260049","img/object_images/judge_gavel01.jpg","img/object_images/watch01.jpg","img/object_images/pot01 (1).jpg","1","1","1","1","0","0","0.388779599685222","0.440482199657708","0.41783139994368","1","1","1","1","1","1","1","1","1"
"260049","img/object_images/pot01 (1).jpg","img/object_images/judge_gavel01.jpg","img/object_images/tool09.jpg","1","1","1","0","1","1","0.41783139994368","0.388779599685222","0.444323000032455","1","1","1","1","1","1","1","1","1"
"260049","img/object_images/tool09.jpg","img/object_images/pot01 (1).jpg","img/object_images/guitar02.jpg","1","1","1","1","0","0","0.444323000032455","0.41783139994368","0.362742299679667","1","1","1","1","1","1","1","1","1"
"260049","img/object_images/guitar02.jpg","img/object_images/tool09.jpg","img/object_images/stapler.jpg","1","1","1","0","1","1","0.362742299679667","0.444323000032455","0.374356099404395","1","1","1","1","1","1","1","1","1"
"260049","img/object_images/stapler.jpg","img/object_images/guitar02.jpg","img/object_images/Ring02.jpg","1","1","0","1","0","0","0.374356099404395","0.362742299679667","0.41787329968065","1","1","1","1","1","1","1","1","1"
"260049","img/object_images/Ring02.jpg","img/object_images/stapler.jpg","img/object_images/frisbee01.jpg","0","1","1","0","1","1","0.41787329968065","0.374356099404395","0.345657299272716","1","1","1","1","1","1","1","1","1"
"260049","img/object_images/frisbee01.jpg","img/object_images/Ring02.jpg","img/object_images/towel02.jpg","1","0","1","1","0","1","0.345657299272716","0.41787329968065","0.372888699639589","1","1","1","1","1","1","1","1","1"
"260049","img/object_images/towel02.jpg","img/object_images/frisbee01.jpg","img/object_images/video_game07.jpg","1","1","1","1","1","1","0.372888699639589","0.345657299272716","0.348462099675089","1","1","1","1","1","1","1","1","1"
"260049","img/object_images/video_game07.jpg","img/object_images/towel02.jpg","img/object_images/acoustic_capo01.jpg","1","1","1","1","1","1","0.348462099675089","0.372888699639589","0.372026899829507","1","1","1","1","1","1","1","1","1"
"260049","img/object_images/acoustic_capo01.jpg","img/object_images/video_game07.jpg","img/object_images/dart01.jpg","1","1","1","1","1","0","0.372026899829507","0.348462099675089","0.43711489951238","1","1","1","1","1","1","1","1","1"
"260049","img/object_images/dart01.jpg","img/object_images/acoustic_capo01.jpg","img/object_images/crown02.jpg","1","1","1","0","1","1","0.43711489951238","0.372026899829507","0.370433299802244","1","1","1","1","1","1","1","1","1"
"260049","img/object_images/crown02.jpg","img/object_images/dart01.jpg","img/object_images/Stool01.jpg","1","1","1","1","0","0","0.370433299802244","0.43711489951238","0.400001299567521","1","1","1","1","1","1","1","1","1"
"260049","img/object_images/Stool01.jpg","img/object_images/crown02.jpg","img/object_images/mirror01.jpg","1","1","1","0","1","1","0.400001299567521","0.370433299802244","0.359949099365622","1","1","1","1","1","1","1","1","1"
"260049","img/object_images/mirror01.jpg","img/object_images/Stool01.jpg",NA,"1","1",NA,"1","0",NA,"0.359949099365622","0.400001299567521",NA,"1","1",NA,"1","1",NA,"1","1",NA
"260049","img/object_images/bookmark01.jpg",NA,"img/object_images/phone04.jpg","1",NA,"0","0",NA,"1","0.406621299684048",NA,"0.257739599328488","1",NA,"1","1",NA,"1","1",NA,"1"
"260049","img/object_images/phone04.jpg","img/object_images/bookmark01.jpg","img/object_images/joystick03.jpg","0","1","1","1","0","1","0.257739599328488","0.406621299684048","0.360006199683994","1","1","1","1","1","1","1","1","1"
"260049","img/object_images/joystick03.jpg","img/object_images/phone04.jpg","img/object_images/dice01.jpg","1","0","1","1","1","0","0.360006199683994","0.257739599328488","0.345831199549139","1","1","1","1","1","1","1","1","1"
"260049","img/object_images/dice01.jpg","img/object_images/joystick03.jpg","img/object_images/bottle06.jpg","1","1","1","0","1","0","0.345831199549139","0.360006199683994","0.344562499783933","1","1","1","1","1","1","1","1","1"
"260049","img/object_images/bottle06.jpg","img/object_images/dice01.jpg","img/object_images/pitcher07.jpg","1","1","1","0","0","1","0.344562499783933","0.345831199549139","0.365710799582303","1","1","1","1","1","1","1","1","1"
"260049","img/object_images/pitcher07.jpg","img/object_images/bottle06.jpg","img/object_images/tennis_racket01.jpg","1","1","1","1","0","1","0.365710799582303","0.344562499783933","0.384375799447298","1","1","1","1","1","1","1","1","1"
"260049","img/object_images/tennis_racket01.jpg","img/object_images/pitcher07.jpg","img/object_images/yoga_mat01.jpg","1","1","1","1","1","0","0.384375799447298","0.365710799582303","0.466081399936229","1","1","1","1","1","1","1","1","1"
"260049","img/object_images/yoga_mat01.jpg","img/object_images/tennis_racket01.jpg","img/object_images/bucket01.jpg","1","1","1","0","1","1","0.466081399936229","0.384375799447298","0.32305819960311","1","1","1","1","1","1","1","1","1"
"260049","img/object_images/bucket01.jpg","img/object_images/yoga_mat01.jpg","img/object_images/piano03.jpg","1","1","0","1","0","0","0.32305819960311","0.466081399936229","0.310478899627924","1","1","1","1","1","1","1","1","1"
"260049","img/object_images/piano03.jpg","img/object_images/bucket01.jpg","img/object_images/headset02.jpg","0","1","1","0","1","0","0.310478899627924","0.32305819960311","0.395656999666244","1","1","1","1","1","1","1","1","1"
"260049","img/object_images/headset02.jpg","img/object_images/piano03.jpg","img/object_images/fan01.jpg","1","0","1","0","0","0","0.395656999666244","0.310478899627924","0.32919429987669","1","1","1","1","1","1","1","1","1"
"260049","img/object_images/fan01.jpg","img/object_images/headset02.jpg","img/object_images/origami01.jpg","1","1","1","0","0","1","0.32919429987669","0.395656999666244","0.353423299733549","1","1","1","1","1","1","1","1","1"
"260049","img/object_images/origami01.jpg","img/object_images/fan01.jpg","img/object_images/Safe01.jpg","1","1","1","1","0","1","0.353423299733549","0.32919429987669","0.356564600020647","1","1","1","1","1","1","1","1","1"
"260049","img/object_images/Safe01.jpg","img/object_images/origami01.jpg","img/object_images/ToolBag01.jpg","1","1","1","1","1","0","0.356564600020647","0.353423299733549","0.434474699664861","1","1","1","1","1","1","1","1","1"
"260049","img/object_images/ToolBag01.jpg","img/object_images/Safe01.jpg","img/object_images/water_gun01.jpg","1","1","1","0","1","1","0.434474699664861","0.356564600020647","0.394753599539399","1","1","1","1","1","1","1","1","1"
"260049","img/object_images/water_gun01.jpg","img/object_images/ToolBag01.jpg","img/object_images/TreeSlice01.jpg","1","1","1","1","0","1","0.394753599539399","0.434474699664861","0.394969399552792","1","1","1","1","1","1","1","1","1"
"260049","img/object_images/TreeSlice01.jpg","img/object_images/water_gun01.jpg","img/object_images/lock03.jpg","1","1","1","1","1","1","0.394969399552792","0.394753599539399","0.385175099596381","1","1","1","1","1","1","1","1","1"
"260049","img/object_images/lock03.jpg","img/object_images/TreeSlice01.jpg","img/object_images/nut_cracker01.jpg","1","1","1","1","1","1","0.385175099596381","0.394969399552792","0.357361699454486","1","1","1","1","1","1","1","1","1"
"260049","img/object_images/nut_cracker01.jpg","img/object_images/lock03.jpg","img/object_images/Shoes05.jpg","1","1","0","1","1","0","0.357361699454486","0.385175099596381","0.443525599315763","1","1","1","1","1","1","1","1","1"
"260049","img/object_images/Shoes05.jpg","img/object_images/nut_cracker01.jpg","img/object_images/shovel01.jpg","0","1","1","0","1","0","0.443525599315763","0.357361699454486","0.478672299534082","1","1","1","1","1","1","1","1","1"
"260049","img/object_images/shovel01.jpg","img/object_images/Shoes05.jpg","img/object_images/scale02.jpg","1","0","1","0","0","0","0.478672299534082","0.443525599315763","0.404829899780452","1","1","1","1","1","1","1","1","1"
"260049","img/object_images/scale02.jpg","img/object_images/shovel01.jpg","img/object_images/note_book02.jpg","1","1","1","0","0","0","0.404829899780452","0.478672299534082","0.478183599654585","1","1","1","1","1","1","1","1","1"
"260049","img/object_images/note_book02.jpg","img/object_images/scale02.jpg","img/object_images/egg_basket01.jpg","1","1","1","0","0","1","0.478183599654585","0.404829899780452","0.429267099592835","1","1","1","1","1","1","1","1","1"
"260049","img/object_images/egg_basket01.jpg","img/object_images/note_book02.jpg","img/object_images/frame01.jpg","1","1","1","1","0","1","0.429267099592835","0.478183599654585","0.370452399831265","1","1","1","1","1","1","1","1","1"
"260049","img/object_images/frame01.jpg","img/object_images/egg_basket01.jpg","img/object_images/badminton01.jpg","1","1","1","1","1","1","0.370452399831265","0.429267099592835","0.35130489943549","1","1","1","1","1","1","1","1","1"
"260049","img/object_images/badminton01.jpg","img/object_images/frame01.jpg","img/object_images/trumpet01.jpg","1","1","1","1","1","0","0.35130489943549","0.370452399831265","0.421174599789083","1","1","1","1","1","1","1","1","1"
"260049","img/object_images/trumpet01.jpg","img/object_images/badminton01.jpg","img/object_images/belt03.jpg","1","1","1","0","1","0","0.421174599789083","0.35130489943549","0.396483199670911","1","1","1","1","1","1","1","1","1"
"260049","img/object_images/belt03.jpg","img/object_images/trumpet01.jpg","img/object_images/Eyeliner01.jpg","1","1","1","0","0","1","0.396483199670911","0.421174599789083","0.362905199639499","1","1","1","1","1","1","1","1","1"
"260049","img/object_images/Eyeliner01.jpg","img/object_images/belt03.jpg","img/object_images/jewel02.jpg","1","1","1","1","0","0","0.362905199639499","0.396483199670911","0.443068999797106","1","1","1","1","1","1","1","1","1"
"260049","img/object_images/jewel02.jpg","img/object_images/Eyeliner01.jpg","img/object_images/helmet03.jpg","1","1","1","0","1","1","0.443068999797106","0.362905199639499","0.363722699694335","1","1","1","1","1","1","1","1","1"
"260049","img/object_images/helmet03.jpg","img/object_images/jewel02.jpg","img/object_images/usb03.jpg","1","1","1","1","0","0","0.363722699694335","0.443068999797106","0.391153899487108","1","1","1","1","1","1","1","1","1"
"260049","img/object_images/usb03.jpg","img/object_images/helmet03.jpg",NA,"1","1",NA,"0","1",NA,"0.391153899487108","0.363722699694335",NA,"1","1",NA,"1","1",NA,"1","1",NA
"260049","img/object_images/razor02.jpg",NA,"img/object_images/spray_can01.jpg","1",NA,"0","1",NA,"0","0.386104399804026",NA,"0.320779499597847","1",NA,"1","1",NA,"1","1",NA,"2"
"260049","img/object_images/spray_can01.jpg","img/object_images/razor02.jpg","img/object_images/Confetti 01.jpg","0","1","1","0","1","0","0.320779499597847","0.386104399804026","0.426197399385274","1","1","1","1","1","1","2","1","1"
"260049","img/object_images/Confetti 01.jpg","img/object_images/spray_can01.jpg","img/object_images/pen06.jpg","1","0","1","0","0","0","0.426197399385274","0.320779499597847","0.398368499241769","1","1","1","1","1","1","1","2","1"
"260049","img/object_images/pen06.jpg","img/object_images/Confetti 01.jpg","img/object_images/Candle_Holder01.jpg","1","1","1","0","0","0","0.398368499241769","0.426197399385274","0.348527799826115","1","1","1","1","1","1","1","1","1"
"260049","img/object_images/Candle_Holder01.jpg","img/object_images/pen06.jpg","img/object_images/ruler02.jpg","1","1","1","0","0","1","0.348527799826115","0.398368499241769","0.367860499769449","1","1","1","1","1","1","1","1","1"
"260049","img/object_images/ruler02.jpg","img/object_images/Candle_Holder01.jpg","img/object_images/hat09.jpg","1","1","1","1","0","0","0.367860499769449","0.348527799826115","0.402224699500948","1","1","1","1","1","1","1","1","1"
"260049","img/object_images/hat09.jpg","img/object_images/ruler02.jpg","img/object_images/dust_pan01.jpg","1","1","1","0","1","1","0.402224699500948","0.367860499769449","0.314163699746132","1","1","1","1","1","1","1","1","1"
"260049","img/object_images/dust_pan01.jpg","img/object_images/hat09.jpg","img/object_images/candle02.jpg","1","1","1","1","0","0","0.314163699746132","0.402224699500948","0.350553599651903","1","1","1","1","1","1","1","1","1"
"260049","img/object_images/candle02.jpg","img/object_images/dust_pan01.jpg","img/object_images/cup01.jpg","1","1","1","0","1","0","0.350553599651903","0.314163699746132","0.330111799761653","1","1","1","1","1","1","1","1","1"
"260049","img/object_images/cup01.jpg","img/object_images/candle02.jpg","img/object_images/office_supplies01.jpg","1","1","1","0","0","1","0.330111799761653","0.350553599651903","0.320359899662435","1","1","1","1","1","1","1","1","1"
"260049","img/object_images/office_supplies01.jpg","img/object_images/cup01.jpg","img/object_images/pan03.jpg","1","1","1","1","0","1","0.320359899662435","0.330111799761653","0.37051979964599","1","1","1","1","1","1","1","1","1"
"260049","img/object_images/pan03.jpg","img/object_images/office_supplies01.jpg","img/object_images/lemon_squeezer01.jpg","1","1","1","1","1","1","0.37051979964599","0.320359899662435","0.387306899297982","1","1","1","1","1","1","1","1","1"
"260049","img/object_images/lemon_squeezer01.jpg","img/object_images/pan03.jpg","img/object_images/perfume01.jpg","1","1","1","1","1","0","0.387306899297982","0.37051979964599","0.5970369996503","1","1","1","1","1","1","1","1","1"
"260049","img/object_images/perfume01.jpg","img/object_images/lemon_squeezer01.jpg","img/object_images/glasses03.jpg","1","1","1","0","1","0","0.5970369996503","0.387306899297982","0.427549900021404","1","1","1","1","1","1","1","1","1"
"260049","img/object_images/glasses03.jpg","img/object_images/perfume01.jpg","img/object_images/hammer02.jpg","1","1","1","0","0","0","0.427549900021404","0.5970369996503","0.372322599869222","1","1","1","1","1","1","1","1","1"
"260049","img/object_images/hammer02.jpg","img/object_images/glasses03.jpg","img/object_images/hat13.jpg","1","1","1","0","0","1","0.372322599869222","0.427549900021404","0.380834899842739","1","1","1","1","1","1","1","1","1"
"260049","img/object_images/hat13.jpg","img/object_images/hammer02.jpg","img/object_images/knife01.jpg","1","1","1","1","0","1","0.380834899842739","0.372322599869222","0.335154099389911","1","1","1","1","1","1","1","1","1"
"260049","img/object_images/knife01.jpg","img/object_images/hat13.jpg","img/object_images/tool20.jpg","1","1","1","1","1","0","0.335154099389911","0.380834899842739","0.336717599537224","1","1","1","1","1","1","1","1","1"
"260049","img/object_images/tool20.jpg","img/object_images/knife01.jpg","img/object_images/sign02.jpg","1","1","0","0","1","0","0.336717599537224","0.335154099389911","0.287985099479556","1","1","1","1","1","1","1","1","1"
"260049","img/object_images/sign02.jpg","img/object_images/tool20.jpg","img/object_images/clipboard01.jpg","0","1","1","0","0","1","0.287985099479556","0.336717599537224","0.384291499387473","1","1","1","1","1","1","1","1","1"
"260049","img/object_images/clipboard01.jpg","img/object_images/sign02.jpg","img/object_images/board01.jpg","1","0","1","1","0","1","0.384291499387473","0.287985099479556","0.355192899238318","1","1","1","1","1","1","1","1","1"
"260049","img/object_images/board01.jpg","img/object_images/clipboard01.jpg","img/object_images/bag04.jpg","1","1","1","1","1","0","0.355192899238318","0.384291499387473","0.412223199382424","1","1","1","1","1","1","1","1","1"
"260049","img/object_images/bag04.jpg","img/object_images/board01.jpg","img/object_images/floss01.jpg","1","1","1","0","1","1","0.412223199382424","0.355192899238318","0.34391379961744","1","1","1","1","1","1","1","1","1"
"260049","img/object_images/floss01.jpg","img/object_images/bag04.jpg","img/object_images/sink_filter01 (1).jpg","1","1","0","1","0","0","0.34391379961744","0.412223199382424","0.357237399555743","1","1","1","1","1","1","1","1","1"
"260049","img/object_images/sink_filter01 (1).jpg","img/object_images/floss01.jpg","img/object_images/vase02.jpg","0","1","1","0","1","1","0.357237399555743","0.34391379961744","0.351071599405259","1","1","1","1","1","1","1","1","1"
"260049","img/object_images/vase02.jpg","img/object_images/sink_filter01 (1).jpg","img/object_images/video_game02.jpg","1","0","1","1","0","1","0.351071599405259","0.357237399555743","0.341878999490291","1","1","1","1","1","1","1","1","1"
"260049","img/object_images/video_game02.jpg","img/object_images/vase02.jpg","img/object_images/bow_tie03.jpg","1","1","1","1","1","1","0.341878999490291","0.351071599405259","0.305264299735427","1","1","1","1","1","1","1","1","1"
"260049","img/object_images/bow_tie03.jpg","img/object_images/video_game02.jpg","img/object_images/tool13.jpg","1","1","1","1","1","1","0.305264299735427","0.341878999490291","0.300852199550718","1","1","1","1","1","1","1","1","1"
"260049","img/object_images/tool13.jpg","img/object_images/bow_tie03.jpg","img/object_images/camera05.jpg","1","1","1","1","1","0","0.300852199550718","0.305264299735427","0.398345099762082","1","1","1","1","1","1","1","1","1"
"260049","img/object_images/camera05.jpg","img/object_images/tool13.jpg","img/object_images/duster01.jpg","1","1","1","0","1","0","0.398345099762082","0.300852199550718","0.385310299228877","1","1","1","1","1","1","1","1","1"
"260049","img/object_images/duster01.jpg","img/object_images/camera05.jpg","img/object_images/socks01.jpg","1","1","1","0","0","1","0.385310299228877","0.398345099762082","0.3037163997069","1","1","1","1","1","1","1","1","1"
"260049","img/object_images/socks01.jpg","img/object_images/duster01.jpg",NA,"1","1",NA,"1","0",NA,"0.3037163997069","0.385310299228877",NA,"1","1",NA,"1","1",NA,"1","1",NA
"260049","img/object_images/pitcher01.jpg",NA,"img/object_images/Thermometer01.jpg","0",NA,"1","0",NA,"0","0.363654199521989",NA,"0.462021899409592","1",NA,"1","1",NA,"1","1",NA,"1"
"260049","img/object_images/Thermometer01.jpg","img/object_images/pitcher01.jpg","img/object_images/lid01.jpg","1","0","1","0","0","1","0.462021899409592","0.363654199521989","0.332981700077653","1","1","1","1","1","1","1","1","1"
"260049","img/object_images/lid01.jpg","img/object_images/Thermometer01.jpg","img/object_images/knit05.jpg","1","1","1","1","0","1","0.332981700077653","0.462021899409592","0.373197800014168","1","1","1","1","1","1","1","1","1"
"260049","img/object_images/knit05.jpg","img/object_images/lid01.jpg","img/object_images/cellphone01.jpg","1","1","1","1","1","1","0.373197800014168","0.332981700077653","0.333452699705958","1","1","1","1","1","1","1","1","1"
"260049","img/object_images/cellphone01.jpg","img/object_images/knit05.jpg","img/object_images/book03.jpg","1","1","1","1","1","1","0.333452699705958","0.373197800014168","0.327839999459684","1","1","1","1","1","1","1","1","1"
"260049","img/object_images/book03.jpg","img/object_images/cellphone01.jpg","img/object_images/Oven01.jpg","1","1","1","1","1","1","0.327839999459684","0.333452699705958","0.34672059956938","1","1","1","1","1","1","1","1","1"
"260049","img/object_images/Oven01.jpg","img/object_images/book03.jpg","img/object_images/retainer01.jpg","1","1","1","1","1","0","0.34672059956938","0.327839999459684","0.342560899909586","1","1","1","1","1","1","1","1","1"
"260049","img/object_images/retainer01.jpg","img/object_images/Oven01.jpg","img/object_images/bottle01.jpg","1","1","0","0","1","0","0.342560899909586","0.34672059956938","0.334460699930787","1","1","1","1","1","1","1","1","1"
"260049","img/object_images/bottle01.jpg","img/object_images/retainer01.jpg","img/object_images/clock02.jpg","0","1","0","0","0","0","0.334460699930787","0.342560899909586","0.462778399698436","1","1","1","1","1","1","1","1","2"
"260049","img/object_images/clock02.jpg","img/object_images/bottle01.jpg","img/object_images/motorcycle01.jpg","0","0","1","0","0","1","0.462778399698436","0.334460699930787","0.396076299715787","1","1","1","1","1","1","2","1","1"
"260049","img/object_images/motorcycle01.jpg","img/object_images/clock02.jpg","img/object_images/knife04.jpg","1","0","1","1","0","1","0.396076299715787","0.462778399698436","0.325347799807787","1","1","1","1","1","1","1","2","1"
"260049","img/object_images/knife04.jpg","img/object_images/motorcycle01.jpg","img/object_images/chess_piece02.jpg","1","1","1","1","1","1","0.325347799807787","0.396076299715787","0.401670799590647","1","1","1","1","1","1","1","1","1"
"260049","img/object_images/chess_piece02.jpg","img/object_images/knife04.jpg","img/object_images/pen03.jpg","1","1","0","1","1","0","0.401670799590647","0.325347799807787","0.328248699661344","1","1","1","1","1","1","1","1","1"
"260049","img/object_images/pen03.jpg","img/object_images/chess_piece02.jpg","img/object_images/usb02.jpg","0","1","1","0","1","0","0.328248699661344","0.401670799590647","0.408914599567652","1","1","1","1","1","1","1","1","1"
"260049","img/object_images/usb02.jpg","img/object_images/pen03.jpg","img/object_images/paint_brush04.jpg","1","0","1","0","0","0","0.408914599567652","0.328248699661344","0.310708999633789","1","1","1","1","1","1","1","1","1"
"260049","img/object_images/paint_brush04.jpg","img/object_images/usb02.jpg","img/object_images/wire02.jpg","1","1","1","0","0","1","0.310708999633789","0.408914599567652","0.356014600023627","1","1","1","1","1","1","1","1","1"
"260049","img/object_images/wire02.jpg","img/object_images/paint_brush04.jpg","img/object_images/hammer03.jpg","1","1","1","1","0","1","0.356014600023627","0.310708999633789","0.284175999928266","1","1","1","1","1","1","1","1","1"
"260049","img/object_images/hammer03.jpg","img/object_images/wire02.jpg","img/object_images/Staples01.jpg","1","1","1","1","1","1","0.284175999928266","0.356014600023627","0.294951199553907","1","1","1","1","1","1","1","1","1"
"260049","img/object_images/Staples01.jpg","img/object_images/hammer03.jpg","img/object_images/compass01.jpg","1","1","1","1","1","1","0.294951199553907","0.284175999928266","0.361906399484724","1","1","1","1","1","1","1","1","1"
"260049","img/object_images/compass01.jpg","img/object_images/Staples01.jpg","img/object_images/floppy_disk02.jpg","1","1","0","1","1","0","0.361906399484724","0.294951199553907","0.361598199699074","1","1","1","1","1","1","1","1","1"
"260049","img/object_images/floppy_disk02.jpg","img/object_images/compass01.jpg","img/object_images/tennis_racket02.jpg","0","1","1","0","1","1","0.361598199699074","0.361906399484724","0.365625699516386","1","1","1","1","1","1","1","1","1"
"260049","img/object_images/tennis_racket02.jpg","img/object_images/floppy_disk02.jpg","img/object_images/microscope01.jpg","1","0","0","1","0","0","0.365625699516386","0.361598199699074","0.360725899692625","1","1","1","1","1","1","1","1","1"
"260049","img/object_images/microscope01.jpg","img/object_images/tennis_racket02.jpg","img/object_images/bell02.jpg","0","1","1","0","1","0","0.360725899692625","0.365625699516386","0.421668499708176","1","1","1","1","1","1","1","1","1"
"260049","img/object_images/bell02.jpg","img/object_images/microscope01.jpg","img/object_images/floppy_disk03.jpg","1","0","1","0","0","1","0.421668499708176","0.360725899692625","0.340699899476022","1","1","1","1","1","1","1","1","1"
"260049","img/object_images/floppy_disk03.jpg","img/object_images/bell02.jpg","img/object_images/crutches02.jpg","1","1","1","1","0","0","0.340699899476022","0.421668499708176","0.325587399769574","1","1","1","1","1","1","1","1","1"
"260049","img/object_images/crutches02.jpg","img/object_images/floppy_disk03.jpg","img/object_images/pillows01.jpg","1","1","1","0","1","1","0.325587399769574","0.340699899476022","0.353882299736142","1","1","1","1","1","1","1","1","1"
"260049","img/object_images/pillows01.jpg","img/object_images/crutches02.jpg","img/object_images/ear_bud01.jpg","1","1","1","1","0","1","0.353882299736142","0.325587399769574","0.309218199457973","1","1","1","1","1","1","1","1","1"
"260049","img/object_images/ear_bud01.jpg","img/object_images/pillows01.jpg","img/object_images/clip03.jpg","1","1","1","1","1","0","0.309218199457973","0.353882299736142","0.381799099966884","1","1","1","1","1","1","1","1","1"
"260049","img/object_images/clip03.jpg","img/object_images/ear_bud01.jpg","img/object_images/tv02.jpg","1","1","1","0","1","0","0.381799099966884","0.309218199457973","0.45111949974671","1","1","1","1","1","1","1","1","1"
"260049","img/object_images/tv02.jpg","img/object_images/clip03.jpg","img/object_images/note_book01.jpg","1","1","1","0","0","0","0.45111949974671","0.381799099966884","0.333101799245924","1","1","1","1","1","1","1","1","1"
"260049","img/object_images/note_book01.jpg","img/object_images/tv02.jpg","img/object_images/chair05.jpg","1","1","1","0","0","0","0.333101799245924","0.45111949974671","0.410026199650019","1","1","1","1","1","1","1","1","1"
"260049","img/object_images/chair05.jpg","img/object_images/note_book01.jpg",NA,"1","1",NA,"0","0",NA,"0.410026199650019","0.333101799245924",NA,"1","1",NA,"1","1",NA,"1","1",NA
"260049","img/object_images/gift_box04.jpg",NA,"img/object_images/glasses06.jpg","1",NA,"1","0",NA,"1","0.442425599787384",NA,"0.369720799382776","1",NA,"1","1",NA,"1","1",NA,"1"
"260049","img/object_images/glasses06.jpg","img/object_images/gift_box04.jpg","img/object_images/cup03.jpg","1","1","1","1","0","1","0.369720799382776","0.442425599787384","0.334030799567699","1","1","1","1","1","1","1","1","1"
"260049","img/object_images/cup03.jpg","img/object_images/glasses06.jpg","img/object_images/colander01.jpg","1","1","0","1","1","0","0.334030799567699","0.369720799382776","0.33487549982965","1","1","1","1","1","1","1","1","2"
"260049","img/object_images/colander01.jpg","img/object_images/cup03.jpg","img/object_images/Traffic Sign 01.jpg","0","1","1","0","1","0","0.33487549982965","0.334030799567699","0.403687600046396","1","1","1","1","1","1","2","1","1"
"260049","img/object_images/Traffic Sign 01.jpg","img/object_images/colander01.jpg","img/object_images/handcuffs01.jpg","1","0","0","0","0","0","0.403687600046396","0.33487549982965","0.355743199586868","1","1","1","1","1","1","1","2","2"
"260049","img/object_images/handcuffs01.jpg","img/object_images/Traffic Sign 01.jpg","img/object_images/hole_puncher01.jpg","0","1","1","0","0","1","0.355743199586868","0.403687600046396","0.351661799941212","1","1","1","1","1","1","2","1","1"
"260049","img/object_images/hole_puncher01.jpg","img/object_images/handcuffs01.jpg","img/object_images/yo_yo01.jpg","1","0","1","1","0","0","0.351661799941212","0.355743199586868","0.348913799505681","1","1","1","1","1","1","1","2","1"
"260049","img/object_images/yo_yo01.jpg","img/object_images/hole_puncher01.jpg","img/object_images/bicycle_lock01.jpg","1","1","1","0","1","0","0.348913799505681","0.351661799941212","0.287543799728155","1","1","1","1","1","1","1","1","1"
"260049","img/object_images/bicycle_lock01.jpg","img/object_images/yo_yo01.jpg","img/object_images/speaker01.jpg","1","1","1","0","0","1","0.287543799728155","0.348913799505681","0.381263899616897","1","1","1","1","1","1","1","1","1"
"260049","img/object_images/speaker01.jpg","img/object_images/bicycle_lock01.jpg","img/object_images/Kitchen_Towel.jpg","1","1","1","1","0","0","0.381263899616897","0.287543799728155","0.347908800002187","1","1","1","1","1","1","1","1","1"
"260049","img/object_images/Kitchen_Towel.jpg","img/object_images/speaker01.jpg","img/object_images/blanket01.jpg","1","1","1","0","1","1","0.347908800002187","0.381263899616897","0.377151099964976","1","1","1","1","1","1","1","1","1"
"260049","img/object_images/blanket01.jpg","img/object_images/Kitchen_Towel.jpg","img/object_images/pan01.jpg","1","1","1","1","0","1","0.377151099964976","0.347908800002187","0.309677599929273","1","1","1","1","1","1","1","1","1"
"260049","img/object_images/pan01.jpg","img/object_images/blanket01.jpg","img/object_images/tool08.jpg","1","1","1","1","1","0","0.309677599929273","0.377151099964976","0.316747999284416","1","1","1","1","1","1","1","1","1"
"260049","img/object_images/tool08.jpg","img/object_images/pan01.jpg","img/object_images/Sprayer01.jpg","1","1","1","0","1","0","0.316747999284416","0.309677599929273","0.339139799587429","1","1","1","1","1","1","1","1","1"
"260049","img/object_images/Sprayer01.jpg","img/object_images/tool08.jpg","img/object_images/glasses07.jpg","1","1","1","0","0","1","0.339139799587429","0.316747999284416","0.330758200027049","1","1","1","1","1","1","1","1","1"
"260049","img/object_images/glasses07.jpg","img/object_images/Sprayer01.jpg","img/object_images/cellphone02.jpg","1","1","1","1","0","1","0.330758200027049","0.339139799587429","0.30868519982323","1","1","1","1","1","1","1","1","1"
"260049","img/object_images/cellphone02.jpg","img/object_images/glasses07.jpg","img/object_images/hair_clips01.jpg","1","1","1","1","1","1","0.30868519982323","0.330758200027049","0.33543249964714","1","1","1","1","1","1","1","1","1"
"260049","img/object_images/hair_clips01.jpg","img/object_images/cellphone02.jpg","img/object_images/ring03.jpg","1","1","1","1","1","1","0.33543249964714","0.30868519982323","0.408344499766827","1","1","1","1","1","1","1","1","1"
"260049","img/object_images/ring03.jpg","img/object_images/hair_clips01.jpg","img/object_images/purse01.jpg","1","1","1","1","1","1","0.408344499766827","0.33543249964714","0.375273599755019","1","1","1","1","1","1","1","1","1"
"260049","img/object_images/purse01.jpg","img/object_images/ring03.jpg","img/object_images/Pottery01.jpg","1","1","0","1","1","0","0.375273599755019","0.408344499766827","0.308452100027353","1","1","1","1","1","1","1","1","1"
"260049","img/object_images/Pottery01.jpg","img/object_images/purse01.jpg","img/object_images/tray01.jpg","0","1","1","0","1","1","0.308452100027353","0.375273599755019","0.333855799399316","1","1","1","1","1","1","1","1","1"
"260049","img/object_images/tray01.jpg","img/object_images/Pottery01.jpg","img/object_images/lighter01.jpg","1","0","1","1","0","1","0.333855799399316","0.308452100027353","0.298373299650848","1","1","1","1","1","1","1","1","1"
"260049","img/object_images/lighter01.jpg","img/object_images/tray01.jpg","img/object_images/tool07.jpg","1","1","1","1","1","0","0.298373299650848","0.333855799399316","0.448665499687195","1","1","1","1","1","1","1","1","1"
"260049","img/object_images/tool07.jpg","img/object_images/lighter01.jpg","img/object_images/faucet01.jpg","1","1","0","0","1","0","0.448665499687195","0.298373299650848","0.296053199563175","1","1","1","1","1","1","1","1","1"
"260049","img/object_images/faucet01.jpg","img/object_images/tool07.jpg","img/object_images/jewelry09.jpg","0","1","1","0","0","1","0.296053199563175","0.448665499687195","0.347875099629164","1","1","1","1","1","1","1","1","1"
"260049","img/object_images/jewelry09.jpg","img/object_images/faucet01.jpg","img/object_images/basket02.jpg","1","0","0","1","0","0","0.347875099629164","0.296053199563175","0.370492899790406","1","1","1","1","1","1","1","1","2"
"260049","img/object_images/basket02.jpg","img/object_images/jewelry09.jpg","img/object_images/exfoliater_brush01.jpg","0","1","1","0","1","0","0.370492899790406","0.347875099629164","0.37849919963628","1","1","1","1","1","1","2","1","1"
"260049","img/object_images/exfoliater_brush01.jpg","img/object_images/basket02.jpg","img/object_images/fire_extinguisher01.jpg","1","0","1","0","0","0","0.37849919963628","0.370492899790406","0.396294399630278","1","1","1","1","1","1","1","2","1"
"260049","img/object_images/fire_extinguisher01.jpg","img/object_images/exfoliater_brush01.jpg","img/object_images/book01.jpg","1","1","1","0","0","1","0.396294399630278","0.37849919963628","0.377687799744308","1","1","1","1","1","1","1","1","1"
"260049","img/object_images/book01.jpg","img/object_images/fire_extinguisher01.jpg","img/object_images/projector01.jpg","1","1","1","1","0","0","0.377687799744308","0.396294399630278","0.503892899956554","1","1","1","1","1","1","1","1","1"
"260049","img/object_images/projector01.jpg","img/object_images/book01.jpg","img/object_images/TrashCan02.jpg","1","1","1","0","1","1","0.503892899956554","0.377687799744308","0.371145699638873","1","1","1","1","1","1","1","1","1"
"260049","img/object_images/TrashCan02.jpg","img/object_images/projector01.jpg",NA,"1","1",NA,"1","0",NA,"0.371145699638873","0.503892899956554",NA,"1","1",NA,"1","1",NA,"1","1",NA
"260049","img/object_images/vase01.jpg",NA,"img/object_images/Lint_Roller02.jpg","1",NA,"1","0",NA,"0","0.379461699631065",NA,"0.360994899645448","1",NA,"1","1",NA,"1","1",NA,"1"
"260049","img/object_images/Lint_Roller02.jpg","img/object_images/vase01.jpg","img/object_images/lock01.jpg","1","1","1","0","0","0","0.360994899645448","0.379461699631065","0.346738699357957","1","1","1","1","1","1","1","1","1"
"260049","img/object_images/lock01.jpg","img/object_images/Lint_Roller02.jpg","img/object_images/stove01.jpg","1","1","0","0","0","0","0.346738699357957","0.360994899645448","0.42464999994263","1","1","1","1","1","1","1","1","2"
"260049","img/object_images/stove01.jpg","img/object_images/lock01.jpg","img/object_images/towels01.jpg","0","1","1","0","0","0","0.42464999994263","0.346738699357957","0.34182609943673","1","1","1","1","1","1","2","1","1"
"260049","img/object_images/towels01.jpg","img/object_images/stove01.jpg","img/object_images/toy05.jpg","1","0","1","0","0","0","0.34182609943673","0.42464999994263","0.315578999463469","1","1","1","1","1","1","1","2","1"
"260049","img/object_images/toy05.jpg","img/object_images/towels01.jpg","img/object_images/pitcher05.jpg","1","1","1","0","0","0","0.315578999463469","0.34182609943673","0.355324099771678","1","1","1","1","1","1","1","1","1"
"260049","img/object_images/pitcher05.jpg","img/object_images/toy05.jpg","img/object_images/hair_dryer01.jpg","1","1","0","0","0","0","0.355324099771678","0.315578999463469","0.328412499744445","1","1","1","1","1","1","1","1","1"
"260049","img/object_images/hair_dryer01.jpg","img/object_images/pitcher05.jpg","img/object_images/helmet02.jpg","0","1","1","0","0","0","0.328412499744445","0.355324099771678","0.310134399682283","1","1","1","1","1","1","1","1","1"
"260049","img/object_images/helmet02.jpg","img/object_images/hair_dryer01.jpg","img/object_images/ball02.jpg","1","0","1","0","0","1","0.310134399682283","0.328412499744445","0.334892399609089","1","1","1","1","1","1","1","1","1"
"260049","img/object_images/ball02.jpg","img/object_images/helmet02.jpg","img/object_images/backpack03.jpg","1","1","1","1","0","1","0.334892399609089","0.310134399682283","0.35557339945808","1","1","1","1","1","1","1","1","1"
"260049","img/object_images/backpack03.jpg","img/object_images/ball02.jpg","img/object_images/gift_box05.jpg","1","1","1","1","1","0","0.35557339945808","0.334892399609089","0.326444699428976","1","1","1","1","1","1","1","1","1"
"260049","img/object_images/gift_box05.jpg","img/object_images/backpack03.jpg","img/object_images/Vest02.jpg","1","1","0","0","1","0","0.326444699428976","0.35557339945808","0.334878199268132","1","1","1","1","1","1","1","1","1"
"260049","img/object_images/Vest02.jpg","img/object_images/gift_box05.jpg","img/object_images/spatula02.jpg","0","1","1","0","0","1","0.334878199268132","0.326444699428976","0.34026509989053","1","1","1","1","1","1","1","1","1"
"260049","img/object_images/spatula02.jpg","img/object_images/Vest02.jpg","img/object_images/laptop03.jpg","1","0","1","1","0","1","0.34026509989053","0.334878199268132","0.339086199644953","1","1","1","1","1","1","1","1","1"
"260049","img/object_images/laptop03.jpg","img/object_images/spatula02.jpg","img/object_images/surf_board01.jpg","1","1","1","1","1","1","0.339086199644953","0.34026509989053","0.37861349992454","1","1","1","1","1","1","1","1","1"
"260049","img/object_images/surf_board01.jpg","img/object_images/laptop03.jpg","img/object_images/calculator01.jpg","1","1","1","1","1","1","0.37861349992454","0.339086199644953","0.381278399843723","1","1","1","1","1","1","1","1","1"
"260049","img/object_images/calculator01.jpg","img/object_images/surf_board01.jpg","img/object_images/shoes08.jpg","1","1","1","1","1","1","0.381278399843723","0.37861349992454","0.403597599361092","1","1","1","1","1","1","1","1","1"
"260049","img/object_images/shoes08.jpg","img/object_images/calculator01.jpg","img/object_images/robe01.jpg","1","1","1","1","1","1","0.403597599361092","0.381278399843723","0.415198300033808","1","1","1","1","1","1","1","1","1"
"260049","img/object_images/robe01.jpg","img/object_images/shoes08.jpg","img/object_images/accardion01.jpg","1","1","1","1","1","1","0.415198300033808","0.403597599361092","0.31797539955005","1","1","1","1","1","1","1","1","1"
"260049","img/object_images/accardion01.jpg","img/object_images/robe01.jpg","img/object_images/jewel03.jpg","1","1","1","1","1","1","0.31797539955005","0.415198300033808","0.392089199274778","1","1","1","1","1","1","1","1","1"
"260049","img/object_images/jewel03.jpg","img/object_images/accardion01.jpg","img/object_images/laptop01.jpg","1","1","1","1","1","0","0.392089199274778","0.31797539955005","0.380122499540448","1","1","1","1","1","1","1","1","1"
"260049","img/object_images/laptop01.jpg","img/object_images/jewel03.jpg","img/object_images/umbrella01.jpg","1","1","0","0","1","0","0.380122499540448","0.392089199274778","0.379330399446189","1","1","1","1","1","1","1","1","2"
"260049","img/object_images/umbrella01.jpg","img/object_images/laptop01.jpg","img/object_images/combs01.jpg","0","1","1","0","0","1","0.379330399446189","0.380122499540448","0.432982199359685","1","1","1","1","1","1","2","1","1"
"260049","img/object_images/combs01.jpg","img/object_images/umbrella01.jpg","img/object_images/fan04.jpg","1","0","0","1","0","0","0.432982199359685","0.379330399446189","0.309618799481541","1","1","1","1","1","1","1","2","1"
"260049","img/object_images/fan04.jpg","img/object_images/combs01.jpg","img/object_images/trash_can05.jpg","0","1","1","0","1","1","0.309618799481541","0.432982199359685","0.320964799728245","1","1","1","1","1","1","1","1","1"
"260049","img/object_images/trash_can05.jpg","img/object_images/fan04.jpg","img/object_images/hair_brush02.jpg","1","0","0","1","0","0","0.320964799728245","0.309618799481541","0.362740299664438","1","1","1","1","1","1","1","1","1"
"260049","img/object_images/hair_brush02.jpg","img/object_images/trash_can05.jpg","img/object_images/bucket02.jpg","0","1","1","0","1","1","0.362740299664438","0.320964799728245","0.38161309948191","1","1","1","1","1","1","1","1","1"
"260049","img/object_images/bucket02.jpg","img/object_images/hair_brush02.jpg","img/object_images/chair02.jpg","1","0","1","1","0","1","0.38161309948191","0.362740299664438","0.337474799714983","1","1","1","1","1","1","1","1","1"
"260049","img/object_images/chair02.jpg","img/object_images/bucket02.jpg","img/object_images/trash_can03.jpg","1","1","1","1","1","1","0.337474799714983","0.38161309948191","0.333002199884504","1","1","1","1","1","1","1","1","1"
"260049","img/object_images/trash_can03.jpg","img/object_images/chair02.jpg","img/object_images/microphone03.jpg","1","1","1","1","1","1","0.333002199884504","0.337474799714983","0.363071899395436","1","1","1","1","1","1","1","1","1"
"260049","img/object_images/microphone03.jpg","img/object_images/trash_can03.jpg","img/object_images/chess_piece01.jpg","1","1","1","1","1","0","0.363071899395436","0.333002199884504","0.406424399930984","1","1","1","1","1","1","1","1","1"
"260049","img/object_images/chess_piece01.jpg","img/object_images/microphone03.jpg",NA,"1","1",NA,"0","1",NA,"0.406424399930984","0.363071899395436",NA,"1","1",NA,"1","1",NA,"1","1",NA
"260049","img/object_images/lantern01.jpg",NA,"img/object_images/drone02.jpg","1",NA,"1","1",NA,"0","0.449199799448252",NA,"0.371827600058168","1",NA,"1","1",NA,"1","1",NA,"1"
"260049","img/object_images/drone02.jpg","img/object_images/lantern01.jpg","img/object_images/basketball_hoop02.jpg","1","1","1","0","1","0","0.371827600058168","0.449199799448252","0.381919599603862","1","1","1","1","1","1","1","1","1"
"260049","img/object_images/basketball_hoop02.jpg","img/object_images/drone02.jpg","img/object_images/ironing_table02.jpg","1","1","0","0","0","0","0.381919599603862","0.371827600058168","0.346579899545759","1","1","1","1","1","1","1","1","1"
"260049","img/object_images/ironing_table02.jpg","img/object_images/basketball_hoop02.jpg","img/object_images/pot01.jpg","0","1","0","0","0","0","0.346579899545759","0.381919599603862","0.350439999718219","1","1","1","1","1","1","1","1","1"
"260049","img/object_images/pot01.jpg","img/object_images/ironing_table02.jpg","img/object_images/Wisk01.jpg","0","0","1","0","0","1","0.350439999718219","0.346579899545759","0.376742199528962","1","1","1","1","1","1","1","1","1"
"260049","img/object_images/Wisk01.jpg","img/object_images/pot01.jpg","img/object_images/Recycling01.jpg","1","0","1","1","0","1","0.376742199528962","0.350439999718219","0.303681099787354","1","1","1","1","1","1","1","1","1"
"260049","img/object_images/Recycling01.jpg","img/object_images/Wisk01.jpg","img/object_images/hat02.jpg","1","1","1","1","1","0","0.303681099787354","0.376742199528962","0.426833599805832","1","1","1","1","1","1","1","1","1"
"260049","img/object_images/hat02.jpg","img/object_images/Recycling01.jpg","img/object_images/pitcher03.jpg","1","1","1","0","1","1","0.426833599805832","0.303681099787354","0.335149699356407","1","1","1","1","1","1","1","1","1"
"260049","img/object_images/pitcher03.jpg","img/object_images/hat02.jpg","img/object_images/toy_train02.jpg","1","1","1","1","0","1","0.335149699356407","0.426833599805832","0.313754399772733","1","1","1","1","1","1","1","1","1"
"260049","img/object_images/toy_train02.jpg","img/object_images/pitcher03.jpg","img/object_images/cochlear_implant01.jpg","1","1","0","1","1","0","0.313754399772733","0.335149699356407","0.319864399265498","1","1","1","1","1","1","1","1","1"
"260049","img/object_images/cochlear_implant01.jpg","img/object_images/toy_train02.jpg","img/object_images/airfryer01.jpg","0","1","1","0","1","0","0.319864399265498","0.313754399772733","0.470683199819177","1","1","1","1","1","1","1","1","1"
"260049","img/object_images/airfryer01.jpg","img/object_images/cochlear_implant01.jpg","img/object_images/guitar01.jpg","1","0","1","0","0","1","0.470683199819177","0.319864399265498","0.393437799531967","1","1","1","1","1","1","1","1","1"
"260049","img/object_images/guitar01.jpg","img/object_images/airfryer01.jpg","img/object_images/soap01.jpg","1","1","1","1","0","0","0.393437799531967","0.470683199819177","0.452476899605244","1","1","1","1","1","1","1","1","1"
"260049","img/object_images/soap01.jpg","img/object_images/guitar01.jpg","img/object_images/tie01.jpg","1","1","1","0","1","0","0.452476899605244","0.393437799531967","0.414278999902308","1","1","1","1","1","1","1","1","1"
"260049","img/object_images/tie01.jpg","img/object_images/soap01.jpg","img/object_images/bottle12.jpg","1","1","1","0","0","1","0.414278999902308","0.452476899605244","0.358973999507725","1","1","1","1","1","1","1","1","1"
"260049","img/object_images/bottle12.jpg","img/object_images/tie01.jpg","img/object_images/brief_case02.jpg","1","1","1","1","0","1","0.358973999507725","0.414278999902308","0.567801599390805","1","1","1","1","1","1","1","1","1"
"260049","img/object_images/brief_case02.jpg","img/object_images/bottle12.jpg","img/object_images/couch04.jpg","1","1","1","1","1","1","0.567801599390805","0.358973999507725","0.320751099847257","1","1","1","1","1","1","1","1","1"
"260049","img/object_images/couch04.jpg","img/object_images/brief_case02.jpg","img/object_images/video_game06.jpg","1","1","0","1","1","0","0.320751099847257","0.567801599390805","0.32807459961623","1","1","1","1","1","1","1","1","1"
"260049","img/object_images/video_game06.jpg","img/object_images/couch04.jpg","img/object_images/gloves05.jpg","0","1","1","0","1","1","0.32807459961623","0.320751099847257","0.378559799864888","1","1","1","1","1","1","1","1","1"
"260049","img/object_images/gloves05.jpg","img/object_images/video_game06.jpg","img/object_images/Woopie01.jpg","1","0","1","1","0","1","0.378559799864888","0.32807459961623","0.367892399895936","1","1","1","1","1","1","1","1","1"
"260049","img/object_images/Woopie01.jpg","img/object_images/gloves05.jpg","img/object_images/broom01.jpg","1","1","1","1","1","1","0.367892399895936","0.378559799864888","0.332930299453437","1","1","1","1","1","1","1","1","1"
"260049","img/object_images/broom01.jpg","img/object_images/Woopie01.jpg","img/object_images/car02.jpg","1","1","0","1","1","0","0.332930299453437","0.367892399895936","0.342673099599779","1","1","1","1","1","1","1","1","1"
"260049","img/object_images/car02.jpg","img/object_images/broom01.jpg","img/object_images/helmet05.jpg","0","1","1","0","1","1","0.342673099599779","0.332930299453437","0.362783599644899","1","1","1","1","1","1","1","1","1"
"260049","img/object_images/helmet05.jpg","img/object_images/car02.jpg","img/object_images/container01.jpg","1","0","1","1","0","0","0.362783599644899","0.342673099599779","0.486354399472475","1","1","1","1","1","1","1","1","1"
"260049","img/object_images/container01.jpg","img/object_images/helmet05.jpg","img/object_images/razor03.jpg","1","1","1","0","1","0","0.486354399472475","0.362783599644899","0.488987299613655","1","1","1","1","1","1","1","1","1"
"260049","img/object_images/razor03.jpg","img/object_images/container01.jpg","img/object_images/ball01.jpg","1","1","0","0","0","1","0.488987299613655","0.486354399472475","0.371578699909151","1","1","1","1","1","1","1","1","1"
"260049","img/object_images/ball01.jpg","img/object_images/razor03.jpg","img/object_images/toilet_paper01.jpg","0","1","1","1","0","1","0.371578699909151","0.488987299613655","0.347992199473083","1","1","1","1","1","1","1","1","1"
"260049","img/object_images/toilet_paper01.jpg","img/object_images/ball01.jpg","img/object_images/brief_case01.jpg","1","0","0","1","1","0","0.347992199473083","0.371578699909151","0.373570099473","1","1","1","1","1","1","1","1","1"
"260049","img/object_images/brief_case01.jpg","img/object_images/toilet_paper01.jpg","img/object_images/chair01.jpg","0","1","1","0","1","0","0.373570099473","0.347992199473083","0.431834699586034","1","1","1","1","1","1","1","1","1"
"260049","img/object_images/chair01.jpg","img/object_images/brief_case01.jpg","img/object_images/lamp01.jpg","1","0","1","0","0","1","0.431834699586034","0.373570099473","0.350537899881601","1","1","1","1","1","1","1","1","1"
"260049","img/object_images/lamp01.jpg","img/object_images/chair01.jpg","img/object_images/decorative02.jpg","1","1","0","1","0","0","0.350537899881601","0.431834699586034","0.382433699909598","1","1","1","1","1","1","1","1","1"
"260049","img/object_images/decorative02.jpg","img/object_images/lamp01.jpg",NA,"0","1",NA,"0","1",NA,"0.382433699909598","0.350537899881601",NA,"1","1",NA,"1","1",NA,"1","1",NA
"260049","img/object_images/balloon01.jpg",NA,"img/object_images/gift_box03.jpg","1",NA,"0","0",NA,"0","0.388625699561089",NA,"0.417983499821275","1",NA,"1","1",NA,"1","1",NA,"1"
"260049","img/object_images/gift_box03.jpg","img/object_images/balloon01.jpg","img/object_images/paper_cup01.jpg","0","1","1","0","0","0","0.417983499821275","0.388625699561089","0.464501999784261","1","1","1","1","1","1","1","1","1"
"260049","img/object_images/paper_cup01.jpg","img/object_images/gift_box03.jpg","img/object_images/camera07.jpg","1","0","1","0","0","1","0.464501999784261","0.417983499821275","0.396083199884742","1","1","1","1","1","1","1","1","1"
"260049","img/object_images/camera07.jpg","img/object_images/paper_cup01.jpg","img/object_images/gift_box01.jpg","1","1","1","1","0","1","0.396083199884742","0.464501999784261","0.375463299453259","1","1","1","1","1","1","1","1","1"
"260049","img/object_images/gift_box01.jpg","img/object_images/camera07.jpg","img/object_images/sleeping_bag01.jpg","1","1","1","1","1","0","0.375463299453259","0.396083199884742","0.409066999331117","1","1","1","1","1","1","1","1","1"
"260049","img/object_images/sleeping_bag01.jpg","img/object_images/gift_box01.jpg","img/object_images/ironing_table01.jpg","1","1","1","0","1","0","0.409066999331117","0.375463299453259","0.455561199691147","1","1","1","1","1","1","1","1","1"
"260049","img/object_images/ironing_table01.jpg","img/object_images/sleeping_bag01.jpg","img/object_images/gift_box02.jpg","1","1","1","0","0","1","0.455561199691147","0.409066999331117","0.328664199449122","1","1","1","1","1","1","1","1","1"
"260049","img/object_images/gift_box02.jpg","img/object_images/ironing_table01.jpg","img/object_images/couch03.jpg","1","1","1","1","0","0","0.328664199449122","0.455561199691147","0.361644699703902","1","1","1","1","1","1","1","1","1"
"260049","img/object_images/couch03.jpg","img/object_images/gift_box02.jpg","img/object_images/grater01.jpg","1","1","1","0","1","1","0.361644699703902","0.328664199449122","0.345977199729532","1","1","1","1","1","1","1","1","1"
"260049","img/object_images/grater01.jpg","img/object_images/couch03.jpg","img/object_images/Screws01.jpg","1","1","1","1","0","1","0.345977199729532","0.361644699703902","0.387892099563032","1","1","1","1","1","1","1","1","1"
"260049","img/object_images/Screws01.jpg","img/object_images/grater01.jpg","img/object_images/pitcher02.jpg","1","1","1","1","1","1","0.387892099563032","0.345977199729532","0.344933899585158","1","1","1","1","1","1","1","1","1"
"260049","img/object_images/pitcher02.jpg","img/object_images/Screws01.jpg","img/object_images/Witchhat01.jpg","1","1","1","1","1","1","0.344933899585158","0.387892099563032","0.408527499996126","1","1","1","1","1","1","1","1","1"
"260049","img/object_images/Witchhat01.jpg","img/object_images/pitcher02.jpg","img/object_images/bath_tub01.jpg","1","1","0","1","1","0","0.408527499996126","0.344933899585158","0.363484499976039","1","1","1","1","1","1","1","1","1"
"260049","img/object_images/bath_tub01.jpg","img/object_images/Witchhat01.jpg","img/object_images/handkerchief01.jpg","0","1","0","0","1","0","0.363484499976039","0.408527499996126","0.372679399326444","1","1","1","1","1","1","1","1","1"
"260049","img/object_images/handkerchief01.jpg","img/object_images/bath_tub01.jpg","img/object_images/jewelry01.jpg","0","0","1","0","0","1","0.372679399326444","0.363484499976039","0.386163399554789","1","1","1","1","1","1","1","1","1"
"260049","img/object_images/jewelry01.jpg","img/object_images/handkerchief01.jpg","img/object_images/hammer01.jpg","1","0","1","1","0","0","0.386163399554789","0.372679399326444","0.497401399537921","1","1","1","1","1","1","1","1","1"
"260049","img/object_images/hammer01.jpg","img/object_images/jewelry01.jpg","img/object_images/lawn_mower01.jpg","1","1","1","0","1","1","0.497401399537921","0.386163399554789","0.454610899556428","1","1","1","1","1","1","1","1","1"
"260049","img/object_images/lawn_mower01.jpg","img/object_images/hammer01.jpg","img/object_images/funnel01.jpg","1","1","1","1","0","0","0.454610899556428","0.497401399537921","0.435925099533051","1","1","1","1","1","1","1","1","1"
"260049","img/object_images/funnel01.jpg","img/object_images/lawn_mower01.jpg","img/object_images/fork03.jpg","1","1","1","0","1","1","0.435925099533051","0.454610899556428","0.394694799557328","1","1","1","1","1","1","1","1","1"
"260049","img/object_images/fork03.jpg","img/object_images/funnel01.jpg","img/object_images/clip02.jpg","1","1","1","1","0","1","0.394694799557328","0.435925099533051","0.404084799811244","1","1","1","1","1","1","1","1","1"
"260049","img/object_images/clip02.jpg","img/object_images/fork03.jpg","img/object_images/dresser04.jpg","1","1","1","1","1","0","0.404084799811244","0.394694799557328","0.397939999587834","1","1","1","1","1","1","1","1","1"
"260049","img/object_images/dresser04.jpg","img/object_images/clip02.jpg","img/object_images/coloring_pencil01.jpg","1","1","1","0","1","1","0.397939999587834","0.404084799811244","0.394454999361187","1","1","1","1","1","1","1","1","1"
"260049","img/object_images/coloring_pencil01.jpg","img/object_images/dresser04.jpg","img/object_images/vga_port 01.jpg","1","1","1","1","0","0","0.394454999361187","0.397939999587834","0.392663299571723","1","1","1","1","1","1","1","1","1"
"260049","img/object_images/vga_port 01.jpg","img/object_images/coloring_pencil01.jpg","img/object_images/wallet02.jpg","1","1","1","0","1","1","0.392663299571723","0.394454999361187","0.36124139977619","1","1","1","1","1","1","1","1","1"
"260049","img/object_images/wallet02.jpg","img/object_images/vga_port 01.jpg","img/object_images/bow_tie02.jpg","1","1","1","1","0","0","0.36124139977619","0.392663299571723","0.526373899541795","1","1","1","1","1","1","1","1","1"
"260049","img/object_images/bow_tie02.jpg","img/object_images/wallet02.jpg","img/object_images/jacket03.jpg","1","1","1","0","1","0","0.526373899541795","0.36124139977619","0.481405799742788","1","1","1","1","1","1","1","1","1"
"260049","img/object_images/jacket03.jpg","img/object_images/bow_tie02.jpg","img/object_images/bow_tie01.jpg","1","1","1","0","0","0","0.481405799742788","0.526373899541795","0.478649899829179","1","1","1","1","1","1","1","1","1"
"260049","img/object_images/bow_tie01.jpg","img/object_images/jacket03.jpg","img/object_images/golf_ball03.jpg","1","1","1","0","0","1","0.478649899829179","0.481405799742788","0.370777399744838","1","1","1","1","1","1","1","1","1"
"260049","img/object_images/golf_ball03.jpg","img/object_images/bow_tie01.jpg","img/object_images/measuring_tape02.jpg","1","1","1","1","0","1","0.370777399744838","0.478649899829179","0.397348899394274","1","1","1","1","1","1","1","1","1"
"260049","img/object_images/measuring_tape02.jpg","img/object_images/golf_ball03.jpg","img/object_images/lock04.jpg","1","1","1","1","1","1","0.397348899394274","0.370777399744838","0.383082899730653","1","1","1","1","1","1","1","1","1"
"260049","img/object_images/lock04.jpg","img/object_images/measuring_tape02.jpg","img/object_images/socks02.jpg","1","1","1","1","1","0","0.383082899730653","0.397348899394274","0.408789799548686","1","1","1","1","1","1","1","1","1"
"260049","img/object_images/socks02.jpg","img/object_images/lock04.jpg",NA,"1","1",NA,"0","1",NA,"0.408789799548686","0.383082899730653",NA,"1","1",NA,"1","1",NA,"1","1",NA
"260049","img/object_images/boat02.jpg",NA,"img/object_images/fan02.jpg","1",NA,"1","1",NA,"0","0.361807500012219",NA,"0.428415999747813","1",NA,"1","1",NA,"1","1",NA,"1"
"260049","img/object_images/fan02.jpg","img/object_images/boat02.jpg","img/object_images/dog_leash01.jpg","1","1","1","0","1","0","0.428415999747813","0.361807500012219","0.405056599527597","1","1","1","1","1","1","1","1","1"
"260049","img/object_images/dog_leash01.jpg","img/object_images/fan02.jpg","img/object_images/bean_bag02.jpg","1","1","1","0","0","1","0.405056599527597","0.428415999747813","0.338560399599373","1","1","1","1","1","1","1","1","1"
"260049","img/object_images/bean_bag02.jpg","img/object_images/dog_leash01.jpg","img/object_images/bottle10.jpg","1","1","1","1","0","1","0.338560399599373","0.405056599527597","0.36517919972539","1","1","1","1","1","1","1","1","1"
"260049","img/object_images/bottle10.jpg","img/object_images/bean_bag02.jpg","img/object_images/flask01.jpg","1","1","1","1","1","0","0.36517919972539","0.338560399599373","0.327421499416232","1","1","1","1","1","1","1","1","1"
"260049","img/object_images/flask01.jpg","img/object_images/bottle10.jpg","img/object_images/bottle09.jpg","1","1","1","0","1","0","0.327421499416232","0.36517919972539","0.366452999878675","1","1","1","1","1","1","1","1","1"
"260049","img/object_images/bottle09.jpg","img/object_images/flask01.jpg","img/object_images/camera_lens01.jpg","1","1","1","0","0","1","0.366452999878675","0.327421499416232","0.330452899448574","1","1","1","1","1","1","1","1","1"
"260049","img/object_images/camera_lens01.jpg","img/object_images/bottle09.jpg","img/object_images/chair03.jpg","1","1","1","1","0","0","0.330452899448574","0.366452999878675","0.388930899556726","1","1","1","1","1","1","1","1","1"
"260049","img/object_images/chair03.jpg","img/object_images/camera_lens01.jpg","img/object_images/boat_toy10.jpg","1","1","1","0","1","0","0.388930899556726","0.330452899448574","0.31681349966675","1","1","1","1","1","1","1","1","1"
"260049","img/object_images/boat_toy10.jpg","img/object_images/chair03.jpg","img/object_images/cellphone03.jpg","1","1","0","0","0","0","0.31681349966675","0.388930899556726","0.301314000040293","1","1","1","1","1","1","1","1","1"
"260049","img/object_images/cellphone03.jpg","img/object_images/boat_toy10.jpg","img/object_images/purse04.jpg","0","1","1","0","0","1","0.301314000040293","0.31681349966675","0.359954899642617","1","1","1","1","1","1","1","1","1"
"260049","img/object_images/purse04.jpg","img/object_images/cellphone03.jpg","img/object_images/audio_port01.jpg","1","0","1","1","0","1","0.359954899642617","0.301314000040293","0.363290799316019","1","1","1","1","1","1","1","1","1"
"260049","img/object_images/audio_port01.jpg","img/object_images/purse04.jpg","img/object_images/water_scooter01.jpg","1","1","1","1","1","1","0.363290799316019","0.359954899642617","0.444817599840462","1","1","1","1","1","1","1","1","1"
"260049","img/object_images/water_scooter01.jpg","img/object_images/audio_port01.jpg","img/object_images/helmet04.jpg","1","1","1","1","1","1","0.444817599840462","0.363290799316019","0.301380599383265","1","1","1","1","1","1","1","1","1"
"260049","img/object_images/helmet04.jpg","img/object_images/water_scooter01.jpg","img/object_images/tie02.jpg","1","1","0","1","1","0","0.301380599383265","0.444817599840462","0.404535299632698","1","1","1","1","1","1","1","1","1"
"260049","img/object_images/tie02.jpg","img/object_images/helmet04.jpg","img/object_images/WoodBox01.jpg","0","1","1","0","1","0","0.404535299632698","0.301380599383265","0.408822199329734","1","1","1","1","1","1","1","1","1"
"260049","img/object_images/WoodBox01.jpg","img/object_images/tie02.jpg","img/object_images/scoreboard01.jpg","1","0","1","0","0","1","0.408822199329734","0.404535299632698","0.328763699624687","1","1","1","1","1","1","1","1","1"
"260049","img/object_images/scoreboard01.jpg","img/object_images/WoodBox01.jpg","img/object_images/wagon_cart03.jpg","1","1","1","1","0","1","0.328763699624687","0.408822199329734","0.488086099270731","1","1","1","1","1","1","1","1","1"
"260049","img/object_images/wagon_cart03.jpg","img/object_images/scoreboard01.jpg","img/object_images/toaster01.jpg","1","1","1","1","1","1","0.488086099270731","0.328763699624687","0.356657199561596","1","1","1","1","1","1","1","1","1"
"260049","img/object_images/toaster01.jpg","img/object_images/wagon_cart03.jpg","img/object_images/pen05.jpg","1","1","1","1","1","0","0.356657199561596","0.488086099270731","0.406142099760473","1","1","1","1","1","1","1","1","1"
"260049","img/object_images/pen05.jpg","img/object_images/toaster01.jpg","img/object_images/perfume02.jpg","1","1","1","0","1","0","0.406142099760473","0.356657199561596","0.412063999567181","1","1","1","1","1","1","1","1","1"
"260049","img/object_images/perfume02.jpg","img/object_images/pen05.jpg","img/object_images/coloring_pencil02.jpg","1","1","1","0","0","0","0.412063999567181","0.406142099760473","0.400867299642414","1","1","1","1","1","1","1","1","1"
"260049","img/object_images/coloring_pencil02.jpg","img/object_images/perfume02.jpg","img/object_images/knit01.jpg","1","1","1","0","0","0","0.400867299642414","0.412063999567181","0.401011499576271","1","1","1","1","1","1","1","1","1"
"260049","img/object_images/knit01.jpg","img/object_images/coloring_pencil02.jpg","img/object_images/hat06.jpg","1","1","0","0","0","0","0.401011499576271","0.400867299642414","0.409869499504566","1","1","1","1","1","1","1","1","1"
"260049","img/object_images/hat06.jpg","img/object_images/knit01.jpg","img/object_images/piggy_bank01.jpg","0","1","1","0","0","1","0.409869499504566","0.401011499576271","0.340656399726868","1","1","1","1","1","1","1","1","1"
"260049","img/object_images/piggy_bank01.jpg","img/object_images/hat06.jpg","img/object_images/bottle02.jpg","1","0","1","1","0","1","0.340656399726868","0.409869499504566","0.413520599715412","1","1","1","1","1","1","1","1","1"
"260049","img/object_images/bottle02.jpg","img/object_images/piggy_bank01.jpg","img/object_images/shoes07.jpg","1","1","1","1","1","0","0.413520599715412","0.340656399726868","0.389412899501622","1","1","1","1","1","1","1","1","1"
"260049","img/object_images/shoes07.jpg","img/object_images/bottle02.jpg","img/object_images/toilet_paper_dispenser01.jpg","1","1","1","0","1","1","0.389412899501622","0.413520599715412","0.340285399463028","1","1","1","1","1","1","1","1","1"
"260049","img/object_images/toilet_paper_dispenser01.jpg","img/object_images/shoes07.jpg","img/object_images/bicycle01.jpg","1","1","1","1","0","1","0.340285399463028","0.389412899501622","0.361996799707413","1","1","1","1","1","1","1","1","1"
"260049","img/object_images/bicycle01.jpg","img/object_images/toilet_paper_dispenser01.jpg","img/object_images/hot_air_balloon02.jpg","1","1","0","1","1","0","0.361996799707413","0.340285399463028","0.369238099548966","1","1","1","1","1","1","1","1","1"
"260049","img/object_images/hot_air_balloon02.jpg","img/object_images/bicycle01.jpg","img/object_images/tool19.jpg","0","1","1","0","1","1","0.369238099548966","0.361996799707413","0.394360299687833","1","1","1","1","1","1","1","1","1"
"260049","img/object_images/tool19.jpg","img/object_images/hot_air_balloon02.jpg",NA,"1","0",NA,"1","0",NA,"0.394360299687833","0.369238099548966",NA,"1","1",NA,"1","1",NA,"1","1",NA
"260049","img/object_images/box03.jpg",NA,"img/object_images/video_game03.jpg","1",NA,"1","0",NA,"1","0.383074499666691",NA,"0.367937999777496","1",NA,"1","1",NA,"1","1",NA,"1"
"260049","img/object_images/video_game03.jpg","img/object_images/box03.jpg","img/object_images/Trowel01.jpg","1","1","0","1","0","0","0.367937999777496","0.383074499666691","0.324520299676806","1","1","1","1","1","1","1","1","1"
"260049","img/object_images/Trowel01.jpg","img/object_images/video_game03.jpg","img/object_images/chair06.jpg","0","1","0","0","1","0","0.324520299676806","0.367937999777496","0.381045099813491","1","1","1","1","1","1","1","1","2"
"260049","img/object_images/chair06.jpg","img/object_images/Trowel01.jpg","img/object_images/rock02.jpg","0","0","1","0","0","0","0.381045099813491","0.324520299676806","0.407865099608898","1","1","1","1","1","1","2","1","1"
"260049","img/object_images/rock02.jpg","img/object_images/chair06.jpg","img/object_images/toothbrush01.jpg","1","0","1","0","0","0","0.407865099608898","0.381045099813491","0.31905709952116","1","1","1","1","1","1","1","2","1"
"260049","img/object_images/toothbrush01.jpg","img/object_images/rock02.jpg","img/object_images/mail_box02.jpg","1","1","1","0","0","1","0.31905709952116","0.407865099608898","0.355115299578756","1","1","1","1","1","1","1","1","1"
"260049","img/object_images/mail_box02.jpg","img/object_images/toothbrush01.jpg","img/object_images/pitcher09.jpg","1","1","1","1","0","1","0.355115299578756","0.31905709952116","0.32064489973709","1","1","1","1","1","1","1","1","1"
"260049","img/object_images/pitcher09.jpg","img/object_images/mail_box02.jpg","img/object_images/pen01.jpg","1","1","1","1","1","0","0.32064489973709","0.355115299578756","0.457259599585086","1","1","1","1","1","1","1","1","1"
"260049","img/object_images/pen01.jpg","img/object_images/pitcher09.jpg","img/object_images/clip04.jpg","1","1","1","0","1","1","0.457259599585086","0.32064489973709","0.375872299540788","1","1","1","1","1","1","1","1","1"
"260049","img/object_images/clip04.jpg","img/object_images/pen01.jpg","img/object_images/egg_slicer01.jpg","1","1","1","1","0","1","0.375872299540788","0.457259599585086","0.297485099639744","1","1","1","1","1","1","1","1","1"
"260049","img/object_images/egg_slicer01.jpg","img/object_images/clip04.jpg","img/object_images/fork02.jpg","1","1","1","1","1","0","0.297485099639744","0.375872299540788","0.322352799586952","1","1","1","1","1","1","1","1","1"
"260049","img/object_images/fork02.jpg","img/object_images/egg_slicer01.jpg","img/object_images/bell03.jpg","1","1","0","0","1","0","0.322352799586952","0.297485099639744","0.351095099933445","1","1","1","1","1","1","1","1","1"
"260049","img/object_images/bell03.jpg","img/object_images/fork02.jpg","img/object_images/hair_brush01.jpg","0","1","1","0","0","1","0.351095099933445","0.322352799586952","0.30505309952423","1","1","1","1","1","1","1","1","1"
"260049","img/object_images/hair_brush01.jpg","img/object_images/bell03.jpg","img/object_images/scarf01.jpg","1","0","1","1","0","1","0.30505309952423","0.351095099933445","0.329972099512815","1","1","1","1","1","1","1","1","1"
"260049","img/object_images/scarf01.jpg","img/object_images/hair_brush01.jpg","img/object_images/tool06.jpg","1","1","0","1","1","0","0.329972099512815","0.30505309952423","0.327823400031775","1","1","1","1","1","1","1","1","1"
"260049","img/object_images/tool06.jpg","img/object_images/scarf01.jpg","img/object_images/couch01.jpg","0","1","0","0","1","0","0.327823400031775","0.329972099512815","0.341437099501491","1","1","1","1","1","1","1","1","2"
"260049","img/object_images/couch01.jpg","img/object_images/tool06.jpg","img/object_images/computer_mouse01.jpg","0","0","1","0","0","1","0.341437099501491","0.327823400031775","0.310538999736309","1","1","1","1","1","1","2","1","1"
"260049","img/object_images/computer_mouse01.jpg","img/object_images/couch01.jpg","img/object_images/toy01.jpg","1","0","1","1","0","1","0.310538999736309","0.341437099501491","0.382959799375385","1","1","1","1","1","1","1","2","1"
"260049","img/object_images/toy01.jpg","img/object_images/computer_mouse01.jpg","img/object_images/drone01.jpg","1","1","1","1","1","1","0.382959799375385","0.310538999736309","0.362051900010556","1","1","1","1","1","1","1","1","1"
"260049","img/object_images/drone01.jpg","img/object_images/toy01.jpg","img/object_images/book02.jpg","1","1","1","1","1","1","0.362051900010556","0.382959799375385","0.358470699749887","1","1","1","1","1","1","1","1","1"
"260049","img/object_images/book02.jpg","img/object_images/drone01.jpg","img/object_images/soap03.jpg","1","1","1","1","1","0","0.358470699749887","0.362051900010556","0.323002599645406","1","1","1","1","1","1","1","1","1"
"260049","img/object_images/soap03.jpg","img/object_images/book02.jpg","img/object_images/computer_mouse02.jpg","1","1","1","0","1","0","0.323002599645406","0.358470699749887","0.318207999691367","1","1","1","1","1","1","1","1","1"
"260049","img/object_images/computer_mouse02.jpg","img/object_images/soap03.jpg","img/object_images/tripod01.jpg","1","1","1","0","0","1","0.318207999691367","0.323002599645406","0.372845699544996","1","1","1","1","1","1","1","1","1"
"260049","img/object_images/tripod01.jpg","img/object_images/computer_mouse02.jpg","img/object_images/blender01.jpg","1","1","0","1","0","0","0.372845699544996","0.318207999691367","0.331598799675703","1","1","1","1","1","1","1","1","1"
"260049","img/object_images/blender01.jpg","img/object_images/tripod01.jpg","img/object_images/shoes12.jpg","0","1","1","0","1","1","0.331598799675703","0.372845699544996","0.327034799847752","1","1","1","1","1","1","1","1","1"
"260049","img/object_images/shoes12.jpg","img/object_images/blender01.jpg","img/object_images/airfryer02.jpg","1","0","1","1","0","1","0.327034799847752","0.331598799675703","0.331319099292159","1","1","1","1","1","1","1","1","1"
"260049","img/object_images/airfryer02.jpg","img/object_images/shoes12.jpg","img/object_images/chain01.jpg","1","1","1","1","1","0","0.331319099292159","0.327034799847752","0.39064749982208","1","1","1","1","1","1","1","1","1"
"260049","img/object_images/chain01.jpg","img/object_images/airfryer02.jpg","img/object_images/skate_board01.jpg","1","1","1","0","1","0","0.39064749982208","0.331319099292159","0.372086499817669","1","1","1","1","1","1","1","1","1"
"260049","img/object_images/skate_board01.jpg","img/object_images/chain01.jpg","img/object_images/Violin01.jpg","1","1","0","0","0","0","0.372086499817669","0.39064749982208","0.300369499716908","1","1","1","1","1","1","1","1","1"
"260049","img/object_images/Violin01.jpg","img/object_images/skate_board01.jpg","img/object_images/bag_pipes01.jpg","0","1","1","0","0","1","0.300369499716908","0.372086499817669","0.311832499690354","1","1","1","1","1","1","1","1","1"
"260049","img/object_images/bag_pipes01.jpg","img/object_images/Violin01.jpg","img/object_images/floss02.jpg","1","0","1","1","0","1","0.311832499690354","0.300369499716908","0.365234300028533","1","1","1","1","1","1","1","1","1"
"260049","img/object_images/floss02.jpg","img/object_images/bag_pipes01.jpg",NA,"1","1",NA,"1","1",NA,"0.365234300028533","0.311832499690354",NA,"1","1",NA,"1","1",NA,"1","1",NA
"260049","img/object_images/camera03.jpg",NA,"img/object_images/kite01.jpg","0",NA,"1","0",NA,"1","0.674077099654824",NA,"0.325531099922955","1",NA,"1","1",NA,"1","1",NA,"1"
"260049","img/object_images/kite01.jpg","img/object_images/camera03.jpg","img/object_images/car01.jpg","1","0","1","1","0","1","0.325531099922955","0.674077099654824","0.291580899618566","1","1","1","1","1","1","1","1","1"
"260049","img/object_images/car01.jpg","img/object_images/kite01.jpg","img/object_images/gloves02.jpg","1","1","1","1","1","0","0.291580899618566","0.325531099922955","0.307972899638116","1","1","1","1","1","1","1","1","1"
"260049","img/object_images/gloves02.jpg","img/object_images/car01.jpg","img/object_images/paper_cup02.jpg","1","1","1","0","1","1","0.307972899638116","0.291580899618566","0.377122899517417","1","1","1","1","1","1","1","1","1"
"260049","img/object_images/paper_cup02.jpg","img/object_images/gloves02.jpg","img/object_images/mail_box01.jpg","1","1","0","1","0","0","0.377122899517417","0.307972899638116","0.313951499760151","1","1","1","1","1","1","1","1","1"
"260049","img/object_images/mail_box01.jpg","img/object_images/paper_cup02.jpg","img/object_images/shower_head01.jpg","0","1","1","0","1","1","0.313951499760151","0.377122899517417","0.310588699765503","1","1","1","1","1","1","1","1","1"
"260049","img/object_images/shower_head01.jpg","img/object_images/mail_box01.jpg","img/object_images/remote_controller01.jpg","1","0","0","1","0","1","0.310588699765503","0.313951499760151","0.297319499775767","1","1","1","1","1","1","1","1","1"
"260049","img/object_images/remote_controller01.jpg","img/object_images/shower_head01.jpg","img/object_images/jacket04.jpg","0","1","0","1","1","0","0.297319499775767","0.310588699765503","0.355153999757022","1","1","1","1","1","1","1","1","1"
"260049","img/object_images/jacket04.jpg","img/object_images/remote_controller01.jpg","img/object_images/blender02.jpg","0","0","1","0","1","1","0.355153999757022","0.297319499775767","0.373152899555862","1","1","1","1","1","1","1","1","1"
"260049","img/object_images/blender02.jpg","img/object_images/jacket04.jpg","img/object_images/knife02.jpg","1","0","0","1","0","0","0.373152899555862","0.355153999757022","0.338102999608964","1","1","1","1","1","1","1","1","1"
"260049","img/object_images/knife02.jpg","img/object_images/blender02.jpg","img/object_images/stereo02.jpg","0","1","1","0","1","0","0.338102999608964","0.373152899555862","0.742731099948287","1","1","1","1","1","1","1","1","1"
"260049","img/object_images/stereo02.jpg","img/object_images/knife02.jpg","img/object_images/Statue01.jpg","1","0","1","0","0","1","0.742731099948287","0.338102999608964","0.330932299606502","1","1","1","1","1","1","1","1","1"
"260049","img/object_images/Statue01.jpg","img/object_images/stereo02.jpg","img/object_images/bottle07.jpg","1","1","1","1","0","1","0.330932299606502","0.742731099948287","0.288303099572659","1","1","1","1","1","1","1","1","1"
"260049","img/object_images/bottle07.jpg","img/object_images/Statue01.jpg","img/object_images/backpack01.jpg","1","1","0","1","1","0","0.288303099572659","0.330932299606502","0.343031899537891","1","1","1","1","1","1","1","1","1"
"260049","img/object_images/backpack01.jpg","img/object_images/bottle07.jpg","img/object_images/boat04.jpg","0","1","0","0","1","0","0.343031899537891","0.288303099572659","0.389184299856424","1","1","1","1","1","1","1","1","1"
"260049","img/object_images/boat04.jpg","img/object_images/backpack01.jpg","img/object_images/knit03.jpg","0","0","1","0","0","1","0.389184299856424","0.343031899537891","0.406667599454522","1","1","1","1","1","1","1","1","2"
"260049","img/object_images/knit03.jpg","img/object_images/boat04.jpg","img/object_images/phone02.jpg","1","0","1","1","0","1","0.406667599454522","0.389184299856424","0.30494979955256","1","1","1","1","1","1","2","1","1"
"260049","img/object_images/phone02.jpg","img/object_images/knit03.jpg","img/object_images/video_game01.jpg","1","1","1","1","1","1","0.30494979955256","0.406667599454522","0.356733500026166","1","1","1","1","1","1","1","2","1"
"260049","img/object_images/video_game01.jpg","img/object_images/phone02.jpg","img/object_images/sponge03.jpg","1","1","1","1","1","1","0.356733500026166","0.30494979955256","0.315169299487025","1","1","1","1","1","1","1","1","1"
"260049","img/object_images/sponge03.jpg","img/object_images/video_game01.jpg","img/object_images/toy08.jpg","1","1","0","1","1","0","0.315169299487025","0.356733500026166","0.378062399569899","1","1","1","1","1","1","1","1","1"
"260049","img/object_images/toy08.jpg","img/object_images/sponge03.jpg","img/object_images/matches02.jpg","0","1","1","0","1","0","0.378062399569899","0.315169299487025","0.381238599307835","1","1","1","1","1","1","1","1","1"
"260049","img/object_images/matches02.jpg","img/object_images/toy08.jpg","img/object_images/keyboard02.jpg","1","0","1","0","0","1","0.381238599307835","0.378062399569899","0.360875299666077","1","1","1","1","1","1","1","1","1"
"260049","img/object_images/keyboard02.jpg","img/object_images/matches02.jpg","img/object_images/curtain02.jpg","1","1","0","1","0","0","0.360875299666077","0.381238599307835","0.383601899258792","1","1","1","1","1","1","1","1","1"
"260049","img/object_images/curtain02.jpg","img/object_images/keyboard02.jpg","img/object_images/flashlight03.jpg","0","1","1","0","1","0","0.383601899258792","0.360875299666077","0.358081499580294","1","1","1","1","1","1","1","1","1"
"260049","img/object_images/flashlight03.jpg","img/object_images/curtain02.jpg","img/object_images/dresser03.jpg","1","0","0","0","0","0","0.358081499580294","0.383601899258792","0.359949799720198","1","1","1","1","1","1","1","1","1"
"260049","img/object_images/dresser03.jpg","img/object_images/flashlight03.jpg","img/object_images/hand_grip_exerciser01.jpg","0","1","0","0","0","0","0.359949799720198","0.358081499580294","0.354292700067163","1","1","1","1","1","1","1","1","1"
"260049","img/object_images/hand_grip_exerciser01.jpg","img/object_images/dresser03.jpg","img/object_images/remover01.jpg","0","0","1","0","0","1","0.354292700067163","0.359949799720198","0.375097499694675","1","1","1","1","1","1","1","1","1"
"260049","img/object_images/remover01.jpg","img/object_images/hand_grip_exerciser01.jpg","img/object_images/tool18.jpg","1","0","0","1","0","0","0.375097499694675","0.354292700067163","0.388232399709523","1","1","1","1","1","1","1","1","1"
"260049","img/object_images/tool18.jpg","img/object_images/remover01.jpg","img/object_images/knit04.jpg","0","1","0","0","1","1","0.388232399709523","0.375097499694675","0.341914999764413","1","1","1","1","1","1","1","1","2"
"260049","img/object_images/knit04.jpg","img/object_images/tool18.jpg","img/object_images/hoverboard01.jpg","0","0","1","1","0","0","0.341914999764413","0.388232399709523","0.280503099784255","1","1","1","1","1","1","2","1","1"
"260049","img/object_images/hoverboard01.jpg","img/object_images/knit04.jpg","img/object_images/basket04.jpg","1","0","1","0","1","1","0.280503099784255","0.341914999764413","0.369668099563569","1","1","1","1","1","1","1","2","1"
"260049","img/object_images/basket04.jpg","img/object_images/hoverboard01.jpg",NA,"1","1",NA,"1","0",NA,"0.369668099563569","0.280503099784255",NA,"1","1",NA,"1","1",NA,"1","1",NA
