"participant_id","object","surpAcc","memory_surp_responses","memory_surp_rt","keep_surp_memory_trial_based_on_rt","surp_block_num","exclude_block","number_of_surp_resp_items_used","num_blocks_excluded"
"260008","img/object_images/tv01.jpg","1","k","1.05570329999318",1,1,0,2,0
"260008","img/object_images/crown02.jpg","0","k","1.04018010001164",1,1,0,2,0
"260008","img/object_images/pot01.jpg","1","s","6.03978599997936",1,1,0,2,0
"260008","img/object_images/dress03.jpg","0","s","6.33562619995791",1,1,0,2,0
"260008","img/object_images/broom01.jpg","0","s","1.43591110000852",1,1,0,2,0
"260008","img/object_images/sink01.jpg","1","k","1.40494400000898",1,1,0,2,0
"260008","img/object_images/purse04.jpg","0","s","1.21001809998415",1,1,0,2,0
"260008","img/object_images/toaster01.jpg","1","s","0.798185600026045",1,1,0,2,0
"260008","img/object_images/video_game02.jpg","1","k","1.1598004999687",1,1,0,2,0
"260008","img/object_images/Vest02.jpg","1","s","2.25430680002319",1,1,0,2,0
"260008","img/object_images/scarf01.jpg","1","s","0.704822500003502",1,1,0,2,0
"260008","img/object_images/ruler02.jpg","1","s","1.264042099996",1,1,0,2,0
"260008","img/object_images/guitar02.jpg","1","k","1.01631949999137",1,1,0,2,0
"260008","img/object_images/pen03.jpg","0","s","0.872065699950326",1,1,0,2,0
"260008","img/object_images/Thermometer01.jpg","1","k","1.13967110001249",1,1,0,2,0
"260008","img/object_images/key02.jpg","1","s","0.771326299989596",1,1,0,2,0
"260008","img/object_images/microphone03.jpg","0","s","6.60072370001581",1,1,0,2,0
"260008","img/object_images/Traffic Sign 01.jpg","1","k","1.1637955000042",1,1,0,2,0
"260008","img/object_images/bow_tie03.jpg","0","s","1.48236330004875",1,1,0,2,0
"260008","img/object_images/Lint_Roller02.jpg","0","s","1.03710880002473",1,1,0,2,0
"260008","img/object_images/mask01.jpg","1","k","1.27491269999882",1,1,0,2,0
"260008","img/object_images/ornament01.jpg","0","s","0.871388800034765",1,1,0,2,0
"260008","img/object_images/knife04.jpg","1","s","0.798320000001695",1,1,0,2,0
"260008","img/object_images/bow_tie01.jpg","0","k","2.27257289999397",1,1,0,2,0
"260008","img/object_images/hair_brush02.jpg","1","s","1.61979960004101",1,1,0,2,0
"260008","img/object_images/bottle05.jpg","1","s","1.69298009999329",1,1,0,2,0
"260008","img/object_images/accardion01.jpg","1","k","1.84043769998243",1,1,0,2,0
"260008","img/object_images/flashlight03.jpg","1","s","1.38148270000238",1,1,0,2,0
"260008","img/object_images/perfume02.jpg","0","k","1.28584440000122",1,1,0,2,0
"260008","img/object_images/bird_house02.jpg","1","s","0.836834400019143",1,1,0,2,0
"260008","img/object_images/knife01.jpg","1","s","0.84386349999113",1,1,0,2,0
"260008","img/object_images/shower_head01.jpg","1","s","1.57140250003431",1,1,0,2,0
"260008","img/object_images/boat04.jpg","0","k","1.16134740004782",1,1,0,2,0
"260008","img/object_images/razor01.jpg","1","s","2.43985059997067",1,1,0,2,0
"260008","img/object_images/vase01.jpg","0","s","0.91244819998974",1,1,0,2,0
"260008","img/object_images/pitcher02.jpg","1","k","0.931963999988511",1,1,0,2,0
"260008","img/object_images/fan01.jpg","1","k","1.26683510001749",1,1,0,2,0
"260008","img/object_images/ToolBag01.jpg","0","k","2.09384350001346",1,1,0,2,0
"260008","img/object_images/knife02.jpg","1","k","1.043838600046",1,1,0,2,0
"260008","img/object_images/brief_case02.jpg","0","s","1.15402070002165",1,1,0,2,0
"260008","img/object_images/WoodBox01.jpg","1","k","1.12833820004016",1,1,0,2,0
"260008","img/object_images/book03.jpg","1","k","1.16786789998878",1,1,0,2,0
"260008","img/object_images/clip02.jpg","0","k","7.49289009999484",1,1,0,2,0
"260008","img/object_images/jewel04.jpg","1","s","1.84083429997554",1,1,0,2,0
"260008","img/object_images/matches02.jpg","1","k","1.3060264000087",1,1,0,2,0
"260008","img/object_images/knit05.jpg","1","s","0.798028799996246",1,1,0,2,0
"260008","img/object_images/MetalWire01.jpg","0","s","2.63585859996965",1,1,0,2,0
"260008","img/object_images/cellphone03.jpg","1","s","1.9802909999853",1,1,0,2,0
"260008","img/object_images/glasses03.jpg","1","s","0.86344950000057",1,2,0,2,0
"260008","img/object_images/pen01.jpg","0","k","1.68905610003276",1,2,0,2,0
"260008","img/object_images/lemon_squeezer01.jpg","1","s","0.979415200010408",1,2,0,2,0
"260008","img/object_images/ball02.jpg","0","k","0.743254099972546",1,2,0,2,0
"260008","img/object_images/dice01.jpg","0","s","6.23785640002461",1,2,0,2,0
"260008","img/object_images/tripod01.jpg","1","s","1.86621300003026",1,2,0,2,0
"260008","img/object_images/helmet01.jpg","1","s","0.775463800004218",1,2,0,2,0
"260008","img/object_images/TreeSlice01.jpg","0","k","1.06846859998768",1,2,0,2,0
"260008","img/object_images/tool11.jpg","1","k","0.950409399985801",1,2,0,2,0
"260008","img/object_images/pitcher01.jpg","0","s","1.08939170005033",1,2,0,2,0
"260008","img/object_images/microscope01.jpg","0","s","2.47605679999106",1,2,0,2,0
"260008","img/object_images/wallet02.jpg","1","s","2.36594529997092",1,2,0,2,0
"260008","img/object_images/ear_bud01.jpg","0","s","1.18405420001363",1,2,0,2,0
"260008","img/object_images/hammer03.jpg","1","k","1.18357599998126",1,2,0,2,0
"260008","img/object_images/gauze01.jpg","0","k","3.72765940002864",1,2,0,2,0
"260008","img/object_images/tool07.jpg","1","s","1.07979089999571",1,2,0,2,0
"260008","img/object_images/gift_box02.jpg","0","k","0.847305500006769",1,2,0,2,0
"260008","img/object_images/crutches02.jpg","1","k","1.24094509996939",1,2,0,2,0
"260008","img/object_images/airfryer01.jpg","1","s","1.24413919996005",1,2,0,2,0
"260008","img/object_images/retainer01.jpg","1","s","0.841258100001141",1,2,0,2,0
"260008","img/object_images/bath_tub01.jpg","1","s","2.64999020000687",1,2,0,2,0
"260008","img/object_images/board01.jpg","1","s","2.18038740003249",1,2,0,2,0
"260008","img/object_images/lemon_squeezer02.jpg","1","s","1.62987850001082",1,2,0,2,0
"260008","img/object_images/hat13.jpg","0","s","1.38108720001765",1,2,0,2,0
"260008","img/object_images/hole_puncher01.jpg","1","k","5.73598580004182",1,2,0,2,0
"260008","img/object_images/WitchHat02.jpg","0","s","2.25896030000877",1,2,0,2,0
"260008","img/object_images/ironing_table01.jpg","1","s","2.26081330003217",1,2,0,2,0
"260008","img/object_images/knit01.jpg","1","s","0.784333600022364",1,2,0,2,0
"260008","img/object_images/acoustic_capo01.jpg","1","s","1.30799399997341",1,2,0,2,0
"260008","img/object_images/toothbrush01.jpg","0","s","2.0533265999984",1,2,0,2,0
"260008","img/object_images/curtain02.jpg","0","k","4.54059809999308",1,2,0,2,0
"260008","img/object_images/pen05.jpg","0","s","4.63861950003775",1,2,0,2,0
"260008","img/object_images/clip04.jpg","0","k","2.26732839999022",1,2,0,2,0
"260008","img/object_images/mail_box02.jpg","1","s","0.76471690001199",1,2,0,2,0
"260008","img/object_images/soap01.jpg","0","s","0.984378899971489",1,2,0,2,0
"260008","img/object_images/tie02.jpg","1","k","1.16925929998979",1,2,0,2,0
"260008","img/object_images/ice_tray03.jpg","0","k","1.00502139999298",1,2,0,2,0
"260008","img/object_images/Witchhat01.jpg","0","k","1.28226439998252",1,2,0,2,0
"260008","img/object_images/projector01.jpg","1","s","1.05409769999096",1,2,0,2,0
"260008","img/object_images/pan01.jpg","1","s","1.10280039999634",1,2,0,2,0
"260008","img/object_images/boat_toy10.jpg","1","s","1.18103680002969",1,2,0,2,0
"260008","img/object_images/backpack01.jpg","0","s","1.04790689999936",1,2,0,2,0
"260008","img/object_images/vase02.jpg","0","k","1.06327990000136",1,2,0,2,0
"260008","img/object_images/note_book02.jpg","0","k","6.02759030001471",1,2,0,2,0
"260008","img/object_images/slinky_toy01.jpg","0","s","1.52592139999615",1,2,0,2,0
"260008","img/object_images/trash_can05.jpg","1","k","1.42578759999014",1,2,0,2,0
"260008","img/object_images/surf_board01.jpg","1","k","1.21706320001977",1,2,0,2,0
"260008","img/object_images/robe01.jpg","0","s","1.58966529997997",1,2,0,2,0
"260008","img/object_images/kite01.jpg","1","s","1.66442069999175",1,3,0,2,0
"260008","img/object_images/spatula02.jpg","1","s","0.889820900047198",1,3,0,2,0
"260008","img/object_images/bottle02.jpg","1","k","1.00161899998784",1,3,0,2,0
"260008","img/object_images/bag04.jpg","0","k","3.96502800000599",1,3,0,2,0
"260008","img/object_images/basket02.jpg","1","s","1.15267189999577",1,3,0,2,0
"260008","img/object_images/jewelry01.jpg","0","k","1.26568770001177",1,3,0,2,0
"260008","img/object_images/Violin01.jpg","1","s","1.70697450003354",1,3,0,2,0
"260008","img/object_images/computer_mouse01.jpg","0","s","1.61742780002533",1,3,0,2,0
"260008","img/object_images/toy_train02.jpg","0","k","1.5786528000026",1,3,0,2,0
"260008","img/object_images/book02.jpg","1","s","2.36102779995417",1,3,0,2,0
"260008","img/object_images/audio_port01.jpg","1","s","0.865855599986389",1,3,0,2,0
"260008","img/object_images/bucket02.jpg","0","s","3.21702949999599",1,3,0,2,0
"260008","img/object_images/exfoliater_brush01.jpg","1","s","2.68491489998996",1,3,0,2,0
"260008","img/object_images/clock02.jpg","1","k","1.16050619998714",1,3,0,2,0
"260008","img/object_images/floppy_disk02.jpg","0","k","1.63503539998783",1,3,0,2,0
"260008","img/object_images/toy08.jpg","1","k","1.35489289998077",1,3,0,2,0
"260008","img/object_images/gloves05.jpg","0","s","4.33782459999202",1,3,0,2,0
"260008","img/object_images/Candle_Holder01.jpg","0","s","3.89874470001087",1,3,0,2,0
"260008","img/object_images/Tin01.jpg","0","k","1.29036270000506",1,3,0,2,0
"260008","img/object_images/candle02.jpg","0","s","2.41480869997758",1,3,0,2,0
"260008","img/object_images/hoverboard01.jpg","1","s","0.766877099988051",1,3,0,2,0
"260008","img/object_images/yarn02.jpg","1","k","1.24350430001505",1,3,0,2,0
"260008","img/object_images/combs01.jpg","1","k","1.2102440999588",1,3,0,2,0
"260008","img/object_images/blender01.jpg","1","s","3.238863400009",1,3,0,2,0
"260008","img/object_images/backpack03.jpg","0","s","7.08487580000656",1,3,0,2,0
"260008","img/object_images/video_game06.jpg","1","s","1.28365659998963",1,3,0,2,0
"260008","img/object_images/stereo02.jpg","1","s","1.74804139998741",1,3,0,2,0
"260008","img/object_images/lock03.jpg","0","s","1.39640269998927",1,3,0,2,0
"260008","img/object_images/tool08.jpg","0","k","2.62764520000201",1,3,0,2,0
"260008","img/object_images/TrashCan02.jpg","0","s","1.13726829999359",1,3,0,2,0
"260008","img/object_images/trumpet01.jpg","1","k","1.49917199998163",1,3,0,2,0
"260008","img/object_images/Ring02.jpg","1","s","2.49240420002025",1,3,0,2,0
"260008","img/object_images/shovel01.jpg","0","k","0.926641100028064",1,3,0,2,0
"260008","img/object_images/camera05.jpg","0","k","4.98799310001777",1,3,0,2,0
"260008","img/object_images/sleeping_bag01.jpg","1","k","0.941474299994297",1,3,0,2,0
"260008","img/object_images/sink_filter01 (1).jpg","0","s","0.715800599951763",1,3,0,2,0
"260008","img/object_images/bottle12.jpg","1","s","1.12674490001518",1,3,0,2,0
"260008","img/object_images/tool02.jpg","1","s","1.70000030001393",1,3,0,2,0
"260008","img/object_images/toy03.jpg","1","k","1.14020470000105",1,3,0,2,0
"260008","img/object_images/dog_leash01.jpg","1","s","0.882337899995036",1,3,0,2,0
"260008","img/object_images/fan04.jpg","0","k","1.74501129996497",1,3,0,2,0
"260008","img/object_images/book01.jpg","1","k","1.33600780001143",1,3,0,2,0
"260008","img/object_images/water_gun01.jpg","1","s","0.811682600004133",1,3,0,2,0
"260008","img/object_images/bookmark01.jpg","1","s","0.684511500003282",1,3,0,2,0
"260008","img/object_images/MeasuringCup01.jpg","0","s","1.68277040001703",1,3,0,2,0
"260008","img/object_images/toy01.jpg","0","k","1.16970319999382",1,3,0,2,0
"260008","img/object_images/origami01.jpg","1","s","1.70722430001479",1,3,0,2,0
"260008","img/object_images/note_book01.jpg","0","s","2.28541999997105",1,3,0,2,0
"260008","img/object_images/ball01.jpg","1","s","1.55553610000061",1,4,0,2,0
"260008","img/object_images/speaker01.jpg","1","k","1.25831269996706",1,4,0,2,0
"260008","img/object_images/Wisk01.jpg","1","k","1.96864339994499",1,4,0,2,0
"260008","img/object_images/hair_brush05.jpg","1","s","1.27181760000531",1,4,0,2,0
"260008","img/object_images/Staples01.jpg","1","k","1.17963080003392",1,4,0,2,0
"260008","img/object_images/chess_piece02.jpg","1","k","1.27274119999493",1,4,0,2,0
"260008","img/object_images/chain01.jpg","0","s","0.900723099999595",1,4,0,2,0
"260008","img/object_images/colander01.jpg","0","s","1.27734989998862",1,4,0,2,0
"260008","img/object_images/pitcher05.jpg","0","s","1.02937460003886",1,4,0,2,0
"260008","img/object_images/bag_pipes01.jpg","1","s","0.657752300030552",1,4,0,2,0
"260008","img/object_images/motorcycle01.jpg","1","k","1.10464680002769",1,4,0,2,0
"260008","img/object_images/flask01.jpg","1","s","1.20909850002499",1,4,0,2,0
"260008","img/object_images/handcuffs01.jpg","1","k","2.0924600000144",1,4,0,2,0
"260008","img/object_images/judge_gavel01.jpg","1","s","0.616826999990735",1,4,0,2,0
"260008","img/object_images/couch03.jpg","1","k","1.37665099999867",1,4,0,2,0
"260008","img/object_images/hat02.jpg","0","s","0.594681699993089",1,4,0,2,0
"260008","img/object_images/jacket04.jpg","0","k","0.90353499999037",1,4,0,2,0
"260008","img/object_images/chair02.jpg","0","s","1.39631069998723",1,4,0,2,0
"260008","img/object_images/golf_ball03.jpg","0","s","0.817774700000882",1,4,0,2,0
"260008","img/object_images/container01.jpg","0","k","0.604394099966157",1,4,0,2,0
"260008","img/object_images/jewel02.jpg","1","s","1.833269499999",1,4,0,2,0
"260008","img/object_images/yo_yo01.jpg","1","k","1.40215510001872",1,4,0,2,0
"260008","img/object_images/tool18.jpg","1","s","2.49893450003583",1,4,0,2,0
"260008","img/object_images/hammer01.jpg","1","s","0.846289600012824",1,4,0,2,0
"260008","img/object_images/video_game07.jpg","1","s","0.909250899974722",1,4,0,2,0
"260008","img/object_images/chair05.jpg","1","k","1.73592310003005",1,4,0,2,0
"260008","img/object_images/Pottery01.jpg","0","k","1.26683000003686",1,4,0,2,0
"260008","img/object_images/bicycle_lock01.jpg","0","s","1.28650280000875",1,4,0,2,0
"260008","img/object_images/bottle01.jpg","0","s","1.37470539996866",1,4,0,2,0
"260008","img/object_images/water_scooter01.jpg","1","s","3.50448320002761",1,4,0,2,0
"260008","img/object_images/bean_bag02.jpg","1","s","0.692169199988712",1,4,0,2,0
"260008","img/object_images/usb03.jpg","1","k","1.53098709997721",1,4,0,2,0
"260008","img/object_images/basket04.jpg","1","s","0.953175899980124",1,4,0,2,0
"260008","img/object_images/cards01.jpg","0","k","1.42531439999584",1,4,0,2,0
"260008","img/object_images/knit03.jpg","1","s","3.40341059997445",1,4,0,2,0
"260008","img/object_images/Statue01.jpg","0","k","1.49223829997936",1,4,0,2,0
"260008","img/object_images/lamp01.jpg","0","k","1.28992359997937",1,4,0,2,0
"260008","img/object_images/bottle09.jpg","0","s","1.31803359999321",1,4,0,2,0
"260008","img/object_images/piggy_bank01.jpg","1","s","0.800700499967206",1,4,0,2,0
"260008","img/object_images/Trowel01.jpg","1","k","1.70141769998008",1,4,0,2,0
"260008","img/object_images/guitar01.jpg","1","s","0.600804899993818",1,4,0,2,0
"260008","img/object_images/mirror01.jpg","0","s","0.608263499976601",1,4,0,2,0
"260008","img/object_images/Woopie01.jpg","1","s","0.602375000016764",1,4,0,2,0
"260008","img/object_images/egg_slicer01.jpg","1","s","0.906803699966986",1,4,0,2,0
"260008","img/object_images/lighter01.jpg","1","k","1.26428419997683",1,4,0,2,0
"260008","img/object_images/brief_case01.jpg","0","s","0.945791100035422",1,4,0,2,0
"260008","img/object_images/joystick03.jpg","1","s","0.85861009999644",1,4,0,2,0
"260008","img/object_images/bow01.jpg","0","k","0.790139699995052",1,4,0,2,0
"260008","img/object_images/lawn_mower01.jpg","0","s","0.778853900032118",1,5,0,2,0
"260008","img/object_images/razor02.jpg","0","s","0.994517699989956",1,5,0,2,0
"260008","img/object_images/dresser03.jpg","1","k","0.731578000006266",1,5,0,2,0
"260008","img/object_images/Kitchen_Towel.jpg","0","s","0.580474699963816",1,5,0,2,0
"260008","img/object_images/shoes10.jpg","1","s","1.56412910000654",1,5,0,2,0
"260008","img/object_images/socks01.jpg","0","k","0.864426399988588",1,5,0,2,0
"260008","img/object_images/faucet01.jpg","1","s","0.59396560001187",1,5,0,2,0
"260008","img/object_images/paint_brush04.jpg","1","s","0.578457000025082",1,5,0,2,0
"260008","img/object_images/badminton01.jpg","1","s","0.995184100000188",1,5,0,2,0
"260008","img/object_images/video_game01.jpg","0","s","0.601481499965303",1,5,0,2,0
"260008","img/object_images/lid01.jpg","0","s","0.58050539996475",1,5,0,2,0
"260008","img/object_images/laptop01.jpg","0","s","1.0445845000213",1,5,0,2,0
"260008","img/object_images/phone02.jpg","0","k","0.744781899964437",1,5,0,2,0
"260008","img/object_images/pitcher03.jpg","0","s","0.672894099960104",1,5,0,2,0
"260008","img/object_images/office_supplies01.jpg","0","k","0.958765999996103",1,5,0,2,0
"260008","img/object_images/bag06.jpg","0","s","0.620687399990857",1,5,0,2,0
"260008","img/object_images/socks02.jpg","1","k","1.25702790002106",1,5,0,2,0
"260008","img/object_images/clip03.jpg","1","s","0.738099200010765",1,5,0,2,0
"260008","img/object_images/bell03.jpg","0","k","1.37388019997161",1,5,0,2,0
"260008","img/object_images/coloring_pencil02.jpg","0","k","1.0294868000201",1,5,0,2,0
"260008","img/object_images/bow_tie02.jpg","0","k","1.21039050002582",1,5,0,2,0
"260008","img/object_images/bottle10.jpg","0","k","1.82924230000935",1,5,0,2,0
"260008","img/object_images/couch04.jpg","0","s","2.32410999998683",1,5,0,2,0
"260008","img/object_images/helmet03.jpg","0","s","0.624932200007606",1,5,0,2,0
"260008","img/object_images/toy04.jpg","0","k","0.675552400003653",1,5,0,2,0
"260008","img/object_images/tie01.jpg","1","s","1.20493120001629",1,5,0,2,0
"260008","img/object_images/tennis_racket01.jpg","0","s","0.585940999968443",1,5,0,2,0
"260008","img/object_images/jewel01.jpg","0","s","1.88333770004101",1,5,0,2,0
"260008","img/object_images/jewelry09.jpg","1","s","0.661157800001092",1,5,0,2,0
"260008","img/object_images/hammer02.jpg","1","s","1.13720839994494",1,5,0,2,0
"260008","img/object_images/sign02.jpg","1","k","2.14097490004497",1,5,0,2,0
"260008","img/object_images/fan05.jpg","1","s","1.65950790001079",1,5,0,2,0
"260008","img/object_images/binoculars03.jpg","0","k","3.03863099997398",1,5,0,2,0
"260008","img/object_images/helmet05.jpg","1","k","0.938813300046604",1,5,0,2,0
"260008","img/object_images/watch01.jpg","1","s","1.05299950001063",1,5,0,2,0
"260008","img/object_images/tool13.jpg","0","s","1.31337869999697",1,5,0,2,0
"260008","img/object_images/vga_port 01.jpg","1","s","0.915535500040278",1,5,0,2,0
"260008","img/object_images/lock01.jpg","1","k","1.15303059999133",1,5,0,2,0
"260008","img/object_images/Vacuum01.jpg","0","s","1.48128980002366",1,5,0,2,0
"260008","img/object_images/balloon01.jpg","1","s","0.768284399993718",1,5,0,2,0
"260008","img/object_images/coloring_pencil01.jpg","1","k","1.37005679996219",1,5,0,2,0
"260008","img/object_images/headset02.jpg","1","s","1.41505390004022",1,5,0,2,0
"260008","img/object_images/pitcher09.jpg","0","k","1.96385850000661",1,5,0,2,0
"260008","img/object_images/shoes08.jpg","0","k","2.22847520001233",1,5,0,2,0
"260008","img/object_images/grater01.jpg","1","s","3.86647190002259",1,5,0,2,0
"260008","img/object_images/car04.jpg","1","k","3.5959915999556",1,5,0,2,0
"260008","img/object_images/lock04.jpg","0","s","1.3589318000013",1,5,0,2,0
"260008","img/object_images/camera07.jpg","0","s","1.28440100001171",1,5,0,2,0
"260008","img/object_images/Sprayer01.jpg","0","s","1.06071799999336",1,6,0,2,0
"260008","img/object_images/hand_grip_exerciser01.jpg","0","s","0.656162199971732",1,6,0,2,0
"260008","img/object_images/rock02.jpg","1","s","0.82441119995201",1,6,0,2,0
"260008","img/object_images/shoes07.jpg","0","s","0.690377199964132",1,6,0,2,0
"260008","img/object_images/pitcher07.jpg","1","s","0.676785500021651",1,6,0,2,0
"260008","img/object_images/jewelry07.jpg","1","k","1.03847309999401",1,6,0,2,0
"260008","img/object_images/hot_air_balloon02.jpg","0","s","1.08015320001869",1,6,0,2,0
"260008","img/object_images/scale02.jpg","1","k","1.35158030001912",1,6,0,2,0
"260008","img/object_images/toaster02.jpg","1","k","1.06591020000633",1,6,0,2,0
"260008","img/object_images/glasses07.jpg","1","s","0.68542290001642",1,6,0,2,0
"260008","img/object_images/jewel03.jpg","1","k","1.06160259997705",1,6,0,2,0
"260008","img/object_images/Eyeliner01.jpg","0","s","2.96527489996515",1,6,0,2,0
"260008","img/object_images/usb02.jpg","1","k","1.84173139999621",1,6,0,2,0
"260008","img/object_images/bucket01.jpg","1","s","1.871423900011",1,6,0,2,0
"260008","img/object_images/perfume01.jpg","1","s","1.29476239997894",1,6,0,2,0
"260008","img/object_images/hair_brush01.jpg","0","s","2.47342059999937",1,6,0,2,0
"260008","img/object_images/funnel01.jpg","0","s","2.60597480001161",1,6,0,2,0
"260008","img/object_images/keyboard02.jpg","0","s","1.79351380001754",1,6,0,2,0
"260008","img/object_images/tool19.jpg","1","s","1.37941819999833",1,6,0,2,0
"260008","img/object_images/umbrella01.jpg","0","s","2.28501920000417",1,6,0,2,0
"260008","img/object_images/car02.jpg","1","s","0.907528200012166",1,6,0,2,0
"260008","img/object_images/spray_can01.jpg","1","k","0.979134299966972",1,6,0,2,0
"260008","img/object_images/toy05.jpg","1","k","1.01175140001578",1,6,0,2,0
"260008","img/object_images/gift_box05.jpg","0","k","0.957441899983678",1,6,0,2,0
"260008","img/object_images/camera_lens01.jpg","1","k","0.999347299977671",1,6,0,2,0
"260008","img/object_images/computer_mouse02.jpg","0","s","0.708617999975104",1,6,0,2,0
"260008","img/object_images/paper_cup02.jpg","0","s","1.19146619999083",1,6,0,2,0
"260008","img/object_images/hair_dryer01.jpg","1","k","1.80936860002112",1,6,0,2,0
"260008","img/object_images/remote_controller01.jpg","1","k","1.0094002999831",1,6,0,2,0
"260008","img/object_images/belt01.jpg","1","s","3.42357340001035",1,6,0,2,0
"260008","img/object_images/ironing_table02.jpg","1","s","0.72141629998805",1,6,0,2,0
"260008","img/object_images/shower_head03.jpg","1","s","1.51310670003295",1,6,0,2,0
"260008","img/object_images/blender02.jpg","1","k","1.32185469998512",1,6,0,2,0
"260008","img/object_images/soap03.jpg","1","s","1.04150210000807",1,6,0,2,0
"260008","img/object_images/paper_cup01.jpg","0","s","0.632025800005067",1,6,0,2,0
"260008","img/object_images/piano03.jpg","0","s","1.33547410002211",1,6,0,2,0
"260008","img/object_images/chair04.jpg","1","k","2.66778690001229",1,6,0,2,0
"260008","img/object_images/shoes12.jpg","0","s","0.998329100024421",1,6,0,2,0
"260008","img/object_images/tool06.jpg","1","k","3.76192870002706",1,6,0,2,0
"260008","img/object_images/drone02.jpg","1","k","1.32446380000329",1,6,0,2,0
"260008","img/object_images/tray01.jpg","1","s","0.743868599995039",1,6,0,2,0
"260008","img/object_images/cutting_board01.jpg","0","k","1.18364090000978",1,6,0,2,0
"260008","img/object_images/cup03.jpg","0","s","0.566409100021701",1,6,0,2,0
"260008","img/object_images/trash_can03.jpg","1","k","0.857997799990699",1,6,0,2,0
"260008","img/object_images/fork02.jpg","0","k","0.57817769999383",1,6,0,2,0
"260008","img/object_images/purse01.jpg","0","s","0.973832099989522",1,6,0,2,0
"260008","img/object_images/fridge03.jpg","0","k","1.71728660003282",1,6,0,2,0
"260008","img/object_images/ribbon01.jpg","0","s","1.92466930003138",1,6,0,2,0
"260008","img/object_images/bicycle01.jpg","1","k","1.44417219999013",1,7,0,2,0
"260008","img/object_images/measuring_tape02.jpg","1","s","0.637746399967",1,7,0,2,0
"260008","img/object_images/razor03.jpg","0","k","0.684582600020804",1,7,0,2,0
"260008","img/object_images/video_game03.jpg","1","s","0.562335499969777",1,7,0,2,0
"260008","img/object_images/basketball_hoop02.jpg","0","k","0.912112299993169",1,7,0,2,0
"260008","img/object_images/tennis_racket02.jpg","0","k","1.15086110000266",1,7,0,2,0
"260008","img/object_images/hat09.jpg","0","s","0.691394799971022",1,7,0,2,0
"260008","img/object_images/bottle06.jpg","0","k","2.07871950004483",1,7,0,2,0
"260008","img/object_images/stapler.jpg","1","s","0.603520500008017",1,7,0,2,0
"260008","img/object_images/fork03.jpg","0","k","0.908339399960823",1,7,0,2,0
"260008","img/object_images/compass01.jpg","1","s","1.19120769994333",1,7,0,2,0
"260008","img/object_images/clipboard01.jpg","0","k","0.916968000004999",1,7,0,2,0
"260008","img/object_images/stove01.jpg","1","s","0.75129059999017",1,7,0,2,0
"260008","img/object_images/car01.jpg","1","s","0.823326500016265",1,7,0,2,0
"260008","img/object_images/bell02.jpg","1","s","0.815184599952772",1,7,0,2,0
"260008","img/object_images/tv02.jpg","1","s","0.723261499952059",1,7,0,2,0
"260008","img/object_images/floss02.jpg","1","s","0.882649999985006",1,7,0,2,0
"260008","img/object_images/pen06.jpg","0","k","3.90288740000688",1,7,0,2,0
"260008","img/object_images/yoga_mat01.jpg","0","k","0.88596470002085",1,7,0,2,0
"260008","img/object_images/jacket03.jpg","1","k","1.60926850000396",1,7,0,2,0
"260008","img/object_images/chair06.jpg","0","s","0.952959199959878",1,7,0,2,0
"260008","img/object_images/fan02.jpg","0","s","0.670590399997309",1,7,0,2,0
"260008","img/object_images/handkerchief01.jpg","1","s","1.27872850000858",1,7,0,2,0
"260008","img/object_images/wire02.jpg","1","k","2.68758960004197",1,7,0,2,0
"260008","img/object_images/gloves02.jpg","0","s","0.858065599983092",1,7,0,2,0
"260008","img/object_images/towel02.jpg","0","s","4.26771640003426",1,7,0,2,0
"260008","img/object_images/car03.jpg","1","s","0.629547000047751",1,7,0,2,0
"260008","img/object_images/towels01.jpg","0","s","0.596954599954188",1,7,0,2,0
"260008","img/object_images/frame01.jpg","0","s","0.62931699998444",1,7,0,2,0
"260008","img/object_images/camera03.jpg","1","k","1.00871799996821",1,7,0,2,0
"260008","img/object_images/Confetti 01.jpg","1","k","1.00766130001284",1,7,0,2,0
"260008","img/object_images/hair_clips01.jpg","1","s","0.58809920004569",1,7,0,2,0
"260008","img/object_images/boat02.jpg","1","k","1.59679199999664",1,7,0,2,0
"260008","img/object_images/glasses06.jpg","0","k","4.93757820001338",1,7,0,2,0
"260008","img/object_images/remover01.jpg","1","k","4.5826006999705",1,7,0,2,0
"260008","img/object_images/box03.jpg","0","k","1.49160180002218",1,7,0,2,0
"260008","img/object_images/rock03.jpg","0","s","1.37717570003588",1,7,0,2,0
"260008","img/object_images/cochlear_implant01.jpg","1","s","0.62149990000762",1,7,0,2,0
"260008","img/object_images/decorative02.jpg","0","s","0.580255900043994",1,7,0,2,0
"260008","img/object_images/cup01.jpg","0","s","0.964259600033984",1,7,0,2,0
"260008","img/object_images/ring03.jpg","1","s","0.592454000026919",1,7,0,2,0
"260008","img/object_images/mail_box01.jpg","0","k","0.907277099962812",1,7,0,2,0
"260008","img/object_images/Oven01.jpg","0","s","0.697124900005292",1,7,0,2,0
"260008","img/object_images/chair03.jpg","0","s","0.95465809997404",1,7,0,2,0
"260008","img/object_images/Stool01.jpg","0","s","2.24505480000516",1,7,0,2,0
"260008","img/object_images/duster01.jpg","1","s","1.12391249998473",1,7,0,2,0
"260008","img/object_images/screwdriver01.jpg","1","s","0.54552899999544",1,7,0,2,0
"260008","img/object_images/outlet01.jpg","0","k","0.771255300031044",1,7,0,2,0
"260008","img/object_images/dresser04.jpg","1","s","0.72856340004364",1,8,0,2,0
"260008","img/object_images/tool09.jpg","0","s","0.6903266000445",1,8,0,2,0
"260008","img/object_images/pot01 (1).jpg","1","s","1.01800330000697",1,8,0,2,0
"260008","img/object_images/sponge03.jpg","0","s","0.530759699991904",1,8,0,2,0
"260008","img/object_images/egg_basket01.jpg","0","s","0.475915700022597",1,8,0,2,0
"260008","img/object_images/Screws01.jpg","0","s","0.56144520000089",1,8,0,2,0
"260008","img/object_images/helmet04.jpg","0","s","1.11514100001659",1,8,0,2,0
"260008","img/object_images/chess_piece01.jpg","1","s","0.969549600034952",1,8,0,2,0
"260008","img/object_images/nut_cracker01.jpg","1","k","0.844899600022472",1,8,0,2,0
"260008","img/object_images/Safe01.jpg","1","s","0.620048700016923",1,8,0,2,0
"260008","img/object_images/wagon_cart03.jpg","1","s","0.666268200031482",1,8,0,2,0
"260008","img/object_images/dart01.jpg","1","s","0.759250600007363",1,8,0,2,0
"260008","img/object_images/cellphone01.jpg","0","s","0.957967899972573",1,8,0,2,0
"260008","img/object_images/tool20.jpg","1","s","0.824368700035848",1,8,0,2,0
"260008","img/object_images/dust_pan01.jpg","1","s","0.775210099993274",1,8,0,2,0
"260008","img/object_images/drone01.jpg","1","k","0.932604099973105",1,8,0,2,0
"260008","img/object_images/shovel03.jpg","1","s","5.37602450000122",1,8,0,2,0
"260008","img/object_images/lantern01.jpg","1","k","0.835696900030598",1,8,0,2,0
"260008","img/object_images/satellite01.jpg","0","s","0.568100599979516",1,8,0,2,0
"260008","img/object_images/phone04.jpg","0","s","0.888904699997511",1,8,0,2,0
"260008","img/object_images/Shoes05.jpg","1","s","0.947320199979004",1,8,0,2,0
"260008","img/object_images/toilet_paper_dispenser01.jpg","1","k","1.59864530002233",1,8,0,2,0
"260008","img/object_images/blanket01.jpg","1","s","0.909991400025319",1,8,0,2,0
"260008","img/object_images/knit04.jpg","0","s","1.30867930001114",1,8,0,2,0
"260008","img/object_images/gift_box04.jpg","1","k","1.29401559999678",1,8,0,2,0
"260008","img/object_images/cellphone02.jpg","1","s","1.41677529999288",1,8,0,2,0
"260008","img/object_images/helmet02.jpg","1","k","2.01358060003258",1,8,0,2,0
"260008","img/object_images/couch01.jpg","0","s","1.12383100000443",1,8,0,2,0
"260008","img/object_images/skate_board01.jpg","1","s","4.1075114000123",1,8,0,2,0
"260008","img/object_images/pan03.jpg","0","s","0.685245500004385",1,8,0,2,0
"260008","img/object_images/belt03.jpg","1","s","4.84990490000928",1,8,0,2,0
"260008","img/object_images/floss01.jpg","1","k","2.77732130000368",1,8,0,2,0
"260008","img/object_images/gift_box03.jpg","0","s","0.601216999988537",1,8,0,2,0
"260008","img/object_images/toilet_paper01.jpg","0","k","0.862991700007115",1,8,0,2,0
"260008","img/object_images/laptop03.jpg","0","s","1.38545129995327",1,8,0,2,0
"260008","img/object_images/pillows01.jpg","1","k","3.95523969997885",1,8,0,2,0
"260008","img/object_images/floppy_disk03.jpg","0","s","0.841116299969144",1,8,0,2,0
"260008","img/object_images/calculator01.jpg","0","k","1.91863039997406",1,8,0,2,0
"260008","img/object_images/fire_extinguisher01.jpg","0","s","0.628007100021932",1,8,0,2,0
"260008","img/object_images/chair01.jpg","0","s","1.37281809997512",1,8,0,2,0
"260008","img/object_images/gift_box01.jpg","0","s","0.73930440004915",1,8,0,2,0
"260008","img/object_images/hat06.jpg","0","k","3.16216799995163",1,8,0,2,0
"260008","img/object_images/bottle07.jpg","1","s","0.59430880000582",1,8,0,2,0
"260008","img/object_images/airfryer02.jpg","1","k","1.01551629998721",1,8,0,2,0
"260008","img/object_images/frisbee01.jpg","0","s","0.667307800031267",1,8,0,2,0
"260008","img/object_images/scoreboard01.jpg","1","k","1.37653389998013",1,8,0,2,0
"260008","img/object_images/Recycling01.jpg","0","s","4.07955169997877",1,8,0,2,0
"260008","img/object_images/ladle02.jpg","1","k","4.29520259995479",1,8,0,2,0
