"participant_id","current_trial_object","pre_trial_object","post_trial_object","current_trial_accuracy","pre_trial_accuracy","post_trial_accuracy","current_trial_congruency","pre_trial_congruency","post_trial_congruency","current_trial_rt","pre_trial_rt","post_trial_rt","current_trial_responded","pre_trial_responded","post_trial_responded","current_trial_legitResponse","pre_trial_legitResponse","post_trial_legitResponse","current_trial_resp_nums","pre_trial_resp_nums","post_trial_resp_nums"
"260026","img/object_images/tool13.jpg",NA,"img/object_images/sign02.jpg","1",NA,"1","1",NA,"0","0.481928499997594",NA,"0.458538600010797","1",NA,"1","1",NA,"1","1",NA,"2"
"260026","img/object_images/sign02.jpg","img/object_images/tool13.jpg","img/object_images/hat13.jpg","1","1","0","0","1","1","0.458538600010797","0.481928499997594","0.324067200010177","1","1","1","1","1","1","2","1","1"
"260026","img/object_images/hat13.jpg","img/object_images/sign02.jpg","img/object_images/Candle_Holder01.jpg","0","1","0","1","0","0","0.324067200010177","0.458538600010797","0.299378100025933","1","1","1","1","1","1","1","2","1"
"260026","img/object_images/Candle_Holder01.jpg","img/object_images/hat13.jpg","img/object_images/spray_can01.jpg","0","0","1","0","1","0","0.299378100025933","0.324067200010177","0.52025090000825","1","1","1","1","1","1","1","1","1"
"260026","img/object_images/spray_can01.jpg","img/object_images/Candle_Holder01.jpg","img/object_images/Confetti 01.jpg","1","0","1","0","0","0","0.52025090000825","0.299378100025933","0.412583499972243","1","1","1","1","1","1","1","1","1"
"260026","img/object_images/Confetti 01.jpg","img/object_images/spray_can01.jpg","img/object_images/knife01.jpg","1","1","1","0","0","1","0.412583499972243","0.52025090000825","0.504156200040597","1","1","1","1","1","1","1","1","1"
"260026","img/object_images/knife01.jpg","img/object_images/Confetti 01.jpg","img/object_images/bow_tie03.jpg","1","1","1","1","0","1","0.504156200040597","0.412583499972243","0.276087900041602","1","1","1","1","1","1","1","1","1"
"260026","img/object_images/bow_tie03.jpg","img/object_images/knife01.jpg","img/object_images/duster01.jpg","1","1","0","1","1","0","0.276087900041602","0.504156200040597","0.369223300018348","1","1","1","1","1","1","1","1","1"
"260026","img/object_images/duster01.jpg","img/object_images/bow_tie03.jpg","img/object_images/camera05.jpg","0","1","1","0","1","0","0.369223300018348","0.276087900041602","0.459238399984315","1","1","1","1","1","1","1","1","1"
"260026","img/object_images/camera05.jpg","img/object_images/duster01.jpg","img/object_images/pan03.jpg","1","0","0","0","0","1","0.459238399984315","0.369223300018348","0.303511200007051","1","1","1","1","1","1","1","1","1"
"260026","img/object_images/pan03.jpg","img/object_images/camera05.jpg","img/object_images/board01.jpg","0","1","1","1","0","1","0.303511200007051","0.459238399984315","0.544743900012691","1","1","1","1","1","1","1","1","1"
"260026","img/object_images/board01.jpg","img/object_images/pan03.jpg","img/object_images/socks01.jpg","1","0","1","1","1","1","0.544743900012691","0.303511200007051","0.279203100013547","1","1","1","1","1","1","1","1","1"
"260026","img/object_images/socks01.jpg","img/object_images/board01.jpg","img/object_images/bag04.jpg","1","1","1","1","1","0","0.279203100013547","0.544743900012691","0.291995399980806","1","1","1","1","1","1","1","1","1"
"260026","img/object_images/bag04.jpg","img/object_images/socks01.jpg","img/object_images/office_supplies01.jpg","1","1","1","0","1","1","0.291995399980806","0.279203100013547","0.404488099971786","1","1","1","1","1","1","1","1","1"
"260026","img/object_images/office_supplies01.jpg","img/object_images/bag04.jpg","img/object_images/razor02.jpg","1","1","1","1","0","1","0.404488099971786","0.291995399980806","0.289593099965714","1","1","1","1","1","1","1","1","1"
"260026","img/object_images/razor02.jpg","img/object_images/office_supplies01.jpg","img/object_images/tool20.jpg","1","1","1","1","1","0","0.289593099965714","0.404488099971786","0.536666600033641","1","1","1","1","1","1","1","1","1"
"260026","img/object_images/tool20.jpg","img/object_images/razor02.jpg","img/object_images/candle02.jpg","1","1","0","0","1","0","0.536666600033641","0.289593099965714","0.318916600022931","1","1","1","1","1","1","1","1","1"
"260026","img/object_images/candle02.jpg","img/object_images/tool20.jpg","img/object_images/perfume01.jpg","0","1","0","0","0","0","0.318916600022931","0.536666600033641","0.42094649997307","1","1","1","1","1","1","1","1","1"
"260026","img/object_images/perfume01.jpg","img/object_images/candle02.jpg","img/object_images/video_game02.jpg","0","0","1","0","0","1","0.42094649997307","0.318916600022931","0.475975699955598","1","1","1","1","1","1","1","1","1"
"260026","img/object_images/video_game02.jpg","img/object_images/perfume01.jpg","img/object_images/dust_pan01.jpg","1","0","0","1","0","1","0.475975699955598","0.42094649997307","0.348393999971449","1","1","1","1","1","1","1","1","1"
"260026","img/object_images/dust_pan01.jpg","img/object_images/video_game02.jpg","img/object_images/hat09.jpg","0","1","1","1","1","0","0.348393999971449","0.475975699955598","0.403962600044906","1","1","1","1","1","1","1","1","1"
"260026","img/object_images/hat09.jpg","img/object_images/dust_pan01.jpg","img/object_images/cup01.jpg","1","0","0","0","1","0","0.403962600044906","0.348393999971449","0.35846339998534","1","1","1","1","1","1","1","1","1"
"260026","img/object_images/cup01.jpg","img/object_images/hat09.jpg","img/object_images/pen06.jpg","0","1","1","0","0","0","0.35846339998534","0.403962600044906","0.573192900046706","1","1","1","1","1","1","1","1","1"
"260026","img/object_images/pen06.jpg","img/object_images/cup01.jpg","img/object_images/lemon_squeezer01.jpg","1","0","1","0","0","1","0.573192900046706","0.35846339998534","0.412535700015724","1","1","1","1","1","1","1","1","1"
"260026","img/object_images/lemon_squeezer01.jpg","img/object_images/pen06.jpg","img/object_images/hammer02.jpg","1","1","1","1","0","0","0.412535700015724","0.573192900046706","0.563437899982091","1","1","1","1","1","1","1","1","1"
"260026","img/object_images/hammer02.jpg","img/object_images/lemon_squeezer01.jpg","img/object_images/clipboard01.jpg","1","1","1","0","1","1","0.563437899982091","0.412535700015724","0.494700499984901","1","1","1","1","1","1","1","1","1"
"260026","img/object_images/clipboard01.jpg","img/object_images/hammer02.jpg","img/object_images/vase02.jpg","1","1","1","1","0","1","0.494700499984901","0.563437899982091","0.571408900024835","1","1","1","1","1","1","1","1","1"
"260026","img/object_images/vase02.jpg","img/object_images/clipboard01.jpg","img/object_images/glasses03.jpg","1","1","1","1","1","0","0.571408900024835","0.494700499984901","0.556100700050592","1","1","1","1","1","1","1","1","1"
"260026","img/object_images/glasses03.jpg","img/object_images/vase02.jpg","img/object_images/ruler02.jpg","1","1","1","0","1","1","0.556100700050592","0.571408900024835","0.374332499981392","1","1","1","1","1","1","1","1","1"
"260026","img/object_images/ruler02.jpg","img/object_images/glasses03.jpg","img/object_images/floss01.jpg","1","1","1","1","0","1","0.374332499981392","0.556100700050592","0.393251899979077","1","1","1","1","1","1","1","1","1"
"260026","img/object_images/floss01.jpg","img/object_images/ruler02.jpg","img/object_images/sink_filter01 (1).jpg","1","1","0","1","1","0","0.393251899979077","0.374332499981392","0.408658800006378","1","1","1","1","1","1","1","1","1"
"260026","img/object_images/sink_filter01 (1).jpg","img/object_images/floss01.jpg",NA,"0","1",NA,"0","1",NA,"0.408658800006378","0.393251899979077",NA,"1","1",NA,"1","1",NA,"1","1",NA
"260026","img/object_images/floppy_disk02.jpg",NA,"img/object_images/Thermometer01.jpg","1",NA,"1","0",NA,"0","0.677581900032237",NA,"0.474798500014003","1",NA,"1","1",NA,"1","1",NA,"1"
"260026","img/object_images/Thermometer01.jpg","img/object_images/floppy_disk02.jpg","img/object_images/retainer01.jpg","1","1","1","0","0","0","0.474798500014003","0.677581900032237","0.581876999989618","1","1","1","1","1","1","1","1","1"
"260026","img/object_images/retainer01.jpg","img/object_images/Thermometer01.jpg","img/object_images/paint_brush04.jpg","1","1","0","0","0","0","0.581876999989618","0.474798500014003","0.416422800044529","1","1","1","1","1","1","1","1","1"
"260026","img/object_images/paint_brush04.jpg","img/object_images/retainer01.jpg","img/object_images/hammer03.jpg","0","1","1","0","0","1","0.416422800044529","0.581876999989618","0.394756900030188","1","1","1","1","1","1","1","1","1"
"260026","img/object_images/hammer03.jpg","img/object_images/paint_brush04.jpg","img/object_images/pillows01.jpg","1","0","1","1","0","1","0.394756900030188","0.416422800044529","0.379139500029851","1","1","1","1","1","1","1","1","1"
"260026","img/object_images/pillows01.jpg","img/object_images/hammer03.jpg","img/object_images/pitcher01.jpg","1","1","1","1","1","0","0.379139500029851","0.394756900030188","0.481147299986333","1","1","1","1","1","1","1","1","1"
"260026","img/object_images/pitcher01.jpg","img/object_images/pillows01.jpg","img/object_images/pen03.jpg","1","1","0","0","1","0","0.481147299986333","0.379139500029851","0.344418300024699","1","1","1","1","1","1","1","1","1"
"260026","img/object_images/pen03.jpg","img/object_images/pitcher01.jpg","img/object_images/cellphone01.jpg","0","1","1","0","0","1","0.344418300024699","0.481147299986333","0.470659099984914","1","1","1","1","1","1","1","1","1"
"260026","img/object_images/cellphone01.jpg","img/object_images/pen03.jpg","img/object_images/ear_bud01.jpg","1","0","1","1","0","1","0.470659099984914","0.344418300024699","0.522105399984866","1","1","1","1","1","1","1","1","1"
"260026","img/object_images/ear_bud01.jpg","img/object_images/cellphone01.jpg","img/object_images/book03.jpg","1","1","1","1","1","1","0.522105399984866","0.470659099984914","0.475222099979874","1","1","1","1","1","1","1","1","1"
"260026","img/object_images/book03.jpg","img/object_images/ear_bud01.jpg","img/object_images/floppy_disk03.jpg","1","1","1","1","1","1","0.475222099979874","0.522105399984866","0.457196500035934","1","1","1","1","1","1","1","1","1"
"260026","img/object_images/floppy_disk03.jpg","img/object_images/book03.jpg","img/object_images/Oven01.jpg","1","1","1","1","1","1","0.457196500035934","0.475222099979874","0.510497499955818","1","1","1","1","1","1","1","1","1"
"260026","img/object_images/Oven01.jpg","img/object_images/floppy_disk03.jpg","img/object_images/note_book01.jpg","1","1","1","1","1","0","0.510497499955818","0.457196500035934","0.657819100015331","1","1","1","1","1","1","1","1","1"
"260026","img/object_images/note_book01.jpg","img/object_images/Oven01.jpg","img/object_images/knife04.jpg","1","1","1","0","1","1","0.657819100015331","0.510497499955818","0.416756700025871","1","1","1","1","1","1","1","1","1"
"260026","img/object_images/knife04.jpg","img/object_images/note_book01.jpg","img/object_images/usb02.jpg","1","1","1","1","0","0","0.416756700025871","0.657819100015331","0.383010799996555","1","1","1","1","1","1","1","1","1"
"260026","img/object_images/usb02.jpg","img/object_images/knife04.jpg","img/object_images/lid01.jpg","1","1","1","0","1","1","0.383010799996555","0.416756700025871","0.424857400008477","1","1","1","1","1","1","1","1","1"
"260026","img/object_images/lid01.jpg","img/object_images/usb02.jpg","img/object_images/bottle01.jpg","1","1","1","1","0","0","0.424857400008477","0.383010799996555","0.571606700017583","1","1","1","1","1","1","1","1","1"
"260026","img/object_images/bottle01.jpg","img/object_images/lid01.jpg","img/object_images/tv02.jpg","1","1","1","0","1","0","0.571606700017583","0.424857400008477","0.548300400027074","1","1","1","1","1","1","1","1","1"
"260026","img/object_images/tv02.jpg","img/object_images/bottle01.jpg","img/object_images/chair05.jpg","1","1","1","0","0","0","0.548300400027074","0.571606700017583","0.5356023000204","1","1","1","1","1","1","1","1","1"
"260026","img/object_images/chair05.jpg","img/object_images/tv02.jpg","img/object_images/knit05.jpg","1","1","1","0","0","1","0.5356023000204","0.548300400027074","0.494310400041286","1","1","1","1","1","1","1","1","1"
"260026","img/object_images/knit05.jpg","img/object_images/chair05.jpg","img/object_images/bell02.jpg","1","1","1","1","0","0","0.494310400041286","0.5356023000204","0.582979099999648","1","1","1","1","1","1","1","1","1"
"260026","img/object_images/bell02.jpg","img/object_images/knit05.jpg","img/object_images/motorcycle01.jpg","1","1","0","0","1","1","0.582979099999648","0.494310400041286","0.325355599983595","1","1","1","1","1","1","1","1","1"
"260026","img/object_images/motorcycle01.jpg","img/object_images/bell02.jpg","img/object_images/clip03.jpg","0","1","1","1","0","0","0.325355599983595","0.582979099999648","0.876529000001028","1","1","1","1","1","1","1","1","1"
"260026","img/object_images/clip03.jpg","img/object_images/motorcycle01.jpg","img/object_images/Staples01.jpg","1","0","1","0","1","1","0.876529000001028","0.325355599983595","0.531214200018439","1","1","1","1","1","1","1","1","1"
"260026","img/object_images/Staples01.jpg","img/object_images/clip03.jpg","img/object_images/wire02.jpg","1","1","1","1","0","1","0.531214200018439","0.876529000001028","0.484565799997654","1","1","1","1","1","1","1","1","1"
"260026","img/object_images/wire02.jpg","img/object_images/Staples01.jpg","img/object_images/microscope01.jpg","1","1","1","1","1","0","0.484565799997654","0.531214200018439","0.577231900009792","1","1","1","1","1","1","1","1","1"
"260026","img/object_images/microscope01.jpg","img/object_images/wire02.jpg","img/object_images/compass01.jpg","1","1","1","0","1","1","0.577231900009792","0.484565799997654","0.444416000042111","1","1","1","1","1","1","1","1","1"
"260026","img/object_images/compass01.jpg","img/object_images/microscope01.jpg","img/object_images/chess_piece02.jpg","1","1","1","1","0","1","0.444416000042111","0.577231900009792","0.438079499988817","1","1","1","1","1","1","1","1","1"
"260026","img/object_images/chess_piece02.jpg","img/object_images/compass01.jpg","img/object_images/clock02.jpg","1","1","1","1","1","0","0.438079499988817","0.444416000042111","0.508555499953218","1","1","1","1","1","1","1","1","1"
"260026","img/object_images/clock02.jpg","img/object_images/chess_piece02.jpg","img/object_images/tennis_racket02.jpg","1","1","1","0","1","1","0.508555499953218","0.438079499988817","0.554192700015847","1","1","1","1","1","1","1","1","1"
"260026","img/object_images/tennis_racket02.jpg","img/object_images/clock02.jpg","img/object_images/crutches02.jpg","1","1","1","1","0","0","0.554192700015847","0.508555499953218","0.574068400019314","1","1","1","1","1","1","1","1","1"
"260026","img/object_images/crutches02.jpg","img/object_images/tennis_racket02.jpg",NA,"1","1",NA,"0","1",NA,"0.574068400019314","0.554192700015847",NA,"1","1",NA,"1","1",NA,"1","1",NA
"260026","img/object_images/Shoes05.jpg",NA,"img/object_images/note_book02.jpg","1",NA,"0","0",NA,"0","0.53431219997583",NA,"0.411857699975371","1",NA,"1","1",NA,"1","1",NA,"1"
"260026","img/object_images/note_book02.jpg","img/object_images/Shoes05.jpg","img/object_images/pitcher07.jpg","0","1","1","0","0","1","0.411857699975371","0.53431219997583","0.462398500007112","1","1","1","1","1","1","1","1","1"
"260026","img/object_images/pitcher07.jpg","img/object_images/note_book02.jpg","img/object_images/origami01.jpg","1","0","1","1","0","1","0.462398500007112","0.411857699975371","0.43195649998961","1","1","1","1","1","1","1","1","1"
"260026","img/object_images/origami01.jpg","img/object_images/pitcher07.jpg","img/object_images/Safe01.jpg","1","1","1","1","1","1","0.43195649998961","0.462398500007112","0.416207599977497","1","1","1","1","1","1","1","1","1"
"260026","img/object_images/Safe01.jpg","img/object_images/origami01.jpg","img/object_images/trumpet01.jpg","1","1","1","1","1","0","0.416207599977497","0.43195649998961","0.433074000000488","1","1","1","1","1","1","1","1","1"
"260026","img/object_images/trumpet01.jpg","img/object_images/Safe01.jpg","img/object_images/yoga_mat01.jpg","1","1","1","0","1","0","0.433074000000488","0.416207599977497","0.422238100029062","1","1","1","1","1","1","1","1","1"
"260026","img/object_images/yoga_mat01.jpg","img/object_images/trumpet01.jpg","img/object_images/Eyeliner01.jpg","1","1","1","0","0","1","0.422238100029062","0.433074000000488","0.383930000010878","1","1","1","1","1","1","1","1","1"
"260026","img/object_images/Eyeliner01.jpg","img/object_images/yoga_mat01.jpg","img/object_images/frame01.jpg","1","1","1","1","0","1","0.383930000010878","0.422238100029062","0.528361100004986","1","1","1","1","1","1","1","1","1"
"260026","img/object_images/frame01.jpg","img/object_images/Eyeliner01.jpg","img/object_images/joystick03.jpg","1","1","1","1","1","1","0.528361100004986","0.383930000010878","0.346762900007889","1","1","1","1","1","1","1","1","1"
"260026","img/object_images/joystick03.jpg","img/object_images/frame01.jpg","img/object_images/badminton01.jpg","1","1","1","1","1","1","0.346762900007889","0.528361100004986","0.423520100011956","1","1","1","1","1","1","1","1","1"
"260026","img/object_images/badminton01.jpg","img/object_images/joystick03.jpg","img/object_images/jewel02.jpg","1","1","1","1","1","0","0.423520100011956","0.346762900007889","0.552089100005105","1","1","1","1","1","1","1","1","1"
"260026","img/object_images/jewel02.jpg","img/object_images/badminton01.jpg","img/object_images/nut_cracker01.jpg","1","1","1","0","1","1","0.552089100005105","0.423520100011956","0.411540600005537","1","1","1","1","1","1","1","1","1"
"260026","img/object_images/nut_cracker01.jpg","img/object_images/jewel02.jpg","img/object_images/piano03.jpg","1","1","1","1","0","0","0.411540600005537","0.552089100005105","0.589777000015602","1","1","1","1","1","1","1","1","1"
"260026","img/object_images/piano03.jpg","img/object_images/nut_cracker01.jpg","img/object_images/helmet03.jpg","1","1","1","0","1","1","0.589777000015602","0.411540600005537","0.420357499970123","1","1","1","1","1","1","1","1","1"
"260026","img/object_images/helmet03.jpg","img/object_images/piano03.jpg","img/object_images/ToolBag01.jpg","1","1","1","1","0","0","0.420357499970123","0.589777000015602","0.498432099993806","1","1","1","1","1","1","1","1","1"
"260026","img/object_images/ToolBag01.jpg","img/object_images/helmet03.jpg","img/object_images/scale02.jpg","1","1","0","0","1","0","0.498432099993806","0.420357499970123","0.374771700007841","1","1","1","1","1","1","1","1","1"
"260026","img/object_images/scale02.jpg","img/object_images/ToolBag01.jpg","img/object_images/phone04.jpg","0","1","1","0","0","1","0.374771700007841","0.498432099993806","0.393687099975068","1","1","1","1","1","1","1","1","1"
"260026","img/object_images/phone04.jpg","img/object_images/scale02.jpg","img/object_images/usb03.jpg","1","0","1","1","0","0","0.393687099975068","0.374771700007841","0.460436099965591","1","1","1","1","1","1","1","1","1"
"260026","img/object_images/usb03.jpg","img/object_images/phone04.jpg","img/object_images/headset02.jpg","1","1","1","0","1","0","0.460436099965591","0.393687099975068","0.476670900010504","1","1","1","1","1","1","1","1","1"
"260026","img/object_images/headset02.jpg","img/object_images/usb03.jpg","img/object_images/fan01.jpg","1","1","0","0","0","0","0.476670900010504","0.460436099965591","0.342472499993164","1","1","1","1","1","1","1","1","1"
"260026","img/object_images/fan01.jpg","img/object_images/headset02.jpg","img/object_images/dice01.jpg","0","1","1","0","0","0","0.342472499993164","0.476670900010504","0.53634210000746","1","1","1","1","1","1","1","1","1"
"260026","img/object_images/dice01.jpg","img/object_images/fan01.jpg","img/object_images/bucket01.jpg","1","0","1","0","0","1","0.53634210000746","0.342472499993164","0.637614700011909","1","1","1","1","1","1","1","1","1"
"260026","img/object_images/bucket01.jpg","img/object_images/dice01.jpg","img/object_images/water_gun01.jpg","1","1","1","1","0","1","0.637614700011909","0.53634210000746","0.3616905999952","1","1","1","1","1","1","1","1","1"
"260026","img/object_images/water_gun01.jpg","img/object_images/bucket01.jpg","img/object_images/egg_basket01.jpg","1","1","1","1","1","1","0.3616905999952","0.637614700011909","0.481203400006052","1","1","1","1","1","1","1","1","1"
"260026","img/object_images/egg_basket01.jpg","img/object_images/water_gun01.jpg","img/object_images/shovel01.jpg","1","1","1","1","1","0","0.481203400006052","0.3616905999952","0.590840499964543","1","1","1","1","1","1","1","1","1"
"260026","img/object_images/shovel01.jpg","img/object_images/egg_basket01.jpg","img/object_images/TreeSlice01.jpg","1","1","1","0","1","1","0.590840499964543","0.481203400006052","0.458025600004476","1","1","1","1","1","1","1","1","1"
"260026","img/object_images/TreeSlice01.jpg","img/object_images/shovel01.jpg","img/object_images/belt03.jpg","1","1","1","1","0","0","0.458025600004476","0.590840499964543","0.461755700001959","1","1","1","1","1","1","1","1","1"
"260026","img/object_images/belt03.jpg","img/object_images/TreeSlice01.jpg","img/object_images/lock03.jpg","1","1","1","0","1","1","0.461755700001959","0.458025600004476","0.55745190003654","1","1","1","1","1","1","1","1","1"
"260026","img/object_images/lock03.jpg","img/object_images/belt03.jpg","img/object_images/bookmark01.jpg","1","1","1","1","0","0","0.55745190003654","0.461755700001959","0.5375623999862","1","1","1","1","1","1","1","1","1"
"260026","img/object_images/bookmark01.jpg","img/object_images/lock03.jpg","img/object_images/bottle06.jpg","1","1","1","0","1","0","0.5375623999862","0.55745190003654","0.503456100006588","1","1","1","1","1","1","1","1","1"
"260026","img/object_images/bottle06.jpg","img/object_images/bookmark01.jpg","img/object_images/tennis_racket01.jpg","1","1","1","0","0","1","0.503456100006588","0.5375623999862","0.486043400014751","1","1","1","1","1","1","1","1","1"
"260026","img/object_images/tennis_racket01.jpg","img/object_images/bottle06.jpg",NA,"1","1",NA,"1","0",NA,"0.486043400014751","0.503456100006588",NA,"1","1",NA,"1","1",NA,"1","1",NA
"260026","img/object_images/shoes12.jpg",NA,"img/object_images/box03.jpg","1",NA,"0","1",NA,"0","0.488324199977797",NA,"0.408774900017306","1",NA,"1","1",NA,"1","1",NA,"1"
"260026","img/object_images/box03.jpg","img/object_images/shoes12.jpg","img/object_images/Violin01.jpg","0","1","1","0","1","0","0.408774900017306","0.488324199977797","0.475327000021935","1","1","1","1","1","1","1","1","1"
"260026","img/object_images/Violin01.jpg","img/object_images/box03.jpg","img/object_images/hair_brush01.jpg","1","0","1","0","0","1","0.475327000021935","0.408774900017306","0.41667679999955","1","1","1","1","1","1","1","1","1"
"260026","img/object_images/hair_brush01.jpg","img/object_images/Violin01.jpg","img/object_images/mail_box02.jpg","1","1","1","1","0","1","0.41667679999955","0.475327000021935","0.457174399984069","1","1","1","1","1","1","1","1","1"
"260026","img/object_images/mail_box02.jpg","img/object_images/hair_brush01.jpg","img/object_images/bell03.jpg","1","1","0","1","1","0","0.457174399984069","0.41667679999955","0.372098999971058","1","1","1","1","1","1","1","1","1"
"260026","img/object_images/bell03.jpg","img/object_images/mail_box02.jpg","img/object_images/soap03.jpg","0","1","1","0","1","0","0.372098999971058","0.457174399984069","0.379692199989222","1","1","1","1","1","1","1","1","1"
"260026","img/object_images/soap03.jpg","img/object_images/bell03.jpg","img/object_images/couch01.jpg","1","0","1","0","0","0","0.379692199989222","0.372098999971058","0.546778000018094","1","1","1","1","1","1","1","1","1"
"260026","img/object_images/couch01.jpg","img/object_images/soap03.jpg","img/object_images/skate_board01.jpg","1","1","1","0","0","0","0.546778000018094","0.379692199989222","0.475567099987529","1","1","1","1","1","1","1","1","1"
"260026","img/object_images/skate_board01.jpg","img/object_images/couch01.jpg","img/object_images/book02.jpg","1","1","1","0","0","1","0.475567099987529","0.546778000018094","0.412116800027434","1","1","1","1","1","1","1","1","1"
"260026","img/object_images/book02.jpg","img/object_images/skate_board01.jpg","img/object_images/fork02.jpg","1","1","1","1","0","0","0.412116800027434","0.475567099987529","0.452378200017847","1","1","1","1","1","1","1","1","1"
"260026","img/object_images/fork02.jpg","img/object_images/book02.jpg","img/object_images/drone01.jpg","1","1","1","0","1","1","0.452378200017847","0.412116800027434","0.54157280002255","1","1","1","1","1","1","1","1","1"
"260026","img/object_images/drone01.jpg","img/object_images/fork02.jpg","img/object_images/computer_mouse01.jpg","1","1","1","1","0","1","0.54157280002255","0.452378200017847","0.408465199987404","1","1","1","1","1","1","1","1","1"
"260026","img/object_images/computer_mouse01.jpg","img/object_images/drone01.jpg","img/object_images/bag_pipes01.jpg","1","1","1","1","1","1","0.408465199987404","0.54157280002255","0.353561299969442","1","1","1","1","1","1","1","1","1"
"260026","img/object_images/bag_pipes01.jpg","img/object_images/computer_mouse01.jpg","img/object_images/blender01.jpg","1","1","0","1","1","0","0.353561299969442","0.408465199987404","0.392721200012602","1","1","1","1","1","1","1","1","1"
"260026","img/object_images/blender01.jpg","img/object_images/bag_pipes01.jpg","img/object_images/tool06.jpg","0","1","0","0","1","0","0.392721200012602","0.353561299969442","0.317222799989395","1","1","1","1","1","1","1","1","1"
"260026","img/object_images/tool06.jpg","img/object_images/blender01.jpg","img/object_images/clip04.jpg","0","0","1","0","0","1","0.317222799989395","0.392721200012602","0.401201400032733","1","1","1","1","1","1","1","1","1"
"260026","img/object_images/clip04.jpg","img/object_images/tool06.jpg","img/object_images/toy01.jpg","1","0","1","1","0","1","0.401201400032733","0.317222799989395","0.473604500002693","1","1","1","1","1","1","1","1","1"
"260026","img/object_images/toy01.jpg","img/object_images/clip04.jpg","img/object_images/pen01.jpg","1","1","1","1","1","0","0.473604500002693","0.401201400032733","0.326401699974667","1","1","1","1","1","1","1","1","1"
"260026","img/object_images/pen01.jpg","img/object_images/toy01.jpg","img/object_images/egg_slicer01.jpg","1","1","1","0","1","1","0.326401699974667","0.473604500002693","0.427731799951289","1","1","1","1","1","1","1","1","1"
"260026","img/object_images/egg_slicer01.jpg","img/object_images/pen01.jpg","img/object_images/video_game03.jpg","1","1","1","1","0","1","0.427731799951289","0.326401699974667","0.408128299983218","1","1","1","1","1","1","1","1","1"
"260026","img/object_images/video_game03.jpg","img/object_images/egg_slicer01.jpg","img/object_images/pitcher09.jpg","1","1","1","1","1","1","0.408128299983218","0.427731799951289","0.382714300008956","1","1","1","1","1","1","1","1","1"
"260026","img/object_images/pitcher09.jpg","img/object_images/video_game03.jpg","img/object_images/airfryer02.jpg","1","1","1","1","1","1","0.382714300008956","0.408128299983218","0.387308900011703","1","1","1","1","1","1","1","1","1"
"260026","img/object_images/airfryer02.jpg","img/object_images/pitcher09.jpg","img/object_images/tripod01.jpg","1","1","1","1","1","1","0.387308900011703","0.382714300008956","0.4539136000094","1","1","1","1","1","1","1","1","1"
"260026","img/object_images/tripod01.jpg","img/object_images/airfryer02.jpg","img/object_images/rock02.jpg","1","1","0","1","1","0","0.4539136000094","0.387308900011703","0.365756899991538","1","1","1","1","1","1","1","1","1"
"260026","img/object_images/rock02.jpg","img/object_images/tripod01.jpg","img/object_images/scarf01.jpg","0","1","0","0","1","1","0.365756899991538","0.4539136000094","0.612142099998891","1","1","1","1","1","1","1","1","1"
"260026","img/object_images/scarf01.jpg","img/object_images/rock02.jpg","img/object_images/Trowel01.jpg","0","0","1","1","0","0","0.612142099998891","0.365756899991538","0.645102099981159","1","1","1","1","1","1","1","1","1"
"260026","img/object_images/Trowel01.jpg","img/object_images/scarf01.jpg","img/object_images/floss02.jpg","1","0","1","0","1","1","0.645102099981159","0.612142099998891","0.506264199968427","1","1","1","1","1","1","1","1","1"
"260026","img/object_images/floss02.jpg","img/object_images/Trowel01.jpg","img/object_images/chain01.jpg","1","1","1","1","0","0","0.506264199968427","0.645102099981159","0.547316100040916","1","1","1","1","1","1","1","1","1"
"260026","img/object_images/chain01.jpg","img/object_images/floss02.jpg","img/object_images/toothbrush01.jpg","1","1","0","0","1","0","0.547316100040916","0.506264199968427","0.497038599976804","1","1","1","1","1","1","1","1","1"
"260026","img/object_images/toothbrush01.jpg","img/object_images/chain01.jpg","img/object_images/computer_mouse02.jpg","0","1","1","0","0","0","0.497038599976804","0.547316100040916","0.74454699998023","1","1","1","1","1","1","1","1","1"
"260026","img/object_images/computer_mouse02.jpg","img/object_images/toothbrush01.jpg","img/object_images/chair06.jpg","1","0","1","0","0","0","0.74454699998023","0.497038599976804","0.607032199972309","1","1","1","1","1","1","1","1","1"
"260026","img/object_images/chair06.jpg","img/object_images/computer_mouse02.jpg",NA,"1","1",NA,"0","0",NA,"0.607032199972309","0.74454699998023",NA,"1","1",NA,"1","1",NA,"1","1",NA
"260026","img/object_images/gloves02.jpg",NA,"img/object_images/car01.jpg","1",NA,"1","0",NA,"1","0.580748200009111",NA,"0.403338600008283","1",NA,"1","1",NA,"1","1",NA,"1"
"260026","img/object_images/car01.jpg","img/object_images/gloves02.jpg","img/object_images/toy08.jpg","1","1","1","1","0","0","0.403338600008283","0.580748200009111","0.466060500009917","1","1","1","1","1","1","1","1","1"
"260026","img/object_images/toy08.jpg","img/object_images/car01.jpg","img/object_images/boat04.jpg","1","1","1","0","1","0","0.466060500009917","0.403338600008283","0.627208299993072","1","1","1","1","1","1","1","1","1"
"260026","img/object_images/boat04.jpg","img/object_images/toy08.jpg","img/object_images/kite01.jpg","1","1","1","0","0","1","0.627208299993072","0.466060500009917","0.368118900049012","1","1","1","1","1","1","1","1","1"
"260026","img/object_images/kite01.jpg","img/object_images/boat04.jpg","img/object_images/keyboard02.jpg","1","1","1","1","0","1","0.368118900049012","0.627208299993072","0.319572100008372","1","1","1","1","1","1","1","1","1"
"260026","img/object_images/keyboard02.jpg","img/object_images/kite01.jpg","img/object_images/camera03.jpg","1","1","1","1","1","0","0.319572100008372","0.368118900049012","0.508566600037739","1","1","1","1","1","1","1","1","1"
"260026","img/object_images/camera03.jpg","img/object_images/keyboard02.jpg","img/object_images/tool18.jpg","1","1","1","0","1","0","0.508566600037739","0.319572100008372","0.444994200021029","1","1","1","1","1","1","1","1","1"
"260026","img/object_images/tool18.jpg","img/object_images/camera03.jpg","img/object_images/curtain02.jpg","1","1","1","0","0","0","0.444994200021029","0.508566600037739","0.521454299974721","1","1","1","1","1","1","1","1","1"
"260026","img/object_images/curtain02.jpg","img/object_images/tool18.jpg","img/object_images/phone02.jpg","1","1","1","0","0","1","0.521454299974721","0.444994200021029","0.429478299978655","1","1","1","1","1","1","1","1","1"
"260026","img/object_images/phone02.jpg","img/object_images/curtain02.jpg","img/object_images/knit04.jpg","1","1","1","1","0","1","0.429478299978655","0.521454299974721","0.499172599986196","1","1","1","1","1","1","1","1","1"
"260026","img/object_images/knit04.jpg","img/object_images/phone02.jpg","img/object_images/matches02.jpg","1","1","1","1","1","0","0.499172599986196","0.429478299978655","0.540971800044645","1","1","1","1","1","1","1","1","1"
"260026","img/object_images/matches02.jpg","img/object_images/knit04.jpg","img/object_images/paper_cup02.jpg","1","1","1","0","1","1","0.540971800044645","0.499172599986196","0.447955299983732","1","1","1","1","1","1","1","1","1"
"260026","img/object_images/paper_cup02.jpg","img/object_images/matches02.jpg","img/object_images/remote_controller01.jpg","1","1","1","1","0","1","0.447955299983732","0.540971800044645","0.50480489997426","1","1","1","1","1","1","1","1","1"
"260026","img/object_images/remote_controller01.jpg","img/object_images/paper_cup02.jpg","img/object_images/hand_grip_exerciser01.jpg","1","1","1","1","1","0","0.50480489997426","0.447955299983732","0.396618600003421","1","1","1","1","1","1","1","1","1"
"260026","img/object_images/hand_grip_exerciser01.jpg","img/object_images/remote_controller01.jpg","img/object_images/knit03.jpg","1","1","0","0","1","1","0.396618600003421","0.50480489997426","0.417567000025883","1","1","1","1","1","1","1","1","2"
"260026","img/object_images/knit03.jpg","img/object_images/hand_grip_exerciser01.jpg","img/object_images/mail_box01.jpg","0","1","1","1","0","0","0.417567000025883","0.396618600003421","0.51035439997213","1","1","1","1","1","1","2","1","1"
"260026","img/object_images/mail_box01.jpg","img/object_images/knit03.jpg","img/object_images/bottle07.jpg","1","0","1","0","1","1","0.51035439997213","0.417567000025883","0.435409699974116","1","1","1","1","1","1","1","2","1"
"260026","img/object_images/bottle07.jpg","img/object_images/mail_box01.jpg","img/object_images/basket04.jpg","1","1","1","1","0","1","0.435409699974116","0.51035439997213","0.355539900017902","1","1","1","1","1","1","1","1","1"
"260026","img/object_images/basket04.jpg","img/object_images/bottle07.jpg","img/object_images/video_game01.jpg","1","1","1","1","1","1","0.355539900017902","0.435409699974116","0.374816099996678","1","1","1","1","1","1","1","1","1"
"260026","img/object_images/video_game01.jpg","img/object_images/basket04.jpg","img/object_images/flashlight03.jpg","1","1","0","1","1","0","0.374816099996678","0.355539900017902","0.397971500002313","1","1","1","1","1","1","1","1","1"
"260026","img/object_images/flashlight03.jpg","img/object_images/video_game01.jpg","img/object_images/knife02.jpg","0","1","1","0","1","0","0.397971500002313","0.374816099996678","0.414897399954498","1","1","1","1","1","1","1","1","1"
"260026","img/object_images/knife02.jpg","img/object_images/flashlight03.jpg","img/object_images/dresser03.jpg","1","0","0","0","0","0","0.414897399954498","0.397971500002313","0.29917850001948","1","1","1","1","1","1","1","1","1"
"260026","img/object_images/dresser03.jpg","img/object_images/knife02.jpg","img/object_images/remover01.jpg","0","1","1","0","0","1","0.29917850001948","0.414897399954498","0.462917500000913","1","1","1","1","1","1","1","1","1"
"260026","img/object_images/remover01.jpg","img/object_images/dresser03.jpg","img/object_images/shower_head01.jpg","1","0","1","1","0","1","0.462917500000913","0.29917850001948","0.483943999977782","1","1","1","1","1","1","1","1","1"
"260026","img/object_images/shower_head01.jpg","img/object_images/remover01.jpg","img/object_images/blender02.jpg","1","1","1","1","1","1","0.483943999977782","0.462917500000913","0.399516999954358","1","1","1","1","1","1","1","1","1"
"260026","img/object_images/blender02.jpg","img/object_images/shower_head01.jpg","img/object_images/backpack01.jpg","1","1","0","1","1","0","0.399516999954358","0.483943999977782","0.369593399984296","1","1","1","1","1","1","1","1","1"
"260026","img/object_images/backpack01.jpg","img/object_images/blender02.jpg","img/object_images/Statue01.jpg","0","1","1","0","1","1","0.369593399984296","0.399516999954358","0.473689000005834","1","1","1","1","1","1","1","1","1"
"260026","img/object_images/Statue01.jpg","img/object_images/backpack01.jpg","img/object_images/stereo02.jpg","1","0","1","1","0","0","0.473689000005834","0.369593399984296","0.581816499994602","1","1","1","1","1","1","1","1","1"
"260026","img/object_images/stereo02.jpg","img/object_images/Statue01.jpg","img/object_images/sponge03.jpg","1","1","1","0","1","1","0.581816499994602","0.473689000005834","0.477486899995711","1","1","1","1","1","1","1","1","1"
"260026","img/object_images/sponge03.jpg","img/object_images/stereo02.jpg","img/object_images/hoverboard01.jpg","1","1","1","1","0","0","0.477486899995711","0.581816499994602","0.463887899997644","1","1","1","1","1","1","1","1","1"
"260026","img/object_images/hoverboard01.jpg","img/object_images/sponge03.jpg","img/object_images/jacket04.jpg","1","1","0","0","1","0","0.463887899997644","0.477486899995711","0.451673700008541","1","1","1","1","1","1","1","1","1"
"260026","img/object_images/jacket04.jpg","img/object_images/hoverboard01.jpg",NA,"0","1",NA,"0","0",NA,"0.451673700008541","0.463887899997644",NA,"1","1",NA,"1","1",NA,"1","1",NA
"260026","img/object_images/boat02.jpg",NA,"img/object_images/purse04.jpg","1",NA,"1","1",NA,"1","0.483787300006952",NA,"0.46757759997854","1",NA,"1","1",NA,"1","1",NA,"1"
"260026","img/object_images/purse04.jpg","img/object_images/boat02.jpg","img/object_images/wagon_cart03.jpg","1","1","1","1","1","1","0.46757759997854","0.483787300006952","0.543152999947779","1","1","1","1","1","1","1","1","1"
"260026","img/object_images/wagon_cart03.jpg","img/object_images/purse04.jpg","img/object_images/hot_air_balloon02.jpg","1","1","0","1","1","0","0.543152999947779","0.46757759997854","0.349746000021696","1","1","1","1","1","1","1","1","1"
"260026","img/object_images/hot_air_balloon02.jpg","img/object_images/wagon_cart03.jpg","img/object_images/dog_leash01.jpg","0","1","1","0","1","0","0.349746000021696","0.543152999947779","0.577826099994127","1","1","1","1","1","1","1","1","1"
"260026","img/object_images/dog_leash01.jpg","img/object_images/hot_air_balloon02.jpg","img/object_images/helmet04.jpg","1","0","1","0","0","1","0.577826099994127","0.349746000021696","0.462112299981527","1","1","1","1","1","1","1","1","1"
"260026","img/object_images/helmet04.jpg","img/object_images/dog_leash01.jpg","img/object_images/fan02.jpg","1","1","1","1","0","0","0.462112299981527","0.577826099994127","0.492553899995983","1","1","1","1","1","1","1","1","1"
"260026","img/object_images/fan02.jpg","img/object_images/helmet04.jpg","img/object_images/bottle09.jpg","1","1","1","0","1","0","0.492553899995983","0.462112299981527","0.530090800020844","1","1","1","1","1","1","1","1","1"
"260026","img/object_images/bottle09.jpg","img/object_images/fan02.jpg","img/object_images/WoodBox01.jpg","1","1","1","0","0","0","0.530090800020844","0.492553899995983","0.504434899950866","1","1","1","1","1","1","1","1","1"
"260026","img/object_images/WoodBox01.jpg","img/object_images/bottle09.jpg","img/object_images/hat06.jpg","1","1","0","0","0","0","0.504434899950866","0.530090800020844","0.437764000031166","1","1","1","1","1","1","1","1","1"
"260026","img/object_images/hat06.jpg","img/object_images/WoodBox01.jpg","img/object_images/tie02.jpg","0","1","1","0","0","0","0.437764000031166","0.504434899950866","0.583856000041123","1","1","1","1","1","1","1","1","1"
"260026","img/object_images/tie02.jpg","img/object_images/hat06.jpg","img/object_images/chair03.jpg","1","0","1","0","0","0","0.583856000041123","0.437764000031166","0.496923700033221","1","1","1","1","1","1","1","1","1"
"260026","img/object_images/chair03.jpg","img/object_images/tie02.jpg","img/object_images/water_scooter01.jpg","1","1","1","0","0","1","0.496923700033221","0.583856000041123","0.420852600014768","1","1","1","1","1","1","1","1","1"
"260026","img/object_images/water_scooter01.jpg","img/object_images/chair03.jpg","img/object_images/tool19.jpg","1","1","1","1","0","1","0.420852600014768","0.496923700033221","0.443288400012534","1","1","1","1","1","1","1","1","1"
"260026","img/object_images/tool19.jpg","img/object_images/water_scooter01.jpg","img/object_images/bicycle01.jpg","1","1","1","1","1","1","0.443288400012534","0.420852600014768","0.429836700030137","1","1","1","1","1","1","1","1","1"
"260026","img/object_images/bicycle01.jpg","img/object_images/tool19.jpg","img/object_images/boat_toy10.jpg","1","1","1","1","1","0","0.429836700030137","0.443288400012534","0.565188199980184","1","1","1","1","1","1","1","1","1"
"260026","img/object_images/boat_toy10.jpg","img/object_images/bicycle01.jpg","img/object_images/bottle10.jpg","1","1","1","0","1","1","0.565188199980184","0.429836700030137","0.496396899980027","1","1","1","1","1","1","1","1","1"
"260026","img/object_images/bottle10.jpg","img/object_images/boat_toy10.jpg","img/object_images/camera_lens01.jpg","1","1","1","1","0","1","0.496396899980027","0.565188199980184","0.389843299984932","1","1","1","1","1","1","1","1","1"
"260026","img/object_images/camera_lens01.jpg","img/object_images/bottle10.jpg","img/object_images/flask01.jpg","1","1","1","1","1","0","0.389843299984932","0.496396899980027","0.501481199986301","1","1","1","1","1","1","1","1","1"
"260026","img/object_images/flask01.jpg","img/object_images/camera_lens01.jpg","img/object_images/scoreboard01.jpg","1","1","1","0","1","1","0.501481199986301","0.389843299984932","0.410619499976747","1","1","1","1","1","1","1","1","1"
"260026","img/object_images/scoreboard01.jpg","img/object_images/flask01.jpg","img/object_images/coloring_pencil02.jpg","1","1","1","1","0","0","0.410619499976747","0.501481199986301","0.42527320003137","1","1","1","1","1","1","1","1","1"
"260026","img/object_images/coloring_pencil02.jpg","img/object_images/scoreboard01.jpg","img/object_images/toilet_paper_dispenser01.jpg","1","1","1","0","1","1","0.42527320003137","0.410619499976747","0.510034599981736","1","1","1","1","1","1","1","1","1"
"260026","img/object_images/toilet_paper_dispenser01.jpg","img/object_images/coloring_pencil02.jpg","img/object_images/audio_port01.jpg","1","1","1","1","0","1","0.510034599981736","0.42527320003137","0.441837700025644","1","1","1","1","1","1","1","1","1"
"260026","img/object_images/audio_port01.jpg","img/object_images/toilet_paper_dispenser01.jpg","img/object_images/knit01.jpg","1","1","1","1","1","0","0.441837700025644","0.510034599981736","0.484354000014719","1","1","1","1","1","1","1","1","1"
"260026","img/object_images/knit01.jpg","img/object_images/audio_port01.jpg","img/object_images/piggy_bank01.jpg","1","1","1","0","1","1","0.484354000014719","0.441837700025644","0.389703299966641","1","1","1","1","1","1","1","1","1"
"260026","img/object_images/piggy_bank01.jpg","img/object_images/knit01.jpg","img/object_images/perfume02.jpg","1","1","1","1","0","0","0.389703299966641","0.484354000014719","0.474230699997861","1","1","1","1","1","1","1","1","1"
"260026","img/object_images/perfume02.jpg","img/object_images/piggy_bank01.jpg","img/object_images/bottle02.jpg","1","1","1","0","1","1","0.474230699997861","0.389703299966641","0.452313800051343","1","1","1","1","1","1","1","1","1"
"260026","img/object_images/bottle02.jpg","img/object_images/perfume02.jpg","img/object_images/bean_bag02.jpg","1","1","1","1","0","1","0.452313800051343","0.474230699997861","0.471211500000209","1","1","1","1","1","1","1","1","1"
"260026","img/object_images/bean_bag02.jpg","img/object_images/bottle02.jpg","img/object_images/toaster01.jpg","1","1","1","1","1","1","0.471211500000209","0.452313800051343","0.473873700015247","1","1","1","1","1","1","1","1","1"
"260026","img/object_images/toaster01.jpg","img/object_images/bean_bag02.jpg","img/object_images/shoes07.jpg","1","1","1","1","1","0","0.473873700015247","0.471211500000209","0.429979600012302","1","1","1","1","1","1","1","1","1"
"260026","img/object_images/shoes07.jpg","img/object_images/toaster01.jpg","img/object_images/cellphone03.jpg","1","1","1","0","1","0","0.429979600012302","0.473873700015247","0.520987199968658","1","1","1","1","1","1","1","1","1"
"260026","img/object_images/cellphone03.jpg","img/object_images/shoes07.jpg","img/object_images/pen05.jpg","1","1","1","0","0","0","0.520987199968658","0.429979600012302","0.505690800026059","1","1","1","1","1","1","1","1","1"
"260026","img/object_images/pen05.jpg","img/object_images/cellphone03.jpg",NA,"1","1",NA,"0","0",NA,"0.505690800026059","0.520987199968658",NA,"1","1",NA,"1","1",NA,"1","1",NA
"260026","img/object_images/tool11.jpg",NA,"img/object_images/hair_brush05.jpg","1",NA,"1","1",NA,"1","0.457243499986362",NA,"0.381183799996506","1",NA,"1","1",NA,"1","1",NA,"1"
"260026","img/object_images/hair_brush05.jpg","img/object_images/tool11.jpg","img/object_images/cutting_board01.jpg","1","1","1","1","1","1","0.381183799996506","0.457243499986362","0.425567600002978","1","1","1","1","1","1","1","1","1"
"260026","img/object_images/cutting_board01.jpg","img/object_images/hair_brush05.jpg","img/object_images/lemon_squeezer02.jpg","1","1","1","1","1","1","0.425567600002978","0.381183799996506","0.42203909996897","1","1","1","1","1","1","1","1","1"
"260026","img/object_images/lemon_squeezer02.jpg","img/object_images/cutting_board01.jpg","img/object_images/satellite01.jpg","1","1","0","1","1","0","0.42203909996897","0.425567600002978","0.510898600041401","1","1","1","1","1","1","1","1","2"
"260026","img/object_images/satellite01.jpg","img/object_images/lemon_squeezer02.jpg","img/object_images/razor01.jpg","0","1","1","0","1","0","0.510898600041401","0.42203909996897","0.379736299975775","1","1","1","1","1","1","2","1","1"
"260026","img/object_images/razor01.jpg","img/object_images/satellite01.jpg","img/object_images/ice_tray03.jpg","1","0","0","0","0","1","0.379736299975775","0.510898600041401","0.337937899981625","1","1","1","1","1","1","1","2","1"
"260026","img/object_images/ice_tray03.jpg","img/object_images/razor01.jpg","img/object_images/screwdriver01.jpg","0","1","1","1","0","0","0.337937899981625","0.379736299975775","0.410523500002455","1","1","1","1","1","1","1","1","1"
"260026","img/object_images/screwdriver01.jpg","img/object_images/ice_tray03.jpg","img/object_images/MeasuringCup01.jpg","1","0","1","0","1","1","0.410523500002455","0.337937899981625","0.39139800000703","1","1","1","1","1","1","1","1","1"
"260026","img/object_images/MeasuringCup01.jpg","img/object_images/screwdriver01.jpg","img/object_images/jewel01.jpg","1","1","1","1","0","0","0.39139800000703","0.410523500002455","0.493294999992941","1","1","1","1","1","1","1","1","1"
"260026","img/object_images/jewel01.jpg","img/object_images/MeasuringCup01.jpg","img/object_images/bag06.jpg","1","1","1","0","1","1","0.493294999992941","0.39139800000703","0.433019300049637","1","1","1","1","1","1","1","1","1"
"260026","img/object_images/bag06.jpg","img/object_images/jewel01.jpg","img/object_images/WitchHat02.jpg","1","1","1","1","0","1","0.433019300049637","0.493294999992941","0.317720899998676","1","1","1","1","1","1","1","1","1"
"260026","img/object_images/WitchHat02.jpg","img/object_images/bag06.jpg","img/object_images/car03.jpg","1","1","1","1","1","0","0.317720899998676","0.433019300049637","0.440846399986185","1","1","1","1","1","1","1","1","1"
"260026","img/object_images/car03.jpg","img/object_images/WitchHat02.jpg","img/object_images/fan05.jpg","1","1","1","0","1","0","0.440846399986185","0.317720899998676","0.438731000002008","1","1","1","1","1","1","1","1","1"
"260026","img/object_images/fan05.jpg","img/object_images/car03.jpg","img/object_images/shoes10.jpg","1","1","0","0","0","0","0.438731000002008","0.440846399986185","0.506832299986854","1","1","1","1","1","1","1","1","1"
"260026","img/object_images/shoes10.jpg","img/object_images/fan05.jpg","img/object_images/shower_head03.jpg","0","1","1","0","0","1","0.506832299986854","0.438731000002008","0.432303400011733","1","1","1","1","1","1","1","1","1"
"260026","img/object_images/shower_head03.jpg","img/object_images/shoes10.jpg","img/object_images/belt01.jpg","1","0","1","1","0","0","0.432303400011733","0.506832299986854","0.388435300032143","1","1","1","1","1","1","1","1","1"
"260026","img/object_images/belt01.jpg","img/object_images/shower_head03.jpg","img/object_images/jewelry07.jpg","1","1","1","0","1","1","0.388435300032143","0.432303400011733","0.532528300012928","1","1","1","1","1","1","1","1","1"
"260026","img/object_images/jewelry07.jpg","img/object_images/belt01.jpg","img/object_images/mask01.jpg","1","1","1","1","0","0","0.532528300012928","0.388435300032143","0.522871299996041","1","1","1","1","1","1","1","1","1"
"260026","img/object_images/mask01.jpg","img/object_images/jewelry07.jpg","img/object_images/slinky_toy01.jpg","1","1","0","0","1","1","0.522871299996041","0.532528300012928","0.341653099982068","1","1","1","1","1","1","1","1","1"
"260026","img/object_images/slinky_toy01.jpg","img/object_images/mask01.jpg","img/object_images/toaster02.jpg","0","1","1","1","0","1","0.341653099982068","0.522871299996041","0.42034120002063","1","1","1","1","1","1","1","1","1"
"260026","img/object_images/toaster02.jpg","img/object_images/slinky_toy01.jpg","img/object_images/key02.jpg","1","0","1","1","1","1","0.42034120002063","0.341653099982068","0.408672099991236","1","1","1","1","1","1","1","1","1"
"260026","img/object_images/key02.jpg","img/object_images/toaster02.jpg","img/object_images/chair04.jpg","1","1","1","1","1","1","0.408672099991236","0.42034120002063","0.459983500011731","1","1","1","1","1","1","1","1","1"
"260026","img/object_images/chair04.jpg","img/object_images/key02.jpg","img/object_images/ladle02.jpg","1","1","1","1","1","0","0.459983500011731","0.408672099991236","0.673270200029947","1","1","1","1","1","1","1","1","1"
"260026","img/object_images/ladle02.jpg","img/object_images/chair04.jpg","img/object_images/ribbon01.jpg","1","1","1","0","1","0","0.673270200029947","0.459983500011731","0.362357700010762","1","1","1","1","1","1","1","1","1"
"260026","img/object_images/ribbon01.jpg","img/object_images/ladle02.jpg","img/object_images/cards01.jpg","1","1","1","0","0","0","0.362357700010762","0.673270200029947","0.504836999985855","1","1","1","1","1","1","1","1","1"
"260026","img/object_images/cards01.jpg","img/object_images/ribbon01.jpg","img/object_images/dress03.jpg","1","1","1","0","0","1","0.504836999985855","0.362357700010762","0.332978399994317","1","1","1","1","1","1","1","1","1"
"260026","img/object_images/dress03.jpg","img/object_images/cards01.jpg","img/object_images/tv01.jpg","1","1","0","1","0","0","0.332978399994317","0.504836999985855","0.343268600001466","1","1","1","1","1","1","1","1","1"
"260026","img/object_images/tv01.jpg","img/object_images/dress03.jpg","img/object_images/binoculars03.jpg","0","1","1","0","1","1","0.343268600001466","0.332978399994317","0.468847199983429","1","1","1","1","1","1","1","1","1"
"260026","img/object_images/binoculars03.jpg","img/object_images/tv01.jpg","img/object_images/car04.jpg","1","0","0","1","0","0","0.468847199983429","0.343268600001466","0.424947899999097","1","1","1","1","1","1","1","1","1"
"260026","img/object_images/car04.jpg","img/object_images/binoculars03.jpg","img/object_images/rock03.jpg","0","1","0","0","1","0","0.424947899999097","0.468847199983429","0.41426859999774","1","1","1","1","1","1","1","1","1"
"260026","img/object_images/rock03.jpg","img/object_images/car04.jpg","img/object_images/yarn02.jpg","0","0","1","0","0","0","0.41426859999774","0.424947899999097","0.579839800018817","1","1","1","1","1","1","1","1","1"
"260026","img/object_images/yarn02.jpg","img/object_images/rock03.jpg",NA,"1","0",NA,"0","0",NA,"0.579839800018817","0.41426859999774",NA,"1","1",NA,"1","1",NA,"1","1",NA
"260026","img/object_images/gauze01.jpg",NA,"img/object_images/Ring02.jpg","1",NA,"1","0",NA,"0","0.608450800005812",NA,"0.53042240004288","1",NA,"1","1",NA,"1","1",NA,"1"
"260026","img/object_images/Ring02.jpg","img/object_images/gauze01.jpg","img/object_images/ornament01.jpg","1","1","1","0","0","1","0.53042240004288","0.608450800005812","0.347451600013301","1","1","1","1","1","1","1","1","1"
"260026","img/object_images/ornament01.jpg","img/object_images/Ring02.jpg","img/object_images/stapler.jpg","1","1","1","1","0","1","0.347451600013301","0.53042240004288","0.443668199994136","1","1","1","1","1","1","1","1","1"
"260026","img/object_images/stapler.jpg","img/object_images/ornament01.jpg","img/object_images/bird_house02.jpg","1","1","1","1","1","1","0.443668199994136","0.347451600013301","0.365283699997235","1","1","1","1","1","1","1","1","1"
"260026","img/object_images/bird_house02.jpg","img/object_images/stapler.jpg","img/object_images/pot01 (1).jpg","1","1","0","1","1","0","0.365283699997235","0.443668199994136","0.384853900002781","1","1","1","1","1","1","1","1","1"
"260026","img/object_images/pot01 (1).jpg","img/object_images/bird_house02.jpg","img/object_images/shovel03.jpg","0","1","1","0","1","1","0.384853900002781","0.365283699997235","0.430811400001403","1","1","1","1","1","1","1","1","1"
"260026","img/object_images/shovel03.jpg","img/object_images/pot01 (1).jpg","img/object_images/judge_gavel01.jpg","1","0","1","1","0","1","0.430811400001403","0.384853900002781","0.490792399970815","1","1","1","1","1","1","1","1","1"
"260026","img/object_images/judge_gavel01.jpg","img/object_images/shovel03.jpg","img/object_images/jewel04.jpg","1","1","1","1","1","0","0.490792399970815","0.430811400001403","0.571526000043377","1","1","1","1","1","1","1","1","1"
"260026","img/object_images/jewel04.jpg","img/object_images/judge_gavel01.jpg","img/object_images/toy04.jpg","1","1","1","0","1","0","0.571526000043377","0.490792399970815","0.533692499971949","1","1","1","1","1","1","1","1","1"
"260026","img/object_images/toy04.jpg","img/object_images/jewel04.jpg","img/object_images/mirror01.jpg","1","1","1","0","0","1","0.533692499971949","0.571526000043377","0.400125899992418","1","1","1","1","1","1","1","1","1"
"260026","img/object_images/mirror01.jpg","img/object_images/toy04.jpg","img/object_images/acoustic_capo01.jpg","1","1","1","1","0","1","0.400125899992418","0.533692499971949","0.468369000009261","1","1","1","1","1","1","1","1","1"
"260026","img/object_images/acoustic_capo01.jpg","img/object_images/mirror01.jpg","img/object_images/tool09.jpg","1","1","1","1","1","1","0.468369000009261","0.400125899992418","0.494078499963507","1","1","1","1","1","1","1","1","1"
"260026","img/object_images/tool09.jpg","img/object_images/acoustic_capo01.jpg","img/object_images/dart01.jpg","1","1","1","1","1","0","0.494078499963507","0.468369000009261","0.477581800019834","1","1","1","1","1","1","1","1","1"
"260026","img/object_images/dart01.jpg","img/object_images/tool09.jpg","img/object_images/guitar02.jpg","1","1","1","0","1","0","0.477581800019834","0.494078499963507","0.511591300019063","1","1","1","1","1","1","1","1","1"
"260026","img/object_images/guitar02.jpg","img/object_images/dart01.jpg","img/object_images/tool02.jpg","1","1","1","0","0","1","0.511591300019063","0.477581800019834","0.424346699961461","1","1","1","1","1","1","1","1","1"
"260026","img/object_images/tool02.jpg","img/object_images/guitar02.jpg","img/object_images/crown02.jpg","1","1","1","1","0","1","0.424346699961461","0.511591300019063","0.385523100034334","1","1","1","1","1","1","1","1","1"
"260026","img/object_images/crown02.jpg","img/object_images/tool02.jpg","img/object_images/bow01.jpg","1","1","1","1","1","1","0.385523100034334","0.424346699961461","0.478798800031655","1","1","1","1","1","1","1","1","1"
"260026","img/object_images/bow01.jpg","img/object_images/crown02.jpg","img/object_images/Tin01.jpg","1","1","1","1","1","1","0.478798800031655","0.385523100034334","0.436290999990888","1","1","1","1","1","1","1","1","1"
"260026","img/object_images/Tin01.jpg","img/object_images/bow01.jpg","img/object_images/video_game07.jpg","1","1","1","1","1","1","0.436290999990888","0.478798800031655","0.375771500053816","1","1","1","1","1","1","1","1","1"
"260026","img/object_images/video_game07.jpg","img/object_images/Tin01.jpg","img/object_images/Stool01.jpg","1","1","0","1","1","0","0.375771500053816","0.436290999990888","0.367731200007256","1","1","1","1","1","1","1","1","1"
"260026","img/object_images/Stool01.jpg","img/object_images/video_game07.jpg","img/object_images/toy03.jpg","0","1","1","0","1","1","0.367731200007256","0.375771500053816","0.427061099966522","1","1","1","1","1","1","1","1","1"
"260026","img/object_images/toy03.jpg","img/object_images/Stool01.jpg","img/object_images/frisbee01.jpg","1","0","1","1","0","1","0.427061099966522","0.367731200007256","0.49072870000964","1","1","1","1","1","1","1","1","1"
"260026","img/object_images/frisbee01.jpg","img/object_images/toy03.jpg","img/object_images/helmet01.jpg","1","1","1","1","1","0","0.49072870000964","0.427061099966522","0.406669999996666","1","1","1","1","1","1","1","1","1"
"260026","img/object_images/helmet01.jpg","img/object_images/frisbee01.jpg","img/object_images/bottle05.jpg","1","1","0","0","1","0","0.406669999996666","0.49072870000964","0.33073190000141","1","1","1","1","1","1","1","1","1"
"260026","img/object_images/bottle05.jpg","img/object_images/helmet01.jpg","img/object_images/towel02.jpg","0","1","1","0","0","1","0.33073190000141","0.406669999996666","0.424500800028909","1","1","1","1","1","1","1","1","1"
"260026","img/object_images/towel02.jpg","img/object_images/bottle05.jpg","img/object_images/outlet01.jpg","1","0","0","1","0","0","0.424500800028909","0.33073190000141","0.392772499995772","1","1","1","1","1","1","1","1","1"
"260026","img/object_images/outlet01.jpg","img/object_images/towel02.jpg","img/object_images/MetalWire01.jpg","0","1","1","0","1","0","0.392772499995772","0.424500800028909","0.558026699989568","1","1","1","1","1","1","1","1","1"
"260026","img/object_images/MetalWire01.jpg","img/object_images/outlet01.jpg","img/object_images/sink01.jpg","1","0","1","0","0","0","0.558026699989568","0.392772499995772","0.471316499984823","1","1","1","1","1","1","1","1","1"
"260026","img/object_images/sink01.jpg","img/object_images/MetalWire01.jpg","img/object_images/Vacuum01.jpg","1","1","1","0","0","0","0.471316499984823","0.558026699989568","0.471781400032341","1","1","1","1","1","1","1","1","1"
"260026","img/object_images/Vacuum01.jpg","img/object_images/sink01.jpg","img/object_images/fridge03.jpg","1","1","1","0","0","0","0.471781400032341","0.471316499984823","0.474125300010201","1","1","1","1","1","1","1","1","1"
"260026","img/object_images/fridge03.jpg","img/object_images/Vacuum01.jpg","img/object_images/watch01.jpg","1","1","1","0","0","0","0.474125300010201","0.471781400032341","0.474543799995445","1","1","1","1","1","1","1","1","1"
"260026","img/object_images/watch01.jpg","img/object_images/fridge03.jpg",NA,"1","1",NA,"0","0",NA,"0.474543799995445","0.474125300010201",NA,"1","1",NA,"1","1",NA,"1","1",NA
"260026","img/object_images/Pottery01.jpg",NA,"img/object_images/exfoliater_brush01.jpg","0",NA,"1","0",NA,"0","0.375551800010726",NA,"0.494904100021813","1",NA,"1","1",NA,"1","1",NA,"1"
"260026","img/object_images/exfoliater_brush01.jpg","img/object_images/Pottery01.jpg","img/object_images/glasses06.jpg","1","0","1","0","0","1","0.494904100021813","0.375551800010726","0.512457099976018","1","1","1","1","1","1","1","1","1"
"260026","img/object_images/glasses06.jpg","img/object_images/exfoliater_brush01.jpg","img/object_images/TrashCan02.jpg","1","1","1","1","0","1","0.512457099976018","0.494904100021813","0.432654500007629","1","1","1","1","1","1","1","1","1"
"260026","img/object_images/TrashCan02.jpg","img/object_images/glasses06.jpg","img/object_images/pan01.jpg","1","1","1","1","1","1","0.432654500007629","0.512457099976018","0.372464499960188","1","1","1","1","1","1","1","1","1"
"260026","img/object_images/pan01.jpg","img/object_images/TrashCan02.jpg","img/object_images/tray01.jpg","1","1","1","1","1","1","0.372464499960188","0.432654500007629","0.367352099972777","1","1","1","1","1","1","1","1","1"
"260026","img/object_images/tray01.jpg","img/object_images/pan01.jpg","img/object_images/gift_box04.jpg","1","1","1","1","1","0","0.367352099972777","0.372464499960188","0.486982000002172","1","1","1","1","1","1","1","1","1"
"260026","img/object_images/gift_box04.jpg","img/object_images/tray01.jpg","img/object_images/Sprayer01.jpg","1","1","0","0","1","0","0.486982000002172","0.367352099972777","0.355590099992696","1","1","1","1","1","1","1","1","1"
"260026","img/object_images/Sprayer01.jpg","img/object_images/gift_box04.jpg","img/object_images/hole_puncher01.jpg","0","1","1","0","0","1","0.355590099992696","0.486982000002172","0.386984899989329","1","1","1","1","1","1","1","1","1"
"260026","img/object_images/hole_puncher01.jpg","img/object_images/Sprayer01.jpg","img/object_images/speaker01.jpg","1","0","1","1","0","1","0.386984899989329","0.355590099992696","0.331068499945104","1","1","1","1","1","1","1","1","1"
"260026","img/object_images/speaker01.jpg","img/object_images/hole_puncher01.jpg","img/object_images/jewelry09.jpg","1","1","1","1","1","1","0.331068499945104","0.386984899989329","0.424378999974579","1","1","1","1","1","1","1","1","1"
"260026","img/object_images/jewelry09.jpg","img/object_images/speaker01.jpg","img/object_images/Traffic Sign 01.jpg","1","1","1","1","1","0","0.424378999974579","0.331068499945104","0.4644747999846","1","1","1","1","1","1","1","1","1"
"260026","img/object_images/Traffic Sign 01.jpg","img/object_images/jewelry09.jpg","img/object_images/cup03.jpg","1","1","1","0","1","1","0.4644747999846","0.424378999974579","0.402536100009456","1","1","1","1","1","1","1","1","1"
"260026","img/object_images/cup03.jpg","img/object_images/Traffic Sign 01.jpg","img/object_images/cellphone02.jpg","1","1","1","1","0","1","0.402536100009456","0.4644747999846","0.426953800022602","1","1","1","1","1","1","1","1","1"
"260026","img/object_images/cellphone02.jpg","img/object_images/cup03.jpg","img/object_images/tool08.jpg","1","1","1","1","1","0","0.426953800022602","0.402536100009456","0.458690200001001","1","1","1","1","1","1","1","1","1"
"260026","img/object_images/tool08.jpg","img/object_images/cellphone02.jpg","img/object_images/projector01.jpg","1","1","0","0","1","0","0.458690200001001","0.426953800022602","0.33965649997117","1","1","1","1","1","1","1","1","1"
"260026","img/object_images/projector01.jpg","img/object_images/tool08.jpg","img/object_images/colander01.jpg","0","1","1","0","0","0","0.33965649997117","0.458690200001001","0.498422000033315","1","1","1","1","1","1","1","1","1"
"260026","img/object_images/colander01.jpg","img/object_images/projector01.jpg","img/object_images/tool07.jpg","1","0","1","0","0","0","0.498422000033315","0.33965649997117","0.495236599992495","1","1","1","1","1","1","1","1","1"
"260026","img/object_images/tool07.jpg","img/object_images/colander01.jpg","img/object_images/handcuffs01.jpg","1","1","1","0","0","0","0.495236599992495","0.498422000033315","0.449922800005879","1","1","1","1","1","1","1","1","1"
"260026","img/object_images/handcuffs01.jpg","img/object_images/tool07.jpg","img/object_images/fire_extinguisher01.jpg","1","1","1","0","0","0","0.449922800005879","0.495236599992495","0.528794000041671","1","1","1","1","1","1","1","1","1"
"260026","img/object_images/fire_extinguisher01.jpg","img/object_images/handcuffs01.jpg","img/object_images/lighter01.jpg","1","1","1","0","0","1","0.528794000041671","0.449922800005879","0.418226399982814","1","1","1","1","1","1","1","1","1"
"260026","img/object_images/lighter01.jpg","img/object_images/fire_extinguisher01.jpg","img/object_images/blanket01.jpg","1","1","1","1","0","1","0.418226399982814","0.528794000041671","0.364573400001973","1","1","1","1","1","1","1","1","1"
"260026","img/object_images/blanket01.jpg","img/object_images/lighter01.jpg","img/object_images/bicycle_lock01.jpg","1","1","1","1","1","0","0.364573400001973","0.418226399982814","0.388429799990263","1","1","1","1","1","1","1","1","1"
"260026","img/object_images/bicycle_lock01.jpg","img/object_images/blanket01.jpg","img/object_images/basket02.jpg","1","1","0","0","1","0","0.388429799990263","0.364573400001973","0.342963799950667","1","1","1","1","1","1","1","1","1"
"260026","img/object_images/basket02.jpg","img/object_images/bicycle_lock01.jpg","img/object_images/glasses07.jpg","0","1","1","0","0","1","0.342963799950667","0.388429799990263","0.375638899975456","1","1","1","1","1","1","1","1","1"
"260026","img/object_images/glasses07.jpg","img/object_images/basket02.jpg","img/object_images/faucet01.jpg","1","0","1","1","0","0","0.375638899975456","0.342963799950667","0.630536000011489","1","1","1","1","1","1","1","1","1"
"260026","img/object_images/faucet01.jpg","img/object_images/glasses07.jpg","img/object_images/Kitchen_Towel.jpg","1","1","1","0","1","0","0.630536000011489","0.375638899975456","0.481152299966198","1","1","1","1","1","1","1","1","1"
"260026","img/object_images/Kitchen_Towel.jpg","img/object_images/faucet01.jpg","img/object_images/ring03.jpg","1","1","1","0","0","1","0.481152299966198","0.630536000011489","0.507895399990957","1","1","1","1","1","1","1","1","1"
"260026","img/object_images/ring03.jpg","img/object_images/Kitchen_Towel.jpg","img/object_images/yo_yo01.jpg","1","1","1","1","0","0","0.507895399990957","0.481152299966198","0.512818299990613","1","1","1","1","1","1","1","1","1"
"260026","img/object_images/yo_yo01.jpg","img/object_images/ring03.jpg","img/object_images/hair_clips01.jpg","1","1","1","0","1","1","0.512818299990613","0.507895399990957","0.504307800030801","1","1","1","1","1","1","1","1","1"
"260026","img/object_images/hair_clips01.jpg","img/object_images/yo_yo01.jpg","img/object_images/book01.jpg","1","1","1","1","0","1","0.504307800030801","0.512818299990613","0.448905400000513","1","1","1","1","1","1","1","1","1"
"260026","img/object_images/book01.jpg","img/object_images/hair_clips01.jpg","img/object_images/purse01.jpg","1","1","1","1","1","1","0.448905400000513","0.504307800030801","0.428397500014398","1","1","1","1","1","1","1","1","1"
"260026","img/object_images/purse01.jpg","img/object_images/book01.jpg",NA,"1","1",NA,"1","1",NA,"0.428397500014398","0.448905400000513",NA,"1","1",NA,"1","1",NA,"1","1",NA
"260026","img/object_images/pitcher05.jpg",NA,"img/object_images/umbrella01.jpg","1",NA,"1","0",NA,"0","0.622173900017515",NA,"0.523848899989389","1",NA,"1","1",NA,"1","1",NA,"1"
"260026","img/object_images/umbrella01.jpg","img/object_images/pitcher05.jpg","img/object_images/towels01.jpg","1","1","0","0","0","0","0.523848899989389","0.622173900017515","0.41903580003418","1","1","1","1","1","1","1","1","1"
"260026","img/object_images/towels01.jpg","img/object_images/umbrella01.jpg","img/object_images/jewel03.jpg","0","1","1","0","0","1","0.41903580003418","0.523848899989389","0.500258299987763","1","1","1","1","1","1","1","1","1"
"260026","img/object_images/jewel03.jpg","img/object_images/towels01.jpg","img/object_images/gift_box05.jpg","1","0","1","1","0","0","0.500258299987763","0.41903580003418","0.481217900000047","1","1","1","1","1","1","1","1","1"
"260026","img/object_images/gift_box05.jpg","img/object_images/jewel03.jpg","img/object_images/trash_can05.jpg","1","1","1","0","1","1","0.481217900000047","0.500258299987763","0.409459200047422","1","1","1","1","1","1","1","1","1"
"260026","img/object_images/trash_can05.jpg","img/object_images/gift_box05.jpg","img/object_images/chair02.jpg","1","1","1","1","0","1","0.409459200047422","0.481217900000047","0.472547599987593","1","1","1","1","1","1","1","1","1"
"260026","img/object_images/chair02.jpg","img/object_images/trash_can05.jpg","img/object_images/microphone03.jpg","1","1","1","1","1","1","0.472547599987593","0.409459200047422","0.461504199949559","1","1","1","1","1","1","1","1","1"
"260026","img/object_images/microphone03.jpg","img/object_images/chair02.jpg","img/object_images/spatula02.jpg","1","1","1","1","1","1","0.461504199949559","0.472547599987593","0.36128730000928","1","1","1","1","1","1","1","1","1"
"260026","img/object_images/spatula02.jpg","img/object_images/microphone03.jpg","img/object_images/lock01.jpg","1","1","0","1","1","0","0.36128730000928","0.461504199949559","0.407870199996978","1","1","1","1","1","1","1","1","2"
"260026","img/object_images/lock01.jpg","img/object_images/spatula02.jpg","img/object_images/trash_can03.jpg","0","1","1","0","1","1","0.407870199996978","0.36128730000928","0.449790999991819","1","1","1","1","1","1","2","1","1"
"260026","img/object_images/trash_can03.jpg","img/object_images/lock01.jpg","img/object_images/Vest02.jpg","1","0","1","1","0","0","0.449790999991819","0.407870199996978","0.639229399967007","1","1","1","1","1","1","1","2","1"
"260026","img/object_images/Vest02.jpg","img/object_images/trash_can03.jpg","img/object_images/calculator01.jpg","1","1","1","0","1","1","0.639229399967007","0.449790999991819","0.440207000006922","1","1","1","1","1","1","1","1","1"
"260026","img/object_images/calculator01.jpg","img/object_images/Vest02.jpg","img/object_images/fan04.jpg","1","1","1","1","0","0","0.440207000006922","0.639229399967007","0.515620599966496","1","1","1","1","1","1","1","1","1"
"260026","img/object_images/fan04.jpg","img/object_images/calculator01.jpg","img/object_images/hair_dryer01.jpg","1","1","1","0","1","0","0.515620599966496","0.440207000006922","0.583476800005883","1","1","1","1","1","1","1","1","1"
"260026","img/object_images/hair_dryer01.jpg","img/object_images/fan04.jpg","img/object_images/backpack03.jpg","1","1","1","0","0","1","0.583476800005883","0.515620599966496","0.420629500003997","1","1","1","1","1","1","1","1","1"
"260026","img/object_images/backpack03.jpg","img/object_images/hair_dryer01.jpg","img/object_images/ball02.jpg","1","1","1","1","0","1","0.420629500003997","0.583476800005883","0.459445199987385","1","1","1","1","1","1","1","1","1"
"260026","img/object_images/ball02.jpg","img/object_images/backpack03.jpg","img/object_images/chess_piece01.jpg","1","1","1","1","1","0","0.459445199987385","0.420629500003997","0.582022699993104","1","1","1","1","1","1","1","1","1"
"260026","img/object_images/chess_piece01.jpg","img/object_images/ball02.jpg","img/object_images/hair_brush02.jpg","1","1","1","0","1","0","0.582022699993104","0.459445199987385","0.481882300053257","1","1","1","1","1","1","1","1","1"
"260026","img/object_images/hair_brush02.jpg","img/object_images/chess_piece01.jpg","img/object_images/robe01.jpg","1","1","1","0","0","1","0.481882300053257","0.582022699993104","0.47127239999827","1","1","1","1","1","1","1","1","1"
"260026","img/object_images/robe01.jpg","img/object_images/hair_brush02.jpg","img/object_images/toy05.jpg","1","1","1","1","0","0","0.47127239999827","0.481882300053257","0.46891009999672","1","1","1","1","1","1","1","1","1"
"260026","img/object_images/toy05.jpg","img/object_images/robe01.jpg","img/object_images/helmet02.jpg","1","1","1","0","1","0","0.46891009999672","0.47127239999827","0.505283399950713","1","1","1","1","1","1","1","1","1"
"260026","img/object_images/helmet02.jpg","img/object_images/toy05.jpg","img/object_images/combs01.jpg","1","1","1","0","0","1","0.505283399950713","0.46891009999672","0.38233140000375","1","1","1","1","1","1","1","1","1"
"260026","img/object_images/combs01.jpg","img/object_images/helmet02.jpg","img/object_images/bucket02.jpg","1","1","1","1","0","1","0.38233140000375","0.505283399950713","0.473485899972729","1","1","1","1","1","1","1","1","1"
"260026","img/object_images/bucket02.jpg","img/object_images/combs01.jpg","img/object_images/shoes08.jpg","1","1","1","1","1","1","0.473485899972729","0.38233140000375","0.385321100009605","1","1","1","1","1","1","1","1","1"
"260026","img/object_images/shoes08.jpg","img/object_images/bucket02.jpg","img/object_images/accardion01.jpg","1","1","1","1","1","1","0.385321100009605","0.473485899972729","0.509499499981757","1","1","1","1","1","1","1","1","1"
"260026","img/object_images/accardion01.jpg","img/object_images/shoes08.jpg","img/object_images/stove01.jpg","1","1","1","1","1","0","0.509499499981757","0.385321100009605","0.6039300999837","1","1","1","1","1","1","1","1","1"
"260026","img/object_images/stove01.jpg","img/object_images/accardion01.jpg","img/object_images/Lint_Roller02.jpg","1","1","1","0","1","0","0.6039300999837","0.509499499981757","0.488445199967828","1","1","1","1","1","1","1","1","1"
"260026","img/object_images/Lint_Roller02.jpg","img/object_images/stove01.jpg","img/object_images/laptop01.jpg","1","1","1","0","0","0","0.488445199967828","0.6039300999837","0.403921300021466","1","1","1","1","1","1","1","1","1"
"260026","img/object_images/laptop01.jpg","img/object_images/Lint_Roller02.jpg","img/object_images/vase01.jpg","1","1","1","0","0","0","0.403921300021466","0.488445199967828","0.623874800046906","1","1","1","1","1","1","1","1","1"
"260026","img/object_images/vase01.jpg","img/object_images/laptop01.jpg","img/object_images/laptop03.jpg","1","1","1","0","0","1","0.623874800046906","0.403921300021466","0.412152000004426","1","1","1","1","1","1","1","1","1"
"260026","img/object_images/laptop03.jpg","img/object_images/vase01.jpg","img/object_images/surf_board01.jpg","1","1","1","1","0","1","0.412152000004426","0.623874800046906","0.484913699969184","1","1","1","1","1","1","1","1","1"
"260026","img/object_images/surf_board01.jpg","img/object_images/laptop03.jpg",NA,"1","1",NA,"1","1",NA,"0.484913699969184","0.412152000004426",NA,"1","1",NA,"1","1",NA,"1","1",NA
"260026","img/object_images/clip02.jpg",NA,"img/object_images/lock04.jpg","1",NA,"1","1",NA,"1","0.45521899999585",NA,"0.369263500033412","1",NA,"1","1",NA,"1","1",NA,"1"
"260026","img/object_images/lock04.jpg","img/object_images/clip02.jpg","img/object_images/fork03.jpg","1","1","1","1","1","1","0.369263500033412","0.45521899999585","0.485470200015698","1","1","1","1","1","1","1","1","1"
"260026","img/object_images/fork03.jpg","img/object_images/lock04.jpg","img/object_images/wallet02.jpg","1","1","1","1","1","1","0.485470200015698","0.369263500033412","0.344323299999814","1","1","1","1","1","1","1","1","1"
"260026","img/object_images/wallet02.jpg","img/object_images/fork03.jpg","img/object_images/Screws01.jpg","1","1","1","1","1","1","0.344323299999814","0.485470200015698","0.359521600010339","1","1","1","1","1","1","1","1","1"
"260026","img/object_images/Screws01.jpg","img/object_images/wallet02.jpg","img/object_images/gift_box03.jpg","1","1","0","1","1","0","0.359521600010339","0.344323299999814","0.385848000005353","1","1","1","1","1","1","1","1","1"
"260026","img/object_images/gift_box03.jpg","img/object_images/Screws01.jpg","img/object_images/handkerchief01.jpg","0","1","1","0","1","0","0.385848000005353","0.359521600010339","0.557302600005642","1","1","1","1","1","1","1","1","1"
"260026","img/object_images/handkerchief01.jpg","img/object_images/gift_box03.jpg","img/object_images/Witchhat01.jpg","1","0","1","0","0","1","0.557302600005642","0.385848000005353","0.483180000039283","1","1","1","1","1","1","1","1","1"
"260026","img/object_images/Witchhat01.jpg","img/object_images/handkerchief01.jpg","img/object_images/grater01.jpg","1","1","1","1","0","1","0.483180000039283","0.557302600005642","0.402582400012761","1","1","1","1","1","1","1","1","1"
"260026","img/object_images/grater01.jpg","img/object_images/Witchhat01.jpg","img/object_images/couch03.jpg","1","1","1","1","1","0","0.402582400012761","0.483180000039283","0.500449600047432","1","1","1","1","1","1","1","1","1"
"260026","img/object_images/couch03.jpg","img/object_images/grater01.jpg","img/object_images/camera07.jpg","1","1","1","0","1","1","0.500449600047432","0.402582400012761","0.380192400014494","1","1","1","1","1","1","1","1","1"
"260026","img/object_images/camera07.jpg","img/object_images/couch03.jpg","img/object_images/ironing_table01.jpg","1","1","1","1","0","0","0.380192400014494","0.500449600047432","0.548197700001765","1","1","1","1","1","1","1","1","1"
"260026","img/object_images/ironing_table01.jpg","img/object_images/camera07.jpg","img/object_images/vga_port 01.jpg","1","1","1","0","1","0","0.548197700001765","0.380192400014494","0.600608900014777","1","1","1","1","1","1","1","1","1"
"260026","img/object_images/vga_port 01.jpg","img/object_images/ironing_table01.jpg","img/object_images/balloon01.jpg","1","1","1","0","0","0","0.600608900014777","0.548197700001765","0.505864900012966","1","1","1","1","1","1","1","1","1"
"260026","img/object_images/balloon01.jpg","img/object_images/vga_port 01.jpg","img/object_images/bow_tie02.jpg","1","1","1","0","0","0","0.505864900012966","0.600608900014777","0.475605399988126","1","1","1","1","1","1","1","1","1"
"260026","img/object_images/bow_tie02.jpg","img/object_images/balloon01.jpg","img/object_images/pitcher02.jpg","1","1","1","0","0","1","0.475605399988126","0.505864900012966","0.436600900022313","1","1","1","1","1","1","1","1","1"
"260026","img/object_images/pitcher02.jpg","img/object_images/bow_tie02.jpg","img/object_images/jewelry01.jpg","1","1","1","1","0","1","0.436600900022313","0.475605399988126","0.404237499984447","1","1","1","1","1","1","1","1","1"
"260026","img/object_images/jewelry01.jpg","img/object_images/pitcher02.jpg","img/object_images/bow_tie01.jpg","1","1","1","1","1","0","0.404237499984447","0.436600900022313","0.54563850001432","1","1","1","1","1","1","1","1","1"
"260026","img/object_images/bow_tie01.jpg","img/object_images/jewelry01.jpg","img/object_images/dresser04.jpg","1","1","0","0","1","0","0.54563850001432","0.404237499984447","0.427600399998482","1","1","1","1","1","1","1","1","1"
"260026","img/object_images/dresser04.jpg","img/object_images/bow_tie01.jpg","img/object_images/jacket03.jpg","0","1","1","0","0","0","0.427600399998482","0.54563850001432","0.535637299995869","1","1","1","1","1","1","1","1","1"
"260026","img/object_images/jacket03.jpg","img/object_images/dresser04.jpg","img/object_images/gift_box02.jpg","1","0","1","0","0","1","0.535637299995869","0.427600399998482","0.42366289999336","1","1","1","1","1","1","1","1","1"
"260026","img/object_images/gift_box02.jpg","img/object_images/jacket03.jpg","img/object_images/hammer01.jpg","1","1","1","1","0","0","0.42366289999336","0.535637299995869","0.360611700045411","1","1","1","1","1","1","1","1","1"
"260026","img/object_images/hammer01.jpg","img/object_images/gift_box02.jpg","img/object_images/bath_tub01.jpg","1","1","1","0","1","0","0.360611700045411","0.42366289999336","0.35411319998093","1","1","1","1","1","1","1","1","1"
"260026","img/object_images/bath_tub01.jpg","img/object_images/hammer01.jpg","img/object_images/funnel01.jpg","1","1","1","0","0","0","0.35411319998093","0.360611700045411","0.584170399990398","1","1","1","1","1","1","1","1","1"
"260026","img/object_images/funnel01.jpg","img/object_images/bath_tub01.jpg","img/object_images/coloring_pencil01.jpg","1","1","1","0","0","1","0.584170399990398","0.35411319998093","0.45886579999933","1","1","1","1","1","1","1","1","1"
"260026","img/object_images/coloring_pencil01.jpg","img/object_images/funnel01.jpg","img/object_images/paper_cup01.jpg","1","1","1","1","0","0","0.45886579999933","0.584170399990398","0.53231770003913","1","1","1","1","1","1","1","1","1"
"260026","img/object_images/paper_cup01.jpg","img/object_images/coloring_pencil01.jpg","img/object_images/lawn_mower01.jpg","1","1","1","0","1","1","0.53231770003913","0.45886579999933","0.452218000020366","1","1","1","1","1","1","1","1","1"
"260026","img/object_images/lawn_mower01.jpg","img/object_images/paper_cup01.jpg","img/object_images/golf_ball03.jpg","1","1","1","1","0","1","0.452218000020366","0.53231770003913","0.445584999979474","1","1","1","1","1","1","1","1","1"
"260026","img/object_images/golf_ball03.jpg","img/object_images/lawn_mower01.jpg","img/object_images/sleeping_bag01.jpg","1","1","1","1","1","0","0.445584999979474","0.452218000020366","0.478815499984194","1","1","1","1","1","1","1","1","1"
"260026","img/object_images/sleeping_bag01.jpg","img/object_images/golf_ball03.jpg","img/object_images/gift_box01.jpg","1","1","1","0","1","1","0.478815499984194","0.445584999979474","0.438015999970958","1","1","1","1","1","1","1","1","1"
"260026","img/object_images/gift_box01.jpg","img/object_images/sleeping_bag01.jpg","img/object_images/socks02.jpg","1","1","0","1","0","0","0.438015999970958","0.478815499984194","0.461060200002976","1","1","1","1","1","1","1","1","1"
"260026","img/object_images/socks02.jpg","img/object_images/gift_box01.jpg","img/object_images/measuring_tape02.jpg","0","1","1","0","1","1","0.461060200002976","0.438015999970958","0.399399499990977","1","1","1","1","1","1","1","1","1"
"260026","img/object_images/measuring_tape02.jpg","img/object_images/socks02.jpg",NA,"1","0",NA,"1","0",NA,"0.399399499990977","0.461060200002976",NA,"1","1",NA,"1","1",NA,"1","1",NA
"260026","img/object_images/tie01.jpg",NA,"img/object_images/toy_train02.jpg","1",NA,"1","0",NA,"1","0.523022299981676",NA,"0.461305000004359","1",NA,"1","1",NA,"1","1",NA,"1"
"260026","img/object_images/toy_train02.jpg","img/object_images/tie01.jpg","img/object_images/brief_case01.jpg","1","1","1","1","0","0","0.461305000004359","0.523022299981676","0.462396700051613","1","1","1","1","1","1","1","1","1"
"260026","img/object_images/brief_case01.jpg","img/object_images/toy_train02.jpg","img/object_images/car02.jpg","1","1","1","0","1","0","0.462396700051613","0.461305000004359","0.360068799986038","1","1","1","1","1","1","1","1","1"
"260026","img/object_images/car02.jpg","img/object_images/brief_case01.jpg","img/object_images/gloves05.jpg","1","1","1","0","0","1","0.360068799986038","0.462396700051613","0.412046600016765","1","1","1","1","1","1","1","1","1"
"260026","img/object_images/gloves05.jpg","img/object_images/car02.jpg","img/object_images/helmet05.jpg","1","1","1","1","0","1","0.412046600016765","0.360068799986038","0.39010869996855","1","1","1","1","1","1","1","1","1"
"260026","img/object_images/helmet05.jpg","img/object_images/gloves05.jpg","img/object_images/chair01.jpg","1","1","0","1","1","0","0.39010869996855","0.412046600016765","0.384462599991821","1","1","1","1","1","1","1","1","1"
"260026","img/object_images/chair01.jpg","img/object_images/helmet05.jpg","img/object_images/broom01.jpg","0","1","1","0","1","1","0.384462599991821","0.39010869996855","0.37994620000245","1","1","1","1","1","1","1","1","1"
"260026","img/object_images/broom01.jpg","img/object_images/chair01.jpg","img/object_images/toilet_paper01.jpg","1","0","1","1","0","1","0.37994620000245","0.384462599991821","0.45034310000483","1","1","1","1","1","1","1","1","1"
"260026","img/object_images/toilet_paper01.jpg","img/object_images/broom01.jpg","img/object_images/cochlear_implant01.jpg","1","1","1","1","1","0","0.45034310000483","0.37994620000245","0.410064600000624","1","1","1","1","1","1","1","1","1"
"260026","img/object_images/cochlear_implant01.jpg","img/object_images/toilet_paper01.jpg","img/object_images/brief_case02.jpg","1","1","1","0","1","1","0.410064600000624","0.45034310000483","0.472962500003632","1","1","1","1","1","1","1","1","1"
"260026","img/object_images/brief_case02.jpg","img/object_images/cochlear_implant01.jpg","img/object_images/guitar01.jpg","1","1","1","1","0","1","0.472962500003632","0.410064600000624","0.390145200013649","1","1","1","1","1","1","1","1","1"
"260026","img/object_images/guitar01.jpg","img/object_images/brief_case02.jpg","img/object_images/pot01.jpg","1","1","1","1","1","0","0.390145200013649","0.472962500003632","0.525960300001316","1","1","1","1","1","1","1","1","1"
"260026","img/object_images/pot01.jpg","img/object_images/guitar01.jpg","img/object_images/lamp01.jpg","1","1","1","0","1","1","0.525960300001316","0.390145200013649","0.462732699990738","1","1","1","1","1","1","1","1","1"
"260026","img/object_images/lamp01.jpg","img/object_images/pot01.jpg","img/object_images/soap01.jpg","1","1","1","1","0","0","0.462732699990738","0.525960300001316","0.582985399989411","1","1","1","1","1","1","1","1","1"
"260026","img/object_images/soap01.jpg","img/object_images/lamp01.jpg","img/object_images/hat02.jpg","1","1","1","0","1","0","0.582985399989411","0.462732699990738","0.480337600049097","1","1","1","1","1","1","1","1","1"
"260026","img/object_images/hat02.jpg","img/object_images/soap01.jpg","img/object_images/container01.jpg","1","1","1","0","0","0","0.480337600049097","0.582985399989411","0.534307699999772","1","1","1","1","1","1","1","1","1"
"260026","img/object_images/container01.jpg","img/object_images/hat02.jpg","img/object_images/basketball_hoop02.jpg","1","1","1","0","0","0","0.534307699999772","0.480337600049097","0.386351000051946","1","1","1","1","1","1","1","1","1"
"260026","img/object_images/basketball_hoop02.jpg","img/object_images/container01.jpg","img/object_images/lantern01.jpg","1","1","1","0","0","1","0.386351000051946","0.534307699999772","0.441057600022759","1","1","1","1","1","1","1","1","1"
"260026","img/object_images/lantern01.jpg","img/object_images/basketball_hoop02.jpg","img/object_images/airfryer01.jpg","1","1","1","1","0","0","0.441057600022759","0.386351000051946","0.44418880000012","1","1","1","1","1","1","1","1","1"
"260026","img/object_images/airfryer01.jpg","img/object_images/lantern01.jpg","img/object_images/decorative02.jpg","1","1","1","0","1","0","0.44418880000012","0.441057600022759","0.509754400001839","1","1","1","1","1","1","1","1","1"
"260026","img/object_images/decorative02.jpg","img/object_images/airfryer01.jpg","img/object_images/video_game06.jpg","1","1","0","0","0","0","0.509754400001839","0.44418880000012","0.388088000006974","1","1","1","1","1","1","1","1","1"
"260026","img/object_images/video_game06.jpg","img/object_images/decorative02.jpg","img/object_images/Woopie01.jpg","0","1","1","0","0","1","0.388088000006974","0.509754400001839","0.429741999949329","1","1","1","1","1","1","1","1","1"
"260026","img/object_images/Woopie01.jpg","img/object_images/video_game06.jpg","img/object_images/Recycling01.jpg","1","0","1","1","0","1","0.429741999949329","0.388088000006974","0.351308300043456","1","1","1","1","1","1","1","1","1"
"260026","img/object_images/Recycling01.jpg","img/object_images/Woopie01.jpg","img/object_images/razor03.jpg","1","1","1","1","1","0","0.351308300043456","0.429741999949329","0.549815899983514","1","1","1","1","1","1","1","1","1"
"260026","img/object_images/razor03.jpg","img/object_images/Recycling01.jpg","img/object_images/bottle12.jpg","1","1","1","0","1","1","0.549815899983514","0.351308300043456","0.459548200014979","1","1","1","1","1","1","1","1","1"
"260026","img/object_images/bottle12.jpg","img/object_images/razor03.jpg","img/object_images/drone02.jpg","1","1","1","1","0","0","0.459548200014979","0.549815899983514","0.421438399993349","1","1","1","1","1","1","1","1","1"
"260026","img/object_images/drone02.jpg","img/object_images/bottle12.jpg","img/object_images/ball01.jpg","1","1","1","0","1","1","0.421438399993349","0.459548200014979","0.428185300028417","1","1","1","1","1","1","1","1","1"
"260026","img/object_images/ball01.jpg","img/object_images/drone02.jpg","img/object_images/couch04.jpg","1","1","1","1","0","1","0.428185300028417","0.421438399993349","0.511476799962111","1","1","1","1","1","1","1","1","1"
"260026","img/object_images/couch04.jpg","img/object_images/ball01.jpg","img/object_images/pitcher03.jpg","1","1","1","1","1","1","0.511476799962111","0.428185300028417","0.462384499958716","1","1","1","1","1","1","1","1","1"
"260026","img/object_images/pitcher03.jpg","img/object_images/couch04.jpg","img/object_images/ironing_table02.jpg","1","1","1","1","1","0","0.462384499958716","0.511476799962111","0.518858199997339","1","1","1","1","1","1","1","1","1"
"260026","img/object_images/ironing_table02.jpg","img/object_images/pitcher03.jpg","img/object_images/Wisk01.jpg","1","1","1","0","1","1","0.518858199997339","0.462384499958716","0.435323300014716","1","1","1","1","1","1","1","1","1"
"260026","img/object_images/Wisk01.jpg","img/object_images/ironing_table02.jpg",NA,"1","1",NA,"1","0",NA,"0.435323300014716","0.518858199997339",NA,"1","1",NA,"1","1",NA,"1","1",NA
