"participant_id","current_trial_object","pre_trial_object","post_trial_object","current_trial_accuracy","pre_trial_accuracy","post_trial_accuracy","current_trial_congruency","pre_trial_congruency","post_trial_congruency","current_trial_rt","pre_trial_rt","post_trial_rt","current_trial_responded","pre_trial_responded","post_trial_responded","current_trial_legitResponse","pre_trial_legitResponse","post_trial_legitResponse","current_trial_resp_nums","pre_trial_resp_nums","post_trial_resp_nums"
"260068","img/object_images/sink_filter01 (1).jpg",NA,"img/object_images/spray_can01.jpg","1",NA,"1","0",NA,"0","0.48590339999646",NA,"0.578854100021999","1",NA,"1","1",NA,"1","1",NA,"1"
"260068","img/object_images/spray_can01.jpg","img/object_images/sink_filter01 (1).jpg","img/object_images/tool20.jpg","1","1","1","0","0","0","0.578854100021999","0.48590339999646","0.513254799996503","1","1","1","1","1","1","1","1","1"
"260068","img/object_images/tool20.jpg","img/object_images/spray_can01.jpg","img/object_images/candle02.jpg","1","1","1","0","0","0","0.513254799996503","0.578854100021999","0.546501400007401","1","1","1","1","1","1","1","1","1"
"260068","img/object_images/candle02.jpg","img/object_images/tool20.jpg","img/object_images/hammer02.jpg","1","1","1","0","0","0","0.546501400007401","0.513254799996503","0.501612699998077","1","1","1","1","1","1","1","1","1"
"260068","img/object_images/hammer02.jpg","img/object_images/candle02.jpg","img/object_images/clipboard01.jpg","1","1","1","0","0","1","0.501612699998077","0.546501400007401","0.515453600033652","1","1","1","1","1","1","1","1","1"
"260068","img/object_images/clipboard01.jpg","img/object_images/hammer02.jpg","img/object_images/Confetti 01.jpg","1","1","1","1","0","0","0.515453600033652","0.501612699998077","0.472345600021072","1","1","1","1","1","1","1","1","1"
"260068","img/object_images/Confetti 01.jpg","img/object_images/clipboard01.jpg","img/object_images/cup01.jpg","1","1","1","0","1","0","0.472345600021072","0.515453600033652","0.466414299968164","1","1","1","1","1","1","1","1","1"
"260068","img/object_images/cup01.jpg","img/object_images/Confetti 01.jpg","img/object_images/Candle_Holder01.jpg","1","1","1","0","0","0","0.466414299968164","0.472345600021072","0.603829799976666","1","1","1","1","1","1","1","1","1"
"260068","img/object_images/Candle_Holder01.jpg","img/object_images/cup01.jpg","img/object_images/hat13.jpg","1","1","1","0","0","1","0.603829799976666","0.466414299968164","0.429919100017287","1","1","1","1","1","1","1","1","1"
"260068","img/object_images/hat13.jpg","img/object_images/Candle_Holder01.jpg","img/object_images/vase02.jpg","1","1","1","1","0","1","0.429919100017287","0.603829799976666","0.513376399991103","1","1","1","1","1","1","1","1","1"
"260068","img/object_images/vase02.jpg","img/object_images/hat13.jpg","img/object_images/pen06.jpg","1","1","1","1","1","0","0.513376399991103","0.429919100017287","0.495557699992787","1","1","1","1","1","1","1","1","1"
"260068","img/object_images/pen06.jpg","img/object_images/vase02.jpg","img/object_images/knife01.jpg","1","1","1","0","1","1","0.495557699992787","0.513376399991103","0.389101699984167","1","1","1","1","1","1","1","1","1"
"260068","img/object_images/knife01.jpg","img/object_images/pen06.jpg","img/object_images/dust_pan01.jpg","1","1","1","1","0","1","0.389101699984167","0.495557699992787","0.389319700014312","1","1","1","1","1","1","1","1","1"
"260068","img/object_images/dust_pan01.jpg","img/object_images/knife01.jpg","img/object_images/duster01.jpg","1","1","1","1","1","0","0.389319700014312","0.389101699984167","0.496686200029217","1","1","1","1","1","1","1","1","1"
"260068","img/object_images/duster01.jpg","img/object_images/dust_pan01.jpg","img/object_images/sign02.jpg","1","1","1","0","1","0","0.496686200029217","0.389319700014312","0.521523100032937","1","1","1","1","1","1","1","1","1"
"260068","img/object_images/sign02.jpg","img/object_images/duster01.jpg","img/object_images/floss01.jpg","1","1","1","0","0","1","0.521523100032937","0.496686200029217","0.603016100008972","1","1","1","1","1","1","1","1","1"
"260068","img/object_images/floss01.jpg","img/object_images/sign02.jpg","img/object_images/glasses03.jpg","1","1","1","1","0","0","0.603016100008972","0.521523100032937","0.460577099991497","1","1","1","1","1","1","1","1","1"
"260068","img/object_images/glasses03.jpg","img/object_images/floss01.jpg","img/object_images/camera05.jpg","1","1","1","0","1","0","0.460577099991497","0.603016100008972","0.703153399983421","1","1","1","1","1","1","1","1","1"
"260068","img/object_images/camera05.jpg","img/object_images/glasses03.jpg","img/object_images/tool13.jpg","1","1","1","0","0","1","0.703153399983421","0.460577099991497","0.491045700036921","1","1","1","1","1","1","1","1","1"
"260068","img/object_images/tool13.jpg","img/object_images/camera05.jpg","img/object_images/pan03.jpg","1","1","1","1","0","1","0.491045700036921","0.703153399983421","0.45567990001291","1","1","1","1","1","1","1","1","1"
"260068","img/object_images/pan03.jpg","img/object_images/tool13.jpg","img/object_images/bag04.jpg","1","1","1","1","1","0","0.45567990001291","0.491045700036921","0.505987500015181","1","1","1","1","1","1","1","1","1"
"260068","img/object_images/bag04.jpg","img/object_images/pan03.jpg","img/object_images/razor02.jpg","1","1","1","0","1","1","0.505987500015181","0.45567990001291","0.394585800007917","1","1","1","1","1","1","1","1","1"
"260068","img/object_images/razor02.jpg","img/object_images/bag04.jpg","img/object_images/board01.jpg","1","1","1","1","0","1","0.394585800007917","0.505987500015181","0.470632400014438","1","1","1","1","1","1","1","1","1"
"260068","img/object_images/board01.jpg","img/object_images/razor02.jpg","img/object_images/office_supplies01.jpg","1","1","1","1","1","1","0.470632400014438","0.394585800007917","0.58899159997236","1","1","1","1","1","1","1","1","1"
"260068","img/object_images/office_supplies01.jpg","img/object_images/board01.jpg","img/object_images/ruler02.jpg","1","1","1","1","1","1","0.58899159997236","0.470632400014438","0.598312199988868","1","1","1","1","1","1","1","1","1"
"260068","img/object_images/ruler02.jpg","img/object_images/office_supplies01.jpg","img/object_images/perfume01.jpg","1","1","1","1","1","0","0.598312199988868","0.58899159997236","0.475515099999029","1","1","1","1","1","1","1","1","1"
"260068","img/object_images/perfume01.jpg","img/object_images/ruler02.jpg","img/object_images/socks01.jpg","1","1","1","0","1","1","0.475515099999029","0.598312199988868","0.409613499999978","1","1","1","1","1","1","1","1","1"
"260068","img/object_images/socks01.jpg","img/object_images/perfume01.jpg","img/object_images/hat09.jpg","1","1","1","1","0","0","0.409613499999978","0.475515099999029","0.46992170001613","1","1","1","1","1","1","1","1","1"
"260068","img/object_images/hat09.jpg","img/object_images/socks01.jpg","img/object_images/lemon_squeezer01.jpg","1","1","1","0","1","1","0.46992170001613","0.409613499999978","0.403649299987592","1","1","1","1","1","1","1","1","1"
"260068","img/object_images/lemon_squeezer01.jpg","img/object_images/hat09.jpg","img/object_images/video_game02.jpg","1","1","1","1","0","1","0.403649299987592","0.46992170001613","0.50212369998917","1","1","1","1","1","1","1","1","1"
"260068","img/object_images/video_game02.jpg","img/object_images/lemon_squeezer01.jpg","img/object_images/bow_tie03.jpg","1","1","1","1","1","1","0.50212369998917","0.403649299987592","0.583953699970152","1","1","1","1","1","1","1","1","1"
"260068","img/object_images/bow_tie03.jpg","img/object_images/video_game02.jpg",NA,"1","1",NA,"1","1",NA,"0.583953699970152","0.50212369998917",NA,"1","1",NA,"1","1",NA,"1","1",NA
"260068","img/object_images/knife04.jpg",NA,"img/object_images/microscope01.jpg","1",NA,"1","1",NA,"0","0.451440800039563",NA,"0.46436939999694","1",NA,"1","1",NA,"1","1",NA,"1"
"260068","img/object_images/microscope01.jpg","img/object_images/knife04.jpg","img/object_images/chess_piece02.jpg","1","1","1","0","1","1","0.46436939999694","0.451440800039563","0.505892399989534","1","1","1","1","1","1","1","1","1"
"260068","img/object_images/chess_piece02.jpg","img/object_images/microscope01.jpg","img/object_images/bell02.jpg","1","1","1","1","0","0","0.505892399989534","0.46436939999694","0.380766699963715","1","1","1","1","1","1","1","1","1"
"260068","img/object_images/bell02.jpg","img/object_images/chess_piece02.jpg","img/object_images/Staples01.jpg","1","1","1","0","1","1","0.380766699963715","0.505892399989534","0.398470600019209","1","1","1","1","1","1","1","1","1"
"260068","img/object_images/Staples01.jpg","img/object_images/bell02.jpg","img/object_images/hammer03.jpg","1","1","1","1","0","1","0.398470600019209","0.380766699963715","0.382274399977177","1","1","1","1","1","1","1","1","1"
"260068","img/object_images/hammer03.jpg","img/object_images/Staples01.jpg","img/object_images/tv02.jpg","1","1","1","1","1","0","0.382274399977177","0.398470600019209","0.478826200007461","1","1","1","1","1","1","1","1","1"
"260068","img/object_images/tv02.jpg","img/object_images/hammer03.jpg","img/object_images/floppy_disk02.jpg","1","1","1","0","1","0","0.478826200007461","0.382274399977177","0.557114200026263","1","1","1","1","1","1","1","1","1"
"260068","img/object_images/floppy_disk02.jpg","img/object_images/tv02.jpg","img/object_images/cellphone01.jpg","1","1","1","0","0","1","0.557114200026263","0.478826200007461","0.394942999992054","1","1","1","1","1","1","1","1","1"
"260068","img/object_images/cellphone01.jpg","img/object_images/floppy_disk02.jpg","img/object_images/clock02.jpg","1","1","1","1","0","0","0.394942999992054","0.557114200026263","0.506674700009171","1","1","1","1","1","1","1","1","1"
"260068","img/object_images/clock02.jpg","img/object_images/cellphone01.jpg","img/object_images/floppy_disk03.jpg","1","1","1","0","1","1","0.506674700009171","0.394942999992054","0.441540500032715","1","1","1","1","1","1","1","1","1"
"260068","img/object_images/floppy_disk03.jpg","img/object_images/clock02.jpg","img/object_images/bottle01.jpg","1","1","1","1","0","0","0.441540500032715","0.506674700009171","0.356868999951985","1","1","1","1","1","1","1","1","1"
"260068","img/object_images/bottle01.jpg","img/object_images/floppy_disk03.jpg","img/object_images/Oven01.jpg","1","1","1","0","1","1","0.356868999951985","0.441540500032715","0.458205799979623","1","1","1","1","1","1","1","1","1"
"260068","img/object_images/Oven01.jpg","img/object_images/bottle01.jpg","img/object_images/clip03.jpg","1","1","1","1","0","0","0.458205799979623","0.356868999951985","0.368623300048057","1","1","1","1","1","1","1","1","1"
"260068","img/object_images/clip03.jpg","img/object_images/Oven01.jpg","img/object_images/note_book01.jpg","1","1","1","0","1","0","0.368623300048057","0.458205799979623","0.497501200006809","1","1","1","1","1","1","1","1","1"
"260068","img/object_images/note_book01.jpg","img/object_images/clip03.jpg","img/object_images/book03.jpg","1","1","1","0","0","1","0.497501200006809","0.368623300048057","0.400394099997356","1","1","1","1","1","1","1","1","1"
"260068","img/object_images/book03.jpg","img/object_images/note_book01.jpg","img/object_images/compass01.jpg","1","1","1","1","0","1","0.400394099997356","0.497501200006809","0.368797399976756","1","1","1","1","1","1","1","1","1"
"260068","img/object_images/compass01.jpg","img/object_images/book03.jpg","img/object_images/pillows01.jpg","1","1","1","1","1","1","0.368797399976756","0.400394099997356","0.371433400025126","1","1","1","1","1","1","1","1","1"
"260068","img/object_images/pillows01.jpg","img/object_images/compass01.jpg","img/object_images/lid01.jpg","1","1","1","1","1","1","0.371433400025126","0.368797399976756","0.391649199998938","1","1","1","1","1","1","1","1","1"
"260068","img/object_images/lid01.jpg","img/object_images/pillows01.jpg","img/object_images/ear_bud01.jpg","1","1","1","1","1","1","0.391649199998938","0.371433400025126","0.37656819995027","1","1","1","1","1","1","1","1","1"
"260068","img/object_images/ear_bud01.jpg","img/object_images/lid01.jpg","img/object_images/usb02.jpg","1","1","1","1","1","0","0.37656819995027","0.391649199998938","0.432819199981168","1","1","1","1","1","1","1","1","1"
"260068","img/object_images/usb02.jpg","img/object_images/ear_bud01.jpg","img/object_images/tennis_racket02.jpg","1","1","1","0","1","1","0.432819199981168","0.37656819995027","0.366209199943114","1","1","1","1","1","1","1","1","1"
"260068","img/object_images/tennis_racket02.jpg","img/object_images/usb02.jpg","img/object_images/Thermometer01.jpg","1","1","1","1","0","0","0.366209199943114","0.432819199981168","0.449518700013869","1","1","1","1","1","1","1","1","1"
"260068","img/object_images/Thermometer01.jpg","img/object_images/tennis_racket02.jpg","img/object_images/pen03.jpg","1","1","1","0","1","0","0.449518700013869","0.366209199943114","0.456161800015252","1","1","1","1","1","1","1","1","1"
"260068","img/object_images/pen03.jpg","img/object_images/Thermometer01.jpg","img/object_images/pitcher01.jpg","1","1","1","0","0","0","0.456161800015252","0.449518700013869","0.373987399972975","1","1","1","1","1","1","1","1","1"
"260068","img/object_images/pitcher01.jpg","img/object_images/pen03.jpg","img/object_images/retainer01.jpg","1","1","1","0","0","0","0.373987399972975","0.456161800015252","0.515748200006783","1","1","1","1","1","1","1","1","1"
"260068","img/object_images/retainer01.jpg","img/object_images/pitcher01.jpg","img/object_images/wire02.jpg","1","1","1","0","0","1","0.515748200006783","0.373987399972975","0.405214899976272","1","1","1","1","1","1","1","1","1"
"260068","img/object_images/wire02.jpg","img/object_images/retainer01.jpg","img/object_images/crutches02.jpg","1","1","1","1","0","0","0.405214899976272","0.515748200006783","0.403221899992786","1","1","1","1","1","1","1","1","1"
"260068","img/object_images/crutches02.jpg","img/object_images/wire02.jpg","img/object_images/knit05.jpg","1","1","1","0","1","1","0.403221899992786","0.405214899976272","0.382344799989369","1","1","1","1","1","1","1","1","1"
"260068","img/object_images/knit05.jpg","img/object_images/crutches02.jpg","img/object_images/motorcycle01.jpg","1","1","1","1","0","1","0.382344799989369","0.403221899992786","0.413649299996905","1","1","1","1","1","1","1","1","1"
"260068","img/object_images/motorcycle01.jpg","img/object_images/knit05.jpg","img/object_images/paint_brush04.jpg","1","1","1","1","1","0","0.413649299996905","0.382344799989369","0.4182249000296","1","1","1","1","1","1","1","1","1"
"260068","img/object_images/paint_brush04.jpg","img/object_images/motorcycle01.jpg","img/object_images/chair05.jpg","1","1","1","0","1","0","0.4182249000296","0.413649299996905","0.490109100006521","1","1","1","1","1","1","1","1","1"
"260068","img/object_images/chair05.jpg","img/object_images/paint_brush04.jpg",NA,"1","1",NA,"0","0",NA,"0.490109100006521","0.4182249000296",NA,"1","1",NA,"1","1",NA,"1","1",NA
"260068","img/object_images/jewelry07.jpg",NA,"img/object_images/slinky_toy01.jpg","1",NA,"1","1",NA,"1","0.454407399985939",NA,"0.37776559998747","1",NA,"1","1",NA,"1","1",NA,"1"
"260068","img/object_images/slinky_toy01.jpg","img/object_images/jewelry07.jpg","img/object_images/tv01.jpg","1","1","1","1","1","0","0.37776559998747","0.454407399985939","0.511783999972977","1","1","1","1","1","1","1","1","1"
"260068","img/object_images/tv01.jpg","img/object_images/slinky_toy01.jpg","img/object_images/mask01.jpg","1","1","1","0","1","0","0.511783999972977","0.37776559998747","0.444663399946876","1","1","1","1","1","1","1","1","1"
"260068","img/object_images/mask01.jpg","img/object_images/tv01.jpg","img/object_images/ribbon01.jpg","1","1","1","0","0","0","0.444663399946876","0.511783999972977","0.475539000006393","1","1","1","1","1","1","1","1","1"
"260068","img/object_images/ribbon01.jpg","img/object_images/mask01.jpg","img/object_images/cutting_board01.jpg","1","1","1","0","0","1","0.475539000006393","0.444663399946876","0.356732999964152","1","1","1","1","1","1","1","1","1"
"260068","img/object_images/cutting_board01.jpg","img/object_images/ribbon01.jpg","img/object_images/WitchHat02.jpg","1","1","1","1","0","1","0.356732999964152","0.475539000006393","0.386935500020627","1","1","1","1","1","1","1","1","1"
"260068","img/object_images/WitchHat02.jpg","img/object_images/cutting_board01.jpg","img/object_images/dress03.jpg","1","1","1","1","1","1","0.386935500020627","0.356732999964152","0.392449699982535","1","1","1","1","1","1","1","1","1"
"260068","img/object_images/dress03.jpg","img/object_images/WitchHat02.jpg","img/object_images/tool11.jpg","1","1","1","1","1","1","0.392449699982535","0.386935500020627","0.357450899959076","1","1","1","1","1","1","1","1","1"
"260068","img/object_images/tool11.jpg","img/object_images/dress03.jpg","img/object_images/rock03.jpg","1","1","1","1","1","0","0.357450899959076","0.392449699982535","0.57791819999693","1","1","1","1","1","1","1","1","1"
"260068","img/object_images/rock03.jpg","img/object_images/tool11.jpg","img/object_images/shower_head03.jpg","1","1","1","0","1","1","0.57791819999693","0.357450899959076","0.416096800006926","1","1","1","1","1","1","1","1","1"
"260068","img/object_images/shower_head03.jpg","img/object_images/rock03.jpg","img/object_images/razor01.jpg","1","1","1","1","0","0","0.416096800006926","0.57791819999693","0.445230700017419","1","1","1","1","1","1","1","1","1"
"260068","img/object_images/razor01.jpg","img/object_images/shower_head03.jpg","img/object_images/lemon_squeezer02.jpg","1","1","1","0","1","1","0.445230700017419","0.416096800006926","0.39772940002149","1","1","1","1","1","1","1","1","1"
"260068","img/object_images/lemon_squeezer02.jpg","img/object_images/razor01.jpg","img/object_images/yarn02.jpg","1","1","1","1","0","0","0.39772940002149","0.445230700017419","0.579766800045036","1","1","1","1","1","1","1","1","1"
"260068","img/object_images/yarn02.jpg","img/object_images/lemon_squeezer02.jpg","img/object_images/MeasuringCup01.jpg","1","1","1","0","1","1","0.579766800045036","0.39772940002149","0.445352900016587","1","1","1","1","1","1","1","1","1"
"260068","img/object_images/MeasuringCup01.jpg","img/object_images/yarn02.jpg","img/object_images/shoes10.jpg","1","1","1","1","0","0","0.445352900016587","0.579766800045036","0.466325899993535","1","1","1","1","1","1","1","1","1"
"260068","img/object_images/shoes10.jpg","img/object_images/MeasuringCup01.jpg","img/object_images/bag06.jpg","1","1","1","0","1","1","0.466325899993535","0.445352900016587","0.385508999985177","1","1","1","1","1","1","1","1","1"
"260068","img/object_images/bag06.jpg","img/object_images/shoes10.jpg","img/object_images/binoculars03.jpg","1","1","1","1","0","1","0.385508999985177","0.466325899993535","0.383949199982453","1","1","1","1","1","1","1","1","1"
"260068","img/object_images/binoculars03.jpg","img/object_images/bag06.jpg","img/object_images/car04.jpg","1","1","1","1","1","0","0.383949199982453","0.385508999985177","0.445351599948481","1","1","1","1","1","1","1","1","1"
"260068","img/object_images/car04.jpg","img/object_images/binoculars03.jpg","img/object_images/cards01.jpg","1","1","1","0","1","0","0.445351599948481","0.383949199982453","0.556861999968532","1","1","1","1","1","1","1","1","1"
"260068","img/object_images/cards01.jpg","img/object_images/car04.jpg","img/object_images/jewel01.jpg","1","1","1","0","0","0","0.556861999968532","0.445351599948481","0.506089400034398","1","1","1","1","1","1","1","1","1"
"260068","img/object_images/jewel01.jpg","img/object_images/cards01.jpg","img/object_images/chair04.jpg","1","1","1","0","0","1","0.506089400034398","0.556861999968532","0.442378000007011","1","1","1","1","1","1","1","1","1"
"260068","img/object_images/chair04.jpg","img/object_images/jewel01.jpg","img/object_images/hair_brush05.jpg","1","1","1","1","0","1","0.442378000007011","0.506089400034398","0.421493600006215","1","1","1","1","1","1","1","1","1"
"260068","img/object_images/hair_brush05.jpg","img/object_images/chair04.jpg","img/object_images/key02.jpg","1","1","1","1","1","1","0.421493600006215","0.442378000007011","0.355749499984086","1","1","1","1","1","1","1","1","1"
"260068","img/object_images/key02.jpg","img/object_images/hair_brush05.jpg","img/object_images/ice_tray03.jpg","1","1","1","1","1","1","0.355749499984086","0.421493600006215","0.427817800024059","1","1","1","1","1","1","1","1","1"
"260068","img/object_images/ice_tray03.jpg","img/object_images/key02.jpg","img/object_images/fan05.jpg","1","1","1","1","1","0","0.427817800024059","0.355749499984086","0.467044599994551","1","1","1","1","1","1","1","1","1"
"260068","img/object_images/fan05.jpg","img/object_images/ice_tray03.jpg","img/object_images/car03.jpg","1","1","1","0","1","0","0.467044599994551","0.427817800024059","0.415612199984025","1","1","1","1","1","1","1","1","1"
"260068","img/object_images/car03.jpg","img/object_images/fan05.jpg","img/object_images/screwdriver01.jpg","1","1","1","0","0","0","0.415612199984025","0.467044599994551","0.431441100023221","1","1","1","1","1","1","1","1","1"
"260068","img/object_images/screwdriver01.jpg","img/object_images/car03.jpg","img/object_images/toaster02.jpg","1","1","1","0","0","1","0.431441100023221","0.415612199984025","0.401120499998797","1","1","1","1","1","1","1","1","1"
"260068","img/object_images/toaster02.jpg","img/object_images/screwdriver01.jpg","img/object_images/belt01.jpg","1","1","1","1","0","0","0.401120499998797","0.431441100023221","0.432270599994808","1","1","1","1","1","1","1","1","1"
"260068","img/object_images/belt01.jpg","img/object_images/toaster02.jpg","img/object_images/ladle02.jpg","1","1","1","0","1","0","0.432270599994808","0.401120499998797","0.442737700010184","1","1","1","1","1","1","1","1","1"
"260068","img/object_images/ladle02.jpg","img/object_images/belt01.jpg","img/object_images/satellite01.jpg","1","1","1","0","0","0","0.442737700010184","0.432270599994808","0.526662199990824","1","1","1","1","1","1","1","1","1"
"260068","img/object_images/satellite01.jpg","img/object_images/ladle02.jpg",NA,"1","1",NA,"0","0",NA,"0.526662199990824","0.442737700010184",NA,"1","1",NA,"1","1",NA,"1","1",NA
"260068","img/object_images/bucket01.jpg",NA,"img/object_images/frame01.jpg","1",NA,"1","1",NA,"1","0.392097499978263",NA,"0.388890100002754","1",NA,"1","1",NA,"1","1",NA,"1"
"260068","img/object_images/frame01.jpg","img/object_images/bucket01.jpg","img/object_images/TreeSlice01.jpg","1","1","1","1","1","1","0.388890100002754","0.392097499978263","0.378839800017886","1","1","1","1","1","1","1","1","1"
"260068","img/object_images/TreeSlice01.jpg","img/object_images/frame01.jpg","img/object_images/dice01.jpg","1","1","1","1","1","0","0.378839800017886","0.388890100002754","0.447914299962576","1","1","1","1","1","1","1","1","1"
"260068","img/object_images/dice01.jpg","img/object_images/TreeSlice01.jpg","img/object_images/water_gun01.jpg","1","1","1","0","1","1","0.447914299962576","0.378839800017886","0.357542000012472","1","1","1","1","1","1","1","1","1"
"260068","img/object_images/water_gun01.jpg","img/object_images/dice01.jpg","img/object_images/fan01.jpg","1","1","1","1","0","0","0.357542000012472","0.447914299962576","0.507339600007981","1","1","1","1","1","1","1","1","1"
"260068","img/object_images/fan01.jpg","img/object_images/water_gun01.jpg","img/object_images/scale02.jpg","1","1","1","0","1","0","0.507339600007981","0.357542000012472","0.407224199967459","1","1","1","1","1","1","1","1","1"
"260068","img/object_images/scale02.jpg","img/object_images/fan01.jpg","img/object_images/tennis_racket01.jpg","1","1","1","0","0","1","0.407224199967459","0.507339600007981","0.365998800029047","1","1","1","1","1","1","1","1","1"
"260068","img/object_images/tennis_racket01.jpg","img/object_images/scale02.jpg","img/object_images/bottle06.jpg","1","1","0","1","0","0","0.365998800029047","0.407224199967459","0.428396800009068","1","1","1","1","1","1","1","1","2"
"260068","img/object_images/bottle06.jpg","img/object_images/tennis_racket01.jpg","img/object_images/pitcher07.jpg","0","1","1","0","1","1","0.428396800009068","0.365998800029047","0.431563999969512","1","1","1","1","1","1","2","1","1"
"260068","img/object_images/pitcher07.jpg","img/object_images/bottle06.jpg","img/object_images/trumpet01.jpg","1","0","1","1","0","0","0.431563999969512","0.428396800009068","0.483092200011015","1","1","1","1","1","1","1","2","1"
"260068","img/object_images/trumpet01.jpg","img/object_images/pitcher07.jpg","img/object_images/yoga_mat01.jpg","1","1","1","0","1","0","0.483092200011015","0.431563999969512","0.514369199983776","1","1","1","1","1","1","1","1","1"
"260068","img/object_images/yoga_mat01.jpg","img/object_images/trumpet01.jpg","img/object_images/joystick03.jpg","1","1","1","0","0","1","0.514369199983776","0.483092200011015","0.392251500044949","1","1","1","1","1","1","1","1","1"
"260068","img/object_images/joystick03.jpg","img/object_images/yoga_mat01.jpg","img/object_images/bookmark01.jpg","1","1","1","1","0","0","0.392251500044949","0.514369199983776","0.466801200003829","1","1","1","1","1","1","1","1","1"
"260068","img/object_images/bookmark01.jpg","img/object_images/joystick03.jpg","img/object_images/usb03.jpg","1","1","1","0","1","0","0.466801200003829","0.392251500044949","0.440092999953777","1","1","1","1","1","1","1","1","1"
"260068","img/object_images/usb03.jpg","img/object_images/bookmark01.jpg","img/object_images/helmet03.jpg","1","1","1","0","0","1","0.440092999953777","0.466801200003829","0.382301400008146","1","1","1","1","1","1","1","1","1"
"260068","img/object_images/helmet03.jpg","img/object_images/usb03.jpg","img/object_images/Safe01.jpg","1","1","1","1","0","1","0.382301400008146","0.440092999953777","0.408692099968903","1","1","1","1","1","1","1","1","1"
"260068","img/object_images/Safe01.jpg","img/object_images/helmet03.jpg","img/object_images/shovel01.jpg","1","1","1","1","1","0","0.408692099968903","0.382301400008146","0.479911700007506","1","1","1","1","1","1","1","1","1"
"260068","img/object_images/shovel01.jpg","img/object_images/Safe01.jpg","img/object_images/Eyeliner01.jpg","1","1","1","0","1","1","0.479911700007506","0.408692099968903","0.324136400013231","1","1","1","1","1","1","1","1","1"
"260068","img/object_images/Eyeliner01.jpg","img/object_images/shovel01.jpg","img/object_images/belt03.jpg","1","1","1","1","0","0","0.324136400013231","0.479911700007506","0.539223099942319","1","1","1","1","1","1","1","1","1"
"260068","img/object_images/belt03.jpg","img/object_images/Eyeliner01.jpg","img/object_images/headset02.jpg","1","1","1","0","1","0","0.539223099942319","0.324136400013231","0.436367400048766","1","1","1","1","1","1","1","1","1"
"260068","img/object_images/headset02.jpg","img/object_images/belt03.jpg","img/object_images/ToolBag01.jpg","1","1","1","0","0","0","0.436367400048766","0.539223099942319","0.461885199998505","1","1","1","1","1","1","1","1","1"
"260068","img/object_images/ToolBag01.jpg","img/object_images/headset02.jpg","img/object_images/phone04.jpg","1","1","1","0","0","1","0.461885199998505","0.436367400048766","0.38442399998894","1","1","1","1","1","1","1","1","1"
"260068","img/object_images/phone04.jpg","img/object_images/ToolBag01.jpg","img/object_images/jewel02.jpg","1","1","1","1","0","0","0.38442399998894","0.461885199998505","0.491118200006895","1","1","1","1","1","1","1","1","1"
"260068","img/object_images/jewel02.jpg","img/object_images/phone04.jpg","img/object_images/piano03.jpg","1","1","1","0","1","0","0.491118200006895","0.38442399998894","0.443669899948873","1","1","1","1","1","1","1","1","1"
"260068","img/object_images/piano03.jpg","img/object_images/jewel02.jpg","img/object_images/badminton01.jpg","1","1","1","0","0","1","0.443669899948873","0.491118200006895","0.374880400020629","1","1","1","1","1","1","1","1","1"
"260068","img/object_images/badminton01.jpg","img/object_images/piano03.jpg","img/object_images/origami01.jpg","1","1","1","1","0","1","0.374880400020629","0.443669899948873","0.361870300024748","1","1","1","1","1","1","1","1","1"
"260068","img/object_images/origami01.jpg","img/object_images/badminton01.jpg","img/object_images/egg_basket01.jpg","1","1","1","1","1","1","0.361870300024748","0.374880400020629","0.358579499996267","1","1","1","1","1","1","1","1","1"
"260068","img/object_images/egg_basket01.jpg","img/object_images/origami01.jpg","img/object_images/nut_cracker01.jpg","1","1","1","1","1","1","0.358579499996267","0.361870300024748","0.382829600013793","1","1","1","1","1","1","1","1","1"
"260068","img/object_images/nut_cracker01.jpg","img/object_images/egg_basket01.jpg","img/object_images/lock03.jpg","1","1","1","1","1","1","0.382829600013793","0.358579499996267","0.396218100038823","1","1","1","1","1","1","1","1","1"
"260068","img/object_images/lock03.jpg","img/object_images/nut_cracker01.jpg","img/object_images/Shoes05.jpg","1","1","1","1","1","0","0.396218100038823","0.382829600013793","0.472696000011638","1","1","1","1","1","1","1","1","1"
"260068","img/object_images/Shoes05.jpg","img/object_images/lock03.jpg","img/object_images/note_book02.jpg","1","1","1","0","1","0","0.472696000011638","0.396218100038823","0.537944399984553","1","1","1","1","1","1","1","1","1"
"260068","img/object_images/note_book02.jpg","img/object_images/Shoes05.jpg",NA,"1","1",NA,"0","0",NA,"0.537944399984553","0.472696000011638",NA,"1","1",NA,"1","1",NA,"1","1",NA
"260068","img/object_images/pitcher02.jpg",NA,"img/object_images/socks02.jpg","1",NA,"1","1",NA,"0","0.425910799996927",NA,"0.522668400022667","1",NA,"1","1",NA,"1","1",NA,"1"
"260068","img/object_images/socks02.jpg","img/object_images/pitcher02.jpg","img/object_images/measuring_tape02.jpg","1","1","1","0","1","1","0.522668400022667","0.425910799996927","0.400184999976773","1","1","1","1","1","1","1","1","1"
"260068","img/object_images/measuring_tape02.jpg","img/object_images/socks02.jpg","img/object_images/gift_box01.jpg","1","1","1","1","0","1","0.400184999976773","0.522668400022667","0.422408600046765","1","1","1","1","1","1","1","1","1"
"260068","img/object_images/gift_box01.jpg","img/object_images/measuring_tape02.jpg","img/object_images/lock04.jpg","1","1","1","1","1","1","0.422408600046765","0.400184999976773","0.337188100034837","1","1","1","1","1","1","1","1","1"
"260068","img/object_images/lock04.jpg","img/object_images/gift_box01.jpg","img/object_images/clip02.jpg","1","1","1","1","1","1","0.337188100034837","0.422408600046765","0.383901699970011","1","1","1","1","1","1","1","1","1"
"260068","img/object_images/clip02.jpg","img/object_images/lock04.jpg","img/object_images/couch03.jpg","1","1","1","1","1","0","0.383901699970011","0.337188100034837","0.350829200004227","1","1","1","1","1","1","1","1","1"
"260068","img/object_images/couch03.jpg","img/object_images/clip02.jpg","img/object_images/balloon01.jpg","1","1","1","0","1","0","0.350829200004227","0.383901699970011","0.364383000007365","1","1","1","1","1","1","1","1","1"
"260068","img/object_images/balloon01.jpg","img/object_images/couch03.jpg","img/object_images/paper_cup01.jpg","1","1","1","0","0","0","0.364383000007365","0.350829200004227","0.428644199972041","1","1","1","1","1","1","1","1","1"
"260068","img/object_images/paper_cup01.jpg","img/object_images/balloon01.jpg","img/object_images/Witchhat01.jpg","1","1","1","0","0","1","0.428644199972041","0.364383000007365","0.369773899961729","1","1","1","1","1","1","1","1","1"
"260068","img/object_images/Witchhat01.jpg","img/object_images/paper_cup01.jpg","img/object_images/lawn_mower01.jpg","1","1","1","1","0","1","0.369773899961729","0.428644199972041","0.413264899980277","1","1","1","1","1","1","1","1","1"
"260068","img/object_images/lawn_mower01.jpg","img/object_images/Witchhat01.jpg","img/object_images/sleeping_bag01.jpg","1","1","1","1","1","0","0.413264899980277","0.369773899961729","0.385723400046118","1","1","1","1","1","1","1","1","1"
"260068","img/object_images/sleeping_bag01.jpg","img/object_images/lawn_mower01.jpg","img/object_images/vga_port 01.jpg","1","1","1","0","1","0","0.385723400046118","0.413264899980277","0.507402800023556","1","1","1","1","1","1","1","1","1"
"260068","img/object_images/vga_port 01.jpg","img/object_images/sleeping_bag01.jpg","img/object_images/jewelry01.jpg","1","1","1","0","0","1","0.507402800023556","0.385723400046118","0.350054300040938","1","1","1","1","1","1","1","1","1"
"260068","img/object_images/jewelry01.jpg","img/object_images/vga_port 01.jpg","img/object_images/ironing_table01.jpg","1","1","0","1","0","0","0.350054300040938","0.507402800023556","0.391391200013459","1","1","1","1","1","1","1","1","2"
"260068","img/object_images/ironing_table01.jpg","img/object_images/jewelry01.jpg","img/object_images/bow_tie01.jpg","0","1","1","0","1","0","0.391391200013459","0.350054300040938","0.503122300026007","1","1","1","1","1","1","2","1","1"
"260068","img/object_images/bow_tie01.jpg","img/object_images/ironing_table01.jpg","img/object_images/funnel01.jpg","1","0","1","0","0","0","0.503122300026007","0.391391200013459","0.455238100024872","1","1","1","1","1","1","1","2","1"
"260068","img/object_images/funnel01.jpg","img/object_images/bow_tie01.jpg","img/object_images/hammer01.jpg","1","1","1","0","0","0","0.455238100024872","0.503122300026007","0.47594149998622","1","1","1","1","1","1","1","1","1"
"260068","img/object_images/hammer01.jpg","img/object_images/funnel01.jpg","img/object_images/golf_ball03.jpg","1","1","1","0","0","1","0.47594149998622","0.455238100024872","0.548422799969558","1","1","1","1","1","1","1","1","1"
"260068","img/object_images/golf_ball03.jpg","img/object_images/hammer01.jpg","img/object_images/coloring_pencil01.jpg","1","1","1","1","0","1","0.548422799969558","0.47594149998622","0.474144999985583","1","1","1","1","1","1","1","1","1"
"260068","img/object_images/coloring_pencil01.jpg","img/object_images/golf_ball03.jpg","img/object_images/gift_box02.jpg","1","1","1","1","1","1","0.474144999985583","0.548422799969558","0.408664799993858","1","1","1","1","1","1","1","1","1"
"260068","img/object_images/gift_box02.jpg","img/object_images/coloring_pencil01.jpg","img/object_images/bow_tie02.jpg","1","1","1","1","1","0","0.408664799993858","0.474144999985583","0.4908177999896","1","1","1","1","1","1","1","1","1"
"260068","img/object_images/bow_tie02.jpg","img/object_images/gift_box02.jpg","img/object_images/camera07.jpg","1","1","1","0","1","1","0.4908177999896","0.408664799993858","0.466266400006134","1","1","1","1","1","1","1","1","1"
"260068","img/object_images/camera07.jpg","img/object_images/bow_tie02.jpg","img/object_images/dresser04.jpg","1","1","1","1","0","0","0.466266400006134","0.4908177999896","0.439178200031165","1","1","1","1","1","1","1","1","1"
"260068","img/object_images/dresser04.jpg","img/object_images/camera07.jpg","img/object_images/jacket03.jpg","1","1","1","0","1","0","0.439178200031165","0.466266400006134","0.535050600010436","1","1","1","1","1","1","1","1","1"
"260068","img/object_images/jacket03.jpg","img/object_images/dresser04.jpg","img/object_images/grater01.jpg","1","1","1","0","0","1","0.535050600010436","0.439178200031165","0.397018999967258","1","1","1","1","1","1","1","1","1"
"260068","img/object_images/grater01.jpg","img/object_images/jacket03.jpg","img/object_images/wallet02.jpg","1","1","1","1","0","1","0.397018999967258","0.535050600010436","0.56594000000041","1","1","1","1","1","1","1","1","1"
"260068","img/object_images/wallet02.jpg","img/object_images/grater01.jpg","img/object_images/handkerchief01.jpg","1","1","1","1","1","0","0.56594000000041","0.397018999967258","0.451199600007385","1","1","1","1","1","1","1","1","1"
"260068","img/object_images/handkerchief01.jpg","img/object_images/wallet02.jpg","img/object_images/bath_tub01.jpg","1","1","1","0","1","0","0.451199600007385","0.56594000000041","0.438328799966257","1","1","1","1","1","1","1","1","1"
"260068","img/object_images/bath_tub01.jpg","img/object_images/handkerchief01.jpg","img/object_images/Screws01.jpg","1","1","1","0","0","1","0.438328799966257","0.451199600007385","0.390169700025581","1","1","1","1","1","1","1","1","1"
"260068","img/object_images/Screws01.jpg","img/object_images/bath_tub01.jpg","img/object_images/fork03.jpg","1","1","1","1","0","1","0.390169700025581","0.438328799966257","0.371199399989564","1","1","1","1","1","1","1","1","1"
"260068","img/object_images/fork03.jpg","img/object_images/Screws01.jpg","img/object_images/gift_box03.jpg","1","1","1","1","1","0","0.371199399989564","0.390169700025581","0.519274800026324","1","1","1","1","1","1","1","1","1"
"260068","img/object_images/gift_box03.jpg","img/object_images/fork03.jpg",NA,"1","1",NA,"0","1",NA,"0.519274800026324","0.371199399989564",NA,"1","1",NA,"1","1",NA,"1","1",NA
"260068","img/object_images/egg_slicer01.jpg",NA,"img/object_images/toy01.jpg","1",NA,"1","1",NA,"1","0.390353399969172",NA,"0.383568699995522","1",NA,"1","1",NA,"1","1",NA,"1"
"260068","img/object_images/toy01.jpg","img/object_images/egg_slicer01.jpg","img/object_images/computer_mouse01.jpg","1","1","1","1","1","1","0.383568699995522","0.390353399969172","0.389567599981092","1","1","1","1","1","1","1","1","1"
"260068","img/object_images/computer_mouse01.jpg","img/object_images/toy01.jpg","img/object_images/soap03.jpg","1","1","1","1","1","0","0.389567599981092","0.383568699995522","0.585910400026478","1","1","1","1","1","1","1","1","1"
"260068","img/object_images/soap03.jpg","img/object_images/computer_mouse01.jpg","img/object_images/book02.jpg","1","1","1","0","1","1","0.585910400026478","0.389567599981092","0.376943799958099","1","1","1","1","1","1","1","1","1"
"260068","img/object_images/book02.jpg","img/object_images/soap03.jpg","img/object_images/toothbrush01.jpg","1","1","1","1","0","0","0.376943799958099","0.585910400026478","0.445639299985487","1","1","1","1","1","1","1","1","1"
"260068","img/object_images/toothbrush01.jpg","img/object_images/book02.jpg","img/object_images/Trowel01.jpg","1","1","1","0","1","0","0.445639299985487","0.376943799958099","0.432845600007568","1","1","1","1","1","1","1","1","1"
"260068","img/object_images/Trowel01.jpg","img/object_images/toothbrush01.jpg","img/object_images/mail_box02.jpg","1","1","1","0","0","1","0.432845600007568","0.445639299985487","0.363264199986588","1","1","1","1","1","1","1","1","1"
"260068","img/object_images/mail_box02.jpg","img/object_images/Trowel01.jpg","img/object_images/blender01.jpg","1","1","1","1","0","0","0.363264199986588","0.432845600007568","0.411267800023779","1","1","1","1","1","1","1","1","1"
"260068","img/object_images/blender01.jpg","img/object_images/mail_box02.jpg","img/object_images/shoes12.jpg","1","1","1","0","1","1","0.411267800023779","0.363264199986588","0.35059009998804","1","1","1","1","1","1","1","1","1"
"260068","img/object_images/shoes12.jpg","img/object_images/blender01.jpg","img/object_images/hair_brush01.jpg","1","1","1","1","0","1","0.35059009998804","0.411267800023779","0.421960000006948","1","1","1","1","1","1","1","1","1"
"260068","img/object_images/hair_brush01.jpg","img/object_images/shoes12.jpg","img/object_images/airfryer02.jpg","1","1","1","1","1","1","0.421960000006948","0.35059009998804","0.410788199980743","1","1","1","1","1","1","1","1","1"
"260068","img/object_images/airfryer02.jpg","img/object_images/hair_brush01.jpg","img/object_images/Violin01.jpg","1","1","1","1","1","0","0.410788199980743","0.421960000006948","0.444679500011262","1","1","1","1","1","1","1","1","1"
"260068","img/object_images/Violin01.jpg","img/object_images/airfryer02.jpg","img/object_images/scarf01.jpg","1","1","1","0","1","1","0.444679500011262","0.410788199980743","0.347474299953319","1","1","1","1","1","1","1","1","1"
"260068","img/object_images/scarf01.jpg","img/object_images/Violin01.jpg","img/object_images/clip04.jpg","1","1","1","1","0","1","0.347474299953319","0.444679500011262","0.377780300041195","1","1","1","1","1","1","1","1","1"
"260068","img/object_images/clip04.jpg","img/object_images/scarf01.jpg","img/object_images/computer_mouse02.jpg","1","1","1","1","1","0","0.377780300041195","0.347474299953319","0.507198599982075","1","1","1","1","1","1","1","1","1"
"260068","img/object_images/computer_mouse02.jpg","img/object_images/clip04.jpg","img/object_images/fork02.jpg","1","1","1","0","1","0","0.507198599982075","0.377780300041195","0.373233100050129","1","1","1","1","1","1","1","1","1"
"260068","img/object_images/fork02.jpg","img/object_images/computer_mouse02.jpg","img/object_images/pitcher09.jpg","1","1","1","0","0","1","0.373233100050129","0.507198599982075","0.466980699973647","1","1","1","1","1","1","1","1","1"
"260068","img/object_images/pitcher09.jpg","img/object_images/fork02.jpg","img/object_images/couch01.jpg","1","1","1","1","0","0","0.466980699973647","0.373233100050129","0.446351700054947","1","1","1","1","1","1","1","1","1"
"260068","img/object_images/couch01.jpg","img/object_images/pitcher09.jpg","img/object_images/tripod01.jpg","1","1","1","0","1","1","0.446351700054947","0.466980699973647","0.35582960001193","1","1","1","1","1","1","1","1","1"
"260068","img/object_images/tripod01.jpg","img/object_images/couch01.jpg","img/object_images/bell03.jpg","1","1","1","1","0","0","0.35582960001193","0.446351700054947","0.544098999991547","1","1","1","1","1","1","1","1","1"
"260068","img/object_images/bell03.jpg","img/object_images/tripod01.jpg","img/object_images/video_game03.jpg","1","1","1","0","1","1","0.544098999991547","0.35582960001193","0.374573799956124","1","1","1","1","1","1","1","1","1"
"260068","img/object_images/video_game03.jpg","img/object_images/bell03.jpg","img/object_images/skate_board01.jpg","1","1","1","1","0","0","0.374573799956124","0.544098999991547","0.445113599998876","1","1","1","1","1","1","1","1","1"
"260068","img/object_images/skate_board01.jpg","img/object_images/video_game03.jpg","img/object_images/pen01.jpg","1","1","1","0","1","0","0.445113599998876","0.374573799956124","0.439087799983099","1","1","1","1","1","1","1","1","1"
"260068","img/object_images/pen01.jpg","img/object_images/skate_board01.jpg","img/object_images/chain01.jpg","1","1","1","0","0","0","0.439087799983099","0.445113599998876","0.383868800010532","1","1","1","1","1","1","1","1","1"
"260068","img/object_images/chain01.jpg","img/object_images/pen01.jpg","img/object_images/box03.jpg","1","1","1","0","0","0","0.383868800010532","0.439087799983099","0.415854500024579","1","1","1","1","1","1","1","1","1"
"260068","img/object_images/box03.jpg","img/object_images/chain01.jpg","img/object_images/bag_pipes01.jpg","1","1","1","0","0","1","0.415854500024579","0.383868800010532","0.37037550000241","1","1","1","1","1","1","1","1","1"
"260068","img/object_images/bag_pipes01.jpg","img/object_images/box03.jpg","img/object_images/chair06.jpg","1","1","1","1","0","0","0.37037550000241","0.415854500024579","0.432728999992832","1","1","1","1","1","1","1","1","1"
"260068","img/object_images/chair06.jpg","img/object_images/bag_pipes01.jpg","img/object_images/rock02.jpg","1","1","1","0","1","0","0.432728999992832","0.37037550000241","0.45718670001952","1","1","1","1","1","1","1","1","1"
"260068","img/object_images/rock02.jpg","img/object_images/chair06.jpg","img/object_images/floss02.jpg","1","1","1","0","0","1","0.45718670001952","0.432728999992832","0.402398100006394","1","1","1","1","1","1","1","1","1"
"260068","img/object_images/floss02.jpg","img/object_images/rock02.jpg","img/object_images/drone01.jpg","1","1","1","1","0","1","0.402398100006394","0.45718670001952","0.399202100001276","1","1","1","1","1","1","1","1","1"
"260068","img/object_images/drone01.jpg","img/object_images/floss02.jpg","img/object_images/tool06.jpg","1","1","1","1","1","0","0.399202100001276","0.402398100006394","0.398798000009265","1","1","1","1","1","1","1","1","1"
"260068","img/object_images/tool06.jpg","img/object_images/drone01.jpg",NA,"1","1",NA,"0","1",NA,"0.398798000009265","0.399202100001276",NA,"1","1",NA,"1","1",NA,"1","1",NA
"260068","img/object_images/boat04.jpg",NA,"img/object_images/Statue01.jpg","1",NA,"1","0",NA,"1","0.457428099995013",NA,"0.354787399992347","1",NA,"1","1",NA,"1","1",NA,"1"
"260068","img/object_images/Statue01.jpg","img/object_images/boat04.jpg","img/object_images/gloves02.jpg","1","1","0","1","0","0","0.354787399992347","0.457428099995013","0.403898500022478","1","1","1","1","1","1","1","1","2"
"260068","img/object_images/gloves02.jpg","img/object_images/Statue01.jpg","img/object_images/curtain02.jpg","0","1","1","0","1","0","0.403898500022478","0.354787399992347","0.509946999954991","1","1","1","1","1","1","2","1","1"
"260068","img/object_images/curtain02.jpg","img/object_images/gloves02.jpg","img/object_images/dresser03.jpg","1","0","1","0","0","0","0.509946999954991","0.403898500022478","0.369614799972624","1","1","1","1","1","1","1","2","1"
"260068","img/object_images/dresser03.jpg","img/object_images/curtain02.jpg","img/object_images/jacket04.jpg","1","1","1","0","0","0","0.369614799972624","0.509946999954991","0.442205899977125","1","1","1","1","1","1","1","1","1"
"260068","img/object_images/jacket04.jpg","img/object_images/dresser03.jpg","img/object_images/matches02.jpg","1","1","1","0","0","0","0.442205899977125","0.369614799972624","0.469331700005569","1","1","1","1","1","1","1","1","1"
"260068","img/object_images/matches02.jpg","img/object_images/jacket04.jpg","img/object_images/knit04.jpg","1","1","1","0","0","1","0.469331700005569","0.442205899977125","0.357181200000923","1","1","1","1","1","1","1","1","1"
"260068","img/object_images/knit04.jpg","img/object_images/matches02.jpg","img/object_images/toy08.jpg","1","1","1","1","0","0","0.357181200000923","0.469331700005569","0.446340399968904","1","1","1","1","1","1","1","1","1"
"260068","img/object_images/toy08.jpg","img/object_images/knit04.jpg","img/object_images/flashlight03.jpg","1","1","1","0","1","0","0.446340399968904","0.357181200000923","0.321852200024296","1","1","1","1","1","1","1","1","1"
"260068","img/object_images/flashlight03.jpg","img/object_images/toy08.jpg","img/object_images/hoverboard01.jpg","1","1","1","0","0","0","0.321852200024296","0.446340399968904","0.36536990001332","1","1","1","1","1","1","1","1","1"
"260068","img/object_images/hoverboard01.jpg","img/object_images/flashlight03.jpg","img/object_images/sponge03.jpg","1","1","1","0","0","1","0.36536990001332","0.321852200024296","0.413487499987241","1","1","1","1","1","1","1","1","1"
"260068","img/object_images/sponge03.jpg","img/object_images/hoverboard01.jpg","img/object_images/video_game01.jpg","1","1","1","1","0","1","0.413487499987241","0.36536990001332","0.365817399986554","1","1","1","1","1","1","1","1","1"
"260068","img/object_images/video_game01.jpg","img/object_images/sponge03.jpg","img/object_images/mail_box01.jpg","1","1","1","1","1","0","0.365817399986554","0.413487499987241","0.38446049997583","1","1","1","1","1","1","1","1","1"
"260068","img/object_images/mail_box01.jpg","img/object_images/video_game01.jpg","img/object_images/tool18.jpg","1","1","1","0","1","0","0.38446049997583","0.365817399986554","0.423788200016133","1","1","1","1","1","1","1","1","1"
"260068","img/object_images/tool18.jpg","img/object_images/mail_box01.jpg","img/object_images/bottle07.jpg","1","1","1","0","0","1","0.423788200016133","0.38446049997583","0.406069999968167","1","1","1","1","1","1","1","1","1"
"260068","img/object_images/bottle07.jpg","img/object_images/tool18.jpg","img/object_images/phone02.jpg","1","1","1","1","0","1","0.406069999968167","0.423788200016133","0.356627099972684","1","1","1","1","1","1","1","1","1"
"260068","img/object_images/phone02.jpg","img/object_images/bottle07.jpg","img/object_images/stereo02.jpg","1","1","0","1","1","0","0.356627099972684","0.406069999968167","0.381106499989983","1","1","1","1","1","1","1","1","1"
"260068","img/object_images/stereo02.jpg","img/object_images/phone02.jpg","img/object_images/remote_controller01.jpg","0","1","1","0","1","1","0.381106499989983","0.356627099972684","0.494772300007753","1","1","1","1","1","1","1","1","1"
"260068","img/object_images/remote_controller01.jpg","img/object_images/stereo02.jpg","img/object_images/hand_grip_exerciser01.jpg","1","0","1","1","0","0","0.494772300007753","0.381106499989983","0.454477199993562","1","1","1","1","1","1","1","1","1"
"260068","img/object_images/hand_grip_exerciser01.jpg","img/object_images/remote_controller01.jpg","img/object_images/camera03.jpg","1","1","1","0","1","0","0.454477199993562","0.494772300007753","0.5065555999754","1","1","1","1","1","1","1","1","1"
"260068","img/object_images/camera03.jpg","img/object_images/hand_grip_exerciser01.jpg","img/object_images/shower_head01.jpg","1","1","1","0","0","1","0.5065555999754","0.454477199993562","0.515451999963261","1","1","1","1","1","1","1","1","1"
"260068","img/object_images/shower_head01.jpg","img/object_images/camera03.jpg","img/object_images/blender02.jpg","1","1","1","1","0","1","0.515451999963261","0.5065555999754","0.408783200022299","1","1","1","1","1","1","1","1","1"
"260068","img/object_images/blender02.jpg","img/object_images/shower_head01.jpg","img/object_images/knit03.jpg","1","1","1","1","1","1","0.408783200022299","0.515451999963261","0.478504600003362","1","1","1","1","1","1","1","1","1"
"260068","img/object_images/knit03.jpg","img/object_images/blender02.jpg","img/object_images/keyboard02.jpg","1","1","1","1","1","1","0.478504600003362","0.408783200022299","0.432715500006452","1","1","1","1","1","1","1","1","1"
"260068","img/object_images/keyboard02.jpg","img/object_images/knit03.jpg","img/object_images/paper_cup02.jpg","1","1","1","1","1","1","0.432715500006452","0.478504600003362","0.364287799980957","1","1","1","1","1","1","1","1","1"
"260068","img/object_images/paper_cup02.jpg","img/object_images/keyboard02.jpg","img/object_images/knife02.jpg","1","1","1","1","1","0","0.364287799980957","0.432715500006452","0.466333799995482","1","1","1","1","1","1","1","1","1"
"260068","img/object_images/knife02.jpg","img/object_images/paper_cup02.jpg","img/object_images/remover01.jpg","1","1","1","0","1","1","0.466333799995482","0.364287799980957","0.492747999960557","1","1","1","1","1","1","1","1","1"
"260068","img/object_images/remover01.jpg","img/object_images/knife02.jpg","img/object_images/kite01.jpg","1","1","1","1","0","1","0.492747999960557","0.466333799995482","0.318927500047721","1","1","1","1","1","1","1","1","1"
"260068","img/object_images/kite01.jpg","img/object_images/remover01.jpg","img/object_images/backpack01.jpg","1","1","1","1","1","0","0.318927500047721","0.492747999960557","0.31242850003764","1","1","1","1","1","1","1","1","1"
"260068","img/object_images/backpack01.jpg","img/object_images/kite01.jpg","img/object_images/car01.jpg","1","1","1","0","1","1","0.31242850003764","0.318927500047721","0.437728299992159","1","1","1","1","1","1","1","1","1"
"260068","img/object_images/car01.jpg","img/object_images/backpack01.jpg","img/object_images/basket04.jpg","1","1","1","1","0","1","0.437728299992159","0.31242850003764","0.389010599988978","1","1","1","1","1","1","1","1","1"
"260068","img/object_images/basket04.jpg","img/object_images/car01.jpg",NA,"1","1",NA,"1","1",NA,"0.389010599988978","0.437728299992159",NA,"1","1",NA,"1","1",NA,"1","1",NA
"260068","img/object_images/brief_case02.jpg",NA,"img/object_images/gloves05.jpg","1",NA,"1","1",NA,"1","0.425948699994478",NA,"0.371161800052505","1",NA,"1","1",NA,"1","1",NA,"1"
"260068","img/object_images/gloves05.jpg","img/object_images/brief_case02.jpg","img/object_images/Recycling01.jpg","1","1","1","1","1","1","0.371161800052505","0.425948699994478","0.426504999981262","1","1","1","1","1","1","1","1","1"
"260068","img/object_images/Recycling01.jpg","img/object_images/gloves05.jpg","img/object_images/airfryer01.jpg","1","1","1","1","1","0","0.426504999981262","0.371161800052505","0.486348000005819","1","1","1","1","1","1","1","1","1"
"260068","img/object_images/airfryer01.jpg","img/object_images/Recycling01.jpg","img/object_images/helmet05.jpg","1","1","1","0","1","1","0.486348000005819","0.426504999981262","0.355400900007226","1","1","1","1","1","1","1","1","1"
"260068","img/object_images/helmet05.jpg","img/object_images/airfryer01.jpg","img/object_images/guitar01.jpg","1","1","1","1","0","1","0.355400900007226","0.486348000005819","0.357519499957561","1","1","1","1","1","1","1","1","1"
"260068","img/object_images/guitar01.jpg","img/object_images/helmet05.jpg","img/object_images/drone02.jpg","1","1","1","1","1","0","0.357519499957561","0.355400900007226","0.344972800055984","1","1","1","1","1","1","1","1","1"
"260068","img/object_images/drone02.jpg","img/object_images/guitar01.jpg","img/object_images/Woopie01.jpg","1","1","1","0","1","1","0.344972800055984","0.357519499957561","0.393655999971088","1","1","1","1","1","1","1","1","1"
"260068","img/object_images/Woopie01.jpg","img/object_images/drone02.jpg","img/object_images/decorative02.jpg","1","1","1","1","0","0","0.393655999971088","0.344972800055984","0.324935599986929","1","1","1","1","1","1","1","1","1"
"260068","img/object_images/decorative02.jpg","img/object_images/Woopie01.jpg","img/object_images/toilet_paper01.jpg","1","1","0","0","1","1","0.324935599986929","0.393655999971088","0.347294700040948","1","1","1","1","1","1","1","1","2"
"260068","img/object_images/toilet_paper01.jpg","img/object_images/decorative02.jpg","img/object_images/pot01.jpg","0","1","1","1","0","0","0.347294700040948","0.324935599986929","0.414525699976366","1","1","1","1","1","1","2","1","1"
"260068","img/object_images/pot01.jpg","img/object_images/toilet_paper01.jpg","img/object_images/brief_case01.jpg","1","0","0","0","1","0","0.414525699976366","0.347294700040948","0.383634400030132","1","1","1","1","1","1","1","2","1"
"260068","img/object_images/brief_case01.jpg","img/object_images/pot01.jpg","img/object_images/pitcher03.jpg","0","1","1","0","0","1","0.383634400030132","0.414525699976366","0.385109500028193","1","1","1","1","1","1","1","1","1"
"260068","img/object_images/pitcher03.jpg","img/object_images/brief_case01.jpg","img/object_images/toy_train02.jpg","1","0","1","1","0","1","0.385109500028193","0.383634400030132","0.489561700029299","1","1","1","1","1","1","1","1","1"
"260068","img/object_images/toy_train02.jpg","img/object_images/pitcher03.jpg","img/object_images/lamp01.jpg","1","1","1","1","1","1","0.489561700029299","0.385109500028193","0.380791000032332","1","1","1","1","1","1","1","1","1"
"260068","img/object_images/lamp01.jpg","img/object_images/toy_train02.jpg","img/object_images/tie01.jpg","1","1","1","1","1","0","0.380791000032332","0.489561700029299","0.452241499966476","1","1","1","1","1","1","1","1","1"
"260068","img/object_images/tie01.jpg","img/object_images/lamp01.jpg","img/object_images/ironing_table02.jpg","1","1","1","0","1","0","0.452241499966476","0.380791000032332","0.385544099961407","1","1","1","1","1","1","1","1","1"
"260068","img/object_images/ironing_table02.jpg","img/object_images/tie01.jpg","img/object_images/hat02.jpg","1","1","1","0","0","0","0.385544099961407","0.452241499966476","0.359303399978671","1","1","1","1","1","1","1","1","1"
"260068","img/object_images/hat02.jpg","img/object_images/ironing_table02.jpg","img/object_images/car02.jpg","1","1","0","0","0","0","0.359303399978671","0.385544099961407","0.344312899978831","1","1","1","1","1","1","1","1","1"
"260068","img/object_images/car02.jpg","img/object_images/hat02.jpg","img/object_images/lantern01.jpg","0","1","1","0","0","1","0.344312899978831","0.359303399978671","0.584988499991596","1","1","1","1","1","1","1","1","1"
"260068","img/object_images/lantern01.jpg","img/object_images/car02.jpg","img/object_images/Wisk01.jpg","1","0","1","1","0","1","0.584988499991596","0.344312899978831","0.36251079995418","1","1","1","1","1","1","1","1","1"
"260068","img/object_images/Wisk01.jpg","img/object_images/lantern01.jpg","img/object_images/basketball_hoop02.jpg","1","1","1","1","1","0","0.36251079995418","0.584988499991596","0.384381899959408","1","1","1","1","1","1","1","1","1"
"260068","img/object_images/basketball_hoop02.jpg","img/object_images/Wisk01.jpg","img/object_images/broom01.jpg","1","1","1","0","1","1","0.384381899959408","0.36251079995418","0.427817000017967","1","1","1","1","1","1","1","1","1"
"260068","img/object_images/broom01.jpg","img/object_images/basketball_hoop02.jpg","img/object_images/container01.jpg","1","1","1","1","0","0","0.427817000017967","0.384381899959408","0.460505299968645","1","1","1","1","1","1","1","1","1"
"260068","img/object_images/container01.jpg","img/object_images/broom01.jpg","img/object_images/soap01.jpg","1","1","1","0","1","0","0.460505299968645","0.427817000017967","0.44138999999268","1","1","1","1","1","1","1","1","1"
"260068","img/object_images/soap01.jpg","img/object_images/container01.jpg","img/object_images/cochlear_implant01.jpg","1","1","1","0","0","0","0.44138999999268","0.460505299968645","0.478820200019982","1","1","1","1","1","1","1","1","1"
"260068","img/object_images/cochlear_implant01.jpg","img/object_images/soap01.jpg","img/object_images/chair01.jpg","1","1","1","0","0","0","0.478820200019982","0.44138999999268","0.36571109999204","1","1","1","1","1","1","1","1","1"
"260068","img/object_images/chair01.jpg","img/object_images/cochlear_implant01.jpg","img/object_images/couch04.jpg","1","1","1","0","0","1","0.36571109999204","0.478820200019982","0.345190099964384","1","1","1","1","1","1","1","1","1"
"260068","img/object_images/couch04.jpg","img/object_images/chair01.jpg","img/object_images/video_game06.jpg","1","1","1","1","0","0","0.345190099964384","0.36571109999204","0.369762699992862","1","1","1","1","1","1","1","1","1"
"260068","img/object_images/video_game06.jpg","img/object_images/couch04.jpg","img/object_images/razor03.jpg","1","1","1","0","1","0","0.369762699992862","0.345190099964384","0.470337699982338","1","1","1","1","1","1","1","1","1"
"260068","img/object_images/razor03.jpg","img/object_images/video_game06.jpg","img/object_images/bottle12.jpg","1","1","1","0","0","1","0.470337699982338","0.369762699992862","0.339988099993207","1","1","1","1","1","1","1","1","1"
"260068","img/object_images/bottle12.jpg","img/object_images/razor03.jpg","img/object_images/ball01.jpg","1","1","1","1","0","1","0.339988099993207","0.470337699982338","0.412313900014851","1","1","1","1","1","1","1","1","1"
"260068","img/object_images/ball01.jpg","img/object_images/bottle12.jpg",NA,"1","1",NA,"1","1",NA,"0.412313900014851","0.339988099993207",NA,"1","1",NA,"1","1",NA,"1","1",NA
"260068","img/object_images/bottle05.jpg",NA,"img/object_images/MetalWire01.jpg","1",NA,"1","0",NA,"0","1.13367800001288",NA,"0.450281400000677","1",NA,"1","1",NA,"1","1",NA,"1"
"260068","img/object_images/MetalWire01.jpg","img/object_images/bottle05.jpg","img/object_images/ornament01.jpg","1","1","1","0","0","1","0.450281400000677","1.13367800001288","0.39008520002244","1","1","1","1","1","1","1","1","1"
"260068","img/object_images/ornament01.jpg","img/object_images/MetalWire01.jpg","img/object_images/Vacuum01.jpg","1","1","1","1","0","0","0.39008520002244","0.450281400000677","0.524979099980555","1","1","1","1","1","1","1","1","1"
"260068","img/object_images/Vacuum01.jpg","img/object_images/ornament01.jpg","img/object_images/fridge03.jpg","1","1","1","0","1","0","0.524979099980555","0.39008520002244","0.397524200030603","1","1","1","1","1","1","1","1","1"
"260068","img/object_images/fridge03.jpg","img/object_images/Vacuum01.jpg","img/object_images/frisbee01.jpg","1","1","1","0","0","1","0.397524200030603","0.524979099980555","0.389288800011855","1","1","1","1","1","1","1","1","1"
"260068","img/object_images/frisbee01.jpg","img/object_images/fridge03.jpg","img/object_images/Stool01.jpg","1","1","1","1","0","0","0.389288800011855","0.397524200030603","0.369339899974875","1","1","1","1","1","1","1","1","1"
"260068","img/object_images/Stool01.jpg","img/object_images/frisbee01.jpg","img/object_images/towel02.jpg","1","1","1","0","1","1","0.369339899974875","0.389288800011855","0.355295000015758","1","1","1","1","1","1","1","1","1"
"260068","img/object_images/towel02.jpg","img/object_images/Stool01.jpg","img/object_images/Tin01.jpg","1","1","1","1","0","1","0.355295000015758","0.369339899974875","0.381957299949136","1","1","1","1","1","1","1","1","1"
"260068","img/object_images/Tin01.jpg","img/object_images/towel02.jpg","img/object_images/tool02.jpg","1","1","1","1","1","1","0.381957299949136","0.355295000015758","0.373569199990015","1","1","1","1","1","1","1","1","1"
"260068","img/object_images/tool02.jpg","img/object_images/Tin01.jpg","img/object_images/helmet01.jpg","1","1","1","1","1","0","0.373569199990015","0.381957299949136","0.420376599999145","1","1","1","1","1","1","1","1","1"
"260068","img/object_images/helmet01.jpg","img/object_images/tool02.jpg","img/object_images/toy04.jpg","1","1","1","0","1","0","0.420376599999145","0.373569199990015","0.389000599971041","1","1","1","1","1","1","1","1","1"
"260068","img/object_images/toy04.jpg","img/object_images/helmet01.jpg","img/object_images/crown02.jpg","1","1","1","0","0","1","0.389000599971041","0.420376599999145","0.369163400027901","1","1","1","1","1","1","1","1","1"
"260068","img/object_images/crown02.jpg","img/object_images/toy04.jpg","img/object_images/guitar02.jpg","1","1","1","1","0","0","0.369163400027901","0.389000599971041","0.335269000031985","1","1","1","1","1","1","1","1","1"
"260068","img/object_images/guitar02.jpg","img/object_images/crown02.jpg","img/object_images/tool09.jpg","1","1","1","0","1","1","0.335269000031985","0.369163400027901","0.36496310000075","1","1","1","1","1","1","1","1","1"
"260068","img/object_images/tool09.jpg","img/object_images/guitar02.jpg","img/object_images/acoustic_capo01.jpg","1","1","0","1","0","1","0.36496310000075","0.335269000031985","0.336287299985997","1","1","1","1","1","1","1","1","2"
"260068","img/object_images/acoustic_capo01.jpg","img/object_images/tool09.jpg","img/object_images/toy03.jpg","0","1","1","1","1","1","0.336287299985997","0.36496310000075","0.368974700046238","1","1","1","1","1","1","2","1","1"
"260068","img/object_images/toy03.jpg","img/object_images/acoustic_capo01.jpg","img/object_images/pot01 (1).jpg","1","0","1","1","1","0","0.368974700046238","0.336287299985997","0.406753099989146","1","1","1","1","1","1","1","2","1"
"260068","img/object_images/pot01 (1).jpg","img/object_images/toy03.jpg","img/object_images/mirror01.jpg","1","1","1","0","1","1","0.406753099989146","0.368974700046238","0.352856900019106","1","1","1","1","1","1","1","1","1"
"260068","img/object_images/mirror01.jpg","img/object_images/pot01 (1).jpg","img/object_images/Ring02.jpg","1","1","1","1","0","0","0.352856900019106","0.406753099989146","0.392307200003415","1","1","1","1","1","1","1","1","1"
"260068","img/object_images/Ring02.jpg","img/object_images/mirror01.jpg","img/object_images/sink01.jpg","1","1","1","0","1","0","0.392307200003415","0.352856900019106","0.364427599997725","1","1","1","1","1","1","1","1","1"
"260068","img/object_images/sink01.jpg","img/object_images/Ring02.jpg","img/object_images/watch01.jpg","1","1","1","0","0","0","0.364427599997725","0.392307200003415","0.466058000049088","1","1","1","1","1","1","1","1","1"
"260068","img/object_images/watch01.jpg","img/object_images/sink01.jpg","img/object_images/dart01.jpg","1","1","1","0","0","0","0.466058000049088","0.364427599997725","0.382232899952214","1","1","1","1","1","1","1","1","1"
"260068","img/object_images/dart01.jpg","img/object_images/watch01.jpg","img/object_images/gauze01.jpg","1","1","1","0","0","0","0.382232899952214","0.466058000049088","0.443164199998137","1","1","1","1","1","1","1","1","1"
"260068","img/object_images/gauze01.jpg","img/object_images/dart01.jpg","img/object_images/bird_house02.jpg","1","1","1","0","0","1","0.443164199998137","0.382232899952214","0.395682500035036","1","1","1","1","1","1","1","1","1"
"260068","img/object_images/bird_house02.jpg","img/object_images/gauze01.jpg","img/object_images/shovel03.jpg","1","1","1","1","0","1","0.395682500035036","0.443164199998137","0.350234300014563","1","1","1","1","1","1","1","1","1"
"260068","img/object_images/shovel03.jpg","img/object_images/bird_house02.jpg","img/object_images/video_game07.jpg","1","1","1","1","1","1","0.350234300014563","0.395682500035036","0.472674700024072","1","1","1","1","1","1","1","1","1"
"260068","img/object_images/video_game07.jpg","img/object_images/shovel03.jpg","img/object_images/judge_gavel01.jpg","1","1","1","1","1","1","0.472674700024072","0.350234300014563","0.312866299995221","1","1","1","1","1","1","1","1","1"
"260068","img/object_images/judge_gavel01.jpg","img/object_images/video_game07.jpg","img/object_images/jewel04.jpg","1","1","1","1","1","0","0.312866299995221","0.472674700024072","0.351786999963224","1","1","1","1","1","1","1","1","1"
"260068","img/object_images/jewel04.jpg","img/object_images/judge_gavel01.jpg","img/object_images/bow01.jpg","1","1","1","0","1","1","0.351786999963224","0.312866299995221","0.340560499986168","1","1","1","1","1","1","1","1","1"
"260068","img/object_images/bow01.jpg","img/object_images/jewel04.jpg","img/object_images/stapler.jpg","1","1","1","1","0","1","0.340560499986168","0.351786999963224","0.370931299985386","1","1","1","1","1","1","1","1","1"
"260068","img/object_images/stapler.jpg","img/object_images/bow01.jpg","img/object_images/outlet01.jpg","1","1","1","1","1","0","0.370931299985386","0.340560499986168","0.35937899997225","1","1","1","1","1","1","1","1","1"
"260068","img/object_images/outlet01.jpg","img/object_images/stapler.jpg",NA,"1","1",NA,"0","1",NA,"0.35937899997225","0.370931299985386",NA,"1","1",NA,"1","1",NA,"1","1",NA
"260068","img/object_images/surf_board01.jpg",NA,"img/object_images/towels01.jpg","1",NA,"1","1",NA,"0","0.355307699996047",NA,"0.483832300000358","1",NA,"1","1",NA,"1","1",NA,"1"
"260068","img/object_images/towels01.jpg","img/object_images/surf_board01.jpg","img/object_images/accardion01.jpg","1","1","1","0","1","1","0.483832300000358","0.355307699996047","0.366322499990929","1","1","1","1","1","1","1","1","1"
"260068","img/object_images/accardion01.jpg","img/object_images/towels01.jpg","img/object_images/jewel03.jpg","1","1","1","1","0","1","0.366322499990929","0.483832300000358","0.415651299990714","1","1","1","1","1","1","1","1","1"
"260068","img/object_images/jewel03.jpg","img/object_images/accardion01.jpg","img/object_images/hair_dryer01.jpg","1","1","1","1","1","0","0.415651299990714","0.366322499990929","0.436216300004162","1","1","1","1","1","1","1","1","1"
"260068","img/object_images/hair_dryer01.jpg","img/object_images/jewel03.jpg","img/object_images/helmet02.jpg","1","1","0","0","1","0","0.436216300004162","0.415651299990714","0.362862500012852","1","1","1","1","1","1","1","1","2"
"260068","img/object_images/helmet02.jpg","img/object_images/hair_dryer01.jpg","img/object_images/umbrella01.jpg","0","1","1","0","0","0","0.362862500012852","0.436216300004162","0.538753700035159","1","1","1","1","1","1","2","1","1"
"260068","img/object_images/umbrella01.jpg","img/object_images/helmet02.jpg","img/object_images/vase01.jpg","1","0","0","0","0","0","0.538753700035159","0.362862500012852","0.402801000047475","1","1","1","1","1","1","1","2","1"
"260068","img/object_images/vase01.jpg","img/object_images/umbrella01.jpg","img/object_images/pitcher05.jpg","0","1","1","0","0","0","0.402801000047475","0.538753700035159","0.454580000019632","1","1","1","1","1","1","1","1","1"
"260068","img/object_images/pitcher05.jpg","img/object_images/vase01.jpg","img/object_images/toy05.jpg","1","0","1","0","0","0","0.454580000019632","0.402801000047475","0.49017190001905","1","1","1","1","1","1","1","1","1"
"260068","img/object_images/toy05.jpg","img/object_images/pitcher05.jpg","img/object_images/trash_can05.jpg","1","1","1","0","0","1","0.49017190001905","0.454580000019632","0.335278399987146","1","1","1","1","1","1","1","1","1"
"260068","img/object_images/trash_can05.jpg","img/object_images/toy05.jpg","img/object_images/laptop01.jpg","1","1","0","1","0","0","0.335278399987146","0.49017190001905","0.377544599992689","1","1","1","1","1","1","1","1","1"
"260068","img/object_images/laptop01.jpg","img/object_images/trash_can05.jpg","img/object_images/hair_brush02.jpg","0","1","1","0","1","0","0.377544599992689","0.335278399987146","0.448471000010613","1","1","1","1","1","1","1","1","1"
"260068","img/object_images/hair_brush02.jpg","img/object_images/laptop01.jpg","img/object_images/ball02.jpg","1","0","1","0","0","1","0.448471000010613","0.377544599992689","0.4042903999798","1","1","1","1","1","1","1","1","1"
"260068","img/object_images/ball02.jpg","img/object_images/hair_brush02.jpg","img/object_images/shoes08.jpg","1","1","1","1","0","1","0.4042903999798","0.448471000010613","0.3732919000322","1","1","1","1","1","1","1","1","1"
"260068","img/object_images/shoes08.jpg","img/object_images/ball02.jpg","img/object_images/spatula02.jpg","1","1","1","1","1","1","0.3732919000322","0.4042903999798","0.365323100006208","1","1","1","1","1","1","1","1","1"
"260068","img/object_images/spatula02.jpg","img/object_images/shoes08.jpg","img/object_images/chess_piece01.jpg","1","1","1","1","1","0","0.365323100006208","0.3732919000322","0.337710599997081","1","1","1","1","1","1","1","1","1"
"260068","img/object_images/chess_piece01.jpg","img/object_images/spatula02.jpg","img/object_images/Vest02.jpg","1","1","1","0","1","0","0.337710599997081","0.365323100006208","0.478783299971838","1","1","1","1","1","1","1","1","1"
"260068","img/object_images/Vest02.jpg","img/object_images/chess_piece01.jpg","img/object_images/trash_can03.jpg","1","1","1","0","0","1","0.478783299971838","0.337710599997081","0.386573099996895","1","1","1","1","1","1","1","1","1"
"260068","img/object_images/trash_can03.jpg","img/object_images/Vest02.jpg","img/object_images/lock01.jpg","1","1","1","1","0","0","0.386573099996895","0.478783299971838","0.505981100024655","1","1","1","1","1","1","1","1","1"
"260068","img/object_images/lock01.jpg","img/object_images/trash_can03.jpg","img/object_images/bucket02.jpg","1","1","1","0","1","1","0.505981100024655","0.386573099996895","0.389599299989641","1","1","1","1","1","1","1","1","1"
"260068","img/object_images/bucket02.jpg","img/object_images/lock01.jpg","img/object_images/laptop03.jpg","1","1","1","1","0","1","0.389599299989641","0.505981100024655","0.385817600006703","1","1","1","1","1","1","1","1","1"
"260068","img/object_images/laptop03.jpg","img/object_images/bucket02.jpg","img/object_images/calculator01.jpg","1","1","1","1","1","1","0.385817600006703","0.389599299989641","0.38320359995123","1","1","1","1","1","1","1","1","1"
"260068","img/object_images/calculator01.jpg","img/object_images/laptop03.jpg","img/object_images/microphone03.jpg","1","1","1","1","1","1","0.38320359995123","0.385817600006703","0.324109699984547","1","1","1","1","1","1","1","1","1"
"260068","img/object_images/microphone03.jpg","img/object_images/calculator01.jpg","img/object_images/gift_box05.jpg","1","1","1","1","1","0","0.324109699984547","0.38320359995123","0.458119100017939","1","1","1","1","1","1","1","1","1"
"260068","img/object_images/gift_box05.jpg","img/object_images/microphone03.jpg","img/object_images/chair02.jpg","1","1","1","0","1","1","0.458119100017939","0.324109699984547","0.376550499990117","1","1","1","1","1","1","1","1","1"
"260068","img/object_images/chair02.jpg","img/object_images/gift_box05.jpg","img/object_images/robe01.jpg","1","1","1","1","0","1","0.376550499990117","0.458119100017939","0.356783299997915","1","1","1","1","1","1","1","1","1"
"260068","img/object_images/robe01.jpg","img/object_images/chair02.jpg","img/object_images/Lint_Roller02.jpg","1","1","1","1","1","0","0.356783299997915","0.376550499990117","0.365879799996037","1","1","1","1","1","1","1","1","1"
"260068","img/object_images/Lint_Roller02.jpg","img/object_images/robe01.jpg","img/object_images/fan04.jpg","1","1","1","0","1","0","0.365879799996037","0.356783299997915","0.423232899978757","1","1","1","1","1","1","1","1","1"
"260068","img/object_images/fan04.jpg","img/object_images/Lint_Roller02.jpg","img/object_images/backpack03.jpg","1","1","1","0","0","1","0.423232899978757","0.365879799996037","0.371041900012642","1","1","1","1","1","1","1","1","1"
"260068","img/object_images/backpack03.jpg","img/object_images/fan04.jpg","img/object_images/stove01.jpg","1","1","1","1","0","0","0.371041900012642","0.423232899978757","0.356212900020182","1","1","1","1","1","1","1","1","1"
"260068","img/object_images/stove01.jpg","img/object_images/backpack03.jpg","img/object_images/combs01.jpg","1","1","1","0","1","1","0.356212900020182","0.371041900012642","0.330394400050864","1","1","1","1","1","1","1","1","1"
"260068","img/object_images/combs01.jpg","img/object_images/stove01.jpg",NA,"1","1",NA,"1","0",NA,"0.330394400050864","0.356212900020182",NA,"1","1",NA,"1","1",NA,"1","1",NA
"260068","img/object_images/faucet01.jpg",NA,"img/object_images/hole_puncher01.jpg","1",NA,"1","0",NA,"1","0.43921019998379",NA,"0.399916299968027","1",NA,"1","1",NA,"1","1",NA,"1"
"260068","img/object_images/hole_puncher01.jpg","img/object_images/faucet01.jpg","img/object_images/handcuffs01.jpg","1","1","1","1","0","0","0.399916299968027","0.43921019998379","0.358194199972786","1","1","1","1","1","1","1","1","1"
"260068","img/object_images/handcuffs01.jpg","img/object_images/hole_puncher01.jpg","img/object_images/lighter01.jpg","1","1","1","0","1","1","0.358194199972786","0.399916299968027","0.388597900047898","1","1","1","1","1","1","1","1","1"
"260068","img/object_images/lighter01.jpg","img/object_images/handcuffs01.jpg","img/object_images/glasses06.jpg","1","1","1","1","0","1","0.388597900047898","0.358194199972786","0.370491999958176","1","1","1","1","1","1","1","1","1"
"260068","img/object_images/glasses06.jpg","img/object_images/lighter01.jpg","img/object_images/yo_yo01.jpg","1","1","1","1","1","0","0.370491999958176","0.388597900047898","0.405739600013476","1","1","1","1","1","1","1","1","1"
"260068","img/object_images/yo_yo01.jpg","img/object_images/glasses06.jpg","img/object_images/tool08.jpg","1","1","0","0","1","0","0.405739600013476","0.370491999958176","0.354343500046525","1","1","1","1","1","1","1","1","1"
"260068","img/object_images/tool08.jpg","img/object_images/yo_yo01.jpg","img/object_images/cellphone02.jpg","0","1","1","0","0","1","0.354343500046525","0.405739600013476","0.364393599971663","1","1","1","1","1","1","1","1","1"
"260068","img/object_images/cellphone02.jpg","img/object_images/tool08.jpg","img/object_images/tray01.jpg","1","0","1","1","0","1","0.364393599971663","0.354343500046525","0.342707099975087","1","1","1","1","1","1","1","1","1"
"260068","img/object_images/tray01.jpg","img/object_images/cellphone02.jpg","img/object_images/jewelry09.jpg","1","1","1","1","1","1","0.342707099975087","0.364393599971663","0.384554499993101","1","1","1","1","1","1","1","1","1"
"260068","img/object_images/jewelry09.jpg","img/object_images/tray01.jpg","img/object_images/gift_box04.jpg","1","1","1","1","1","0","0.384554499993101","0.342707099975087","0.388219800021034","1","1","1","1","1","1","1","1","1"
"260068","img/object_images/gift_box04.jpg","img/object_images/jewelry09.jpg","img/object_images/glasses07.jpg","1","1","1","0","1","1","0.388219800021034","0.384554499993101","0.393268399988301","1","1","1","1","1","1","1","1","1"
"260068","img/object_images/glasses07.jpg","img/object_images/gift_box04.jpg","img/object_images/blanket01.jpg","1","1","1","1","0","1","0.393268399988301","0.388219800021034","0.40384179999819","1","1","1","1","1","1","1","1","1"
"260068","img/object_images/blanket01.jpg","img/object_images/glasses07.jpg","img/object_images/Kitchen_Towel.jpg","1","1","1","1","1","0","0.40384179999819","0.393268399988301","0.394111400004476","1","1","1","1","1","1","1","1","1"
"260068","img/object_images/Kitchen_Towel.jpg","img/object_images/blanket01.jpg","img/object_images/Sprayer01.jpg","1","1","1","0","1","0","0.394111400004476","0.40384179999819","0.373480100010056","1","1","1","1","1","1","1","1","1"
"260068","img/object_images/Sprayer01.jpg","img/object_images/Kitchen_Towel.jpg","img/object_images/fire_extinguisher01.jpg","1","1","1","0","0","0","0.373480100010056","0.394111400004476","0.447919099999126","1","1","1","1","1","1","1","1","1"
"260068","img/object_images/fire_extinguisher01.jpg","img/object_images/Sprayer01.jpg","img/object_images/TrashCan02.jpg","1","1","1","0","0","1","0.447919099999126","0.373480100010056","0.334384899993893","1","1","1","1","1","1","1","1","1"
"260068","img/object_images/TrashCan02.jpg","img/object_images/fire_extinguisher01.jpg","img/object_images/cup03.jpg","1","1","1","1","0","1","0.334384899993893","0.447919099999126","0.327183599991258","1","1","1","1","1","1","1","1","1"
"260068","img/object_images/cup03.jpg","img/object_images/TrashCan02.jpg","img/object_images/pan01.jpg","1","1","1","1","1","1","0.327183599991258","0.334384899993893","0.365393099957146","1","1","1","1","1","1","1","1","1"
"260068","img/object_images/pan01.jpg","img/object_images/cup03.jpg","img/object_images/Pottery01.jpg","1","1","1","1","1","0","0.365393099957146","0.327183599991258","0.394125599996187","1","1","1","1","1","1","1","1","1"
"260068","img/object_images/Pottery01.jpg","img/object_images/pan01.jpg","img/object_images/book01.jpg","1","1","1","0","1","1","0.394125599996187","0.365393099957146","0.382981800008565","1","1","1","1","1","1","1","1","1"
"260068","img/object_images/book01.jpg","img/object_images/Pottery01.jpg","img/object_images/Traffic Sign 01.jpg","1","1","1","1","0","0","0.382981800008565","0.394125599996187","0.469829000008758","1","1","1","1","1","1","1","1","1"
"260068","img/object_images/Traffic Sign 01.jpg","img/object_images/book01.jpg","img/object_images/bicycle_lock01.jpg","1","1","1","0","1","0","0.469829000008758","0.382981800008565","0.469293600006495","1","1","1","1","1","1","1","1","1"
"260068","img/object_images/bicycle_lock01.jpg","img/object_images/Traffic Sign 01.jpg","img/object_images/speaker01.jpg","1","1","1","0","0","1","0.469293600006495","0.469829000008758","0.395913999993354","1","1","1","1","1","1","1","1","1"
"260068","img/object_images/speaker01.jpg","img/object_images/bicycle_lock01.jpg","img/object_images/projector01.jpg","1","1","1","1","0","0","0.395913999993354","0.469293600006495","0.384897199983243","1","1","1","1","1","1","1","1","1"
"260068","img/object_images/projector01.jpg","img/object_images/speaker01.jpg","img/object_images/purse01.jpg","1","1","1","0","1","1","0.384897199983243","0.395913999993354","0.46210839995183","1","1","1","1","1","1","1","1","1"
"260068","img/object_images/purse01.jpg","img/object_images/projector01.jpg","img/object_images/hair_clips01.jpg","1","1","1","1","0","1","0.46210839995183","0.384897199983243","0.446160099992994","1","1","1","1","1","1","1","1","1"
"260068","img/object_images/hair_clips01.jpg","img/object_images/purse01.jpg","img/object_images/ring03.jpg","1","1","1","1","1","1","0.446160099992994","0.46210839995183","0.393835100054275","1","1","1","1","1","1","1","1","1"
"260068","img/object_images/ring03.jpg","img/object_images/hair_clips01.jpg","img/object_images/colander01.jpg","1","1","1","1","1","0","0.393835100054275","0.446160099992994","0.462933400005568","1","1","1","1","1","1","1","1","1"
"260068","img/object_images/colander01.jpg","img/object_images/ring03.jpg","img/object_images/tool07.jpg","1","1","1","0","1","0","0.462933400005568","0.393835100054275","0.372932399972342","1","1","1","1","1","1","1","1","1"
"260068","img/object_images/tool07.jpg","img/object_images/colander01.jpg","img/object_images/exfoliater_brush01.jpg","1","1","1","0","0","0","0.372932399972342","0.462933400005568","0.493038000015076","1","1","1","1","1","1","1","1","1"
"260068","img/object_images/exfoliater_brush01.jpg","img/object_images/tool07.jpg","img/object_images/basket02.jpg","1","1","0","0","0","0","0.493038000015076","0.372932399972342","0.404777899966575","1","1","1","1","1","1","1","1","1"
"260068","img/object_images/basket02.jpg","img/object_images/exfoliater_brush01.jpg",NA,"0","1",NA,"0","0",NA,"0.404777899966575","0.493038000015076",NA,"1","1",NA,"1","1",NA,"1","1",NA
"260068","img/object_images/chair03.jpg",NA,"img/object_images/scoreboard01.jpg","1",NA,"1","0",NA,"1","0.606783800001722",NA,"0.399788599985186","1",NA,"1","1",NA,"1","1",NA,"1"
"260068","img/object_images/scoreboard01.jpg","img/object_images/chair03.jpg","img/object_images/bottle02.jpg","1","1","1","1","0","1","0.399788599985186","0.606783800001722","0.386714399966877","1","1","1","1","1","1","1","1","1"
"260068","img/object_images/bottle02.jpg","img/object_images/scoreboard01.jpg","img/object_images/knit01.jpg","1","1","1","1","1","0","0.386714399966877","0.399788599985186","0.370960899977945","1","1","1","1","1","1","1","1","1"
"260068","img/object_images/knit01.jpg","img/object_images/bottle02.jpg","img/object_images/perfume02.jpg","1","1","1","0","1","0","0.370960899977945","0.386714399966877","0.433158200001344","1","1","1","1","1","1","1","1","1"
"260068","img/object_images/perfume02.jpg","img/object_images/knit01.jpg","img/object_images/toilet_paper_dispenser01.jpg","1","1","1","0","0","1","0.433158200001344","0.370960899977945","0.394357000011951","1","1","1","1","1","1","1","1","1"
"260068","img/object_images/toilet_paper_dispenser01.jpg","img/object_images/perfume02.jpg","img/object_images/bean_bag02.jpg","1","1","1","1","0","1","0.394357000011951","0.433158200001344","0.367181300010998","1","1","1","1","1","1","1","1","1"
"260068","img/object_images/bean_bag02.jpg","img/object_images/toilet_paper_dispenser01.jpg","img/object_images/audio_port01.jpg","1","1","1","1","1","1","0.367181300010998","0.394357000011951","0.322281900036614","1","1","1","1","1","1","1","1","1"
"260068","img/object_images/audio_port01.jpg","img/object_images/bean_bag02.jpg","img/object_images/water_scooter01.jpg","1","1","1","1","1","1","0.322281900036614","0.367181300010998","0.451022099994589","1","1","1","1","1","1","1","1","1"
"260068","img/object_images/water_scooter01.jpg","img/object_images/audio_port01.jpg","img/object_images/dog_leash01.jpg","1","1","1","1","1","0","0.451022099994589","0.322281900036614","0.458977099973708","1","1","1","1","1","1","1","1","1"
"260068","img/object_images/dog_leash01.jpg","img/object_images/water_scooter01.jpg","img/object_images/WoodBox01.jpg","1","1","1","0","1","0","0.458977099973708","0.451022099994589","0.453169299988076","1","1","1","1","1","1","1","1","1"
"260068","img/object_images/WoodBox01.jpg","img/object_images/dog_leash01.jpg","img/object_images/flask01.jpg","1","1","1","0","0","0","0.453169299988076","0.458977099973708","0.480507500004023","1","1","1","1","1","1","1","1","1"
"260068","img/object_images/flask01.jpg","img/object_images/WoodBox01.jpg","img/object_images/cellphone03.jpg","1","1","1","0","0","0","0.480507500004023","0.453169299988076","0.503733000019565","1","1","1","1","1","1","1","1","1"
"260068","img/object_images/cellphone03.jpg","img/object_images/flask01.jpg","img/object_images/pen05.jpg","1","1","1","0","0","0","0.503733000019565","0.480507500004023","0.374431299977004","1","1","1","1","1","1","1","1","1"
"260068","img/object_images/pen05.jpg","img/object_images/cellphone03.jpg","img/object_images/wagon_cart03.jpg","1","1","1","0","0","1","0.374431299977004","0.503733000019565","0.3548398000421","1","1","1","1","1","1","1","1","1"
"260068","img/object_images/wagon_cart03.jpg","img/object_images/pen05.jpg","img/object_images/tool19.jpg","1","1","1","1","0","1","0.3548398000421","0.374431299977004","0.382941299991217","1","1","1","1","1","1","1","1","1"
"260068","img/object_images/tool19.jpg","img/object_images/wagon_cart03.jpg","img/object_images/helmet04.jpg","1","1","1","1","1","1","0.382941299991217","0.3548398000421","0.360570099961478","1","1","1","1","1","1","1","1","1"
"260068","img/object_images/helmet04.jpg","img/object_images/tool19.jpg","img/object_images/bottle09.jpg","1","1","1","1","1","0","0.360570099961478","0.382941299991217","0.386908200045582","1","1","1","1","1","1","1","1","1"
"260068","img/object_images/bottle09.jpg","img/object_images/helmet04.jpg","img/object_images/bottle10.jpg","1","1","1","0","1","1","0.386908200045582","0.360570099961478","0.436288700031582","1","1","1","1","1","1","1","1","1"
"260068","img/object_images/bottle10.jpg","img/object_images/bottle09.jpg","img/object_images/piggy_bank01.jpg","1","1","1","1","0","1","0.436288700031582","0.386908200045582","0.488488800008781","1","1","1","1","1","1","1","1","1"
"260068","img/object_images/piggy_bank01.jpg","img/object_images/bottle10.jpg","img/object_images/bicycle01.jpg","1","1","1","1","1","1","0.488488800008781","0.436288700031582","0.418636000016704","1","1","1","1","1","1","1","1","1"
"260068","img/object_images/bicycle01.jpg","img/object_images/piggy_bank01.jpg","img/object_images/toaster01.jpg","1","1","1","1","1","1","0.418636000016704","0.488488800008781","0.394587699964177","1","1","1","1","1","1","1","1","1"
"260068","img/object_images/toaster01.jpg","img/object_images/bicycle01.jpg","img/object_images/fan02.jpg","1","1","1","1","1","0","0.394587699964177","0.418636000016704","0.49669990001712","1","1","1","1","1","1","1","1","1"
"260068","img/object_images/fan02.jpg","img/object_images/toaster01.jpg","img/object_images/boat02.jpg","1","1","1","0","1","1","0.49669990001712","0.394587699964177","0.378569299995434","1","1","1","1","1","1","1","1","1"
"260068","img/object_images/boat02.jpg","img/object_images/fan02.jpg","img/object_images/hot_air_balloon02.jpg","1","1","1","1","0","0","0.378569299995434","0.49669990001712","0.40856700000586","1","1","1","1","1","1","1","1","1"
"260068","img/object_images/hot_air_balloon02.jpg","img/object_images/boat02.jpg","img/object_images/shoes07.jpg","1","1","1","0","1","0","0.40856700000586","0.378569299995434","0.464785600022878","1","1","1","1","1","1","1","1","1"
"260068","img/object_images/shoes07.jpg","img/object_images/hot_air_balloon02.jpg","img/object_images/tie02.jpg","1","1","0","0","0","0","0.464785600022878","0.40856700000586","0.333523699955549","1","1","1","1","1","1","1","1","1"
"260068","img/object_images/tie02.jpg","img/object_images/shoes07.jpg","img/object_images/coloring_pencil02.jpg","0","1","1","0","0","0","0.333523699955549","0.464785600022878","0.509537599980831","1","1","1","1","1","1","1","1","1"
"260068","img/object_images/coloring_pencil02.jpg","img/object_images/tie02.jpg","img/object_images/hat06.jpg","1","0","1","0","0","0","0.509537599980831","0.333523699955549","0.449084200023208","1","1","1","1","1","1","1","1","1"
"260068","img/object_images/hat06.jpg","img/object_images/coloring_pencil02.jpg","img/object_images/purse04.jpg","1","1","1","0","0","1","0.449084200023208","0.509537599980831","0.431186100002378","1","1","1","1","1","1","1","1","1"
"260068","img/object_images/purse04.jpg","img/object_images/hat06.jpg","img/object_images/boat_toy10.jpg","1","1","1","1","0","0","0.431186100002378","0.449084200023208","0.505362899973989","1","1","1","1","1","1","1","1","1"
"260068","img/object_images/boat_toy10.jpg","img/object_images/purse04.jpg","img/object_images/camera_lens01.jpg","1","1","1","0","1","1","0.505362899973989","0.431186100002378","0.407898799981922","1","1","1","1","1","1","1","1","1"
"260068","img/object_images/camera_lens01.jpg","img/object_images/boat_toy10.jpg",NA,"1","1",NA,"1","0",NA,"0.407898799981922","0.505362899973989",NA,"1","1",NA,"1","1",NA,"1","1",NA
