"participant_id","current_trial_object","pre_trial_object","post_trial_object","current_trial_accuracy","pre_trial_accuracy","post_trial_accuracy","current_trial_congruency","pre_trial_congruency","post_trial_congruency","current_trial_rt","pre_trial_rt","post_trial_rt","current_trial_responded","pre_trial_responded","post_trial_responded","current_trial_legitResponse","pre_trial_legitResponse","post_trial_legitResponse","current_trial_resp_nums","pre_trial_resp_nums","post_trial_resp_nums"
"260036","img/object_images/candle02.jpg",NA,"img/object_images/dust_pan01.jpg","0",NA,"1","0",NA,"1","0.510612199985189",NA,"0.558012099994812","1",NA,"1","1",NA,"1","1",NA,"1"
"260036","img/object_images/dust_pan01.jpg","img/object_images/candle02.jpg","img/object_images/sign02.jpg","1","0","1","1","0","0","0.558012099994812","0.510612199985189","0.605735399993137","1","1","1","1","1","1","1","1","1"
"260036","img/object_images/sign02.jpg","img/object_images/dust_pan01.jpg","img/object_images/Confetti 01.jpg","1","1","1","0","1","0","0.605735399993137","0.558012099994812","0.47115919998032","1","1","1","1","1","1","1","1","1"
"260036","img/object_images/Confetti 01.jpg","img/object_images/sign02.jpg","img/object_images/perfume01.jpg","1","1","1","0","0","0","0.47115919998032","0.605735399993137","0.52710889998707","1","1","1","1","1","1","1","1","1"
"260036","img/object_images/perfume01.jpg","img/object_images/Confetti 01.jpg","img/object_images/tool20.jpg","1","1","1","0","0","0","0.52710889998707","0.47115919998032","0.472703799983719","1","1","1","1","1","1","1","1","1"
"260036","img/object_images/tool20.jpg","img/object_images/perfume01.jpg","img/object_images/knife01.jpg","1","1","1","0","0","1","0.472703799983719","0.52710889998707","0.447400200006086","1","1","1","1","1","1","1","1","1"
"260036","img/object_images/knife01.jpg","img/object_images/tool20.jpg","img/object_images/video_game02.jpg","1","1","1","1","0","1","0.447400200006086","0.472703799983719","0.42596640001284","1","1","1","1","1","1","1","1","1"
"260036","img/object_images/video_game02.jpg","img/object_images/knife01.jpg","img/object_images/sink_filter01 (1).jpg","1","1","1","1","1","0","0.42596640001284","0.447400200006086","0.48105729999952","1","1","1","1","1","1","1","1","1"
"260036","img/object_images/sink_filter01 (1).jpg","img/object_images/video_game02.jpg","img/object_images/spray_can01.jpg","1","1","1","0","1","0","0.48105729999952","0.42596640001284","0.462616400007391","1","1","1","1","1","1","1","1","1"
"260036","img/object_images/spray_can01.jpg","img/object_images/sink_filter01 (1).jpg","img/object_images/hat13.jpg","1","1","1","0","0","1","0.462616400007391","0.48105729999952","0.350705999997444","1","1","1","1","1","1","1","1","1"
"260036","img/object_images/hat13.jpg","img/object_images/spray_can01.jpg","img/object_images/bag04.jpg","1","1","1","1","0","0","0.350705999997444","0.462616400007391","0.515678099996876","1","1","1","1","1","1","1","1","1"
"260036","img/object_images/bag04.jpg","img/object_images/hat13.jpg","img/object_images/glasses03.jpg","1","1","1","0","1","0","0.515678099996876","0.350705999997444","0.490504799992777","1","1","1","1","1","1","1","1","1"
"260036","img/object_images/glasses03.jpg","img/object_images/bag04.jpg","img/object_images/vase02.jpg","1","1","1","0","0","1","0.490504799992777","0.515678099996876","0.444743400003063","1","1","1","1","1","1","1","1","1"
"260036","img/object_images/vase02.jpg","img/object_images/glasses03.jpg","img/object_images/board01.jpg","1","1","1","1","0","1","0.444743400003063","0.490504799992777","0.379679799982114","1","1","1","1","1","1","1","1","1"
"260036","img/object_images/board01.jpg","img/object_images/vase02.jpg","img/object_images/camera05.jpg","1","1","1","1","1","0","0.379679799982114","0.444743400003063","0.487166399980197","1","1","1","1","1","1","1","1","1"
"260036","img/object_images/camera05.jpg","img/object_images/board01.jpg","img/object_images/socks01.jpg","1","1","1","0","1","1","0.487166399980197","0.379679799982114","0.476294799998868","1","1","1","1","1","1","1","1","1"
"260036","img/object_images/socks01.jpg","img/object_images/camera05.jpg","img/object_images/ruler02.jpg","1","1","1","1","0","1","0.476294799998868","0.487166399980197","0.409027699992293","1","1","1","1","1","1","1","1","1"
"260036","img/object_images/ruler02.jpg","img/object_images/socks01.jpg","img/object_images/tool13.jpg","1","1","1","1","1","1","0.409027699992293","0.476294799998868","0.408617200009758","1","1","1","1","1","1","1","1","1"
"260036","img/object_images/tool13.jpg","img/object_images/ruler02.jpg","img/object_images/cup01.jpg","1","1","1","1","1","0","0.408617200009758","0.409027699992293","0.465129300020635","1","1","1","1","1","1","1","1","1"
"260036","img/object_images/cup01.jpg","img/object_images/tool13.jpg","img/object_images/clipboard01.jpg","1","1","1","0","1","1","0.465129300020635","0.408617200009758","0.443729699996766","1","1","1","1","1","1","1","1","1"
"260036","img/object_images/clipboard01.jpg","img/object_images/cup01.jpg","img/object_images/duster01.jpg","1","1","1","1","0","0","0.443729699996766","0.465129300020635","0.464737900008913","1","1","1","1","1","1","1","1","1"
"260036","img/object_images/duster01.jpg","img/object_images/clipboard01.jpg","img/object_images/floss01.jpg","1","1","1","0","1","1","0.464737900008913","0.443729699996766","0.412727799994172","1","1","1","1","1","1","1","1","1"
"260036","img/object_images/floss01.jpg","img/object_images/duster01.jpg","img/object_images/office_supplies01.jpg","1","1","1","1","0","1","0.412727799994172","0.464737900008913","0.425487600004999","1","1","1","1","1","1","1","1","1"
"260036","img/object_images/office_supplies01.jpg","img/object_images/floss01.jpg","img/object_images/razor02.jpg","1","1","1","1","1","1","0.425487600004999","0.412727799994172","0.424441899987869","1","1","1","1","1","1","1","1","1"
"260036","img/object_images/razor02.jpg","img/object_images/office_supplies01.jpg","img/object_images/hat09.jpg","1","1","1","1","1","0","0.424441899987869","0.425487600004999","0.444532599998638","1","1","1","1","1","1","1","1","1"
"260036","img/object_images/hat09.jpg","img/object_images/razor02.jpg","img/object_images/pen06.jpg","1","1","1","0","1","0","0.444532599998638","0.424441899987869","0.533869300008519","1","1","1","1","1","1","1","1","1"
"260036","img/object_images/pen06.jpg","img/object_images/hat09.jpg","img/object_images/pan03.jpg","1","1","1","0","0","1","0.533869300008519","0.444532599998638","0.4627239999827","1","1","1","1","1","1","1","1","1"
"260036","img/object_images/pan03.jpg","img/object_images/pen06.jpg","img/object_images/Candle_Holder01.jpg","1","1","0","1","0","0","0.4627239999827","0.533869300008519","0.4046194999828","1","1","1","1","1","1","1","1","2"
"260036","img/object_images/Candle_Holder01.jpg","img/object_images/pan03.jpg","img/object_images/lemon_squeezer01.jpg","0","1","1","0","1","1","0.4046194999828","0.4627239999827","0.457118999998784","1","1","1","1","1","1","2","1","1"
"260036","img/object_images/lemon_squeezer01.jpg","img/object_images/Candle_Holder01.jpg","img/object_images/bow_tie03.jpg","1","0","1","1","0","1","0.457118999998784","0.4046194999828","0.413432100001955","1","1","1","1","1","1","1","2","1"
"260036","img/object_images/bow_tie03.jpg","img/object_images/lemon_squeezer01.jpg","img/object_images/hammer02.jpg","1","1","0","1","1","0","0.413432100001955","0.457118999998784","0.482493599993177","1","1","1","1","1","1","1","1","1"
"260036","img/object_images/hammer02.jpg","img/object_images/bow_tie03.jpg",NA,"0","1",NA,"0","1",NA,"0.482493599993177","0.413432100001955",NA,"1","1",NA,"1","1",NA,"1","1",NA
"260036","img/object_images/keyboard02.jpg",NA,"img/object_images/remote_controller01.jpg","1",NA,"1","1",NA,"1","0.553464800002985",NA,"0.436577100015711","1",NA,"1","1",NA,"1","1",NA,"1"
"260036","img/object_images/remote_controller01.jpg","img/object_images/keyboard02.jpg","img/object_images/stereo02.jpg","1","1","0","1","1","0","0.436577100015711","0.553464800002985","0.336793699971167","1","1","1","1","1","1","1","1","1"
"260036","img/object_images/stereo02.jpg","img/object_images/remote_controller01.jpg","img/object_images/toy08.jpg","0","1","1","0","1","0","0.336793699971167","0.436577100015711","0.488682700000936","1","1","1","1","1","1","1","1","1"
"260036","img/object_images/toy08.jpg","img/object_images/stereo02.jpg","img/object_images/kite01.jpg","1","0","1","0","0","1","0.488682700000936","0.336793699971167","0.410265699989395","1","1","1","1","1","1","1","1","1"
"260036","img/object_images/kite01.jpg","img/object_images/toy08.jpg","img/object_images/remover01.jpg","1","1","1","1","0","1","0.410265699989395","0.488682700000936","0.405314300005557","1","1","1","1","1","1","1","1","1"
"260036","img/object_images/remover01.jpg","img/object_images/kite01.jpg","img/object_images/basket04.jpg","1","1","1","1","1","1","0.405314300005557","0.410265699989395","0.379926499997964","1","1","1","1","1","1","1","1","1"
"260036","img/object_images/basket04.jpg","img/object_images/remover01.jpg","img/object_images/Statue01.jpg","1","1","1","1","1","1","0.379926499997964","0.405314300005557","0.378593700006604","1","1","1","1","1","1","1","1","1"
"260036","img/object_images/Statue01.jpg","img/object_images/basket04.jpg","img/object_images/sponge03.jpg","1","1","1","1","1","1","0.378593700006604","0.379926499997964","0.384319400007371","1","1","1","1","1","1","1","1","1"
"260036","img/object_images/sponge03.jpg","img/object_images/Statue01.jpg","img/object_images/camera03.jpg","1","1","1","1","1","0","0.384319400007371","0.378593700006604","0.462388599989936","1","1","1","1","1","1","1","1","1"
"260036","img/object_images/camera03.jpg","img/object_images/sponge03.jpg","img/object_images/backpack01.jpg","1","1","0","0","1","0","0.462388599989936","0.384319400007371","0.374552399996901","1","1","1","1","1","1","1","1","1"
"260036","img/object_images/backpack01.jpg","img/object_images/camera03.jpg","img/object_images/car01.jpg","0","1","1","0","0","1","0.374552399996901","0.462388599989936","0.439237000013236","1","1","1","1","1","1","1","1","1"
"260036","img/object_images/car01.jpg","img/object_images/backpack01.jpg","img/object_images/video_game01.jpg","1","0","1","1","0","1","0.439237000013236","0.374552399996901","0.425292100000661","1","1","1","1","1","1","1","1","1"
"260036","img/object_images/video_game01.jpg","img/object_images/car01.jpg","img/object_images/paper_cup02.jpg","1","1","1","1","1","1","0.425292100000661","0.439237000013236","0.372034699976211","1","1","1","1","1","1","1","1","1"
"260036","img/object_images/paper_cup02.jpg","img/object_images/video_game01.jpg","img/object_images/blender02.jpg","1","1","1","1","1","1","0.372034699976211","0.425292100000661","0.378829499997664","1","1","1","1","1","1","1","1","1"
"260036","img/object_images/blender02.jpg","img/object_images/paper_cup02.jpg","img/object_images/gloves02.jpg","1","1","0","1","1","0","0.378829499997664","0.372034699976211","0.362625600013416","1","1","1","1","1","1","1","1","1"
"260036","img/object_images/gloves02.jpg","img/object_images/blender02.jpg","img/object_images/phone02.jpg","0","1","1","0","1","1","0.362625600013416","0.378829499997664","0.42296389999683","1","1","1","1","1","1","1","1","1"
"260036","img/object_images/phone02.jpg","img/object_images/gloves02.jpg","img/object_images/jacket04.jpg","1","0","0","1","0","0","0.42296389999683","0.362625600013416","0.402396699995734","1","1","1","1","1","1","1","1","1"
"260036","img/object_images/jacket04.jpg","img/object_images/phone02.jpg","img/object_images/knit03.jpg","0","1","1","0","1","1","0.402396699995734","0.42296389999683","0.566385000012815","1","1","1","1","1","1","1","1","1"
"260036","img/object_images/knit03.jpg","img/object_images/jacket04.jpg","img/object_images/dresser03.jpg","1","0","1","1","0","0","0.566385000012815","0.402396699995734","0.504393999988679","1","1","1","1","1","1","1","1","1"
"260036","img/object_images/dresser03.jpg","img/object_images/knit03.jpg","img/object_images/tool18.jpg","1","1","1","0","1","0","0.504393999988679","0.566385000012815","0.55883370002266","1","1","1","1","1","1","1","1","1"
"260036","img/object_images/tool18.jpg","img/object_images/dresser03.jpg","img/object_images/hoverboard01.jpg","1","1","1","0","0","0","0.55883370002266","0.504393999988679","0.527173199981917","1","1","1","1","1","1","1","1","1"
"260036","img/object_images/hoverboard01.jpg","img/object_images/tool18.jpg","img/object_images/curtain02.jpg","1","1","0","0","0","0","0.527173199981917","0.55883370002266","0.407753699983004","1","1","1","1","1","1","1","1","1"
"260036","img/object_images/curtain02.jpg","img/object_images/hoverboard01.jpg","img/object_images/hand_grip_exerciser01.jpg","0","1","1","0","0","0","0.407753699983004","0.527173199981917","0.504711300018243","1","1","1","1","1","1","1","1","1"
"260036","img/object_images/hand_grip_exerciser01.jpg","img/object_images/curtain02.jpg","img/object_images/shower_head01.jpg","1","0","1","0","0","1","0.504711300018243","0.407753699983004","0.389204499981133","1","1","1","1","1","1","1","1","1"
"260036","img/object_images/shower_head01.jpg","img/object_images/hand_grip_exerciser01.jpg","img/object_images/mail_box01.jpg","1","1","1","1","0","0","0.389204499981133","0.504711300018243","0.439779599983012","1","1","1","1","1","1","1","1","1"
"260036","img/object_images/mail_box01.jpg","img/object_images/shower_head01.jpg","img/object_images/knit04.jpg","1","1","1","0","1","1","0.439779599983012","0.389204499981133","0.474049299984472","1","1","1","1","1","1","1","1","1"
"260036","img/object_images/knit04.jpg","img/object_images/mail_box01.jpg","img/object_images/matches02.jpg","1","1","1","1","0","0","0.474049299984472","0.439779599983012","0.489000199973816","1","1","1","1","1","1","1","1","1"
"260036","img/object_images/matches02.jpg","img/object_images/knit04.jpg","img/object_images/bottle07.jpg","1","1","1","0","1","1","0.489000199973816","0.474049299984472","0.399728200020036","1","1","1","1","1","1","1","1","1"
"260036","img/object_images/bottle07.jpg","img/object_images/matches02.jpg","img/object_images/flashlight03.jpg","1","1","1","1","0","0","0.399728200020036","0.489000199973816","0.534989799984032","1","1","1","1","1","1","1","1","1"
"260036","img/object_images/flashlight03.jpg","img/object_images/bottle07.jpg","img/object_images/boat04.jpg","1","1","1","0","1","0","0.534989799984032","0.399728200020036","0.532087999978103","1","1","1","1","1","1","1","1","1"
"260036","img/object_images/boat04.jpg","img/object_images/flashlight03.jpg","img/object_images/knife02.jpg","1","1","1","0","0","0","0.532087999978103","0.534989799984032","0.533293499989668","1","1","1","1","1","1","1","1","1"
"260036","img/object_images/knife02.jpg","img/object_images/boat04.jpg",NA,"1","1",NA,"0","0",NA,"0.533293499989668","0.532087999978103",NA,"1","1",NA,"1","1",NA,"1","1",NA
"260036","img/object_images/mirror01.jpg",NA,"img/object_images/jewel04.jpg","1",NA,"1","1",NA,"0","0.546451400005026",NA,"0.576236599998083","1",NA,"1","1",NA,"1","1",NA,"1"
"260036","img/object_images/jewel04.jpg","img/object_images/mirror01.jpg","img/object_images/tool09.jpg","1","1","1","0","1","1","0.576236599998083","0.546451400005026","0.412507200002438","1","1","1","1","1","1","1","1","1"
"260036","img/object_images/tool09.jpg","img/object_images/jewel04.jpg","img/object_images/bow01.jpg","1","1","1","1","0","1","0.412507200002438","0.576236599998083","0.429725800000597","1","1","1","1","1","1","1","1","1"
"260036","img/object_images/bow01.jpg","img/object_images/tool09.jpg","img/object_images/Ring02.jpg","1","1","0","1","1","0","0.429725800000597","0.412507200002438","0.396620500017889","1","1","1","1","1","1","1","1","1"
"260036","img/object_images/Ring02.jpg","img/object_images/bow01.jpg","img/object_images/shovel03.jpg","0","1","1","0","1","1","0.396620500017889","0.429725800000597","0.375476499990327","1","1","1","1","1","1","1","1","1"
"260036","img/object_images/shovel03.jpg","img/object_images/Ring02.jpg","img/object_images/ornament01.jpg","1","0","1","1","0","1","0.375476499990327","0.396620500017889","0.440032299986342","1","1","1","1","1","1","1","1","1"
"260036","img/object_images/ornament01.jpg","img/object_images/shovel03.jpg","img/object_images/acoustic_capo01.jpg","1","1","1","1","1","1","0.440032299986342","0.375476499990327","0.436973300005775","1","1","1","1","1","1","1","1","1"
"260036","img/object_images/acoustic_capo01.jpg","img/object_images/ornament01.jpg","img/object_images/guitar02.jpg","1","1","1","1","1","0","0.436973300005775","0.440032299986342","0.441613900009543","1","1","1","1","1","1","1","1","1"
"260036","img/object_images/guitar02.jpg","img/object_images/acoustic_capo01.jpg","img/object_images/frisbee01.jpg","1","1","1","0","1","1","0.441613900009543","0.436973300005775","0.361910999985412","1","1","1","1","1","1","1","1","1"
"260036","img/object_images/frisbee01.jpg","img/object_images/guitar02.jpg","img/object_images/Tin01.jpg","1","1","1","1","0","1","0.361910999985412","0.441613900009543","0.405197799991583","1","1","1","1","1","1","1","1","1"
"260036","img/object_images/Tin01.jpg","img/object_images/frisbee01.jpg","img/object_images/helmet01.jpg","1","1","1","1","1","0","0.405197799991583","0.361910999985412","0.412832800007891","1","1","1","1","1","1","1","1","1"
"260036","img/object_images/helmet01.jpg","img/object_images/Tin01.jpg","img/object_images/Vacuum01.jpg","1","1","1","0","1","0","0.412832800007891","0.405197799991583","0.550642200018046","1","1","1","1","1","1","1","1","1"
"260036","img/object_images/Vacuum01.jpg","img/object_images/helmet01.jpg","img/object_images/towel02.jpg","1","1","1","0","0","1","0.550642200018046","0.412832800007891","0.444057299988344","1","1","1","1","1","1","1","1","1"
"260036","img/object_images/towel02.jpg","img/object_images/Vacuum01.jpg","img/object_images/dart01.jpg","1","1","1","1","0","0","0.444057299988344","0.550642200018046","0.507057599985274","1","1","1","1","1","1","1","1","1"
"260036","img/object_images/dart01.jpg","img/object_images/towel02.jpg","img/object_images/gauze01.jpg","1","1","1","0","1","0","0.507057599985274","0.444057299988344","0.458915600000182","1","1","1","1","1","1","1","1","1"
"260036","img/object_images/gauze01.jpg","img/object_images/dart01.jpg","img/object_images/bottle05.jpg","1","1","1","0","0","0","0.458915600000182","0.507057599985274","0.498376600007759","1","1","1","1","1","1","1","1","1"
"260036","img/object_images/bottle05.jpg","img/object_images/gauze01.jpg","img/object_images/watch01.jpg","1","1","1","0","0","0","0.498376600007759","0.458915600000182","0.512387099995976","1","1","1","1","1","1","1","1","1"
"260036","img/object_images/watch01.jpg","img/object_images/bottle05.jpg","img/object_images/stapler.jpg","1","1","1","0","0","1","0.512387099995976","0.498376600007759","0.514926900010323","1","1","1","1","1","1","1","1","1"
"260036","img/object_images/stapler.jpg","img/object_images/watch01.jpg","img/object_images/outlet01.jpg","1","1","1","1","0","0","0.514926900010323","0.512387099995976","0.466495400003623","1","1","1","1","1","1","1","1","1"
"260036","img/object_images/outlet01.jpg","img/object_images/stapler.jpg","img/object_images/bird_house02.jpg","1","1","1","0","1","1","0.466495400003623","0.514926900010323","0.456260100007057","1","1","1","1","1","1","1","1","1"
"260036","img/object_images/bird_house02.jpg","img/object_images/outlet01.jpg","img/object_images/toy04.jpg","1","1","1","1","0","0","0.456260100007057","0.466495400003623","0.449696900002891","1","1","1","1","1","1","1","1","1"
"260036","img/object_images/toy04.jpg","img/object_images/bird_house02.jpg","img/object_images/MetalWire01.jpg","1","1","1","0","1","0","0.449696900002891","0.456260100007057","0.463278000010177","1","1","1","1","1","1","1","1","1"
"260036","img/object_images/MetalWire01.jpg","img/object_images/toy04.jpg","img/object_images/video_game07.jpg","1","1","1","0","0","1","0.463278000010177","0.449696900002891","0.413296299986541","1","1","1","1","1","1","1","1","1"
"260036","img/object_images/video_game07.jpg","img/object_images/MetalWire01.jpg","img/object_images/crown02.jpg","1","1","1","1","0","1","0.413296299986541","0.463278000010177","0.397171100019477","1","1","1","1","1","1","1","1","1"
"260036","img/object_images/crown02.jpg","img/object_images/video_game07.jpg","img/object_images/fridge03.jpg","1","1","0","1","1","0","0.397171100019477","0.413296299986541","0.367230899981223","1","1","1","1","1","1","1","1","1"
"260036","img/object_images/fridge03.jpg","img/object_images/crown02.jpg","img/object_images/judge_gavel01.jpg","0","1","1","0","1","1","0.367230899981223","0.397171100019477","0.355089000018779","1","1","1","1","1","1","1","1","1"
"260036","img/object_images/judge_gavel01.jpg","img/object_images/fridge03.jpg","img/object_images/pot01 (1).jpg","1","0","1","1","0","0","0.355089000018779","0.367230899981223","0.468797400011681","1","1","1","1","1","1","1","1","1"
"260036","img/object_images/pot01 (1).jpg","img/object_images/judge_gavel01.jpg","img/object_images/tool02.jpg","1","1","1","0","1","1","0.468797400011681","0.355089000018779","0.37431889999425","1","1","1","1","1","1","1","1","1"
"260036","img/object_images/tool02.jpg","img/object_images/pot01 (1).jpg","img/object_images/sink01.jpg","1","1","1","1","0","0","0.37431889999425","0.468797400011681","0.424076099996455","1","1","1","1","1","1","1","1","1"
"260036","img/object_images/sink01.jpg","img/object_images/tool02.jpg","img/object_images/Stool01.jpg","1","1","0","0","1","0","0.424076099996455","0.37431889999425","0.382754599995678","1","1","1","1","1","1","1","1","1"
"260036","img/object_images/Stool01.jpg","img/object_images/sink01.jpg","img/object_images/toy03.jpg","0","1","1","0","0","1","0.382754599995678","0.424076099996455","0.429043299984187","1","1","1","1","1","1","1","1","1"
"260036","img/object_images/toy03.jpg","img/object_images/Stool01.jpg",NA,"1","0",NA,"1","0",NA,"0.429043299984187","0.382754599995678",NA,"1","1",NA,"1","1",NA,"1","1",NA
"260036","img/object_images/handcuffs01.jpg",NA,"img/object_images/purse01.jpg","1",NA,"1","0",NA,"1","0.543688599980669",NA,"0.362998399999924","1",NA,"1","1",NA,"1","1",NA,"1"
"260036","img/object_images/purse01.jpg","img/object_images/handcuffs01.jpg","img/object_images/tray01.jpg","1","1","1","1","0","1","0.362998399999924","0.543688599980669","0.336615699983668","1","1","1","1","1","1","1","1","1"
"260036","img/object_images/tray01.jpg","img/object_images/purse01.jpg","img/object_images/projector01.jpg","1","1","1","1","1","0","0.336615699983668","0.362998399999924","0.50998260002234","1","1","1","1","1","1","1","1","1"
"260036","img/object_images/projector01.jpg","img/object_images/tray01.jpg","img/object_images/pan01.jpg","1","1","1","0","1","1","0.50998260002234","0.336615699983668","0.391130800009705","1","1","1","1","1","1","1","1","1"
"260036","img/object_images/pan01.jpg","img/object_images/projector01.jpg","img/object_images/tool07.jpg","1","1","1","1","0","0","0.391130800009705","0.50998260002234","0.312904099992011","1","1","1","1","1","1","1","1","1"
"260036","img/object_images/tool07.jpg","img/object_images/pan01.jpg","img/object_images/exfoliater_brush01.jpg","1","1","1","0","1","0","0.312904099992011","0.391130800009705","0.442980299994815","1","1","1","1","1","1","1","1","1"
"260036","img/object_images/exfoliater_brush01.jpg","img/object_images/tool07.jpg","img/object_images/glasses07.jpg","1","1","1","0","0","1","0.442980299994815","0.312904099992011","0.417435999988811","1","1","1","1","1","1","1","1","1"
"260036","img/object_images/glasses07.jpg","img/object_images/exfoliater_brush01.jpg","img/object_images/fire_extinguisher01.jpg","1","1","1","1","0","0","0.417435999988811","0.442980299994815","0.454669699975057","1","1","1","1","1","1","1","1","1"
"260036","img/object_images/fire_extinguisher01.jpg","img/object_images/glasses07.jpg","img/object_images/colander01.jpg","1","1","1","0","1","0","0.454669699975057","0.417435999988811","0.427188299974659","1","1","1","1","1","1","1","1","1"
"260036","img/object_images/colander01.jpg","img/object_images/fire_extinguisher01.jpg","img/object_images/hair_clips01.jpg","1","1","1","0","0","1","0.427188299974659","0.454669699975057","0.344477500009816","1","1","1","1","1","1","1","1","1"
"260036","img/object_images/hair_clips01.jpg","img/object_images/colander01.jpg","img/object_images/ring03.jpg","1","1","1","1","0","1","0.344477500009816","0.427188299974659","0.455837799992878","1","1","1","1","1","1","1","1","1"
"260036","img/object_images/ring03.jpg","img/object_images/hair_clips01.jpg","img/object_images/gift_box04.jpg","1","1","1","1","1","0","0.455837799992878","0.344477500009816","0.666970199992647","1","1","1","1","1","1","1","1","1"
"260036","img/object_images/gift_box04.jpg","img/object_images/ring03.jpg","img/object_images/tool08.jpg","1","1","1","0","1","0","0.666970199992647","0.455837799992878","0.549229900003411","1","1","1","1","1","1","1","1","1"
"260036","img/object_images/tool08.jpg","img/object_images/gift_box04.jpg","img/object_images/Pottery01.jpg","1","1","0","0","0","0","0.549229900003411","0.666970199992647","0.418090699997265","1","1","1","1","1","1","1","1","1"
"260036","img/object_images/Pottery01.jpg","img/object_images/tool08.jpg","img/object_images/speaker01.jpg","0","1","1","0","0","1","0.418090699997265","0.549229900003411","0.422972100001061","1","1","1","1","1","1","1","1","1"
"260036","img/object_images/speaker01.jpg","img/object_images/Pottery01.jpg","img/object_images/blanket01.jpg","1","0","1","1","0","1","0.422972100001061","0.418090699997265","0.432932099996833","1","1","1","1","1","1","1","1","1"
"260036","img/object_images/blanket01.jpg","img/object_images/speaker01.jpg","img/object_images/basket02.jpg","1","1","1","1","1","0","0.432932099996833","0.422972100001061","0.538922899984755","1","1","1","1","1","1","1","1","1"
"260036","img/object_images/basket02.jpg","img/object_images/blanket01.jpg","img/object_images/faucet01.jpg","1","1","1","0","1","0","0.538922899984755","0.432932099996833","0.540063899970846","1","1","1","1","1","1","1","1","1"
"260036","img/object_images/faucet01.jpg","img/object_images/basket02.jpg","img/object_images/hole_puncher01.jpg","1","1","1","0","0","1","0.540063899970846","0.538922899984755","0.416814000025624","1","1","1","1","1","1","1","1","1"
"260036","img/object_images/hole_puncher01.jpg","img/object_images/faucet01.jpg","img/object_images/bicycle_lock01.jpg","1","1","1","1","0","0","0.416814000025624","0.540063899970846","0.469703600014327","1","1","1","1","1","1","1","1","1"
"260036","img/object_images/bicycle_lock01.jpg","img/object_images/hole_puncher01.jpg","img/object_images/Sprayer01.jpg","1","1","0","0","1","0","0.469703600014327","0.416814000025624","0.398487099999329","1","1","1","1","1","1","1","1","1"
"260036","img/object_images/Sprayer01.jpg","img/object_images/bicycle_lock01.jpg","img/object_images/book01.jpg","0","1","1","0","0","1","0.398487099999329","0.469703600014327","0.541337100003147","1","1","1","1","1","1","1","1","1"
"260036","img/object_images/book01.jpg","img/object_images/Sprayer01.jpg","img/object_images/TrashCan02.jpg","1","0","1","1","0","1","0.541337100003147","0.398487099999329","0.425928099983139","1","1","1","1","1","1","1","1","1"
"260036","img/object_images/TrashCan02.jpg","img/object_images/book01.jpg","img/object_images/jewelry09.jpg","1","1","1","1","1","1","0.425928099983139","0.541337100003147","0.377450600004522","1","1","1","1","1","1","1","1","1"
"260036","img/object_images/jewelry09.jpg","img/object_images/TrashCan02.jpg","img/object_images/cup03.jpg","1","1","1","1","1","1","0.377450600004522","0.425928099983139","0.334102799999528","1","1","1","1","1","1","1","1","1"
"260036","img/object_images/cup03.jpg","img/object_images/jewelry09.jpg","img/object_images/glasses06.jpg","1","1","1","1","1","1","0.334102799999528","0.377450600004522","0.313441899983445","1","1","1","1","1","1","1","1","1"
"260036","img/object_images/glasses06.jpg","img/object_images/cup03.jpg","img/object_images/cellphone02.jpg","1","1","1","1","1","1","0.313441899983445","0.334102799999528","0.335105100006331","1","1","1","1","1","1","1","1","1"
"260036","img/object_images/cellphone02.jpg","img/object_images/glasses06.jpg","img/object_images/Kitchen_Towel.jpg","1","1","0","1","1","0","0.335105100006331","0.313441899983445","0.353460799989989","1","1","1","1","1","1","1","1","1"
"260036","img/object_images/Kitchen_Towel.jpg","img/object_images/cellphone02.jpg","img/object_images/yo_yo01.jpg","0","1","0","0","1","0","0.353460799989989","0.335105100006331","0.433715499995742","1","1","1","1","1","1","1","1","1"
"260036","img/object_images/yo_yo01.jpg","img/object_images/Kitchen_Towel.jpg","img/object_images/Traffic Sign 01.jpg","0","0","1","0","0","0","0.433715499995742","0.353460799989989","0.512476400006562","1","1","1","1","1","1","1","1","1"
"260036","img/object_images/Traffic Sign 01.jpg","img/object_images/yo_yo01.jpg","img/object_images/lighter01.jpg","1","0","1","0","0","1","0.512476400006562","0.433715499995742","0.413289099989925","1","1","1","1","1","1","1","1","1"
"260036","img/object_images/lighter01.jpg","img/object_images/Traffic Sign 01.jpg",NA,"1","1",NA,"1","0",NA,"0.413289099989925","0.512476400006562",NA,"1","1",NA,"1","1",NA,"1","1",NA
"260036","img/object_images/backpack03.jpg",NA,"img/object_images/ball02.jpg","1",NA,"1","1",NA,"1","0.693821399996523",NA,"0.428672700014431","1",NA,"1","1",NA,"1","1",NA,"1"
"260036","img/object_images/ball02.jpg","img/object_images/backpack03.jpg","img/object_images/Lint_Roller02.jpg","1","1","0","1","1","0","0.428672700014431","0.693821399996523","0.321712799981469","1","1","1","1","1","1","1","1","1"
"260036","img/object_images/Lint_Roller02.jpg","img/object_images/ball02.jpg","img/object_images/towels01.jpg","0","1","1","0","1","0","0.321712799981469","0.428672700014431","0.545167100004619","1","1","1","1","1","1","1","1","1"
"260036","img/object_images/towels01.jpg","img/object_images/Lint_Roller02.jpg","img/object_images/gift_box05.jpg","1","0","1","0","0","0","0.545167100004619","0.321712799981469","0.482341599999927","1","1","1","1","1","1","1","1","1"
"260036","img/object_images/gift_box05.jpg","img/object_images/towels01.jpg","img/object_images/robe01.jpg","1","1","1","0","0","1","0.482341599999927","0.545167100004619","0.436866300005931","1","1","1","1","1","1","1","1","1"
"260036","img/object_images/robe01.jpg","img/object_images/gift_box05.jpg","img/object_images/vase01.jpg","1","1","1","1","0","0","0.436866300005931","0.482341599999927","0.452937199996086","1","1","1","1","1","1","1","1","1"
"260036","img/object_images/vase01.jpg","img/object_images/robe01.jpg","img/object_images/lock01.jpg","1","1","1","0","1","0","0.452937199996086","0.436866300005931","0.471503300010227","1","1","1","1","1","1","1","1","1"
"260036","img/object_images/lock01.jpg","img/object_images/vase01.jpg","img/object_images/surf_board01.jpg","1","1","1","0","0","1","0.471503300010227","0.452937199996086","0.437533599993913","1","1","1","1","1","1","1","1","1"
"260036","img/object_images/surf_board01.jpg","img/object_images/lock01.jpg","img/object_images/laptop01.jpg","1","1","1","1","0","0","0.437533599993913","0.471503300010227","0.545928299980005","1","1","1","1","1","1","1","1","1"
"260036","img/object_images/laptop01.jpg","img/object_images/surf_board01.jpg","img/object_images/Vest02.jpg","1","1","1","0","1","0","0.545928299980005","0.437533599993913","0.519401700003073","1","1","1","1","1","1","1","1","1"
"260036","img/object_images/Vest02.jpg","img/object_images/laptop01.jpg","img/object_images/combs01.jpg","1","1","1","0","0","1","0.519401700003073","0.545928299980005","0.433779699989827","1","1","1","1","1","1","1","1","1"
"260036","img/object_images/combs01.jpg","img/object_images/Vest02.jpg","img/object_images/trash_can05.jpg","1","1","1","1","0","1","0.433779699989827","0.519401700003073","0.363831599999685","1","1","1","1","1","1","1","1","1"
"260036","img/object_images/trash_can05.jpg","img/object_images/combs01.jpg","img/object_images/jewel03.jpg","1","1","1","1","1","1","0.363831599999685","0.433779699989827","0.415362300002016","1","1","1","1","1","1","1","1","1"
"260036","img/object_images/jewel03.jpg","img/object_images/trash_can05.jpg","img/object_images/accardion01.jpg","1","1","1","1","1","1","0.415362300002016","0.363831599999685","0.335790299985092","1","1","1","1","1","1","1","1","1"
"260036","img/object_images/accardion01.jpg","img/object_images/jewel03.jpg","img/object_images/helmet02.jpg","1","1","0","1","1","0","0.335790299985092","0.415362300002016","0.447898300015368","1","1","1","1","1","1","1","1","1"
"260036","img/object_images/helmet02.jpg","img/object_images/accardion01.jpg","img/object_images/hair_dryer01.jpg","0","1","1","0","1","0","0.447898300015368","0.335790299985092","0.440573999978369","1","1","1","1","1","1","1","1","1"
"260036","img/object_images/hair_dryer01.jpg","img/object_images/helmet02.jpg","img/object_images/umbrella01.jpg","1","0","1","0","0","0","0.440573999978369","0.447898300015368","0.463151199975982","1","1","1","1","1","1","1","1","1"
"260036","img/object_images/umbrella01.jpg","img/object_images/hair_dryer01.jpg","img/object_images/hair_brush02.jpg","1","1","0","0","0","0","0.463151199975982","0.440573999978369","0.40062339999713","1","1","1","1","1","1","1","1","1"
"260036","img/object_images/hair_brush02.jpg","img/object_images/umbrella01.jpg","img/object_images/chess_piece01.jpg","0","1","1","0","0","0","0.40062339999713","0.463151199975982","0.416480000014417","1","1","1","1","1","1","1","1","1"
"260036","img/object_images/chess_piece01.jpg","img/object_images/hair_brush02.jpg","img/object_images/spatula02.jpg","1","0","1","0","0","1","0.416480000014417","0.40062339999713","0.454139500012388","1","1","1","1","1","1","1","1","1"
"260036","img/object_images/spatula02.jpg","img/object_images/chess_piece01.jpg","img/object_images/laptop03.jpg","1","1","1","1","0","1","0.454139500012388","0.416480000014417","0.398308100004215","1","1","1","1","1","1","1","1","1"
"260036","img/object_images/laptop03.jpg","img/object_images/spatula02.jpg","img/object_images/pitcher05.jpg","1","1","1","1","1","0","0.398308100004215","0.454139500012388","0.455685499997344","1","1","1","1","1","1","1","1","1"
"260036","img/object_images/pitcher05.jpg","img/object_images/laptop03.jpg","img/object_images/microphone03.jpg","1","1","1","0","1","1","0.455685499997344","0.398308100004215","0.416195600002538","1","1","1","1","1","1","1","1","1"
"260036","img/object_images/microphone03.jpg","img/object_images/pitcher05.jpg","img/object_images/calculator01.jpg","1","1","1","1","0","1","0.416195600002538","0.455685499997344","0.435503499989863","1","1","1","1","1","1","1","1","1"
"260036","img/object_images/calculator01.jpg","img/object_images/microphone03.jpg","img/object_images/chair02.jpg","1","1","1","1","1","1","0.435503499989863","0.416195600002538","0.425493899994763","1","1","1","1","1","1","1","1","1"
"260036","img/object_images/chair02.jpg","img/object_images/calculator01.jpg","img/object_images/bucket02.jpg","1","1","1","1","1","1","0.425493899994763","0.435503499989863","0.404742700018687","1","1","1","1","1","1","1","1","1"
"260036","img/object_images/bucket02.jpg","img/object_images/chair02.jpg","img/object_images/shoes08.jpg","1","1","1","1","1","1","0.404742700018687","0.425493899994763","0.403952199994819","1","1","1","1","1","1","1","1","1"
"260036","img/object_images/shoes08.jpg","img/object_images/bucket02.jpg","img/object_images/fan04.jpg","1","1","1","1","1","0","0.403952199994819","0.404742700018687","0.552278499992099","1","1","1","1","1","1","1","1","1"
"260036","img/object_images/fan04.jpg","img/object_images/shoes08.jpg","img/object_images/toy05.jpg","1","1","1","0","1","0","0.552278499992099","0.403952199994819","0.380065599980298","1","1","1","1","1","1","1","1","1"
"260036","img/object_images/toy05.jpg","img/object_images/fan04.jpg","img/object_images/stove01.jpg","1","1","1","0","0","0","0.380065599980298","0.552278499992099","0.43999129999429","1","1","1","1","1","1","1","1","1"
"260036","img/object_images/stove01.jpg","img/object_images/toy05.jpg","img/object_images/trash_can03.jpg","1","1","1","0","0","1","0.43999129999429","0.380065599980298","0.365095099987229","1","1","1","1","1","1","1","1","1"
"260036","img/object_images/trash_can03.jpg","img/object_images/stove01.jpg",NA,"1","1",NA,"1","0",NA,"0.365095099987229","0.43999129999429",NA,"1","1",NA,"1","1",NA,"1","1",NA
"260036","img/object_images/tool19.jpg",NA,"img/object_images/piggy_bank01.jpg","1",NA,"1","1",NA,"1","0.461155800003326",NA,"0.393047299992759","1",NA,"1","1",NA,"1","1",NA,"1"
"260036","img/object_images/piggy_bank01.jpg","img/object_images/tool19.jpg","img/object_images/tie02.jpg","1","1","1","1","1","0","0.393047299992759","0.461155800003326","0.484275099996012","1","1","1","1","1","1","1","1","1"
"260036","img/object_images/tie02.jpg","img/object_images/piggy_bank01.jpg","img/object_images/cellphone03.jpg","1","1","0","0","1","0","0.484275099996012","0.393047299992759","0.405391700012842","1","1","1","1","1","1","1","1","1"
"260036","img/object_images/cellphone03.jpg","img/object_images/tie02.jpg","img/object_images/bottle09.jpg","0","1","0","0","0","0","0.405391700012842","0.484275099996012","0.423371500015492","1","1","1","1","1","1","1","1","1"
"260036","img/object_images/bottle09.jpg","img/object_images/cellphone03.jpg","img/object_images/perfume02.jpg","0","0","1","0","0","0","0.423371500015492","0.405391700012842","0.599238599999808","1","1","1","1","1","1","1","1","1"
"260036","img/object_images/perfume02.jpg","img/object_images/bottle09.jpg","img/object_images/chair03.jpg","1","0","1","0","0","0","0.599238599999808","0.423371500015492","0.464950099994894","1","1","1","1","1","1","1","1","1"
"260036","img/object_images/chair03.jpg","img/object_images/perfume02.jpg","img/object_images/knit01.jpg","1","1","1","0","0","0","0.464950099994894","0.599238599999808","0.473937000002479","1","1","1","1","1","1","1","1","1"
"260036","img/object_images/knit01.jpg","img/object_images/chair03.jpg","img/object_images/dog_leash01.jpg","1","1","0","0","0","0","0.473937000002479","0.464950099994894","0.378514599986374","1","1","1","1","1","1","1","1","1"
"260036","img/object_images/dog_leash01.jpg","img/object_images/knit01.jpg","img/object_images/scoreboard01.jpg","0","1","1","0","0","1","0.378514599986374","0.473937000002479","0.556371499988018","1","1","1","1","1","1","1","1","1"
"260036","img/object_images/scoreboard01.jpg","img/object_images/dog_leash01.jpg","img/object_images/bicycle01.jpg","1","0","1","1","0","1","0.556371499988018","0.378514599986374","0.457536900008563","1","1","1","1","1","1","1","1","1"
"260036","img/object_images/bicycle01.jpg","img/object_images/scoreboard01.jpg","img/object_images/bottle10.jpg","1","1","1","1","1","1","0.457536900008563","0.556371499988018","0.560578200005693","1","1","1","1","1","1","1","1","1"
"260036","img/object_images/bottle10.jpg","img/object_images/bicycle01.jpg","img/object_images/helmet04.jpg","1","1","1","1","1","1","0.560578200005693","0.457536900008563","0.514361299981829","1","1","1","1","1","1","1","1","1"
"260036","img/object_images/helmet04.jpg","img/object_images/bottle10.jpg","img/object_images/water_scooter01.jpg","1","1","1","1","1","1","0.514361299981829","0.560578200005693","0.4296786999912","1","1","1","1","1","1","1","1","1"
"260036","img/object_images/water_scooter01.jpg","img/object_images/helmet04.jpg","img/object_images/hat06.jpg","1","1","1","1","1","0","0.4296786999912","0.514361299981829","0.497642600006657","1","1","1","1","1","1","1","1","1"
"260036","img/object_images/hat06.jpg","img/object_images/water_scooter01.jpg","img/object_images/audio_port01.jpg","1","1","1","0","1","1","0.497642600006657","0.4296786999912","0.336160100006964","1","1","1","1","1","1","1","1","1"
"260036","img/object_images/audio_port01.jpg","img/object_images/hat06.jpg","img/object_images/toaster01.jpg","1","1","1","1","0","1","0.336160100006964","0.497642600006657","0.421679799997946","1","1","1","1","1","1","1","1","1"
"260036","img/object_images/toaster01.jpg","img/object_images/audio_port01.jpg","img/object_images/shoes07.jpg","1","1","1","1","1","0","0.421679799997946","0.336160100006964","0.474029100005282","1","1","1","1","1","1","1","1","1"
"260036","img/object_images/shoes07.jpg","img/object_images/toaster01.jpg","img/object_images/WoodBox01.jpg","1","1","1","0","1","0","0.474029100005282","0.421679799997946","0.512362099980237","1","1","1","1","1","1","1","1","1"
"260036","img/object_images/WoodBox01.jpg","img/object_images/shoes07.jpg","img/object_images/hot_air_balloon02.jpg","1","1","1","0","0","0","0.512362099980237","0.474029100005282","0.512710000009974","1","1","1","1","1","1","1","1","1"
"260036","img/object_images/hot_air_balloon02.jpg","img/object_images/WoodBox01.jpg","img/object_images/fan02.jpg","1","1","1","0","0","0","0.512710000009974","0.512362099980237","0.512117799982661","1","1","1","1","1","1","1","1","1"
"260036","img/object_images/fan02.jpg","img/object_images/hot_air_balloon02.jpg","img/object_images/coloring_pencil02.jpg","1","1","1","0","0","0","0.512117799982661","0.512710000009974","0.593042499996955","1","1","1","1","1","1","1","1","1"
"260036","img/object_images/coloring_pencil02.jpg","img/object_images/fan02.jpg","img/object_images/flask01.jpg","1","1","1","0","0","0","0.593042499996955","0.512117799982661","0.447995599999558","1","1","1","1","1","1","1","1","1"
"260036","img/object_images/flask01.jpg","img/object_images/coloring_pencil02.jpg","img/object_images/pen05.jpg","1","1","1","0","0","0","0.447995599999558","0.593042499996955","0.444020599970827","1","1","1","1","1","1","1","1","2"
"260036","img/object_images/pen05.jpg","img/object_images/flask01.jpg","img/object_images/wagon_cart03.jpg","1","1","1","0","0","1","0.444020599970827","0.447995599999558","0.448931299994001","1","1","1","1","1","1","2","1","1"
"260036","img/object_images/wagon_cart03.jpg","img/object_images/pen05.jpg","img/object_images/camera_lens01.jpg","1","1","1","1","0","1","0.448931299994001","0.444020599970827","0.420660200004932","1","1","1","1","1","1","1","2","1"
"260036","img/object_images/camera_lens01.jpg","img/object_images/wagon_cart03.jpg","img/object_images/bean_bag02.jpg","1","1","1","1","1","1","0.420660200004932","0.448931299994001","0.387215199996717","1","1","1","1","1","1","1","1","1"
"260036","img/object_images/bean_bag02.jpg","img/object_images/camera_lens01.jpg","img/object_images/boat02.jpg","1","1","1","1","1","1","0.387215199996717","0.420660200004932","0.38157160000992","1","1","1","1","1","1","1","1","1"
"260036","img/object_images/boat02.jpg","img/object_images/bean_bag02.jpg","img/object_images/bottle02.jpg","1","1","1","1","1","1","0.38157160000992","0.387215199996717","0.325501399987843","1","1","1","1","1","1","1","1","1"
"260036","img/object_images/bottle02.jpg","img/object_images/boat02.jpg","img/object_images/purse04.jpg","1","1","1","1","1","1","0.325501399987843","0.38157160000992","0.322972099995241","1","1","1","1","1","1","1","1","1"
"260036","img/object_images/purse04.jpg","img/object_images/bottle02.jpg","img/object_images/boat_toy10.jpg","1","1","0","1","1","0","0.322972099995241","0.325501399987843","0.393283800018253","1","1","1","1","1","1","1","1","1"
"260036","img/object_images/boat_toy10.jpg","img/object_images/purse04.jpg","img/object_images/toilet_paper_dispenser01.jpg","0","1","1","0","1","1","0.393283800018253","0.322972099995241","0.35702900000615","1","1","1","1","1","1","1","1","1"
"260036","img/object_images/toilet_paper_dispenser01.jpg","img/object_images/boat_toy10.jpg",NA,"1","0",NA,"1","0",NA,"0.35702900000615","0.393283800018253",NA,"1","1",NA,"1","1",NA,"1","1",NA
"260036","img/object_images/pen03.jpg",NA,"img/object_images/bottle01.jpg","1",NA,"1","0",NA,"0","0.534083000005921",NA,"0.572818300017389","1",NA,"1","1",NA,"1","1",NA,"1"
"260036","img/object_images/bottle01.jpg","img/object_images/pen03.jpg","img/object_images/paint_brush04.jpg","1","1","1","0","0","0","0.572818300017389","0.534083000005921","0.448715699982131","1","1","1","1","1","1","1","1","1"
"260036","img/object_images/paint_brush04.jpg","img/object_images/bottle01.jpg","img/object_images/Staples01.jpg","1","1","1","0","0","1","0.448715699982131","0.572818300017389","0.362217199988663","1","1","1","1","1","1","1","1","1"
"260036","img/object_images/Staples01.jpg","img/object_images/paint_brush04.jpg","img/object_images/chair05.jpg","1","1","1","1","0","0","0.362217199988663","0.448715699982131","0.480223099992145","1","1","1","1","1","1","1","1","1"
"260036","img/object_images/chair05.jpg","img/object_images/Staples01.jpg","img/object_images/knit05.jpg","1","1","1","0","1","1","0.480223099992145","0.362217199988663","0.474729000008665","1","1","1","1","1","1","1","1","1"
"260036","img/object_images/knit05.jpg","img/object_images/chair05.jpg","img/object_images/clip03.jpg","1","1","0","1","0","0","0.474729000008665","0.480223099992145","0.381905399990501","1","1","1","1","1","1","1","1","1"
"260036","img/object_images/clip03.jpg","img/object_images/knit05.jpg","img/object_images/motorcycle01.jpg","0","1","1","0","1","1","0.381905399990501","0.474729000008665","0.47682100001839","1","1","1","1","1","1","1","1","1"
"260036","img/object_images/motorcycle01.jpg","img/object_images/clip03.jpg","img/object_images/clock02.jpg","1","0","1","1","0","0","0.47682100001839","0.381905399990501","0.546575000014855","1","1","1","1","1","1","1","1","1"
"260036","img/object_images/clock02.jpg","img/object_images/motorcycle01.jpg","img/object_images/usb02.jpg","1","1","1","0","1","0","0.546575000014855","0.47682100001839","0.549136599991471","1","1","1","1","1","1","1","1","1"
"260036","img/object_images/usb02.jpg","img/object_images/clock02.jpg","img/object_images/ear_bud01.jpg","1","1","1","0","0","1","0.549136599991471","0.546575000014855","0.403687700018054","1","1","1","1","1","1","1","1","1"
"260036","img/object_images/ear_bud01.jpg","img/object_images/usb02.jpg","img/object_images/cellphone01.jpg","1","1","1","1","0","1","0.403687700018054","0.549136599991471","0.34340440001688","1","1","1","1","1","1","1","1","1"
"260036","img/object_images/cellphone01.jpg","img/object_images/ear_bud01.jpg","img/object_images/knife04.jpg","1","1","1","1","1","1","0.34340440001688","0.403687700018054","0.41742039998644","1","1","1","1","1","1","1","1","1"
"260036","img/object_images/knife04.jpg","img/object_images/cellphone01.jpg","img/object_images/floppy_disk02.jpg","1","1","1","1","1","0","0.41742039998644","0.34340440001688","0.361095100000966","1","1","1","1","1","1","1","1","1"
"260036","img/object_images/floppy_disk02.jpg","img/object_images/knife04.jpg","img/object_images/Thermometer01.jpg","1","1","0","0","1","0","0.361095100000966","0.41742039998644","0.346967099991161","1","1","1","1","1","1","1","1","1"
"260036","img/object_images/Thermometer01.jpg","img/object_images/floppy_disk02.jpg","img/object_images/crutches02.jpg","0","1","1","0","0","0","0.346967099991161","0.361095100000966","0.538080799975432","1","1","1","1","1","1","1","1","1"
"260036","img/object_images/crutches02.jpg","img/object_images/Thermometer01.jpg","img/object_images/note_book01.jpg","1","0","1","0","0","0","0.538080799975432","0.346967099991161","0.560952200001338","1","1","1","1","1","1","1","1","1"
"260036","img/object_images/note_book01.jpg","img/object_images/crutches02.jpg","img/object_images/hammer03.jpg","1","1","1","0","0","1","0.560952200001338","0.538080799975432","0.416443599999184","1","1","1","1","1","1","1","1","1"
"260036","img/object_images/hammer03.jpg","img/object_images/note_book01.jpg","img/object_images/pitcher01.jpg","1","1","1","1","0","0","0.416443599999184","0.560952200001338","0.729947000014363","1","1","1","1","1","1","1","1","1"
"260036","img/object_images/pitcher01.jpg","img/object_images/hammer03.jpg","img/object_images/book03.jpg","1","1","1","0","1","1","0.729947000014363","0.416443599999184","0.457680000021355","1","1","1","1","1","1","1","1","1"
"260036","img/object_images/book03.jpg","img/object_images/pitcher01.jpg","img/object_images/pillows01.jpg","1","1","1","1","0","1","0.457680000021355","0.729947000014363","0.37743789999513","1","1","1","1","1","1","1","1","1"
"260036","img/object_images/pillows01.jpg","img/object_images/book03.jpg","img/object_images/wire02.jpg","1","1","1","1","1","1","0.37743789999513","0.457680000021355","0.389482500002487","1","1","1","1","1","1","1","1","1"
"260036","img/object_images/wire02.jpg","img/object_images/pillows01.jpg","img/object_images/tv02.jpg","1","1","1","1","1","0","0.389482500002487","0.37743789999513","0.491197299998021","1","1","1","1","1","1","1","1","1"
"260036","img/object_images/tv02.jpg","img/object_images/wire02.jpg","img/object_images/retainer01.jpg","1","1","1","0","1","0","0.491197299998021","0.389482500002487","0.519630099995993","1","1","1","1","1","1","1","1","1"
"260036","img/object_images/retainer01.jpg","img/object_images/tv02.jpg","img/object_images/compass01.jpg","1","1","1","0","0","1","0.519630099995993","0.491197299998021","0.40314650000073","1","1","1","1","1","1","1","1","1"
"260036","img/object_images/compass01.jpg","img/object_images/retainer01.jpg","img/object_images/microscope01.jpg","1","1","1","1","0","0","0.40314650000073","0.519630099995993","0.467555699986406","1","1","1","1","1","1","1","1","1"
"260036","img/object_images/microscope01.jpg","img/object_images/compass01.jpg","img/object_images/Oven01.jpg","1","1","1","0","1","1","0.467555699986406","0.40314650000073","0.433687899989309","1","1","1","1","1","1","1","1","1"
"260036","img/object_images/Oven01.jpg","img/object_images/microscope01.jpg","img/object_images/lid01.jpg","1","1","1","1","0","1","0.433687899989309","0.467555699986406","0.389780299999984","1","1","1","1","1","1","1","1","1"
"260036","img/object_images/lid01.jpg","img/object_images/Oven01.jpg","img/object_images/chess_piece02.jpg","1","1","1","1","1","1","0.389780299999984","0.433687899989309","0.333437599998433","1","1","1","1","1","1","1","1","1"
"260036","img/object_images/chess_piece02.jpg","img/object_images/lid01.jpg","img/object_images/bell02.jpg","1","1","1","1","1","0","0.333437599998433","0.389780299999984","0.303343299980043","1","1","1","1","1","1","1","1","1"
"260036","img/object_images/bell02.jpg","img/object_images/chess_piece02.jpg","img/object_images/tennis_racket02.jpg","1","1","1","0","1","1","0.303343299980043","0.333437599998433","0.365957200003322","1","1","1","1","1","1","1","1","1"
"260036","img/object_images/tennis_racket02.jpg","img/object_images/bell02.jpg","img/object_images/floppy_disk03.jpg","1","1","1","1","0","1","0.365957200003322","0.303343299980043","0.327280599973164","1","1","1","1","1","1","1","1","1"
"260036","img/object_images/floppy_disk03.jpg","img/object_images/tennis_racket02.jpg",NA,"1","1",NA,"1","1",NA,"0.327280599973164","0.365957200003322",NA,"1","1",NA,"1","1",NA,"1","1",NA
"260036","img/object_images/basketball_hoop02.jpg",NA,"img/object_images/lantern01.jpg","0",NA,"1","0",NA,"1","0.641026500001317",NA,"0.573963400005596","1",NA,"1","1",NA,"1","1",NA,"1"
"260036","img/object_images/lantern01.jpg","img/object_images/basketball_hoop02.jpg","img/object_images/chair01.jpg","1","0","0","1","0","0","0.573963400005596","0.641026500001317","0.379139399999986","1","1","1","1","1","1","1","1","1"
"260036","img/object_images/chair01.jpg","img/object_images/lantern01.jpg","img/object_images/razor03.jpg","0","1","1","0","1","0","0.379139399999986","0.573963400005596","0.578098700003466","1","1","1","1","1","1","1","1","1"
"260036","img/object_images/razor03.jpg","img/object_images/chair01.jpg","img/object_images/broom01.jpg","1","0","1","0","0","1","0.578098700003466","0.379139399999986","0.424037099990528","1","1","1","1","1","1","1","1","1"
"260036","img/object_images/broom01.jpg","img/object_images/razor03.jpg","img/object_images/container01.jpg","1","1","1","1","0","0","0.424037099990528","0.578098700003466","0.577405700023519","1","1","1","1","1","1","1","1","1"
"260036","img/object_images/container01.jpg","img/object_images/broom01.jpg","img/object_images/ironing_table02.jpg","1","1","1","0","1","0","0.577405700023519","0.424037099990528","0.403824800014263","1","1","1","1","1","1","1","1","1"
"260036","img/object_images/ironing_table02.jpg","img/object_images/container01.jpg","img/object_images/pitcher03.jpg","1","1","1","0","0","1","0.403824800014263","0.577405700023519","0.419779499992728","1","1","1","1","1","1","1","1","1"
"260036","img/object_images/pitcher03.jpg","img/object_images/ironing_table02.jpg","img/object_images/hat02.jpg","1","1","1","1","0","0","0.419779499992728","0.403824800014263","0.444690800009994","1","1","1","1","1","1","1","1","1"
"260036","img/object_images/hat02.jpg","img/object_images/pitcher03.jpg","img/object_images/tie01.jpg","1","1","1","0","1","0","0.444690800009994","0.419779499992728","0.527322500012815","1","1","1","1","1","1","1","1","1"
"260036","img/object_images/tie01.jpg","img/object_images/hat02.jpg","img/object_images/decorative02.jpg","1","1","1","0","0","0","0.527322500012815","0.444690800009994","0.615509800001746","1","1","1","1","1","1","1","1","1"
"260036","img/object_images/decorative02.jpg","img/object_images/tie01.jpg","img/object_images/guitar01.jpg","1","1","1","0","0","1","0.615509800001746","0.527322500012815","0.517128300009063","1","1","1","1","1","1","1","1","1"
"260036","img/object_images/guitar01.jpg","img/object_images/decorative02.jpg","img/object_images/cochlear_implant01.jpg","1","1","1","1","0","0","0.517128300009063","0.615509800001746","0.563508299994282","1","1","1","1","1","1","1","1","1"
"260036","img/object_images/cochlear_implant01.jpg","img/object_images/guitar01.jpg","img/object_images/Recycling01.jpg","1","1","1","0","1","1","0.563508299994282","0.517128300009063","0.771248200006085","1","1","1","1","1","1","1","1","1"
"260036","img/object_images/Recycling01.jpg","img/object_images/cochlear_implant01.jpg","img/object_images/couch04.jpg","1","1","1","1","0","1","0.771248200006085","0.563508299994282","0.50248290001764","1","1","1","1","1","1","1","1","1"
"260036","img/object_images/couch04.jpg","img/object_images/Recycling01.jpg","img/object_images/helmet05.jpg","1","1","1","1","1","1","0.50248290001764","0.771248200006085","0.356461500021396","1","1","1","1","1","1","1","1","1"
"260036","img/object_images/helmet05.jpg","img/object_images/couch04.jpg","img/object_images/car02.jpg","1","1","1","1","1","0","0.356461500021396","0.50248290001764","0.528771399985999","1","1","1","1","1","1","1","1","1"
"260036","img/object_images/car02.jpg","img/object_images/helmet05.jpg","img/object_images/airfryer01.jpg","1","1","0","0","1","0","0.528771399985999","0.356461500021396","0.370001100003719","1","1","1","1","1","1","1","1","1"
"260036","img/object_images/airfryer01.jpg","img/object_images/car02.jpg","img/object_images/Woopie01.jpg","0","1","1","0","0","1","0.370001100003719","0.528771399985999","0.401238499995088","1","1","1","1","1","1","1","1","1"
"260036","img/object_images/Woopie01.jpg","img/object_images/airfryer01.jpg","img/object_images/Wisk01.jpg","1","0","1","1","0","1","0.401238499995088","0.370001100003719","0.359752699994715","1","1","1","1","1","1","1","1","1"
"260036","img/object_images/Wisk01.jpg","img/object_images/Woopie01.jpg","img/object_images/brief_case02.jpg","1","1","1","1","1","1","0.359752699994715","0.401238499995088","0.412151199998334","1","1","1","1","1","1","1","1","1"
"260036","img/object_images/brief_case02.jpg","img/object_images/Wisk01.jpg","img/object_images/drone02.jpg","1","1","1","1","1","0","0.412151199998334","0.359752699994715","0.33715979999397","1","1","1","1","1","1","1","1","1"
"260036","img/object_images/drone02.jpg","img/object_images/brief_case02.jpg","img/object_images/pot01.jpg","1","1","1","0","1","0","0.33715979999397","0.412151199998334","0.450342600001022","1","1","1","1","1","1","1","1","1"
"260036","img/object_images/pot01.jpg","img/object_images/drone02.jpg","img/object_images/lamp01.jpg","1","1","1","0","0","1","0.450342600001022","0.33715979999397","0.540496400004486","1","1","1","1","1","1","1","1","1"
"260036","img/object_images/lamp01.jpg","img/object_images/pot01.jpg","img/object_images/ball01.jpg","1","1","1","1","0","1","0.540496400004486","0.450342600001022","0.42764479998732","1","1","1","1","1","1","1","1","1"
"260036","img/object_images/ball01.jpg","img/object_images/lamp01.jpg","img/object_images/video_game06.jpg","1","1","1","1","1","0","0.42764479998732","0.540496400004486","0.485765600024024","1","1","1","1","1","1","1","1","1"
"260036","img/object_images/video_game06.jpg","img/object_images/ball01.jpg","img/object_images/soap01.jpg","1","1","1","0","1","0","0.485765600024024","0.42764479998732","0.491771700006211","1","1","1","1","1","1","1","1","1"
"260036","img/object_images/soap01.jpg","img/object_images/video_game06.jpg","img/object_images/bottle12.jpg","1","1","1","0","0","1","0.491771700006211","0.485765600024024","0.477338700002292","1","1","1","1","1","1","1","1","1"
"260036","img/object_images/bottle12.jpg","img/object_images/soap01.jpg","img/object_images/toilet_paper01.jpg","1","1","1","1","0","1","0.477338700002292","0.491771700006211","0.372257999988506","1","1","1","1","1","1","1","1","1"
"260036","img/object_images/toilet_paper01.jpg","img/object_images/bottle12.jpg","img/object_images/gloves05.jpg","1","1","1","1","1","1","0.372257999988506","0.477338700002292","0.351382099994225","1","1","1","1","1","1","1","1","1"
"260036","img/object_images/gloves05.jpg","img/object_images/toilet_paper01.jpg","img/object_images/toy_train02.jpg","1","1","1","1","1","1","0.351382099994225","0.372257999988506","0.380526699998882","1","1","1","1","1","1","1","1","1"
"260036","img/object_images/toy_train02.jpg","img/object_images/gloves05.jpg","img/object_images/brief_case01.jpg","1","1","0","1","1","0","0.380526699998882","0.351382099994225","0.448071899998467","1","1","1","1","1","1","1","1","1"
"260036","img/object_images/brief_case01.jpg","img/object_images/toy_train02.jpg",NA,"0","1",NA,"0","1",NA,"0.448071899998467","0.380526699998882",NA,"1","1",NA,"1","1",NA,"1","1",NA
"260036","img/object_images/dresser04.jpg",NA,"img/object_images/gift_box03.jpg","0",NA,"1","0",NA,"0","0.634739300003275",NA,"0.576564599992707","1",NA,"1","1",NA,"1","1",NA,"1"
"260036","img/object_images/gift_box03.jpg","img/object_images/dresser04.jpg","img/object_images/ironing_table01.jpg","1","0","1","0","0","0","0.576564599992707","0.634739300003275","0.477454699983355","1","1","1","1","1","1","1","1","1"
"260036","img/object_images/ironing_table01.jpg","img/object_images/gift_box03.jpg","img/object_images/golf_ball03.jpg","1","1","1","0","0","1","0.477454699983355","0.576564599992707","0.576828199991724","1","1","1","1","1","1","1","1","1"
"260036","img/object_images/golf_ball03.jpg","img/object_images/ironing_table01.jpg","img/object_images/gift_box02.jpg","1","1","1","1","0","1","0.576828199991724","0.477454699983355","0.381034499994712","1","1","1","1","1","1","1","1","1"
"260036","img/object_images/gift_box02.jpg","img/object_images/golf_ball03.jpg","img/object_images/camera07.jpg","1","1","0","1","1","1","0.381034499994712","0.576828199991724","0.522262599988608","1","1","1","1","1","1","1","1","2"
"260036","img/object_images/camera07.jpg","img/object_images/gift_box02.jpg","img/object_images/vga_port 01.jpg","0","1","1","1","1","0","0.522262599988608","0.381034499994712","0.584042599977693","1","1","1","1","1","1","2","1","1"
"260036","img/object_images/vga_port 01.jpg","img/object_images/camera07.jpg","img/object_images/measuring_tape02.jpg","1","0","1","0","1","1","0.584042599977693","0.522262599988608","0.871990900021046","1","1","1","1","1","1","1","2","1"
"260036","img/object_images/measuring_tape02.jpg","img/object_images/vga_port 01.jpg","img/object_images/lawn_mower01.jpg","1","1","1","1","0","1","0.871990900021046","0.584042599977693","0.364667600020766","1","1","1","1","1","1","1","1","1"
"260036","img/object_images/lawn_mower01.jpg","img/object_images/measuring_tape02.jpg","img/object_images/Witchhat01.jpg","1","1","1","1","1","1","0.364667600020766","0.871990900021046","0.461556900001597","1","1","1","1","1","1","1","1","1"
"260036","img/object_images/Witchhat01.jpg","img/object_images/lawn_mower01.jpg","img/object_images/wallet02.jpg","1","1","1","1","1","1","0.461556900001597","0.364667600020766","0.463578199996846","1","1","1","1","1","1","1","1","1"
"260036","img/object_images/wallet02.jpg","img/object_images/Witchhat01.jpg","img/object_images/bath_tub01.jpg","1","1","1","1","1","0","0.463578199996846","0.461556900001597","0.53156350000063","1","1","1","1","1","1","1","1","1"
"260036","img/object_images/bath_tub01.jpg","img/object_images/wallet02.jpg","img/object_images/bow_tie01.jpg","1","1","1","0","1","0","0.53156350000063","0.463578199996846","0.350733900006162","1","1","1","1","1","1","1","1","1"
"260036","img/object_images/bow_tie01.jpg","img/object_images/bath_tub01.jpg","img/object_images/funnel01.jpg","1","1","1","0","0","0","0.350733900006162","0.53156350000063","0.502556299994467","1","1","1","1","1","1","1","1","1"
"260036","img/object_images/funnel01.jpg","img/object_images/bow_tie01.jpg","img/object_images/paper_cup01.jpg","1","1","1","0","0","0","0.502556299994467","0.350733900006162","0.481002900021849","1","1","1","1","1","1","1","1","1"
"260036","img/object_images/paper_cup01.jpg","img/object_images/funnel01.jpg","img/object_images/Screws01.jpg","1","1","1","0","0","1","0.481002900021849","0.502556299994467","0.339443799981382","1","1","1","1","1","1","1","1","1"
"260036","img/object_images/Screws01.jpg","img/object_images/paper_cup01.jpg","img/object_images/clip02.jpg","1","1","1","1","0","1","0.339443799981382","0.481002900021849","0.362922400003299","1","1","1","1","1","1","1","1","1"
"260036","img/object_images/clip02.jpg","img/object_images/Screws01.jpg","img/object_images/couch03.jpg","1","1","0","1","1","0","0.362922400003299","0.339443799981382","0.418071399995824","1","1","1","1","1","1","1","1","1"
"260036","img/object_images/couch03.jpg","img/object_images/clip02.jpg","img/object_images/bow_tie02.jpg","0","1","1","0","1","0","0.418071399995824","0.362922400003299","0.466000799991889","1","1","1","1","1","1","1","1","1"
"260036","img/object_images/bow_tie02.jpg","img/object_images/couch03.jpg","img/object_images/fork03.jpg","1","0","1","0","0","1","0.466000799991889","0.418071399995824","0.340376899985131","1","1","1","1","1","1","1","1","1"
"260036","img/object_images/fork03.jpg","img/object_images/bow_tie02.jpg","img/object_images/gift_box01.jpg","1","1","1","1","0","1","0.340376899985131","0.466000799991889","0.528499000007287","1","1","1","1","1","1","1","1","1"
"260036","img/object_images/gift_box01.jpg","img/object_images/fork03.jpg","img/object_images/socks02.jpg","1","1","0","1","1","0","0.528499000007287","0.340376899985131","0.519985699997051","1","1","1","1","1","1","1","1","1"
"260036","img/object_images/socks02.jpg","img/object_images/gift_box01.jpg","img/object_images/pitcher02.jpg","0","1","1","0","1","1","0.519985699997051","0.528499000007287","0.352684700017562","1","1","1","1","1","1","1","1","1"
"260036","img/object_images/pitcher02.jpg","img/object_images/socks02.jpg","img/object_images/balloon01.jpg","1","0","0","1","0","0","0.352684700017562","0.519985699997051","0.378235899988795","1","1","1","1","1","1","1","1","1"
"260036","img/object_images/balloon01.jpg","img/object_images/pitcher02.jpg","img/object_images/hammer01.jpg","0","1","1","0","1","0","0.378235899988795","0.352684700017562","0.555159899988212","1","1","1","1","1","1","1","1","1"
"260036","img/object_images/hammer01.jpg","img/object_images/balloon01.jpg","img/object_images/jacket03.jpg","1","0","1","0","0","0","0.555159899988212","0.378235899988795","0.559240899980068","1","1","1","1","1","1","1","1","1"
"260036","img/object_images/jacket03.jpg","img/object_images/hammer01.jpg","img/object_images/sleeping_bag01.jpg","1","1","1","0","0","0","0.559240899980068","0.555159899988212","0.353623600007268","1","1","1","1","1","1","1","1","1"
"260036","img/object_images/sleeping_bag01.jpg","img/object_images/jacket03.jpg","img/object_images/coloring_pencil01.jpg","1","1","1","0","0","1","0.353623600007268","0.559240899980068","0.427899700007401","1","1","1","1","1","1","1","1","1"
"260036","img/object_images/coloring_pencil01.jpg","img/object_images/sleeping_bag01.jpg","img/object_images/handkerchief01.jpg","1","1","1","1","0","0","0.427899700007401","0.353623600007268","0.445482099981746","1","1","1","1","1","1","1","1","1"
"260036","img/object_images/handkerchief01.jpg","img/object_images/coloring_pencil01.jpg","img/object_images/lock04.jpg","1","1","1","0","1","1","0.445482099981746","0.427899700007401","0.467241700011073","1","1","1","1","1","1","1","1","1"
"260036","img/object_images/lock04.jpg","img/object_images/handkerchief01.jpg","img/object_images/jewelry01.jpg","1","1","1","1","0","1","0.467241700011073","0.445482099981746","0.519175199995516","1","1","1","1","1","1","1","1","1"
"260036","img/object_images/jewelry01.jpg","img/object_images/lock04.jpg","img/object_images/grater01.jpg","1","1","1","1","1","1","0.519175199995516","0.467241700011073","0.484618799993768","1","1","1","1","1","1","1","1","1"
"260036","img/object_images/grater01.jpg","img/object_images/jewelry01.jpg",NA,"1","1",NA,"1","1",NA,"0.484618799993768","0.519175199995516",NA,"1","1",NA,"1","1",NA,"1","1",NA
"260036","img/object_images/computer_mouse02.jpg",NA,"img/object_images/Trowel01.jpg","1",NA,"1","0",NA,"0","0.562398000009125",NA,"0.551639000012074","1",NA,"1","1",NA,"1","1",NA,"1"
"260036","img/object_images/Trowel01.jpg","img/object_images/computer_mouse02.jpg","img/object_images/pen01.jpg","1","1","1","0","0","0","0.551639000012074","0.562398000009125","0.610997399984626","1","1","1","1","1","1","1","1","1"
"260036","img/object_images/pen01.jpg","img/object_images/Trowel01.jpg","img/object_images/video_game03.jpg","1","1","1","0","0","1","0.610997399984626","0.551639000012074","0.492094600020209","1","1","1","1","1","1","1","1","1"
"260036","img/object_images/video_game03.jpg","img/object_images/pen01.jpg","img/object_images/floss02.jpg","1","1","1","1","0","1","0.492094600020209","0.610997399984626","0.364756499999203","1","1","1","1","1","1","1","1","1"
"260036","img/object_images/floss02.jpg","img/object_images/video_game03.jpg","img/object_images/pitcher09.jpg","1","1","1","1","1","1","0.364756499999203","0.492094600020209","0.380448599986266","1","1","1","1","1","1","1","1","1"
"260036","img/object_images/pitcher09.jpg","img/object_images/floss02.jpg","img/object_images/couch01.jpg","1","1","0","1","1","0","0.380448599986266","0.364756499999203","0.413735300011467","1","1","1","1","1","1","1","1","1"
"260036","img/object_images/couch01.jpg","img/object_images/pitcher09.jpg","img/object_images/tool06.jpg","0","1","1","0","1","0","0.413735300011467","0.380448599986266","0.472825399978319","1","1","1","1","1","1","1","1","1"
"260036","img/object_images/tool06.jpg","img/object_images/couch01.jpg","img/object_images/rock02.jpg","1","0","0","0","0","0","0.472825399978319","0.413735300011467","0.389471999980742","1","1","1","1","1","1","1","1","1"
"260036","img/object_images/rock02.jpg","img/object_images/tool06.jpg","img/object_images/bell03.jpg","0","1","1","0","0","0","0.389471999980742","0.472825399978319","0.537498100020457","1","1","1","1","1","1","1","1","1"
"260036","img/object_images/bell03.jpg","img/object_images/rock02.jpg","img/object_images/soap03.jpg","1","0","1","0","0","0","0.537498100020457","0.389471999980742","0.352514600002905","1","1","1","1","1","1","1","1","1"
"260036","img/object_images/soap03.jpg","img/object_images/bell03.jpg","img/object_images/tripod01.jpg","1","1","1","0","0","1","0.352514600002905","0.537498100020457","0.466158399998676","1","1","1","1","1","1","1","1","1"
"260036","img/object_images/tripod01.jpg","img/object_images/soap03.jpg","img/object_images/chair06.jpg","1","1","1","1","0","0","0.466158399998676","0.352514600002905","0.530773200007388","1","1","1","1","1","1","1","1","1"
"260036","img/object_images/chair06.jpg","img/object_images/tripod01.jpg","img/object_images/hair_brush01.jpg","1","1","1","0","1","1","0.530773200007388","0.466158399998676","0.387890300014988","1","1","1","1","1","1","1","1","1"
"260036","img/object_images/hair_brush01.jpg","img/object_images/chair06.jpg","img/object_images/box03.jpg","1","1","1","1","0","0","0.387890300014988","0.530773200007388","0.581067799997982","1","1","1","1","1","1","1","1","1"
"260036","img/object_images/box03.jpg","img/object_images/hair_brush01.jpg","img/object_images/bag_pipes01.jpg","1","1","1","0","1","1","0.581067799997982","0.387890300014988","0.476100699976087","1","1","1","1","1","1","1","1","1"
"260036","img/object_images/bag_pipes01.jpg","img/object_images/box03.jpg","img/object_images/drone01.jpg","1","1","1","1","0","1","0.476100699976087","0.581067799997982","0.492390700004762","1","1","1","1","1","1","1","1","1"
"260036","img/object_images/drone01.jpg","img/object_images/bag_pipes01.jpg","img/object_images/clip04.jpg","1","1","1","1","1","1","0.492390700004762","0.476100699976087","0.385092899989104","1","1","1","1","1","1","1","1","1"
"260036","img/object_images/clip04.jpg","img/object_images/drone01.jpg","img/object_images/book02.jpg","1","1","1","1","1","1","0.385092899989104","0.492390700004762","0.419004399998812","1","1","1","1","1","1","1","1","1"
"260036","img/object_images/book02.jpg","img/object_images/clip04.jpg","img/object_images/shoes12.jpg","1","1","1","1","1","1","0.419004399998812","0.385092899989104","0.488519800012","1","1","1","1","1","1","1","1","1"
"260036","img/object_images/shoes12.jpg","img/object_images/book02.jpg","img/object_images/toothbrush01.jpg","1","1","1","1","1","0","0.488519800012","0.419004399998812","0.556790999980876","1","1","1","1","1","1","1","1","1"
"260036","img/object_images/toothbrush01.jpg","img/object_images/shoes12.jpg","img/object_images/scarf01.jpg","1","1","1","0","1","1","0.556790999980876","0.488519800012","0.461386000009952","1","1","1","1","1","1","1","1","1"
"260036","img/object_images/scarf01.jpg","img/object_images/toothbrush01.jpg","img/object_images/blender01.jpg","1","1","1","1","0","0","0.461386000009952","0.556790999980876","0.535516199975973","1","1","1","1","1","1","1","1","1"
"260036","img/object_images/blender01.jpg","img/object_images/scarf01.jpg","img/object_images/toy01.jpg","1","1","1","0","1","1","0.535516199975973","0.461386000009952","0.348018399992725","1","1","1","1","1","1","1","1","1"
"260036","img/object_images/toy01.jpg","img/object_images/blender01.jpg","img/object_images/egg_slicer01.jpg","1","1","1","1","0","1","0.348018399992725","0.535516199975973","0.527465699997265","1","1","1","1","1","1","1","1","1"
"260036","img/object_images/egg_slicer01.jpg","img/object_images/toy01.jpg","img/object_images/chain01.jpg","1","1","1","1","1","0","0.527465699997265","0.348018399992725","0.498426800011657","1","1","1","1","1","1","1","1","1"
"260036","img/object_images/chain01.jpg","img/object_images/egg_slicer01.jpg","img/object_images/mail_box02.jpg","1","1","1","0","1","1","0.498426800011657","0.527465699997265","0.372572699998273","1","1","1","1","1","1","1","1","1"
"260036","img/object_images/mail_box02.jpg","img/object_images/chain01.jpg","img/object_images/skate_board01.jpg","1","1","1","1","0","0","0.372572699998273","0.498426800011657","0.491127799992682","1","1","1","1","1","1","1","1","1"
"260036","img/object_images/skate_board01.jpg","img/object_images/mail_box02.jpg","img/object_images/Violin01.jpg","1","1","1","0","1","0","0.491127799992682","0.372572699998273","0.452529500005767","1","1","1","1","1","1","1","1","1"
"260036","img/object_images/Violin01.jpg","img/object_images/skate_board01.jpg","img/object_images/fork02.jpg","1","1","1","0","0","0","0.452529500005767","0.491127799992682","0.403870400012238","1","1","1","1","1","1","1","1","1"
"260036","img/object_images/fork02.jpg","img/object_images/Violin01.jpg","img/object_images/airfryer02.jpg","1","1","1","0","0","1","0.403870400012238","0.452529500005767","0.39311470001121","1","1","1","1","1","1","1","1","1"
"260036","img/object_images/airfryer02.jpg","img/object_images/fork02.jpg","img/object_images/computer_mouse01.jpg","1","1","1","1","0","1","0.39311470001121","0.403870400012238","0.360376800002996","1","1","1","1","1","1","1","1","1"
"260036","img/object_images/computer_mouse01.jpg","img/object_images/airfryer02.jpg",NA,"1","1",NA,"1","1",NA,"0.360376800002996","0.39311470001121",NA,"1","1",NA,"1","1",NA,"1","1",NA
"260036","img/object_images/frame01.jpg",NA,"img/object_images/Safe01.jpg","1",NA,"1","1",NA,"1","0.38164819998201",NA,"0.434175700007472","1",NA,"1","1",NA,"1","1",NA,"1"
"260036","img/object_images/Safe01.jpg","img/object_images/frame01.jpg","img/object_images/badminton01.jpg","1","1","1","1","1","1","0.434175700007472","0.38164819998201","0.448807799984934","1","1","1","1","1","1","1","1","1"
"260036","img/object_images/badminton01.jpg","img/object_images/Safe01.jpg","img/object_images/headset02.jpg","1","1","0","1","1","0","0.448807799984934","0.434175700007472","0.343718099989928","1","1","1","1","1","1","1","1","1"
"260036","img/object_images/headset02.jpg","img/object_images/badminton01.jpg","img/object_images/pitcher07.jpg","0","1","1","0","1","1","0.343718099989928","0.448807799984934","0.44535939997877","1","1","1","1","1","1","1","1","1"
"260036","img/object_images/pitcher07.jpg","img/object_images/headset02.jpg","img/object_images/Shoes05.jpg","1","0","1","1","0","0","0.44535939997877","0.343718099989928","0.495055799983675","1","1","1","1","1","1","1","1","1"
"260036","img/object_images/Shoes05.jpg","img/object_images/pitcher07.jpg","img/object_images/usb03.jpg","1","1","1","0","1","0","0.495055799983675","0.44535939997877","0.476461499987636","1","1","1","1","1","1","1","1","1"
"260036","img/object_images/usb03.jpg","img/object_images/Shoes05.jpg","img/object_images/bookmark01.jpg","1","1","1","0","0","0","0.476461499987636","0.495055799983675","0.432943899999373","1","1","1","1","1","1","1","1","1"
"260036","img/object_images/bookmark01.jpg","img/object_images/usb03.jpg","img/object_images/TreeSlice01.jpg","1","1","1","0","0","1","0.432943899999373","0.476461499987636","0.433613100001821","1","1","1","1","1","1","1","1","1"
"260036","img/object_images/TreeSlice01.jpg","img/object_images/bookmark01.jpg","img/object_images/jewel02.jpg","1","1","0","1","0","0","0.433613100001821","0.432943899999373","0.354314700001851","1","1","1","1","1","1","1","1","1"
"260036","img/object_images/jewel02.jpg","img/object_images/TreeSlice01.jpg","img/object_images/trumpet01.jpg","0","1","1","0","1","0","0.354314700001851","0.433613100001821","0.552158900012728","1","1","1","1","1","1","1","1","1"
"260036","img/object_images/trumpet01.jpg","img/object_images/jewel02.jpg","img/object_images/note_book02.jpg","1","0","1","0","0","0","0.552158900012728","0.354314700001851","0.537285600003088","1","1","1","1","1","1","1","1","1"
"260036","img/object_images/note_book02.jpg","img/object_images/trumpet01.jpg","img/object_images/bottle06.jpg","1","1","1","0","0","0","0.537285600003088","0.552158900012728","0.52858230000129","1","1","1","1","1","1","1","1","1"
"260036","img/object_images/bottle06.jpg","img/object_images/note_book02.jpg","img/object_images/water_gun01.jpg","1","1","1","0","0","1","0.52858230000129","0.537285600003088","0.457966599991778","1","1","1","1","1","1","1","1","1"
"260036","img/object_images/water_gun01.jpg","img/object_images/bottle06.jpg","img/object_images/bucket01.jpg","1","1","1","1","0","1","0.457966599991778","0.52858230000129","0.413804799987702","1","1","1","1","1","1","1","1","1"
"260036","img/object_images/bucket01.jpg","img/object_images/water_gun01.jpg","img/object_images/fan01.jpg","1","1","1","1","1","0","0.413804799987702","0.457966599991778","0.492064399993978","1","1","1","1","1","1","1","1","1"
"260036","img/object_images/fan01.jpg","img/object_images/bucket01.jpg","img/object_images/dice01.jpg","1","1","1","0","1","0","0.492064399993978","0.413804799987702","0.399746599985519","1","1","1","1","1","1","1","1","1"
"260036","img/object_images/dice01.jpg","img/object_images/fan01.jpg","img/object_images/phone04.jpg","1","1","1","0","0","1","0.399746599985519","0.492064399993978","0.438931100012269","1","1","1","1","1","1","1","1","1"
"260036","img/object_images/phone04.jpg","img/object_images/dice01.jpg","img/object_images/tennis_racket01.jpg","1","1","1","1","0","1","0.438931100012269","0.399746599985519","0.37105220000376","1","1","1","1","1","1","1","1","1"
"260036","img/object_images/tennis_racket01.jpg","img/object_images/phone04.jpg","img/object_images/joystick03.jpg","1","1","1","1","1","1","0.37105220000376","0.438931100012269","0.416544200008502","1","1","1","1","1","1","1","1","1"
"260036","img/object_images/joystick03.jpg","img/object_images/tennis_racket01.jpg","img/object_images/ToolBag01.jpg","1","1","1","1","1","0","0.416544200008502","0.37105220000376","0.415907099988544","1","1","1","1","1","1","1","1","1"
"260036","img/object_images/ToolBag01.jpg","img/object_images/joystick03.jpg","img/object_images/nut_cracker01.jpg","1","1","1","0","1","1","0.415907099988544","0.416544200008502","0.328478199982783","1","1","1","1","1","1","1","1","1"
"260036","img/object_images/nut_cracker01.jpg","img/object_images/ToolBag01.jpg","img/object_images/helmet03.jpg","1","1","0","1","0","1","0.328478199982783","0.415907099988544","0.34163999996963","1","1","1","1","1","1","1","1","1"
"260036","img/object_images/helmet03.jpg","img/object_images/nut_cracker01.jpg","img/object_images/shovel01.jpg","0","1","0","1","1","0","0.34163999996963","0.328478199982783","0.384653599990998","1","1","1","1","1","1","1","1","1"
"260036","img/object_images/shovel01.jpg","img/object_images/helmet03.jpg","img/object_images/piano03.jpg","0","0","0","0","1","0","0.384653599990998","0.34163999996963","0.429892299987841","1","1","1","1","1","1","1","1","1"
"260036","img/object_images/piano03.jpg","img/object_images/shovel01.jpg","img/object_images/belt03.jpg","0","0","0","0","0","0","0.429892299987841","0.384653599990998","0.450001699995482","1","1","1","1","1","1","1","1","1"
"260036","img/object_images/belt03.jpg","img/object_images/piano03.jpg","img/object_images/egg_basket01.jpg","0","0","1","0","0","1","0.450001699995482","0.429892299987841","0.455402000021422","1","1","1","1","1","1","1","1","1"
"260036","img/object_images/egg_basket01.jpg","img/object_images/belt03.jpg","img/object_images/Eyeliner01.jpg","1","0","1","1","0","1","0.455402000021422","0.450001699995482","0.370427600020776","1","1","1","1","1","1","1","1","1"
"260036","img/object_images/Eyeliner01.jpg","img/object_images/egg_basket01.jpg","img/object_images/origami01.jpg","1","1","1","1","1","1","0.370427600020776","0.455402000021422","0.500211799982935","1","1","1","1","1","1","1","1","1"
"260036","img/object_images/origami01.jpg","img/object_images/Eyeliner01.jpg","img/object_images/scale02.jpg","1","1","1","1","1","0","0.500211799982935","0.370427600020776","0.443905599997379","1","1","1","1","1","1","1","1","1"
"260036","img/object_images/scale02.jpg","img/object_images/origami01.jpg","img/object_images/yoga_mat01.jpg","1","1","1","0","1","0","0.443905599997379","0.500211799982935","0.481076600000961","1","1","1","1","1","1","1","1","1"
"260036","img/object_images/yoga_mat01.jpg","img/object_images/scale02.jpg","img/object_images/lock03.jpg","1","1","1","0","0","1","0.481076600000961","0.443905599997379","0.412245999992592","1","1","1","1","1","1","1","1","1"
"260036","img/object_images/lock03.jpg","img/object_images/yoga_mat01.jpg",NA,"1","1",NA,"1","0",NA,"0.412245999992592","0.481076600000961",NA,"1","1",NA,"1","1",NA,"1","1",NA
"260036","img/object_images/toaster02.jpg",NA,"img/object_images/binoculars03.jpg","1",NA,"1","1",NA,"1","0.53262270000414",NA,"0.611905600002501","1",NA,"1","1",NA,"1","1",NA,"1"
"260036","img/object_images/binoculars03.jpg","img/object_images/toaster02.jpg","img/object_images/cutting_board01.jpg","1","1","1","1","1","1","0.611905600002501","0.53262270000414","0.554654199979268","1","1","1","1","1","1","1","1","1"
"260036","img/object_images/cutting_board01.jpg","img/object_images/binoculars03.jpg","img/object_images/car03.jpg","1","1","1","1","1","0","0.554654199979268","0.611905600002501","0.483922599989455","1","1","1","1","1","1","1","1","1"
"260036","img/object_images/car03.jpg","img/object_images/cutting_board01.jpg","img/object_images/bag06.jpg","1","1","1","0","1","1","0.483922599989455","0.554654199979268","0.434671199996956","1","1","1","1","1","1","1","1","1"
"260036","img/object_images/bag06.jpg","img/object_images/car03.jpg","img/object_images/jewelry07.jpg","1","1","1","1","0","1","0.434671199996956","0.483922599989455","0.430782499985071","1","1","1","1","1","1","1","1","1"
"260036","img/object_images/jewelry07.jpg","img/object_images/bag06.jpg","img/object_images/WitchHat02.jpg","1","1","1","1","1","1","0.430782499985071","0.434671199996956","0.693965299986303","1","1","1","1","1","1","1","1","1"
"260036","img/object_images/WitchHat02.jpg","img/object_images/jewelry07.jpg","img/object_images/tool11.jpg","1","1","1","1","1","1","0.693965299986303","0.430782499985071","0.455504500016104","1","1","1","1","1","1","1","1","1"
"260036","img/object_images/tool11.jpg","img/object_images/WitchHat02.jpg","img/object_images/rock03.jpg","1","1","1","1","1","0","0.455504500016104","0.693965299986303","0.510751800000435","1","1","1","1","1","1","1","1","1"
"260036","img/object_images/rock03.jpg","img/object_images/tool11.jpg","img/object_images/mask01.jpg","1","1","0","0","1","0","0.510751800000435","0.455504500016104","0.335632999980589","1","1","1","1","1","1","1","1","1"
"260036","img/object_images/mask01.jpg","img/object_images/rock03.jpg","img/object_images/key02.jpg","0","1","1","0","0","1","0.335632999980589","0.510751800000435","0.50136019999627","1","1","1","1","1","1","1","1","1"
"260036","img/object_images/key02.jpg","img/object_images/mask01.jpg","img/object_images/slinky_toy01.jpg","1","0","1","1","0","1","0.50136019999627","0.335632999980589","0.501929199992446","1","1","1","1","1","1","1","1","1"
"260036","img/object_images/slinky_toy01.jpg","img/object_images/key02.jpg","img/object_images/ice_tray03.jpg","1","1","1","1","1","1","0.501929199992446","0.50136019999627","0.426804199989419","1","1","1","1","1","1","1","1","1"
"260036","img/object_images/ice_tray03.jpg","img/object_images/slinky_toy01.jpg","img/object_images/satellite01.jpg","1","1","1","1","1","0","0.426804199989419","0.501929199992446","0.375182199990377","1","1","1","1","1","1","1","1","1"
"260036","img/object_images/satellite01.jpg","img/object_images/ice_tray03.jpg","img/object_images/hair_brush05.jpg","1","1","1","0","1","1","0.375182199990377","0.426804199989419","0.344866500003263","1","1","1","1","1","1","1","1","1"
"260036","img/object_images/hair_brush05.jpg","img/object_images/satellite01.jpg","img/object_images/ladle02.jpg","1","1","1","1","0","0","0.344866500003263","0.375182199990377","0.52994020000915","1","1","1","1","1","1","1","1","1"
"260036","img/object_images/ladle02.jpg","img/object_images/hair_brush05.jpg","img/object_images/chair04.jpg","1","1","1","0","1","1","0.52994020000915","0.344866500003263","0.394749099999899","1","1","1","1","1","1","1","1","1"
"260036","img/object_images/chair04.jpg","img/object_images/ladle02.jpg","img/object_images/razor01.jpg","1","1","1","1","0","0","0.394749099999899","0.52994020000915","0.449450400017668","1","1","1","1","1","1","1","1","1"
"260036","img/object_images/razor01.jpg","img/object_images/chair04.jpg","img/object_images/fan05.jpg","1","1","1","0","1","0","0.449450400017668","0.394749099999899","0.606850600015605","1","1","1","1","1","1","1","1","1"
"260036","img/object_images/fan05.jpg","img/object_images/razor01.jpg","img/object_images/ribbon01.jpg","1","1","1","0","0","0","0.606850600015605","0.449450400017668","0.387690800009295","1","1","1","1","1","1","1","1","1"
"260036","img/object_images/ribbon01.jpg","img/object_images/fan05.jpg","img/object_images/shower_head03.jpg","1","1","1","0","0","1","0.387690800009295","0.606850600015605","0.439058400021167","1","1","1","1","1","1","1","1","1"
"260036","img/object_images/shower_head03.jpg","img/object_images/ribbon01.jpg","img/object_images/tv01.jpg","1","1","0","1","0","0","0.439058400021167","0.387690800009295","0.457842499978142","1","1","1","1","1","1","1","1","1"
"260036","img/object_images/tv01.jpg","img/object_images/shower_head03.jpg","img/object_images/belt01.jpg","0","1","1","0","1","0","0.457842499978142","0.439058400021167","0.566880300000776","1","1","1","1","1","1","1","1","1"
"260036","img/object_images/belt01.jpg","img/object_images/tv01.jpg","img/object_images/cards01.jpg","1","0","0","0","0","0","0.566880300000776","0.457842499978142","0.487622999993619","1","1","1","1","1","1","1","1","1"
"260036","img/object_images/cards01.jpg","img/object_images/belt01.jpg","img/object_images/MeasuringCup01.jpg","0","1","1","0","0","1","0.487622999993619","0.566880300000776","0.410995000012917","1","1","1","1","1","1","1","1","1"
"260036","img/object_images/MeasuringCup01.jpg","img/object_images/cards01.jpg","img/object_images/jewel01.jpg","1","0","1","1","0","0","0.410995000012917","0.487622999993619","0.527886099996977","1","1","1","1","1","1","1","1","1"
"260036","img/object_images/jewel01.jpg","img/object_images/MeasuringCup01.jpg","img/object_images/yarn02.jpg","1","1","1","0","1","0","0.527886099996977","0.410995000012917","0.516688700008672","1","1","1","1","1","1","1","1","1"
"260036","img/object_images/yarn02.jpg","img/object_images/jewel01.jpg","img/object_images/screwdriver01.jpg","1","1","0","0","0","0","0.516688700008672","0.527886099996977","0.447216400003526","1","1","1","1","1","1","1","1","2"
"260036","img/object_images/screwdriver01.jpg","img/object_images/yarn02.jpg","img/object_images/shoes10.jpg","0","1","0","0","0","0","0.447216400003526","0.516688700008672","0.452451099990867","1","1","1","1","1","1","2","1","1"
"260036","img/object_images/shoes10.jpg","img/object_images/screwdriver01.jpg","img/object_images/lemon_squeezer02.jpg","0","0","1","0","0","1","0.452451099990867","0.447216400003526","0.430161099997349","1","1","1","1","1","1","1","2","1"
"260036","img/object_images/lemon_squeezer02.jpg","img/object_images/shoes10.jpg","img/object_images/car04.jpg","1","0","1","1","0","0","0.430161099997349","0.452451099990867","0.402951199997915","1","1","1","1","1","1","1","1","1"
"260036","img/object_images/car04.jpg","img/object_images/lemon_squeezer02.jpg","img/object_images/dress03.jpg","1","1","1","0","1","1","0.402951199997915","0.430161099997349","0.418013699993026","1","1","1","1","1","1","1","1","1"
"260036","img/object_images/dress03.jpg","img/object_images/car04.jpg",NA,"1","1",NA,"1","0",NA,"0.418013699993026","0.402951199997915",NA,"1","1",NA,"1","1",NA,"1","1",NA
