"participant_id","current_trial_object","pre_trial_object","post_trial_object","current_trial_accuracy","pre_trial_accuracy","post_trial_accuracy","current_trial_congruency","pre_trial_congruency","post_trial_congruency","current_trial_rt","pre_trial_rt","post_trial_rt","current_trial_responded","pre_trial_responded","post_trial_responded","current_trial_legitResponse","pre_trial_legitResponse","post_trial_legitResponse","current_trial_resp_nums","pre_trial_resp_nums","post_trial_resp_nums"
"260046","img/object_images/remote_controller01.jpg",NA,"img/object_images/remover01.jpg","1",NA,"1","1",NA,"1","0.846893599955365",NA,"0.761806899914518","1",NA,"1","1",NA,"1","1",NA,"1"
"260046","img/object_images/remover01.jpg","img/object_images/remote_controller01.jpg","img/object_images/camera03.jpg","1","1","1","1","1","0","0.761806899914518","0.846893599955365","0.956507900031284","1","1","1","1","1","1","1","1","1"
"260046","img/object_images/camera03.jpg","img/object_images/remover01.jpg","img/object_images/boat04.jpg","1","1","1","0","1","0","0.956507900031284","0.761806899914518","0.879952300107107","1","1","1","1","1","1","1","1","1"
"260046","img/object_images/boat04.jpg","img/object_images/camera03.jpg","img/object_images/blender02.jpg","1","1","1","0","0","1","0.879952300107107","0.956507900031284","1.05300800013356","1","1","1","1","1","1","1","1","1"
"260046","img/object_images/blender02.jpg","img/object_images/boat04.jpg","img/object_images/flashlight03.jpg","1","1","1","1","0","0","1.05300800013356","0.879952300107107","0.734465900110081","1","1","1","1","1","1","1","1","1"
"260046","img/object_images/flashlight03.jpg","img/object_images/blender02.jpg","img/object_images/bottle07.jpg","1","1","1","0","1","1","0.734465900110081","1.05300800013356","0.708697899943218","1","1","1","1","1","1","1","1","1"
"260046","img/object_images/bottle07.jpg","img/object_images/flashlight03.jpg","img/object_images/dresser03.jpg","1","1","1","1","0","0","0.708697899943218","0.734465900110081","1.03419520007446","1","1","1","1","1","1","1","1","1"
"260046","img/object_images/dresser03.jpg","img/object_images/bottle07.jpg","img/object_images/backpack01.jpg","1","1","1","0","1","0","1.03419520007446","0.708697899943218","0.6943934999872","1","1","1","1","1","1","1","1","1"
"260046","img/object_images/backpack01.jpg","img/object_images/dresser03.jpg","img/object_images/toy08.jpg","1","1","1","0","0","0","0.6943934999872","1.03419520007446","0.626610100036487","1","1","1","1","1","1","1","1","1"
"260046","img/object_images/toy08.jpg","img/object_images/backpack01.jpg","img/object_images/video_game01.jpg","1","1","1","0","0","1","0.626610100036487","0.6943934999872","0.550050799967721","1","1","1","1","1","1","1","1","1"
"260046","img/object_images/video_game01.jpg","img/object_images/toy08.jpg","img/object_images/keyboard02.jpg","1","1","1","1","0","1","0.550050799967721","0.626610100036487","0.456390400184318","1","1","1","1","1","1","1","1","1"
"260046","img/object_images/keyboard02.jpg","img/object_images/video_game01.jpg","img/object_images/Statue01.jpg","1","1","1","1","1","1","0.456390400184318","0.550050799967721","0.5482970001176","1","1","1","1","1","1","1","1","1"
"260046","img/object_images/Statue01.jpg","img/object_images/keyboard02.jpg","img/object_images/jacket04.jpg","1","1","1","1","1","0","0.5482970001176","0.456390400184318","0.587818200001493","1","1","1","1","1","1","1","1","1"
"260046","img/object_images/jacket04.jpg","img/object_images/Statue01.jpg","img/object_images/tool18.jpg","1","1","1","0","1","0","0.587818200001493","0.5482970001176","0.565925000002608","1","1","1","1","1","1","1","1","1"
"260046","img/object_images/tool18.jpg","img/object_images/jacket04.jpg","img/object_images/sponge03.jpg","1","1","1","0","0","1","0.565925000002608","0.587818200001493","0.502118799835443","1","1","1","1","1","1","1","1","1"
"260046","img/object_images/sponge03.jpg","img/object_images/tool18.jpg","img/object_images/hand_grip_exerciser01.jpg","1","1","1","1","0","0","0.502118799835443","0.565925000002608","0.707500000018626","1","1","1","1","1","1","1","1","1"
"260046","img/object_images/hand_grip_exerciser01.jpg","img/object_images/sponge03.jpg","img/object_images/kite01.jpg","1","1","1","0","1","1","0.707500000018626","0.502118799835443","0.937808000016958","1","1","1","1","1","1","1","1","1"
"260046","img/object_images/kite01.jpg","img/object_images/hand_grip_exerciser01.jpg","img/object_images/gloves02.jpg","1","1","1","1","0","0","0.937808000016958","0.707500000018626","0.683937499998137","1","1","1","1","1","1","1","1","1"
"260046","img/object_images/gloves02.jpg","img/object_images/kite01.jpg","img/object_images/knife02.jpg","1","1","1","0","1","0","0.683937499998137","0.937808000016958","0.557691400172189","1","1","1","1","1","1","1","1","1"
"260046","img/object_images/knife02.jpg","img/object_images/gloves02.jpg","img/object_images/shower_head01.jpg","1","1","1","0","0","1","0.557691400172189","0.683937499998137","0.582833500113338","1","1","1","1","1","1","1","1","1"
"260046","img/object_images/shower_head01.jpg","img/object_images/knife02.jpg","img/object_images/matches02.jpg","1","1","1","1","0","0","0.582833500113338","0.557691400172189","0.610768900020048","1","1","1","1","1","1","1","1","1"
"260046","img/object_images/matches02.jpg","img/object_images/shower_head01.jpg","img/object_images/knit04.jpg","1","1","1","0","1","1","0.610768900020048","0.582833500113338","0.682589299976826","1","1","1","1","1","1","1","1","1"
"260046","img/object_images/knit04.jpg","img/object_images/matches02.jpg","img/object_images/hoverboard01.jpg","1","1","1","1","0","0","0.682589299976826","0.610768900020048","0.88136320002377","1","1","1","1","1","1","1","1","1"
"260046","img/object_images/hoverboard01.jpg","img/object_images/knit04.jpg","img/object_images/mail_box01.jpg","1","1","1","0","1","0","0.88136320002377","0.682589299976826","0.777554499916732","1","1","1","1","1","1","1","1","1"
"260046","img/object_images/mail_box01.jpg","img/object_images/hoverboard01.jpg","img/object_images/knit03.jpg","1","1","1","0","0","1","0.777554499916732","0.88136320002377","0.832119999919087","1","1","1","1","1","1","1","1","1"
"260046","img/object_images/knit03.jpg","img/object_images/mail_box01.jpg","img/object_images/stereo02.jpg","1","1","1","1","0","0","0.832119999919087","0.777554499916732","0.655934700043872","1","1","1","1","1","1","1","1","1"
"260046","img/object_images/stereo02.jpg","img/object_images/knit03.jpg","img/object_images/basket04.jpg","1","1","1","0","1","1","0.655934700043872","0.832119999919087","0.702290500048548","1","1","1","1","1","1","1","1","1"
"260046","img/object_images/basket04.jpg","img/object_images/stereo02.jpg","img/object_images/curtain02.jpg","1","1","1","1","0","0","0.702290500048548","0.655934700043872","0.668926700018346","1","1","1","1","1","1","1","1","1"
"260046","img/object_images/curtain02.jpg","img/object_images/basket04.jpg","img/object_images/car01.jpg","1","1","1","0","1","1","0.668926700018346","0.702290500048548","0.669663300039247","1","1","1","1","1","1","1","1","1"
"260046","img/object_images/car01.jpg","img/object_images/curtain02.jpg","img/object_images/phone02.jpg","1","1","1","1","0","1","0.669663300039247","0.668926700018346","0.669370199786499","1","1","1","1","1","1","1","1","1"
"260046","img/object_images/phone02.jpg","img/object_images/car01.jpg","img/object_images/paper_cup02.jpg","1","1","1","1","1","1","0.669370199786499","0.669663300039247","0.987183300079778","1","1","1","1","1","1","1","1","1"
"260046","img/object_images/paper_cup02.jpg","img/object_images/phone02.jpg",NA,"1","1",NA,"1","1",NA,"0.987183300079778","0.669370199786499",NA,"1","1",NA,"1","1",NA,"1","1",NA
"260046","img/object_images/stapler.jpg",NA,"img/object_images/mirror01.jpg","1",NA,"1","1",NA,"1","0.460743400035426",NA,"0.421406300039962","1",NA,"1","1",NA,"1","1",NA,"1"
"260046","img/object_images/mirror01.jpg","img/object_images/stapler.jpg","img/object_images/Tin01.jpg","1","1","1","1","1","1","0.421406300039962","0.460743400035426","0.38675899989903","1","1","1","1","1","1","1","1","1"
"260046","img/object_images/Tin01.jpg","img/object_images/mirror01.jpg","img/object_images/bird_house02.jpg","1","1","1","1","1","1","0.38675899989903","0.421406300039962","0.375725700054318","1","1","1","1","1","1","1","1","1"
"260046","img/object_images/bird_house02.jpg","img/object_images/Tin01.jpg","img/object_images/shovel03.jpg","1","1","1","1","1","1","0.375725700054318","0.38675899989903","0.388844100059941","1","1","1","1","1","1","1","1","1"
"260046","img/object_images/shovel03.jpg","img/object_images/bird_house02.jpg","img/object_images/jewel04.jpg","1","1","0","1","1","0","0.388844100059941","0.375725700054318","0.378917400026694","1","1","1","1","1","1","1","1","1"
"260046","img/object_images/jewel04.jpg","img/object_images/shovel03.jpg","img/object_images/toy04.jpg","0","1","0","0","1","0","0.378917400026694","0.388844100059941","0.602918999968097","1","1","1","1","1","1","1","1","1"
"260046","img/object_images/toy04.jpg","img/object_images/jewel04.jpg","img/object_images/Stool01.jpg","0","0","1","0","0","0","0.602918999968097","0.378917400026694","0.563170099863783","1","1","1","1","1","1","1","1","1"
"260046","img/object_images/Stool01.jpg","img/object_images/toy04.jpg","img/object_images/outlet01.jpg","1","0","1","0","0","0","0.563170099863783","0.602918999968097","0.583440699847415","1","1","1","1","1","1","1","1","1"
"260046","img/object_images/outlet01.jpg","img/object_images/Stool01.jpg","img/object_images/dart01.jpg","1","1","1","0","0","0","0.583440699847415","0.563170099863783","0.673021800117567","1","1","1","1","1","1","1","1","1"
"260046","img/object_images/dart01.jpg","img/object_images/outlet01.jpg","img/object_images/judge_gavel01.jpg","1","1","1","0","0","1","0.673021800117567","0.583440699847415","0.707388499984518","1","1","1","1","1","1","1","1","1"
"260046","img/object_images/judge_gavel01.jpg","img/object_images/dart01.jpg","img/object_images/tool09.jpg","1","1","1","1","0","1","0.707388499984518","0.673021800117567","0.521446400089189","1","1","1","1","1","1","1","1","1"
"260046","img/object_images/tool09.jpg","img/object_images/judge_gavel01.jpg","img/object_images/towel02.jpg","1","1","1","1","1","1","0.521446400089189","0.707388499984518","0.396581399952993","1","1","1","1","1","1","1","1","1"
"260046","img/object_images/towel02.jpg","img/object_images/tool09.jpg","img/object_images/fridge03.jpg","1","1","1","1","1","0","0.396581399952993","0.521446400089189","0.582104399800301","1","1","1","1","1","1","1","1","1"
"260046","img/object_images/fridge03.jpg","img/object_images/towel02.jpg","img/object_images/bow01.jpg","1","1","1","0","1","1","0.582104399800301","0.396581399952993","0.428331200033426","1","1","1","1","1","1","1","1","1"
"260046","img/object_images/bow01.jpg","img/object_images/fridge03.jpg","img/object_images/video_game07.jpg","1","1","1","1","0","1","0.428331200033426","0.582104399800301","0.504815600113943","1","1","1","1","1","1","1","1","1"
"260046","img/object_images/video_game07.jpg","img/object_images/bow01.jpg","img/object_images/Ring02.jpg","1","1","1","1","1","0","0.504815600113943","0.428331200033426","0.562844700179994","1","1","1","1","1","1","1","1","1"
"260046","img/object_images/Ring02.jpg","img/object_images/video_game07.jpg","img/object_images/watch01.jpg","1","1","1","0","1","0","0.562844700179994","0.504815600113943","0.677701100008562","1","1","1","1","1","1","1","1","1"
"260046","img/object_images/watch01.jpg","img/object_images/Ring02.jpg","img/object_images/guitar02.jpg","1","1","0","0","0","0","0.677701100008562","0.562844700179994","0.864575800020248","1","1","1","1","1","1","1","1","1"
"260046","img/object_images/guitar02.jpg","img/object_images/watch01.jpg","img/object_images/ornament01.jpg","0","1","1","0","0","1","0.864575800020248","0.677701100008562","0.547062499914318","1","1","1","1","1","1","1","1","1"
"260046","img/object_images/ornament01.jpg","img/object_images/guitar02.jpg","img/object_images/gauze01.jpg","1","0","1","1","0","0","0.547062499914318","0.864575800020248","0.509006799897179","1","1","1","1","1","1","1","1","1"
"260046","img/object_images/gauze01.jpg","img/object_images/ornament01.jpg","img/object_images/Vacuum01.jpg","1","1","1","0","1","0","0.509006799897179","0.547062499914318","0.500961699988693","1","1","1","1","1","1","1","1","1"
"260046","img/object_images/Vacuum01.jpg","img/object_images/gauze01.jpg","img/object_images/sink01.jpg","1","1","1","0","0","0","0.500961699988693","0.509006799897179","0.628380800131708","1","1","1","1","1","1","1","1","1"
"260046","img/object_images/sink01.jpg","img/object_images/Vacuum01.jpg","img/object_images/pot01 (1).jpg","1","1","1","0","0","0","0.628380800131708","0.500961699988693","0.540404299972579","1","1","1","1","1","1","1","1","1"
"260046","img/object_images/pot01 (1).jpg","img/object_images/sink01.jpg","img/object_images/tool02.jpg","1","1","1","0","0","1","0.540404299972579","0.628380800131708","0.914549499982968","1","1","1","1","1","1","1","1","1"
"260046","img/object_images/tool02.jpg","img/object_images/pot01 (1).jpg","img/object_images/toy03.jpg","1","1","1","1","0","1","0.914549499982968","0.540404299972579","0.795185399940237","1","1","1","1","1","1","1","1","1"
"260046","img/object_images/toy03.jpg","img/object_images/tool02.jpg","img/object_images/frisbee01.jpg","1","1","1","1","1","1","0.795185399940237","0.914549499982968","0.441495300037786","1","1","1","1","1","1","1","1","1"
"260046","img/object_images/frisbee01.jpg","img/object_images/toy03.jpg","img/object_images/helmet01.jpg","1","1","1","1","1","0","0.441495300037786","0.795185399940237","0.54374559991993","1","1","1","1","1","1","1","1","1"
"260046","img/object_images/helmet01.jpg","img/object_images/frisbee01.jpg","img/object_images/acoustic_capo01.jpg","1","1","1","0","1","1","0.54374559991993","0.441495300037786","0.474695000099018","1","1","1","1","1","1","1","1","1"
"260046","img/object_images/acoustic_capo01.jpg","img/object_images/helmet01.jpg","img/object_images/crown02.jpg","1","1","0","1","0","1","0.474695000099018","0.54374559991993","0.554588999832049","1","1","1","1","1","1","1","1","1"
"260046","img/object_images/crown02.jpg","img/object_images/acoustic_capo01.jpg","img/object_images/MetalWire01.jpg","0","1","1","1","1","0","0.554588999832049","0.474695000099018","0.718146300176159","1","1","1","1","1","1","1","1","1"
"260046","img/object_images/MetalWire01.jpg","img/object_images/crown02.jpg","img/object_images/bottle05.jpg","1","0","1","0","1","0","0.718146300176159","0.554588999832049","0.600033900002018","1","1","1","1","1","1","1","1","1"
"260046","img/object_images/bottle05.jpg","img/object_images/MetalWire01.jpg",NA,"1","1",NA,"0","0",NA,"0.600033900002018","0.718146300176159",NA,"1","1",NA,"1","1",NA,"1","1",NA
"260046","img/object_images/bath_tub01.jpg",NA,"img/object_images/funnel01.jpg","0",NA,"1","0",NA,"0","0.786945200059563",NA,"0.542150099994615","1",NA,"1","1",NA,"1","1",NA,"1"
"260046","img/object_images/funnel01.jpg","img/object_images/bath_tub01.jpg","img/object_images/camera07.jpg","1","0","1","0","0","1","0.542150099994615","0.786945200059563","0.493156499927863","1","1","1","1","1","1","1","1","1"
"260046","img/object_images/camera07.jpg","img/object_images/funnel01.jpg","img/object_images/bow_tie01.jpg","1","1","1","1","0","0","0.493156499927863","0.542150099994615","0.592834800016135","1","1","1","1","1","1","1","1","1"
"260046","img/object_images/bow_tie01.jpg","img/object_images/camera07.jpg","img/object_images/grater01.jpg","1","1","1","0","1","1","0.592834800016135","0.493156499927863","0.498005100060254","1","1","1","1","1","1","1","1","1"
"260046","img/object_images/grater01.jpg","img/object_images/bow_tie01.jpg","img/object_images/gift_box02.jpg","1","1","1","1","0","1","0.498005100060254","0.592834800016135","0.45213759993203","1","1","1","1","1","1","1","1","1"
"260046","img/object_images/gift_box02.jpg","img/object_images/grater01.jpg","img/object_images/hammer01.jpg","1","1","0","1","1","0","0.45213759993203","0.498005100060254","0.85779989999719","1","1","1","1","1","1","1","1","1"
"260046","img/object_images/hammer01.jpg","img/object_images/gift_box02.jpg","img/object_images/lock04.jpg","0","1","1","0","1","1","0.85779989999719","0.45213759993203","0.48846000013873","1","1","1","1","1","1","1","1","1"
"260046","img/object_images/lock04.jpg","img/object_images/hammer01.jpg","img/object_images/lawn_mower01.jpg","1","0","1","1","0","1","0.48846000013873","0.85779989999719","0.560895200120285","1","1","1","1","1","1","1","1","1"
"260046","img/object_images/lawn_mower01.jpg","img/object_images/lock04.jpg","img/object_images/ironing_table01.jpg","1","1","1","1","1","0","0.560895200120285","0.48846000013873","1.23281370010227","1","1","1","1","1","1","1","1","1"
"260046","img/object_images/ironing_table01.jpg","img/object_images/lawn_mower01.jpg","img/object_images/wallet02.jpg","1","1","1","0","1","1","1.23281370010227","0.560895200120285","0.436627699993551","1","1","1","1","1","1","1","1","1"
"260046","img/object_images/wallet02.jpg","img/object_images/ironing_table01.jpg","img/object_images/jacket03.jpg","1","1","1","1","0","0","0.436627699993551","1.23281370010227","0.56025470001623","1","1","1","1","1","1","1","1","1"
"260046","img/object_images/jacket03.jpg","img/object_images/wallet02.jpg","img/object_images/dresser04.jpg","1","1","0","0","1","0","0.56025470001623","0.436627699993551","0.408297999994829","1","1","1","1","1","1","1","1","1"
"260046","img/object_images/dresser04.jpg","img/object_images/jacket03.jpg","img/object_images/fork03.jpg","0","1","1","0","0","1","0.408297999994829","0.56025470001623","0.557942799990997","1","1","1","1","1","1","1","1","1"
"260046","img/object_images/fork03.jpg","img/object_images/dresser04.jpg","img/object_images/measuring_tape02.jpg","1","0","1","1","0","1","0.557942799990997","0.408297999994829","0.592840399825945","1","1","1","1","1","1","1","1","1"
"260046","img/object_images/measuring_tape02.jpg","img/object_images/fork03.jpg","img/object_images/gift_box03.jpg","1","1","1","1","1","0","0.592840399825945","0.557942799990997","0.529438899829984","1","1","1","1","1","1","1","1","1"
"260046","img/object_images/gift_box03.jpg","img/object_images/measuring_tape02.jpg","img/object_images/paper_cup01.jpg","1","1","1","0","1","0","0.529438899829984","0.592840399825945","0.595802100142464","1","1","1","1","1","1","1","1","1"
"260046","img/object_images/paper_cup01.jpg","img/object_images/gift_box03.jpg","img/object_images/vga_port 01.jpg","1","1","0","0","0","0","0.595802100142464","0.529438899829984","0.838363399961963","1","1","1","1","1","1","1","1","1"
"260046","img/object_images/vga_port 01.jpg","img/object_images/paper_cup01.jpg","img/object_images/coloring_pencil01.jpg","0","1","1","0","0","1","0.838363399961963","0.595802100142464","0.643138699932024","1","1","1","1","1","1","1","1","1"
"260046","img/object_images/coloring_pencil01.jpg","img/object_images/vga_port 01.jpg","img/object_images/sleeping_bag01.jpg","1","0","0","1","0","0","0.643138699932024","0.838363399961963","0.787408399861306","1","1","1","1","1","1","1","1","1"
"260046","img/object_images/sleeping_bag01.jpg","img/object_images/coloring_pencil01.jpg","img/object_images/pitcher02.jpg","0","1","1","0","1","1","0.787408399861306","0.643138699932024","0.488785099936649","1","1","1","1","1","1","1","1","1"
"260046","img/object_images/pitcher02.jpg","img/object_images/sleeping_bag01.jpg","img/object_images/bow_tie02.jpg","1","0","1","1","0","0","0.488785099936649","0.787408399861306","0.651122699957341","1","1","1","1","1","1","1","1","1"
"260046","img/object_images/bow_tie02.jpg","img/object_images/pitcher02.jpg","img/object_images/socks02.jpg","1","1","1","0","1","0","0.651122699957341","0.488785099936649","0.537147999973968","1","1","1","1","1","1","1","1","1"
"260046","img/object_images/socks02.jpg","img/object_images/bow_tie02.jpg","img/object_images/balloon01.jpg","1","1","1","0","0","0","0.537147999973968","0.651122699957341","0.676450900034979","1","1","1","1","1","1","1","1","1"
"260046","img/object_images/balloon01.jpg","img/object_images/socks02.jpg","img/object_images/Screws01.jpg","1","1","1","0","0","1","0.676450900034979","0.537147999973968","0.518233699956909","1","1","1","1","1","1","1","1","1"
"260046","img/object_images/Screws01.jpg","img/object_images/balloon01.jpg","img/object_images/Witchhat01.jpg","1","1","1","1","0","1","0.518233699956909","0.676450900034979","0.42342899995856","1","1","1","1","1","1","1","1","1"
"260046","img/object_images/Witchhat01.jpg","img/object_images/Screws01.jpg","img/object_images/jewelry01.jpg","1","1","1","1","1","1","0.42342899995856","0.518233699956909","0.391723700100556","1","1","1","1","1","1","1","1","1"
"260046","img/object_images/jewelry01.jpg","img/object_images/Witchhat01.jpg","img/object_images/golf_ball03.jpg","1","1","1","1","1","1","0.391723700100556","0.42342899995856","0.405421599978581","1","1","1","1","1","1","1","1","1"
"260046","img/object_images/golf_ball03.jpg","img/object_images/jewelry01.jpg","img/object_images/gift_box01.jpg","1","1","1","1","1","1","0.405421599978581","0.391723700100556","0.41129449987784","1","1","1","1","1","1","1","1","1"
"260046","img/object_images/gift_box01.jpg","img/object_images/golf_ball03.jpg","img/object_images/handkerchief01.jpg","1","1","1","1","1","0","0.41129449987784","0.405421599978581","0.408014100044966","1","1","1","1","1","1","1","1","1"
"260046","img/object_images/handkerchief01.jpg","img/object_images/gift_box01.jpg","img/object_images/couch03.jpg","1","1","0","0","1","0","0.408014100044966","0.41129449987784","0.41255270014517","1","1","1","1","1","1","1","1","1"
"260046","img/object_images/couch03.jpg","img/object_images/handkerchief01.jpg","img/object_images/clip02.jpg","0","1","1","0","0","1","0.41255270014517","0.408014100044966","0.860414399998263","1","1","1","1","1","1","1","1","1"
"260046","img/object_images/clip02.jpg","img/object_images/couch03.jpg",NA,"1","0",NA,"1","0",NA,"0.860414399998263","0.41255270014517",NA,"1","1",NA,"1","1",NA,"1","1",NA
"260046","img/object_images/usb02.jpg",NA,"img/object_images/clip03.jpg","1",NA,"1","0",NA,"0","0.706333299865946",NA,"1.79542650002986","1",NA,"1","1",NA,"1","1",NA,"1"
"260046","img/object_images/clip03.jpg","img/object_images/usb02.jpg","img/object_images/ear_bud01.jpg","1","1","1","0","0","1","1.79542650002986","0.706333299865946","0.889941500034183","1","1","1","1","1","1","1","1","1"
"260046","img/object_images/ear_bud01.jpg","img/object_images/clip03.jpg","img/object_images/pillows01.jpg","1","1","1","1","0","1","0.889941500034183","1.79542650002986","0.507460399996489","1","1","1","1","1","1","1","1","1"
"260046","img/object_images/pillows01.jpg","img/object_images/ear_bud01.jpg","img/object_images/motorcycle01.jpg","1","1","1","1","1","1","0.507460399996489","0.889941500034183","0.465625500073656","1","1","1","1","1","1","1","1","1"
"260046","img/object_images/motorcycle01.jpg","img/object_images/pillows01.jpg","img/object_images/floppy_disk02.jpg","1","1","0","1","1","0","0.465625500073656","0.507460399996489","0.562554999953136","1","1","1","1","1","1","1","1","1"
"260046","img/object_images/floppy_disk02.jpg","img/object_images/motorcycle01.jpg","img/object_images/Thermometer01.jpg","0","1","1","0","1","0","0.562554999953136","0.465625500073656","0.637645400129259","1","1","1","1","1","1","1","1","1"
"260046","img/object_images/Thermometer01.jpg","img/object_images/floppy_disk02.jpg","img/object_images/chair05.jpg","1","0","1","0","0","0","0.637645400129259","0.562554999953136","0.546571699902415","1","1","1","1","1","1","1","1","1"
"260046","img/object_images/chair05.jpg","img/object_images/Thermometer01.jpg","img/object_images/hammer03.jpg","1","1","1","0","0","1","0.546571699902415","0.637645400129259","0.444120500003919","1","1","1","1","1","1","1","1","1"
"260046","img/object_images/hammer03.jpg","img/object_images/chair05.jpg","img/object_images/paint_brush04.jpg","1","1","1","1","0","0","0.444120500003919","0.546571699902415","0.623160500079393","1","1","1","1","1","1","1","1","1"
"260046","img/object_images/paint_brush04.jpg","img/object_images/hammer03.jpg","img/object_images/knife04.jpg","1","1","1","0","1","1","0.623160500079393","0.444120500003919","0.642902799881995","1","1","1","1","1","1","1","1","1"
"260046","img/object_images/knife04.jpg","img/object_images/paint_brush04.jpg","img/object_images/cellphone01.jpg","1","1","1","1","0","1","0.642902799881995","0.623160500079393","0.406487500062212","1","1","1","1","1","1","1","1","1"
"260046","img/object_images/cellphone01.jpg","img/object_images/knife04.jpg","img/object_images/tv02.jpg","1","1","1","1","1","0","0.406487500062212","0.642902799881995","0.613211399875581","1","1","1","1","1","1","1","1","1"
"260046","img/object_images/tv02.jpg","img/object_images/cellphone01.jpg","img/object_images/bell02.jpg","1","1","1","0","1","0","0.613211399875581","0.406487500062212","0.619951599976048","1","1","1","1","1","1","1","1","1"
"260046","img/object_images/bell02.jpg","img/object_images/tv02.jpg","img/object_images/wire02.jpg","1","1","1","0","0","1","0.619951599976048","0.613211399875581","0.61853799992241","1","1","1","1","1","1","1","1","1"
"260046","img/object_images/wire02.jpg","img/object_images/bell02.jpg","img/object_images/chess_piece02.jpg","1","1","1","1","0","1","0.61853799992241","0.619951599976048","0.514672199962661","1","1","1","1","1","1","1","1","1"
"260046","img/object_images/chess_piece02.jpg","img/object_images/wire02.jpg","img/object_images/microscope01.jpg","1","1","1","1","1","0","0.514672199962661","0.61853799992241","0.837940199999139","1","1","1","1","1","1","1","1","1"
"260046","img/object_images/microscope01.jpg","img/object_images/chess_piece02.jpg","img/object_images/retainer01.jpg","1","1","1","0","1","0","0.837940199999139","0.514672199962661","0.502374900039285","1","1","1","1","1","1","1","1","1"
"260046","img/object_images/retainer01.jpg","img/object_images/microscope01.jpg","img/object_images/compass01.jpg","1","1","1","0","0","1","0.502374900039285","0.837940199999139","0.578014000086114","1","1","1","1","1","1","1","1","1"
"260046","img/object_images/compass01.jpg","img/object_images/retainer01.jpg","img/object_images/book03.jpg","1","1","1","1","0","1","0.578014000086114","0.502374900039285","0.732014700071886","1","1","1","1","1","1","1","1","1"
"260046","img/object_images/book03.jpg","img/object_images/compass01.jpg","img/object_images/bottle01.jpg","1","1","1","1","1","0","0.732014700071886","0.578014000086114","0.690543400123715","1","1","1","1","1","1","1","1","1"
"260046","img/object_images/bottle01.jpg","img/object_images/book03.jpg","img/object_images/pen03.jpg","1","1","0","0","1","0","0.690543400123715","0.732014700071886","0.895425299881026","1","1","1","1","1","1","1","1","1"
"260046","img/object_images/pen03.jpg","img/object_images/bottle01.jpg","img/object_images/lid01.jpg","0","1","1","0","0","1","0.895425299881026","0.690543400123715","0.535565899917856","1","1","1","1","1","1","1","1","1"
"260046","img/object_images/lid01.jpg","img/object_images/pen03.jpg","img/object_images/crutches02.jpg","1","0","1","1","0","0","0.535565899917856","0.895425299881026","0.538072200026363","1","1","1","1","1","1","1","1","1"
"260046","img/object_images/crutches02.jpg","img/object_images/lid01.jpg","img/object_images/clock02.jpg","1","1","1","0","1","0","0.538072200026363","0.535565899917856","0.571372099919245","1","1","1","1","1","1","1","1","1"
"260046","img/object_images/clock02.jpg","img/object_images/crutches02.jpg","img/object_images/pitcher01.jpg","1","1","1","0","0","0","0.571372099919245","0.538072200026363","0.623781200032681","1","1","1","1","1","1","1","1","1"
"260046","img/object_images/pitcher01.jpg","img/object_images/clock02.jpg","img/object_images/Oven01.jpg","1","1","1","0","0","1","0.623781200032681","0.571372099919245","0.696638199966401","1","1","1","1","1","1","1","1","1"
"260046","img/object_images/Oven01.jpg","img/object_images/pitcher01.jpg","img/object_images/knit05.jpg","1","1","1","1","0","1","0.696638199966401","0.623781200032681","0.560994799947366","1","1","1","1","1","1","1","1","1"
"260046","img/object_images/knit05.jpg","img/object_images/Oven01.jpg","img/object_images/Staples01.jpg","1","1","1","1","1","1","0.560994799947366","0.696638199966401","1.25498520000838","1","1","1","1","1","1","1","1","1"
"260046","img/object_images/Staples01.jpg","img/object_images/knit05.jpg","img/object_images/note_book01.jpg","1","1","1","1","1","0","1.25498520000838","0.560994799947366","1.5793783001136","1","1","1","1","1","1","1","1","1"
"260046","img/object_images/note_book01.jpg","img/object_images/Staples01.jpg","img/object_images/tennis_racket02.jpg","1","1","0","0","1","1","1.5793783001136","1.25498520000838","1.25122530013323","1","1","1","1","1","1","1","1","1"
"260046","img/object_images/tennis_racket02.jpg","img/object_images/note_book01.jpg","img/object_images/floppy_disk03.jpg","0","1","1","1","0","1","1.25122530013323","1.5793783001136","0.727326999884099","1","1","1","1","1","1","1","1","1"
"260046","img/object_images/floppy_disk03.jpg","img/object_images/tennis_racket02.jpg",NA,"1","0",NA,"1","1",NA,"0.727326999884099","1.25122530013323",NA,"1","1",NA,"1","1",NA,"1","1",NA
"260046","img/object_images/scoreboard01.jpg",NA,"img/object_images/fan02.jpg","0",NA,"1","1",NA,"0","1.45876910001971",NA,"0.644306600093842","1",NA,"1","1",NA,"1","1",NA,"1"
"260046","img/object_images/fan02.jpg","img/object_images/scoreboard01.jpg","img/object_images/boat_toy10.jpg","1","0","1","0","1","0","0.644306600093842","1.45876910001971","0.601696399971843","1","1","1","1","1","1","1","1","1"
"260046","img/object_images/boat_toy10.jpg","img/object_images/fan02.jpg","img/object_images/helmet04.jpg","1","1","1","0","0","1","0.601696399971843","0.644306600093842","0.43761399993673","1","1","1","1","1","1","1","1","1"
"260046","img/object_images/helmet04.jpg","img/object_images/boat_toy10.jpg","img/object_images/cellphone03.jpg","1","1","1","1","0","0","0.43761399993673","0.601696399971843","0.645701300119981","1","1","1","1","1","1","1","1","1"
"260046","img/object_images/cellphone03.jpg","img/object_images/helmet04.jpg","img/object_images/WoodBox01.jpg","1","1","1","0","1","0","0.645701300119981","0.43761399993673","0.590827099978924","1","1","1","1","1","1","1","1","1"
"260046","img/object_images/WoodBox01.jpg","img/object_images/cellphone03.jpg","img/object_images/perfume02.jpg","1","1","1","0","0","0","0.590827099978924","0.645701300119981","0.43401649990119","1","1","1","1","1","1","1","1","1"
"260046","img/object_images/perfume02.jpg","img/object_images/WoodBox01.jpg","img/object_images/hat06.jpg","1","1","1","0","0","0","0.43401649990119","0.590827099978924","0.653223499888554","1","1","1","1","1","1","1","1","1"
"260046","img/object_images/hat06.jpg","img/object_images/perfume02.jpg","img/object_images/bicycle01.jpg","1","1","1","0","0","1","0.653223499888554","0.43401649990119","0.403938400093466","1","1","1","1","1","1","1","1","1"
"260046","img/object_images/bicycle01.jpg","img/object_images/hat06.jpg","img/object_images/dog_leash01.jpg","1","1","1","1","0","0","0.403938400093466","0.653223499888554","0.436781600117683","1","1","1","1","1","1","1","1","1"
"260046","img/object_images/dog_leash01.jpg","img/object_images/bicycle01.jpg","img/object_images/bean_bag02.jpg","1","1","1","0","1","1","0.436781600117683","0.403938400093466","0.470555200008675","1","1","1","1","1","1","1","1","1"
"260046","img/object_images/bean_bag02.jpg","img/object_images/dog_leash01.jpg","img/object_images/hot_air_balloon02.jpg","1","1","1","1","0","0","0.470555200008675","0.436781600117683","0.497012099949643","1","1","1","1","1","1","1","1","1"
"260046","img/object_images/hot_air_balloon02.jpg","img/object_images/bean_bag02.jpg","img/object_images/piggy_bank01.jpg","1","1","1","0","1","1","0.497012099949643","0.470555200008675","0.532241099979728","1","1","1","1","1","1","1","1","1"
"260046","img/object_images/piggy_bank01.jpg","img/object_images/hot_air_balloon02.jpg","img/object_images/coloring_pencil02.jpg","1","1","1","1","0","0","0.532241099979728","0.497012099949643","0.422328199958429","1","1","1","1","1","1","1","1","1"
"260046","img/object_images/coloring_pencil02.jpg","img/object_images/piggy_bank01.jpg","img/object_images/chair03.jpg","1","1","1","0","1","0","0.422328199958429","0.532241099979728","0.574477300047874","1","1","1","1","1","1","1","1","1"
"260046","img/object_images/chair03.jpg","img/object_images/coloring_pencil02.jpg","img/object_images/tool19.jpg","1","1","1","0","0","1","0.574477300047874","0.422328199958429","0.471945599885657","1","1","1","1","1","1","1","1","1"
"260046","img/object_images/tool19.jpg","img/object_images/chair03.jpg","img/object_images/bottle09.jpg","1","1","1","1","0","0","0.471945599885657","0.574477300047874","0.501678199972957","1","1","1","1","1","1","1","1","1"
"260046","img/object_images/bottle09.jpg","img/object_images/tool19.jpg","img/object_images/audio_port01.jpg","1","1","1","0","1","1","0.501678199972957","0.471945599885657","0.386928600026295","1","1","1","1","1","1","1","1","1"
"260046","img/object_images/audio_port01.jpg","img/object_images/bottle09.jpg","img/object_images/pen05.jpg","1","1","0","1","0","0","0.386928600026295","0.501678199972957","0.361198500031605","1","1","1","1","1","1","1","1","1"
"260046","img/object_images/pen05.jpg","img/object_images/audio_port01.jpg","img/object_images/wagon_cart03.jpg","0","1","1","0","1","1","0.361198500031605","0.386928600026295","0.344802400097251","1","1","1","1","1","1","1","1","1"
"260046","img/object_images/wagon_cart03.jpg","img/object_images/pen05.jpg","img/object_images/knit01.jpg","1","0","0","1","0","0","0.344802400097251","0.361198500031605","0.461678399937227","1","1","1","1","1","1","1","1","2"
"260046","img/object_images/knit01.jpg","img/object_images/wagon_cart03.jpg","img/object_images/bottle02.jpg","0","1","1","0","1","1","0.461678399937227","0.344802400097251","0.415841799927875","1","1","1","1","1","1","2","1","1"
"260046","img/object_images/bottle02.jpg","img/object_images/knit01.jpg","img/object_images/toaster01.jpg","1","0","1","1","0","1","0.415841799927875","0.461678399937227","0.371961100026965","1","1","1","1","1","1","1","2","1"
"260046","img/object_images/toaster01.jpg","img/object_images/bottle02.jpg","img/object_images/purse04.jpg","1","1","1","1","1","1","0.371961100026965","0.415841799927875","0.524611599976197","1","1","1","1","1","1","1","1","1"
"260046","img/object_images/purse04.jpg","img/object_images/toaster01.jpg","img/object_images/flask01.jpg","1","1","1","1","1","0","0.524611599976197","0.371961100026965","0.592185199959204","1","1","1","1","1","1","1","1","1"
"260046","img/object_images/flask01.jpg","img/object_images/purse04.jpg","img/object_images/boat02.jpg","1","1","1","0","1","1","0.592185199959204","0.524611599976197","0.428476300090551","1","1","1","1","1","1","1","1","1"
"260046","img/object_images/boat02.jpg","img/object_images/flask01.jpg","img/object_images/bottle10.jpg","1","1","1","1","0","1","0.428476300090551","0.592185199959204","0.566014399984851","1","1","1","1","1","1","1","1","1"
"260046","img/object_images/bottle10.jpg","img/object_images/boat02.jpg","img/object_images/water_scooter01.jpg","1","1","1","1","1","1","0.566014399984851","0.428476300090551","0.519995700102299","1","1","1","1","1","1","1","1","1"
"260046","img/object_images/water_scooter01.jpg","img/object_images/bottle10.jpg","img/object_images/toilet_paper_dispenser01.jpg","1","1","1","1","1","1","0.519995700102299","0.566014399984851","0.449444599915296","1","1","1","1","1","1","1","1","1"
"260046","img/object_images/toilet_paper_dispenser01.jpg","img/object_images/water_scooter01.jpg","img/object_images/tie02.jpg","1","1","1","1","1","0","0.449444599915296","0.519995700102299","0.818826199974865","1","1","1","1","1","1","1","1","1"
"260046","img/object_images/tie02.jpg","img/object_images/toilet_paper_dispenser01.jpg","img/object_images/shoes07.jpg","1","1","1","0","1","0","0.818826199974865","0.449444599915296","1.10850970004685","1","1","1","1","1","1","1","1","1"
"260046","img/object_images/shoes07.jpg","img/object_images/tie02.jpg","img/object_images/camera_lens01.jpg","1","1","0","0","0","1","1.10850970004685","0.818826199974865","0.465097200125456","1","1","1","1","1","1","1","1","2"
"260046","img/object_images/camera_lens01.jpg","img/object_images/shoes07.jpg",NA,"0","1",NA,"1","0",NA,"0.465097200125456","1.10850970004685",NA,"1","1",NA,"1","1",NA,"2","1",NA
"260046","img/object_images/fork02.jpg",NA,"img/object_images/toothbrush01.jpg","0",NA,"1","0",NA,"0","1.08340839995071",NA,"0.756673200055957","1",NA,"1","1",NA,"1","1",NA,"1"
"260046","img/object_images/toothbrush01.jpg","img/object_images/fork02.jpg","img/object_images/mail_box02.jpg","1","0","1","0","0","1","0.756673200055957","1.08340839995071","0.563444099854678","1","1","1","1","1","1","1","1","1"
"260046","img/object_images/mail_box02.jpg","img/object_images/toothbrush01.jpg","img/object_images/blender01.jpg","1","1","0","1","0","0","0.563444099854678","0.756673200055957","0.40239889989607","1","1","1","1","1","1","1","1","1"
"260046","img/object_images/blender01.jpg","img/object_images/mail_box02.jpg","img/object_images/pitcher09.jpg","0","1","1","0","1","1","0.40239889989607","0.563444099854678","0.540576100116596","1","1","1","1","1","1","1","1","1"
"260046","img/object_images/pitcher09.jpg","img/object_images/blender01.jpg","img/object_images/toy01.jpg","1","0","1","1","0","1","0.540576100116596","0.40239889989607","0.440690000075847","1","1","1","1","1","1","1","1","1"
"260046","img/object_images/toy01.jpg","img/object_images/pitcher09.jpg","img/object_images/chain01.jpg","1","1","1","1","1","0","0.440690000075847","0.540576100116596","0.461513100191951","1","1","1","1","1","1","1","1","1"
"260046","img/object_images/chain01.jpg","img/object_images/toy01.jpg","img/object_images/pen01.jpg","1","1","1","0","1","0","0.461513100191951","0.440690000075847","0.518807200016454","1","1","1","1","1","1","1","1","1"
"260046","img/object_images/pen01.jpg","img/object_images/chain01.jpg","img/object_images/video_game03.jpg","1","1","1","0","0","1","0.518807200016454","0.461513100191951","0.481626900145784","1","1","1","1","1","1","1","1","1"
"260046","img/object_images/video_game03.jpg","img/object_images/pen01.jpg","img/object_images/bell03.jpg","1","1","1","1","0","0","0.481626900145784","0.518807200016454","0.51735179987736","1","1","1","1","1","1","1","1","1"
"260046","img/object_images/bell03.jpg","img/object_images/video_game03.jpg","img/object_images/tool06.jpg","1","1","1","0","1","0","0.51735179987736","0.481626900145784","0.622998800128698","1","1","1","1","1","1","1","1","1"
"260046","img/object_images/tool06.jpg","img/object_images/bell03.jpg","img/object_images/chair06.jpg","1","1","0","0","0","0","0.622998800128698","0.51735179987736","0.655176399974152","1","1","1","1","1","1","1","1","1"
"260046","img/object_images/chair06.jpg","img/object_images/tool06.jpg","img/object_images/skate_board01.jpg","0","1","0","0","0","0","0.655176399974152","0.622998800128698","0.863159700063989","1","1","1","1","1","1","1","1","1"
"260046","img/object_images/skate_board01.jpg","img/object_images/chair06.jpg","img/object_images/book02.jpg","0","0","1","0","0","1","0.863159700063989","0.655176399974152","0.522821699967608","1","1","1","1","1","1","1","1","1"
"260046","img/object_images/book02.jpg","img/object_images/skate_board01.jpg","img/object_images/couch01.jpg","1","0","0","1","0","0","0.522821699967608","0.863159700063989","0.988004900049418","1","1","1","1","1","1","1","1","1"
"260046","img/object_images/couch01.jpg","img/object_images/book02.jpg","img/object_images/rock02.jpg","0","1","0","0","1","0","0.988004900049418","0.522821699967608","0.904808999970555","1","1","1","1","1","1","1","1","1"
"260046","img/object_images/rock02.jpg","img/object_images/couch01.jpg","img/object_images/drone01.jpg","0","0","0","0","0","1","0.904808999970555","0.988004900049418","0.942719900049269","1","1","1","1","1","1","1","1","1"
"260046","img/object_images/drone01.jpg","img/object_images/rock02.jpg","img/object_images/bag_pipes01.jpg","0","0","1","1","0","1","0.942719900049269","0.904808999970555","0.677454800112173","1","1","1","1","1","1","1","1","1"
"260046","img/object_images/bag_pipes01.jpg","img/object_images/drone01.jpg","img/object_images/hair_brush01.jpg","1","0","1","1","1","1","0.677454800112173","0.942719900049269","0.591727100079879","1","1","1","1","1","1","1","1","1"
"260046","img/object_images/hair_brush01.jpg","img/object_images/bag_pipes01.jpg","img/object_images/airfryer02.jpg","1","1","1","1","1","1","0.591727100079879","0.677454800112173","0.449712499976158","1","1","1","1","1","1","1","1","1"
"260046","img/object_images/airfryer02.jpg","img/object_images/hair_brush01.jpg","img/object_images/tripod01.jpg","1","1","1","1","1","1","0.449712499976158","0.591727100079879","0.397968100151047","1","1","1","1","1","1","1","1","1"
"260046","img/object_images/tripod01.jpg","img/object_images/airfryer02.jpg","img/object_images/box03.jpg","1","1","1","1","1","0","0.397968100151047","0.449712499976158","0.43651369982399","1","1","1","1","1","1","1","1","1"
"260046","img/object_images/box03.jpg","img/object_images/tripod01.jpg","img/object_images/Violin01.jpg","1","1","1","0","1","0","0.43651369982399","0.397968100151047","1.25652979989536","1","1","1","1","1","1","1","1","1"
"260046","img/object_images/Violin01.jpg","img/object_images/box03.jpg","img/object_images/floss02.jpg","1","1","1","0","0","1","1.25652979989536","0.43651369982399","0.739792800042778","1","1","1","1","1","1","1","1","1"
"260046","img/object_images/floss02.jpg","img/object_images/Violin01.jpg","img/object_images/Trowel01.jpg","1","1","1","1","0","0","0.739792800042778","1.25652979989536","0.628348500002176","1","1","1","1","1","1","1","1","1"
"260046","img/object_images/Trowel01.jpg","img/object_images/floss02.jpg","img/object_images/shoes12.jpg","1","1","1","0","1","1","0.628348500002176","0.739792800042778","0.726992499781772","1","1","1","1","1","1","1","1","1"
"260046","img/object_images/shoes12.jpg","img/object_images/Trowel01.jpg","img/object_images/computer_mouse02.jpg","1","1","0","1","0","0","0.726992499781772","0.628348500002176","0.617350999964401","1","1","1","1","1","1","1","1","2"
"260046","img/object_images/computer_mouse02.jpg","img/object_images/shoes12.jpg","img/object_images/scarf01.jpg","0","1","1","0","1","1","0.617350999964401","0.726992499781772","0.574250400066376","1","1","1","1","1","1","2","1","1"
"260046","img/object_images/scarf01.jpg","img/object_images/computer_mouse02.jpg","img/object_images/clip04.jpg","1","0","1","1","0","1","0.574250400066376","0.617350999964401","1.77359009999782","1","1","1","1","1","1","1","2","1"
"260046","img/object_images/clip04.jpg","img/object_images/scarf01.jpg","img/object_images/computer_mouse01.jpg","1","1","1","1","1","1","1.77359009999782","0.574250400066376","0.661985400132835","1","1","1","1","1","1","1","1","1"
"260046","img/object_images/computer_mouse01.jpg","img/object_images/clip04.jpg","img/object_images/soap03.jpg","1","1","0","1","1","0","0.661985400132835","1.77359009999782","0.531201099976897","1","1","1","1","1","1","1","1","1"
"260046","img/object_images/soap03.jpg","img/object_images/computer_mouse01.jpg","img/object_images/egg_slicer01.jpg","0","1","1","0","1","1","0.531201099976897","0.661985400132835","0.554352400125936","1","1","1","1","1","1","1","1","1"
"260046","img/object_images/egg_slicer01.jpg","img/object_images/soap03.jpg",NA,"1","0",NA,"1","0",NA,"0.554352400125936","0.531201099976897",NA,"1","1",NA,"1","1",NA,"1","1",NA
"260046","img/object_images/pen06.jpg",NA,"img/object_images/razor02.jpg","1",NA,"1","0",NA,"1","1.06789009994827",NA,"0.70941219991073","1",NA,"1","1",NA,"1","1",NA,"1"
"260046","img/object_images/razor02.jpg","img/object_images/pen06.jpg","img/object_images/office_supplies01.jpg","1","1","1","1","0","1","0.70941219991073","1.06789009994827","0.520465799840167","1","1","1","1","1","1","1","1","1"
"260046","img/object_images/office_supplies01.jpg","img/object_images/razor02.jpg","img/object_images/socks01.jpg","1","1","1","1","1","1","0.520465799840167","0.70941219991073","0.533848900115117","1","1","1","1","1","1","1","1","1"
"260046","img/object_images/socks01.jpg","img/object_images/office_supplies01.jpg","img/object_images/ruler02.jpg","1","1","0","1","1","1","0.533848900115117","0.520465799840167","0.42568980017677","1","1","1","1","1","1","1","1","1"
"260046","img/object_images/ruler02.jpg","img/object_images/socks01.jpg","img/object_images/tool20.jpg","0","1","1","1","1","0","0.42568980017677","0.533848900115117","1.21863109990954","1","1","1","1","1","1","1","1","1"
"260046","img/object_images/tool20.jpg","img/object_images/ruler02.jpg","img/object_images/hammer02.jpg","1","0","1","0","1","0","1.21863109990954","0.42568980017677","0.702888100175187","1","1","1","1","1","1","1","1","1"
"260046","img/object_images/hammer02.jpg","img/object_images/tool20.jpg","img/object_images/sign02.jpg","1","1","1","0","0","0","0.702888100175187","1.21863109990954","0.645165200112388","1","1","1","1","1","1","1","1","1"
"260046","img/object_images/sign02.jpg","img/object_images/hammer02.jpg","img/object_images/hat09.jpg","1","1","1","0","0","0","0.645165200112388","0.702888100175187","0.57485909992829","1","1","1","1","1","1","1","1","1"
"260046","img/object_images/hat09.jpg","img/object_images/sign02.jpg","img/object_images/board01.jpg","1","1","1","0","0","1","0.57485909992829","0.645165200112388","0.40522009995766","1","1","1","1","1","1","1","1","1"
"260046","img/object_images/board01.jpg","img/object_images/hat09.jpg","img/object_images/glasses03.jpg","1","1","1","1","0","0","0.40522009995766","0.57485909992829","0.566210499964654","1","1","1","1","1","1","1","1","1"
"260046","img/object_images/glasses03.jpg","img/object_images/board01.jpg","img/object_images/cup01.jpg","1","1","1","0","1","0","0.566210499964654","0.40522009995766","0.536021899897605","1","1","1","1","1","1","1","1","1"
"260046","img/object_images/cup01.jpg","img/object_images/glasses03.jpg","img/object_images/video_game02.jpg","1","1","1","0","0","1","0.536021899897605","0.566210499964654","0.440508000086993","1","1","1","1","1","1","1","1","1"
"260046","img/object_images/video_game02.jpg","img/object_images/cup01.jpg","img/object_images/sink_filter01 (1).jpg","1","1","1","1","0","0","0.440508000086993","0.536021899897605","0.706956899957731","1","1","1","1","1","1","1","1","1"
"260046","img/object_images/sink_filter01 (1).jpg","img/object_images/video_game02.jpg","img/object_images/clipboard01.jpg","1","1","1","0","1","1","0.706956899957731","0.440508000086993","0.520922600058839","1","1","1","1","1","1","1","1","1"
"260046","img/object_images/clipboard01.jpg","img/object_images/sink_filter01 (1).jpg","img/object_images/tool13.jpg","1","1","1","1","0","1","0.520922600058839","0.706956899957731","0.476639499887824","1","1","1","1","1","1","1","1","1"
"260046","img/object_images/tool13.jpg","img/object_images/clipboard01.jpg","img/object_images/floss01.jpg","1","1","1","1","1","1","0.476639499887824","0.520922600058839","0.403582400176674","1","1","1","1","1","1","1","1","1"
"260046","img/object_images/floss01.jpg","img/object_images/tool13.jpg","img/object_images/Confetti 01.jpg","1","1","1","1","1","0","0.403582400176674","0.476639499887824","0.555188099853694","1","1","1","1","1","1","1","1","1"
"260046","img/object_images/Confetti 01.jpg","img/object_images/floss01.jpg","img/object_images/lemon_squeezer01.jpg","1","1","1","0","1","1","0.555188099853694","0.403582400176674","0.743984199827537","1","1","1","1","1","1","1","1","1"
"260046","img/object_images/lemon_squeezer01.jpg","img/object_images/Confetti 01.jpg","img/object_images/perfume01.jpg","1","1","1","1","0","0","0.743984199827537","0.555188099853694","0.808604299789295","1","1","1","1","1","1","1","1","1"
"260046","img/object_images/perfume01.jpg","img/object_images/lemon_squeezer01.jpg","img/object_images/camera05.jpg","1","1","0","0","1","0","0.808604299789295","0.743984199827537","0.748469599988312","1","1","1","1","1","1","1","1","1"
"260046","img/object_images/camera05.jpg","img/object_images/perfume01.jpg","img/object_images/vase02.jpg","0","1","1","0","0","1","0.748469599988312","0.808604299789295","0.562252700095996","1","1","1","1","1","1","1","1","1"
"260046","img/object_images/vase02.jpg","img/object_images/camera05.jpg","img/object_images/duster01.jpg","1","0","1","1","0","0","0.562252700095996","0.748469599988312","0.51276129996404","1","1","1","1","1","1","1","1","1"
"260046","img/object_images/duster01.jpg","img/object_images/vase02.jpg","img/object_images/knife01.jpg","1","1","1","0","1","1","0.51276129996404","0.562252700095996","0.429204799933359","1","1","1","1","1","1","1","1","1"
"260046","img/object_images/knife01.jpg","img/object_images/duster01.jpg","img/object_images/spray_can01.jpg","1","1","1","1","0","0","0.429204799933359","0.51276129996404","0.375732500106096","1","1","1","1","1","1","1","1","1"
"260046","img/object_images/spray_can01.jpg","img/object_images/knife01.jpg","img/object_images/bag04.jpg","1","1","1","0","1","0","0.375732500106096","0.429204799933359","0.602970100007951","1","1","1","1","1","1","1","1","1"
"260046","img/object_images/bag04.jpg","img/object_images/spray_can01.jpg","img/object_images/pan03.jpg","1","1","1","0","0","1","0.602970100007951","0.375732500106096","0.42779599991627","1","1","1","1","1","1","1","1","1"
"260046","img/object_images/pan03.jpg","img/object_images/bag04.jpg","img/object_images/dust_pan01.jpg","1","1","1","1","0","1","0.42779599991627","0.602970100007951","0.452233599964529","1","1","1","1","1","1","1","1","1"
"260046","img/object_images/dust_pan01.jpg","img/object_images/pan03.jpg","img/object_images/Candle_Holder01.jpg","1","1","1","1","1","0","0.452233599964529","0.42779599991627","0.655325900064781","1","1","1","1","1","1","1","1","1"
"260046","img/object_images/Candle_Holder01.jpg","img/object_images/dust_pan01.jpg","img/object_images/bow_tie03.jpg","1","1","1","0","1","1","0.655325900064781","0.452233599964529","0.420001299818978","1","1","1","1","1","1","1","1","1"
"260046","img/object_images/bow_tie03.jpg","img/object_images/Candle_Holder01.jpg","img/object_images/hat13.jpg","1","1","1","1","0","1","0.420001299818978","0.655325900064781","0.559261100133881","1","1","1","1","1","1","1","1","1"
"260046","img/object_images/hat13.jpg","img/object_images/bow_tie03.jpg","img/object_images/candle02.jpg","1","1","1","1","1","0","0.559261100133881","0.420001299818978","0.638313399860635","1","1","1","1","1","1","1","1","1"
"260046","img/object_images/candle02.jpg","img/object_images/hat13.jpg",NA,"1","1",NA,"0","1",NA,"0.638313399860635","0.559261100133881",NA,"1","1",NA,"1","1",NA,"1","1",NA
"260046","img/object_images/couch04.jpg",NA,"img/object_images/toy_train02.jpg","1",NA,"1","1",NA,"1","0.610995900118724",NA,"0.585053100017831","1",NA,"1","1",NA,"1","1",NA,"1"
"260046","img/object_images/toy_train02.jpg","img/object_images/couch04.jpg","img/object_images/razor03.jpg","1","1","1","1","1","0","0.585053100017831","0.610995900118724","1.02795230015181","1","1","1","1","1","1","1","1","1"
"260046","img/object_images/razor03.jpg","img/object_images/toy_train02.jpg","img/object_images/decorative02.jpg","1","1","0","0","1","0","1.02795230015181","0.585053100017831","0.459709499962628","1","1","1","1","1","1","1","1","1"
"260046","img/object_images/decorative02.jpg","img/object_images/razor03.jpg","img/object_images/drone02.jpg","0","1","1","0","0","0","0.459709499962628","1.02795230015181","0.591532799880952","1","1","1","1","1","1","1","1","1"
"260046","img/object_images/drone02.jpg","img/object_images/decorative02.jpg","img/object_images/video_game06.jpg","1","0","1","0","0","0","0.591532799880952","0.459709499962628","0.61561349988915","1","1","1","1","1","1","1","1","1"
"260046","img/object_images/video_game06.jpg","img/object_images/drone02.jpg","img/object_images/guitar01.jpg","1","1","1","0","0","1","0.61561349988915","0.591532799880952","0.473154499894008","1","1","1","1","1","1","1","1","1"
"260046","img/object_images/guitar01.jpg","img/object_images/video_game06.jpg","img/object_images/chair01.jpg","1","1","1","1","0","0","0.473154499894008","0.61561349988915","0.563155699986964","1","1","1","1","1","1","1","1","1"
"260046","img/object_images/chair01.jpg","img/object_images/guitar01.jpg","img/object_images/pot01.jpg","1","1","1","0","1","0","0.563155699986964","0.473154499894008","0.648925199871883","1","1","1","1","1","1","1","1","1"
"260046","img/object_images/pot01.jpg","img/object_images/chair01.jpg","img/object_images/bottle12.jpg","1","1","1","0","0","1","0.648925199871883","0.563155699986964","0.40587170002982","1","1","1","1","1","1","1","1","1"
"260046","img/object_images/bottle12.jpg","img/object_images/pot01.jpg","img/object_images/brief_case02.jpg","1","1","1","1","0","1","0.40587170002982","0.648925199871883","0.529715500073507","1","1","1","1","1","1","1","1","1"
"260046","img/object_images/brief_case02.jpg","img/object_images/bottle12.jpg","img/object_images/broom01.jpg","1","1","1","1","1","1","0.529715500073507","0.40587170002982","0.467773400014266","1","1","1","1","1","1","1","1","1"
"260046","img/object_images/broom01.jpg","img/object_images/brief_case02.jpg","img/object_images/airfryer01.jpg","1","1","1","1","1","0","0.467773400014266","0.529715500073507","0.514584300108254","1","1","1","1","1","1","1","1","1"
"260046","img/object_images/airfryer01.jpg","img/object_images/broom01.jpg","img/object_images/lamp01.jpg","1","1","1","0","1","1","0.514584300108254","0.467773400014266","0.42102440004237","1","1","1","1","1","1","1","1","1"
"260046","img/object_images/lamp01.jpg","img/object_images/airfryer01.jpg","img/object_images/helmet05.jpg","1","1","1","1","0","1","0.42102440004237","0.514584300108254","0.622971099801362","1","1","1","1","1","1","1","1","1"
"260046","img/object_images/helmet05.jpg","img/object_images/lamp01.jpg","img/object_images/ironing_table02.jpg","1","1","1","1","1","0","0.622971099801362","0.42102440004237","0.730374700156972","1","1","1","1","1","1","1","1","1"
"260046","img/object_images/ironing_table02.jpg","img/object_images/helmet05.jpg","img/object_images/basketball_hoop02.jpg","1","1","1","0","1","0","0.730374700156972","0.622971099801362","0.590013600187376","1","1","1","1","1","1","1","1","1"
"260046","img/object_images/basketball_hoop02.jpg","img/object_images/ironing_table02.jpg","img/object_images/container01.jpg","1","1","0","0","0","0","0.590013600187376","0.730374700156972","0.834710799856111","1","1","1","1","1","1","1","1","1"
"260046","img/object_images/container01.jpg","img/object_images/basketball_hoop02.jpg","img/object_images/Wisk01.jpg","0","1","1","0","0","1","0.834710799856111","0.590013600187376","0.495928300078958","1","1","1","1","1","1","1","1","1"
"260046","img/object_images/Wisk01.jpg","img/object_images/container01.jpg","img/object_images/lantern01.jpg","1","0","1","1","0","1","0.495928300078958","0.834710799856111","0.454495799960569","1","1","1","1","1","1","1","1","1"
"260046","img/object_images/lantern01.jpg","img/object_images/Wisk01.jpg","img/object_images/soap01.jpg","1","1","1","1","1","0","0.454495799960569","0.495928300078958","0.511371199972928","1","1","1","1","1","1","1","1","1"
"260046","img/object_images/soap01.jpg","img/object_images/lantern01.jpg","img/object_images/car02.jpg","1","1","1","0","1","0","0.511371199972928","0.454495799960569","0.495788600062951","1","1","1","1","1","1","1","1","1"
"260046","img/object_images/car02.jpg","img/object_images/soap01.jpg","img/object_images/hat02.jpg","1","1","1","0","0","0","0.495788600062951","0.511371199972928","0.562826999928802","1","1","1","1","1","1","1","1","1"
"260046","img/object_images/hat02.jpg","img/object_images/car02.jpg","img/object_images/pitcher03.jpg","1","1","1","0","0","1","0.562826999928802","0.495788600062951","0.483916700119153","1","1","1","1","1","1","1","1","1"
"260046","img/object_images/pitcher03.jpg","img/object_images/hat02.jpg","img/object_images/gloves05.jpg","1","1","1","1","0","1","0.483916700119153","0.562826999928802","0.48471079999581","1","1","1","1","1","1","1","1","1"
"260046","img/object_images/gloves05.jpg","img/object_images/pitcher03.jpg","img/object_images/cochlear_implant01.jpg","1","1","1","1","1","0","0.48471079999581","0.483916700119153","0.479687300045043","1","1","1","1","1","1","1","1","1"
"260046","img/object_images/cochlear_implant01.jpg","img/object_images/gloves05.jpg","img/object_images/Woopie01.jpg","1","1","1","0","1","1","0.479687300045043","0.48471079999581","0.7988435998559","1","1","1","1","1","1","1","1","1"
"260046","img/object_images/Woopie01.jpg","img/object_images/cochlear_implant01.jpg","img/object_images/Recycling01.jpg","1","1","1","1","0","1","0.7988435998559","0.479687300045043","0.418547199806198","1","1","1","1","1","1","1","1","1"
"260046","img/object_images/Recycling01.jpg","img/object_images/Woopie01.jpg","img/object_images/brief_case01.jpg","1","1","1","1","1","0","0.418547199806198","0.7988435998559","0.462378300027922","1","1","1","1","1","1","1","1","1"
"260046","img/object_images/brief_case01.jpg","img/object_images/Recycling01.jpg","img/object_images/toilet_paper01.jpg","1","1","1","0","1","1","0.462378300027922","0.418547199806198","0.40380600001663","1","1","1","1","1","1","1","1","1"
"260046","img/object_images/toilet_paper01.jpg","img/object_images/brief_case01.jpg","img/object_images/tie01.jpg","1","1","1","1","0","0","0.40380600001663","0.462378300027922","0.37902730004862","1","1","1","1","1","1","1","1","1"
"260046","img/object_images/tie01.jpg","img/object_images/toilet_paper01.jpg","img/object_images/ball01.jpg","1","1","1","0","1","1","0.37902730004862","0.40380600001663","0.856572999851778","1","1","1","1","1","1","1","1","1"
"260046","img/object_images/ball01.jpg","img/object_images/tie01.jpg",NA,"1","1",NA,"1","0",NA,"0.856572999851778","0.37902730004862",NA,"1","1",NA,"1","1",NA,"1","1",NA
"260046","img/object_images/calculator01.jpg",NA,"img/object_images/towels01.jpg","1",NA,"0","1",NA,"0","0.640927199972793",NA,"0.933343400014564","1",NA,"1","1",NA,"1","1",NA,"1"
"260046","img/object_images/towels01.jpg","img/object_images/calculator01.jpg","img/object_images/shoes08.jpg","0","1","1","0","1","1","0.933343400014564","0.640927199972793","0.822358699981123","1","1","1","1","1","1","1","1","1"
"260046","img/object_images/shoes08.jpg","img/object_images/towels01.jpg","img/object_images/accardion01.jpg","1","0","1","1","0","1","0.822358699981123","0.933343400014564","0.536902900086716","1","1","1","1","1","1","1","1","1"
"260046","img/object_images/accardion01.jpg","img/object_images/shoes08.jpg","img/object_images/trash_can03.jpg","1","1","1","1","1","1","0.536902900086716","0.822358699981123","0.500660399906337","1","1","1","1","1","1","1","1","1"
"260046","img/object_images/trash_can03.jpg","img/object_images/accardion01.jpg","img/object_images/lock01.jpg","1","1","1","1","1","0","0.500660399906337","0.536902900086716","0.562667099991813","1","1","1","1","1","1","1","1","1"
"260046","img/object_images/lock01.jpg","img/object_images/trash_can03.jpg","img/object_images/robe01.jpg","1","1","1","0","1","1","0.562667099991813","0.500660399906337","0.412254800088704","1","1","1","1","1","1","1","1","1"
"260046","img/object_images/robe01.jpg","img/object_images/lock01.jpg","img/object_images/pitcher05.jpg","1","1","1","1","0","0","0.412254800088704","0.562667099991813","0.599434799980372","1","1","1","1","1","1","1","1","1"
"260046","img/object_images/pitcher05.jpg","img/object_images/robe01.jpg","img/object_images/vase01.jpg","1","1","1","0","1","0","0.599434799980372","0.412254800088704","0.530949499923736","1","1","1","1","1","1","1","1","1"
"260046","img/object_images/vase01.jpg","img/object_images/pitcher05.jpg","img/object_images/jewel03.jpg","1","1","1","0","0","1","0.530949499923736","0.599434799980372","0.430503600044176","1","1","1","1","1","1","1","1","1"
"260046","img/object_images/jewel03.jpg","img/object_images/vase01.jpg","img/object_images/chair02.jpg","1","1","1","1","0","1","0.430503600044176","0.530949499923736","0.55198029987514","1","1","1","1","1","1","1","1","1"
"260046","img/object_images/chair02.jpg","img/object_images/jewel03.jpg","img/object_images/laptop03.jpg","1","1","1","1","1","1","0.55198029987514","0.430503600044176","0.358353900024667","1","1","1","1","1","1","1","1","1"
"260046","img/object_images/laptop03.jpg","img/object_images/chair02.jpg","img/object_images/laptop01.jpg","1","1","0","1","1","0","0.358353900024667","0.55198029987514","0.415375200100243","1","1","1","1","1","1","1","1","1"
"260046","img/object_images/laptop01.jpg","img/object_images/laptop03.jpg","img/object_images/ball02.jpg","0","1","1","0","1","1","0.415375200100243","0.358353900024667","0.433931899955496","1","1","1","1","1","1","1","1","1"
"260046","img/object_images/ball02.jpg","img/object_images/laptop01.jpg","img/object_images/fan04.jpg","1","0","1","1","0","0","0.433931899955496","0.415375200100243","0.493274800013751","1","1","1","1","1","1","1","1","1"
"260046","img/object_images/fan04.jpg","img/object_images/ball02.jpg","img/object_images/microphone03.jpg","1","1","1","0","1","1","0.493274800013751","0.433931899955496","0.473152899881825","1","1","1","1","1","1","1","1","1"
"260046","img/object_images/microphone03.jpg","img/object_images/fan04.jpg","img/object_images/toy05.jpg","1","1","1","1","0","0","0.473152899881825","0.493274800013751","0.590892300009727","1","1","1","1","1","1","1","1","1"
"260046","img/object_images/toy05.jpg","img/object_images/microphone03.jpg","img/object_images/spatula02.jpg","1","1","1","0","1","1","0.590892300009727","0.473152899881825","0.552921100053936","1","1","1","1","1","1","1","1","1"
"260046","img/object_images/spatula02.jpg","img/object_images/toy05.jpg","img/object_images/Vest02.jpg","1","1","1","1","0","0","0.552921100053936","0.590892300009727","0.655086300102994","1","1","1","1","1","1","1","1","1"
"260046","img/object_images/Vest02.jpg","img/object_images/spatula02.jpg","img/object_images/backpack03.jpg","1","1","1","0","1","1","0.655086300102994","0.552921100053936","0.509339099982753","1","1","1","1","1","1","1","1","1"
"260046","img/object_images/backpack03.jpg","img/object_images/Vest02.jpg","img/object_images/umbrella01.jpg","1","1","1","1","0","0","0.509339099982753","0.655086300102994","0.73085659998469","1","1","1","1","1","1","1","1","1"
"260046","img/object_images/umbrella01.jpg","img/object_images/backpack03.jpg","img/object_images/combs01.jpg","1","1","1","0","1","1","0.73085659998469","0.509339099982753","0.580576200038195","1","1","1","1","1","1","1","1","1"
"260046","img/object_images/combs01.jpg","img/object_images/umbrella01.jpg","img/object_images/trash_can05.jpg","1","1","1","1","0","1","0.580576200038195","0.73085659998469","0.566779999993742","1","1","1","1","1","1","1","1","1"
"260046","img/object_images/trash_can05.jpg","img/object_images/combs01.jpg","img/object_images/gift_box05.jpg","1","1","1","1","1","0","0.566779999993742","0.580576200038195","0.403487699804828","1","1","1","1","1","1","1","1","1"
"260046","img/object_images/gift_box05.jpg","img/object_images/trash_can05.jpg","img/object_images/hair_dryer01.jpg","1","1","0","0","1","0","0.403487699804828","0.566779999993742","0.421490000095218","1","1","1","1","1","1","1","1","1"
"260046","img/object_images/hair_dryer01.jpg","img/object_images/gift_box05.jpg","img/object_images/surf_board01.jpg","0","1","1","0","0","1","0.421490000095218","0.403487699804828","0.790655499789864","1","1","1","1","1","1","1","1","1"
"260046","img/object_images/surf_board01.jpg","img/object_images/hair_dryer01.jpg","img/object_images/stove01.jpg","1","0","0","1","0","0","0.790655499789864","0.421490000095218","0.444741999963298","1","1","1","1","1","1","1","1","1"
"260046","img/object_images/stove01.jpg","img/object_images/surf_board01.jpg","img/object_images/hair_brush02.jpg","0","1","1","0","1","0","0.444741999963298","0.790655499789864","0.651938800001517","1","1","1","1","1","1","1","1","1"
"260046","img/object_images/hair_brush02.jpg","img/object_images/stove01.jpg","img/object_images/Lint_Roller02.jpg","1","0","1","0","0","0","0.651938800001517","0.444741999963298","0.627039900049567","1","1","1","1","1","1","1","1","1"
"260046","img/object_images/Lint_Roller02.jpg","img/object_images/hair_brush02.jpg","img/object_images/helmet02.jpg","1","1","1","0","0","0","0.627039900049567","0.651938800001517","0.757895099930465","1","1","1","1","1","1","1","1","1"
"260046","img/object_images/helmet02.jpg","img/object_images/Lint_Roller02.jpg","img/object_images/chess_piece01.jpg","1","1","1","0","0","0","0.757895099930465","0.627039900049567","0.585072000045329","1","1","1","1","1","1","1","1","1"
"260046","img/object_images/chess_piece01.jpg","img/object_images/helmet02.jpg","img/object_images/bucket02.jpg","1","1","1","0","0","1","0.585072000045329","0.757895099930465","0.523708699969575","1","1","1","1","1","1","1","1","1"
"260046","img/object_images/bucket02.jpg","img/object_images/chess_piece01.jpg",NA,"1","1",NA,"1","0",NA,"0.523708699969575","0.585072000045329",NA,"1","1",NA,"1","1",NA,"1","1",NA
"260046","img/object_images/nut_cracker01.jpg",NA,"img/object_images/water_gun01.jpg","1",NA,"1","1",NA,"1","0.769290199968964",NA,"0.622252800036222","1",NA,"1","1",NA,"1","1",NA,"1"
"260046","img/object_images/water_gun01.jpg","img/object_images/nut_cracker01.jpg","img/object_images/usb03.jpg","1","1","1","1","1","0","0.622252800036222","0.769290199968964","1.05312369996682","1","1","1","1","1","1","1","1","1"
"260046","img/object_images/usb03.jpg","img/object_images/water_gun01.jpg","img/object_images/bottle06.jpg","1","1","1","0","1","0","1.05312369996682","0.622252800036222","0.580794499954209","1","1","1","1","1","1","1","1","1"
"260046","img/object_images/bottle06.jpg","img/object_images/usb03.jpg","img/object_images/tennis_racket01.jpg","1","1","1","0","0","1","0.580794499954209","1.05312369996682","0.486564300023019","1","1","1","1","1","1","1","1","1"
"260046","img/object_images/tennis_racket01.jpg","img/object_images/bottle06.jpg","img/object_images/pitcher07.jpg","1","1","1","1","0","1","0.486564300023019","0.580794499954209","0.500794500112534","1","1","1","1","1","1","1","1","1"
"260046","img/object_images/pitcher07.jpg","img/object_images/tennis_racket01.jpg","img/object_images/Safe01.jpg","1","1","1","1","1","1","0.500794500112534","0.486564300023019","0.374120299937204","1","1","1","1","1","1","1","1","1"
"260046","img/object_images/Safe01.jpg","img/object_images/pitcher07.jpg","img/object_images/piano03.jpg","1","1","1","1","1","0","0.374120299937204","0.500794500112534","1.07189270015806","1","1","1","1","1","1","1","1","1"
"260046","img/object_images/piano03.jpg","img/object_images/Safe01.jpg","img/object_images/helmet03.jpg","1","1","1","0","1","1","1.07189270015806","0.374120299937204","0.750157099915668","1","1","1","1","1","1","1","1","1"
"260046","img/object_images/helmet03.jpg","img/object_images/piano03.jpg","img/object_images/frame01.jpg","1","1","1","1","0","1","0.750157099915668","1.07189270015806","0.566032100003213","1","1","1","1","1","1","1","1","1"
"260046","img/object_images/frame01.jpg","img/object_images/helmet03.jpg","img/object_images/Shoes05.jpg","1","1","1","1","1","0","0.566032100003213","0.750157099915668","0.523396299919114","1","1","1","1","1","1","1","1","1"
"260046","img/object_images/Shoes05.jpg","img/object_images/frame01.jpg","img/object_images/note_book02.jpg","1","1","1","0","1","0","0.523396299919114","0.566032100003213","1.52310420013964","1","1","1","1","1","1","1","1","1"
"260046","img/object_images/note_book02.jpg","img/object_images/Shoes05.jpg","img/object_images/Eyeliner01.jpg","1","1","1","0","0","1","1.52310420013964","0.523396299919114","0.932861799839884","1","1","1","1","1","1","1","1","1"
"260046","img/object_images/Eyeliner01.jpg","img/object_images/note_book02.jpg","img/object_images/TreeSlice01.jpg","1","1","1","1","0","1","0.932861799839884","1.52310420013964","0.669786800164729","1","1","1","1","1","1","1","1","1"
"260046","img/object_images/TreeSlice01.jpg","img/object_images/Eyeliner01.jpg","img/object_images/lock03.jpg","1","1","1","1","1","1","0.669786800164729","0.932861799839884","0.599897500127554","1","1","1","1","1","1","1","1","1"
"260046","img/object_images/lock03.jpg","img/object_images/TreeSlice01.jpg","img/object_images/trumpet01.jpg","1","1","1","1","1","0","0.599897500127554","0.669786800164729","0.514396999962628","1","1","1","1","1","1","1","1","1"
"260046","img/object_images/trumpet01.jpg","img/object_images/lock03.jpg","img/object_images/origami01.jpg","1","1","1","0","1","1","0.514396999962628","0.599897500127554","0.509262299863622","1","1","1","1","1","1","1","1","1"
"260046","img/object_images/origami01.jpg","img/object_images/trumpet01.jpg","img/object_images/fan01.jpg","1","1","1","1","0","0","0.509262299863622","0.514396999962628","0.37663480010815","1","1","1","1","1","1","1","1","1"
"260046","img/object_images/fan01.jpg","img/object_images/origami01.jpg","img/object_images/shovel01.jpg","1","1","1","0","1","0","0.37663480010815","0.509262299863622","0.381865799892694","1","1","1","1","1","1","1","1","1"
"260046","img/object_images/shovel01.jpg","img/object_images/fan01.jpg","img/object_images/phone04.jpg","1","1","1","0","0","1","0.381865799892694","0.37663480010815","0.516157699981704","1","1","1","1","1","1","1","1","1"
"260046","img/object_images/phone04.jpg","img/object_images/shovel01.jpg","img/object_images/scale02.jpg","1","1","0","1","0","0","0.516157699981704","0.381865799892694","0.377538500120863","1","1","1","1","1","1","1","1","1"
"260046","img/object_images/scale02.jpg","img/object_images/phone04.jpg","img/object_images/jewel02.jpg","0","1","1","0","1","0","0.377538500120863","0.516157699981704","0.557585499947891","1","1","1","1","1","1","1","1","1"
"260046","img/object_images/jewel02.jpg","img/object_images/scale02.jpg","img/object_images/ToolBag01.jpg","1","0","1","0","0","0","0.557585499947891","0.377538500120863","0.491112199844792","1","1","1","1","1","1","1","1","1"
"260046","img/object_images/ToolBag01.jpg","img/object_images/jewel02.jpg","img/object_images/yoga_mat01.jpg","1","1","1","0","0","0","0.491112199844792","0.557585499947891","0.790807600133121","1","1","1","1","1","1","1","1","1"
"260046","img/object_images/yoga_mat01.jpg","img/object_images/ToolBag01.jpg","img/object_images/belt03.jpg","1","1","1","0","0","0","0.790807600133121","0.491112199844792","0.53041119989939","1","1","1","1","1","1","1","1","1"
"260046","img/object_images/belt03.jpg","img/object_images/yoga_mat01.jpg","img/object_images/joystick03.jpg","1","1","1","0","0","1","0.53041119989939","0.790807600133121","0.522186599904671","1","1","1","1","1","1","1","1","1"
"260046","img/object_images/joystick03.jpg","img/object_images/belt03.jpg","img/object_images/badminton01.jpg","1","1","1","1","0","1","0.522186599904671","0.53041119989939","0.711529399966821","1","1","1","1","1","1","1","1","1"
"260046","img/object_images/badminton01.jpg","img/object_images/joystick03.jpg","img/object_images/headset02.jpg","1","1","1","1","1","0","0.711529399966821","0.522186599904671","0.521418000105768","1","1","1","1","1","1","1","1","1"
"260046","img/object_images/headset02.jpg","img/object_images/badminton01.jpg","img/object_images/egg_basket01.jpg","1","1","1","0","1","1","0.521418000105768","0.711529399966821","0.498747000005096","1","1","1","1","1","1","1","1","1"
"260046","img/object_images/egg_basket01.jpg","img/object_images/headset02.jpg","img/object_images/bookmark01.jpg","1","1","1","1","0","0","0.498747000005096","0.521418000105768","0.608100099954754","1","1","1","1","1","1","1","1","1"
"260046","img/object_images/bookmark01.jpg","img/object_images/egg_basket01.jpg","img/object_images/dice01.jpg","1","1","0","0","1","0","0.608100099954754","0.498747000005096","0.411132900044322","1","1","1","1","1","1","1","1","1"
"260046","img/object_images/dice01.jpg","img/object_images/bookmark01.jpg","img/object_images/bucket01.jpg","0","1","1","0","0","1","0.411132900044322","0.608100099954754","0.575907099992037","1","1","1","1","1","1","1","1","1"
"260046","img/object_images/bucket01.jpg","img/object_images/dice01.jpg",NA,"1","0",NA,"1","0",NA,"0.575907099992037","0.411132900044322",NA,"1","1",NA,"1","1",NA,"1","1",NA
"260046","img/object_images/hole_puncher01.jpg",NA,"img/object_images/fire_extinguisher01.jpg","1",NA,"1","1",NA,"0","0.768724100198597",NA,"0.667996600037441","1",NA,"1","1",NA,"1","1",NA,"1"
"260046","img/object_images/fire_extinguisher01.jpg","img/object_images/hole_puncher01.jpg","img/object_images/hair_clips01.jpg","1","1","1","0","1","1","0.667996600037441","0.768724100198597","0.559395000105724","1","1","1","1","1","1","1","1","1"
"260046","img/object_images/hair_clips01.jpg","img/object_images/fire_extinguisher01.jpg","img/object_images/handcuffs01.jpg","1","1","1","1","0","0","0.559395000105724","0.667996600037441","0.607598199974746","1","1","1","1","1","1","1","1","1"
"260046","img/object_images/handcuffs01.jpg","img/object_images/hair_clips01.jpg","img/object_images/glasses06.jpg","1","1","1","0","1","1","0.607598199974746","0.559395000105724","0.797025799984112","1","1","1","1","1","1","1","1","1"
"260046","img/object_images/glasses06.jpg","img/object_images/handcuffs01.jpg","img/object_images/Pottery01.jpg","1","1","1","1","0","0","0.797025799984112","0.607598199974746","0.623713500099257","1","1","1","1","1","1","1","1","1"
"260046","img/object_images/Pottery01.jpg","img/object_images/glasses06.jpg","img/object_images/book01.jpg","1","1","1","0","1","1","0.623713500099257","0.797025799984112","0.541586099890992","1","1","1","1","1","1","1","1","1"
"260046","img/object_images/book01.jpg","img/object_images/Pottery01.jpg","img/object_images/Traffic Sign 01.jpg","1","1","1","1","0","0","0.541586099890992","0.623713500099257","0.618536999914795","1","1","1","1","1","1","1","1","1"
"260046","img/object_images/Traffic Sign 01.jpg","img/object_images/book01.jpg","img/object_images/ring03.jpg","1","1","1","0","1","1","0.618536999914795","0.541586099890992","0.714802399976179","1","1","1","1","1","1","1","1","1"
"260046","img/object_images/ring03.jpg","img/object_images/Traffic Sign 01.jpg","img/object_images/cup03.jpg","1","1","1","1","0","1","0.714802399976179","0.618536999914795","0.697217300068587","1","1","1","1","1","1","1","1","1"
"260046","img/object_images/cup03.jpg","img/object_images/ring03.jpg","img/object_images/tray01.jpg","1","1","1","1","1","1","0.697217300068587","0.714802399976179","0.555115600116551","1","1","1","1","1","1","1","1","1"
"260046","img/object_images/tray01.jpg","img/object_images/cup03.jpg","img/object_images/cellphone02.jpg","1","1","1","1","1","1","0.555115600116551","0.697217300068587","0.507598999887705","1","1","1","1","1","1","1","1","1"
"260046","img/object_images/cellphone02.jpg","img/object_images/tray01.jpg","img/object_images/exfoliater_brush01.jpg","1","1","1","1","1","0","0.507598999887705","0.555115600116551","0.529921900015324","1","1","1","1","1","1","1","1","1"
"260046","img/object_images/exfoliater_brush01.jpg","img/object_images/cellphone02.jpg","img/object_images/yo_yo01.jpg","1","1","1","0","1","0","0.529921900015324","0.507598999887705","0.752635299926624","1","1","1","1","1","1","1","1","1"
"260046","img/object_images/yo_yo01.jpg","img/object_images/exfoliater_brush01.jpg","img/object_images/projector01.jpg","1","1","1","0","0","0","0.752635299926624","0.529921900015324","0.635011299978942","1","1","1","1","1","1","1","1","1"
"260046","img/object_images/projector01.jpg","img/object_images/yo_yo01.jpg","img/object_images/basket02.jpg","1","1","1","0","0","0","0.635011299978942","0.752635299926624","0.722151600057259","1","1","1","1","1","1","1","1","1"
"260046","img/object_images/basket02.jpg","img/object_images/projector01.jpg","img/object_images/tool08.jpg","1","1","1","0","0","0","0.722151600057259","0.635011299978942","0.531441800063476","1","1","1","1","1","1","1","1","1"
"260046","img/object_images/tool08.jpg","img/object_images/basket02.jpg","img/object_images/TrashCan02.jpg","1","1","1","0","0","1","0.531441800063476","0.722151600057259","1.29906399990432","1","1","1","1","1","1","1","1","1"
"260046","img/object_images/TrashCan02.jpg","img/object_images/tool08.jpg","img/object_images/bicycle_lock01.jpg","1","1","1","1","0","0","1.29906399990432","0.531441800063476","0.689315400086343","1","1","1","1","1","1","1","1","1"
"260046","img/object_images/bicycle_lock01.jpg","img/object_images/TrashCan02.jpg","img/object_images/purse01.jpg","1","1","1","0","1","1","0.689315400086343","1.29906399990432","0.601561399875209","1","1","1","1","1","1","1","1","1"
"260046","img/object_images/purse01.jpg","img/object_images/bicycle_lock01.jpg","img/object_images/jewelry09.jpg","1","1","1","1","0","1","0.601561399875209","0.689315400086343","0.709580000024289","1","1","1","1","1","1","1","1","1"
"260046","img/object_images/jewelry09.jpg","img/object_images/purse01.jpg","img/object_images/tool07.jpg","1","1","0","1","1","0","0.709580000024289","0.601561399875209","0.955001199850813","1","1","1","1","1","1","1","1","1"
"260046","img/object_images/tool07.jpg","img/object_images/jewelry09.jpg","img/object_images/lighter01.jpg","0","1","1","0","1","1","0.955001199850813","0.709580000024289","0.616581999929622","1","1","1","1","1","1","1","1","1"
"260046","img/object_images/lighter01.jpg","img/object_images/tool07.jpg","img/object_images/pan01.jpg","1","0","1","1","0","1","0.616581999929622","0.955001199850813","0.550088699907064","1","1","1","1","1","1","1","1","1"
"260046","img/object_images/pan01.jpg","img/object_images/lighter01.jpg","img/object_images/gift_box04.jpg","1","1","0","1","1","0","0.550088699907064","0.616581999929622","1.24726739991456","1","1","1","1","1","1","1","1","1"
"260046","img/object_images/gift_box04.jpg","img/object_images/pan01.jpg","img/object_images/blanket01.jpg","0","1","1","0","1","1","1.24726739991456","0.550088699907064","0.642196600092575","1","1","1","1","1","1","1","1","1"
"260046","img/object_images/blanket01.jpg","img/object_images/gift_box04.jpg","img/object_images/colander01.jpg","1","0","1","1","0","0","0.642196600092575","1.24726739991456","0.828789700055495","1","1","1","1","1","1","1","1","1"
"260046","img/object_images/colander01.jpg","img/object_images/blanket01.jpg","img/object_images/Kitchen_Towel.jpg","1","1","1","0","1","0","0.828789700055495","0.642196600092575","0.733863400062546","1","1","1","1","1","1","1","1","1"
"260046","img/object_images/Kitchen_Towel.jpg","img/object_images/colander01.jpg","img/object_images/glasses07.jpg","1","1","1","0","0","1","0.733863400062546","0.828789700055495","0.662733000004664","1","1","1","1","1","1","1","1","1"
"260046","img/object_images/glasses07.jpg","img/object_images/Kitchen_Towel.jpg","img/object_images/faucet01.jpg","1","1","1","1","0","0","0.662733000004664","0.733863400062546","0.682358399964869","1","1","1","1","1","1","1","1","1"
"260046","img/object_images/faucet01.jpg","img/object_images/glasses07.jpg","img/object_images/Sprayer01.jpg","1","1","1","0","1","0","0.682358399964869","0.662733000004664","0.803597199963406","1","1","1","1","1","1","1","1","1"
"260046","img/object_images/Sprayer01.jpg","img/object_images/faucet01.jpg","img/object_images/speaker01.jpg","1","1","1","0","0","1","0.803597199963406","0.682358399964869","0.683437400031835","1","1","1","1","1","1","1","1","1"
"260046","img/object_images/speaker01.jpg","img/object_images/Sprayer01.jpg",NA,"1","1",NA,"1","0",NA,"0.683437400031835","0.803597199963406",NA,"1","1",NA,"1","1",NA,"1","1",NA
"260046","img/object_images/ice_tray03.jpg",NA,"img/object_images/satellite01.jpg","1",NA,"1","1",NA,"0","1.97618019999936",NA,"0.799031500006095","1",NA,"1","1",NA,"1","1",NA,"1"
"260046","img/object_images/satellite01.jpg","img/object_images/ice_tray03.jpg","img/object_images/hair_brush05.jpg","1","1","1","0","1","1","0.799031500006095","1.97618019999936","0.682692100061104","1","1","1","1","1","1","1","1","1"
"260046","img/object_images/hair_brush05.jpg","img/object_images/satellite01.jpg","img/object_images/jewelry07.jpg","1","1","1","1","0","1","0.682692100061104","0.799031500006095","0.794503400102258","1","1","1","1","1","1","1","1","1"
"260046","img/object_images/jewelry07.jpg","img/object_images/hair_brush05.jpg","img/object_images/chair04.jpg","1","1","1","1","1","1","0.794503400102258","0.682692100061104","1.43934199982323","1","1","1","1","1","1","1","1","1"
"260046","img/object_images/chair04.jpg","img/object_images/jewelry07.jpg","img/object_images/car03.jpg","1","1","1","1","1","0","1.43934199982323","0.794503400102258","0.749311600113288","1","1","1","1","1","1","1","1","1"
"260046","img/object_images/car03.jpg","img/object_images/chair04.jpg","img/object_images/rock03.jpg","1","1","1","0","1","0","0.749311600113288","1.43934199982323","0.598059100098908","1","1","1","1","1","1","1","1","1"
"260046","img/object_images/rock03.jpg","img/object_images/car03.jpg","img/object_images/jewel01.jpg","1","1","1","0","0","0","0.598059100098908","0.749311600113288","0.575478299986571","1","1","1","1","1","1","1","1","1"
"260046","img/object_images/jewel01.jpg","img/object_images/rock03.jpg","img/object_images/shower_head03.jpg","1","1","1","0","0","1","0.575478299986571","0.598059100098908","0.511230299947783","1","1","1","1","1","1","1","1","1"
"260046","img/object_images/shower_head03.jpg","img/object_images/jewel01.jpg","img/object_images/cutting_board01.jpg","1","1","1","1","0","1","0.511230299947783","0.575478299986571","0.565877600107342","1","1","1","1","1","1","1","1","1"
"260046","img/object_images/cutting_board01.jpg","img/object_images/shower_head03.jpg","img/object_images/mask01.jpg","1","1","1","1","1","0","0.565877600107342","0.511230299947783","0.580705899978057","1","1","1","1","1","1","1","1","1"
"260046","img/object_images/mask01.jpg","img/object_images/cutting_board01.jpg","img/object_images/tool11.jpg","1","1","1","0","1","1","0.580705899978057","0.565877600107342","0.491954100085422","1","1","1","1","1","1","1","1","1"
"260046","img/object_images/tool11.jpg","img/object_images/mask01.jpg","img/object_images/WitchHat02.jpg","1","1","1","1","0","1","0.491954100085422","0.580705899978057","0.452210599789396","1","1","1","1","1","1","1","1","1"
"260046","img/object_images/WitchHat02.jpg","img/object_images/tool11.jpg","img/object_images/dress03.jpg","1","1","1","1","1","1","0.452210599789396","0.491954100085422","0.398547299904749","1","1","1","1","1","1","1","1","1"
"260046","img/object_images/dress03.jpg","img/object_images/WitchHat02.jpg","img/object_images/MeasuringCup01.jpg","1","1","1","1","1","1","0.398547299904749","0.452210599789396","0.422147999983281","1","1","1","1","1","1","1","1","1"
"260046","img/object_images/MeasuringCup01.jpg","img/object_images/dress03.jpg","img/object_images/tv01.jpg","1","1","1","1","1","0","0.422147999983281","0.398547299904749","0.627074900083244","1","1","1","1","1","1","1","1","1"
"260046","img/object_images/tv01.jpg","img/object_images/MeasuringCup01.jpg","img/object_images/belt01.jpg","1","1","1","0","1","0","0.627074900083244","0.422147999983281","0.589016299927607","1","1","1","1","1","1","1","1","1"
"260046","img/object_images/belt01.jpg","img/object_images/tv01.jpg","img/object_images/slinky_toy01.jpg","1","1","1","0","0","1","0.589016299927607","0.627074900083244","0.507887199986726","1","1","1","1","1","1","1","1","1"
"260046","img/object_images/slinky_toy01.jpg","img/object_images/belt01.jpg","img/object_images/ribbon01.jpg","1","1","1","1","0","0","0.507887199986726","0.589016299927607","0.63005999987945","1","1","1","1","1","1","1","1","1"
"260046","img/object_images/ribbon01.jpg","img/object_images/slinky_toy01.jpg","img/object_images/shoes10.jpg","1","1","1","0","1","0","0.63005999987945","0.507887199986726","0.513336600037292","1","1","1","1","1","1","1","1","1"
"260046","img/object_images/shoes10.jpg","img/object_images/ribbon01.jpg","img/object_images/cards01.jpg","1","1","1","0","0","0","0.513336600037292","0.63005999987945","0.504091900074854","1","1","1","1","1","1","1","1","1"
"260046","img/object_images/cards01.jpg","img/object_images/shoes10.jpg","img/object_images/razor01.jpg","1","1","1","0","0","0","0.504091900074854","0.513336600037292","0.420032299822196","1","1","1","1","1","1","1","1","1"
"260046","img/object_images/razor01.jpg","img/object_images/cards01.jpg","img/object_images/toaster02.jpg","1","1","1","0","0","1","0.420032299822196","0.504091900074854","0.483448300044984","1","1","1","1","1","1","1","1","1"
"260046","img/object_images/toaster02.jpg","img/object_images/razor01.jpg","img/object_images/key02.jpg","1","1","1","1","0","1","0.483448300044984","0.420032299822196","0.581363300094381","1","1","1","1","1","1","1","1","1"
"260046","img/object_images/key02.jpg","img/object_images/toaster02.jpg","img/object_images/car04.jpg","1","1","1","1","1","0","0.581363300094381","0.483448300044984","0.500131899956614","1","1","1","1","1","1","1","1","1"
"260046","img/object_images/car04.jpg","img/object_images/key02.jpg","img/object_images/yarn02.jpg","1","1","1","0","1","0","0.500131899956614","0.581363300094381","0.569120700005442","1","1","1","1","1","1","1","1","1"
"260046","img/object_images/yarn02.jpg","img/object_images/car04.jpg","img/object_images/bag06.jpg","1","1","1","0","0","1","0.569120700005442","0.500131899956614","0.717041800031438","1","1","1","1","1","1","1","1","1"
"260046","img/object_images/bag06.jpg","img/object_images/yarn02.jpg","img/object_images/lemon_squeezer02.jpg","1","1","1","1","0","1","0.717041800031438","0.569120700005442","0.557219400070608","1","1","1","1","1","1","1","1","1"
"260046","img/object_images/lemon_squeezer02.jpg","img/object_images/bag06.jpg","img/object_images/screwdriver01.jpg","1","1","1","1","1","0","0.557219400070608","0.717041800031438","0.54577809991315","1","1","1","1","1","1","1","1","1"
"260046","img/object_images/screwdriver01.jpg","img/object_images/lemon_squeezer02.jpg","img/object_images/fan05.jpg","1","1","1","0","1","0","0.54577809991315","0.557219400070608","0.5736419998575","1","1","1","1","1","1","1","1","1"
"260046","img/object_images/fan05.jpg","img/object_images/screwdriver01.jpg","img/object_images/binoculars03.jpg","1","1","1","0","0","1","0.5736419998575","0.54577809991315","0.855917499866337","1","1","1","1","1","1","1","1","1"
"260046","img/object_images/binoculars03.jpg","img/object_images/fan05.jpg","img/object_images/ladle02.jpg","1","1","1","1","0","0","0.855917499866337","0.5736419998575","0.516176800010726","1","1","1","1","1","1","1","1","1"
"260046","img/object_images/ladle02.jpg","img/object_images/binoculars03.jpg",NA,"1","1",NA,"0","1",NA,"0.516176800010726","0.855917499866337",NA,"1","1",NA,"1","1",NA,"1","1",NA
