"participant_id","current_trial_object","pre_trial_object","post_trial_object","current_trial_accuracy","pre_trial_accuracy","post_trial_accuracy","current_trial_congruency","pre_trial_congruency","post_trial_congruency","current_trial_rt","pre_trial_rt","post_trial_rt","current_trial_responded","pre_trial_responded","post_trial_responded","current_trial_legitResponse","pre_trial_legitResponse","post_trial_legitResponse","current_trial_resp_nums","pre_trial_resp_nums","post_trial_resp_nums"
"260057","img/object_images/sink_filter01 (1).jpg",NA,"img/object_images/Candle_Holder01.jpg","1",NA,"1","0",NA,"0","0.964495299966074",NA,"0.431153899990022","1",NA,"1","1",NA,"1","1",NA,"1"
"260057","img/object_images/Candle_Holder01.jpg","img/object_images/sink_filter01 (1).jpg","img/object_images/tool20.jpg","1","1","1","0","0","0","0.431153899990022","0.964495299966074","0.584953699959442","1","1","1","1","1","1","1","1","1"
"260057","img/object_images/tool20.jpg","img/object_images/Candle_Holder01.jpg","img/object_images/pen06.jpg","1","1","1","0","0","0","0.584953699959442","0.431153899990022","0.560164300026372","1","1","1","1","1","1","1","1","1"
"260057","img/object_images/pen06.jpg","img/object_images/tool20.jpg","img/object_images/Confetti 01.jpg","1","1","1","0","0","0","0.560164300026372","0.584953699959442","0.737460299977101","1","1","1","1","1","1","1","1","1"
"260057","img/object_images/Confetti 01.jpg","img/object_images/pen06.jpg","img/object_images/glasses03.jpg","1","1","0","0","0","0","0.737460299977101","0.560164300026372","0.73982470005285","1","1","1","1","1","1","1","1","1"
"260057","img/object_images/glasses03.jpg","img/object_images/Confetti 01.jpg","img/object_images/video_game02.jpg","0","1","1","0","0","1","0.73982470005285","0.737460299977101","0.48574449995067","1","1","1","1","1","1","1","1","1"
"260057","img/object_images/video_game02.jpg","img/object_images/glasses03.jpg","img/object_images/candle02.jpg","1","0","1","1","0","0","0.48574449995067","0.73982470005285","0.552043000003323","1","1","1","1","1","1","1","1","1"
"260057","img/object_images/candle02.jpg","img/object_images/video_game02.jpg","img/object_images/board01.jpg","1","1","1","0","1","1","0.552043000003323","0.48574449995067","0.434041199972853","1","1","1","1","1","1","1","1","1"
"260057","img/object_images/board01.jpg","img/object_images/candle02.jpg","img/object_images/razor02.jpg","1","1","1","1","0","1","0.434041199972853","0.552043000003323","0.411438999930397","1","1","1","1","1","1","1","1","1"
"260057","img/object_images/razor02.jpg","img/object_images/board01.jpg","img/object_images/hat09.jpg","1","1","1","1","1","0","0.411438999930397","0.434041199972853","0.464402400073595","1","1","1","1","1","1","1","1","1"
"260057","img/object_images/hat09.jpg","img/object_images/razor02.jpg","img/object_images/vase02.jpg","1","1","1","0","1","1","0.464402400073595","0.411438999930397","0.350692899897695","1","1","1","1","1","1","1","1","1"
"260057","img/object_images/vase02.jpg","img/object_images/hat09.jpg","img/object_images/duster01.jpg","1","1","1","1","0","0","0.350692899897695","0.464402400073595","0.50563420006074","1","1","1","1","1","1","1","1","1"
"260057","img/object_images/duster01.jpg","img/object_images/vase02.jpg","img/object_images/office_supplies01.jpg","1","1","1","0","1","1","0.50563420006074","0.350692899897695","0.600368999992497","1","1","1","1","1","1","1","1","1"
"260057","img/object_images/office_supplies01.jpg","img/object_images/duster01.jpg","img/object_images/spray_can01.jpg","1","1","1","1","0","0","0.600368999992497","0.50563420006074","0.544390099938028","1","1","1","1","1","1","1","1","1"
"260057","img/object_images/spray_can01.jpg","img/object_images/office_supplies01.jpg","img/object_images/socks01.jpg","1","1","1","0","1","1","0.544390099938028","0.600368999992497","0.410646299947985","1","1","1","1","1","1","1","1","1"
"260057","img/object_images/socks01.jpg","img/object_images/spray_can01.jpg","img/object_images/bow_tie03.jpg","1","1","1","1","0","1","0.410646299947985","0.544390099938028","0.36492660001386","1","1","1","1","1","1","1","1","1"
"260057","img/object_images/bow_tie03.jpg","img/object_images/socks01.jpg","img/object_images/tool13.jpg","1","1","1","1","1","1","0.36492660001386","0.410646299947985","0.363445300026797","1","1","1","1","1","1","1","1","1"
"260057","img/object_images/tool13.jpg","img/object_images/bow_tie03.jpg","img/object_images/hat13.jpg","1","1","1","1","1","1","0.363445300026797","0.36492660001386","0.475875000003725","1","1","1","1","1","1","1","1","1"
"260057","img/object_images/hat13.jpg","img/object_images/tool13.jpg","img/object_images/pan03.jpg","1","1","1","1","1","1","0.475875000003725","0.363445300026797","0.47668789990712","1","1","1","1","1","1","1","1","1"
"260057","img/object_images/pan03.jpg","img/object_images/hat13.jpg","img/object_images/camera05.jpg","1","1","1","1","1","0","0.47668789990712","0.475875000003725","0.763030700036325","1","1","1","1","1","1","1","1","1"
"260057","img/object_images/camera05.jpg","img/object_images/pan03.jpg","img/object_images/sign02.jpg","1","1","1","0","1","0","0.763030700036325","0.47668789990712","0.544323200010695","1","1","1","1","1","1","1","1","1"
"260057","img/object_images/sign02.jpg","img/object_images/camera05.jpg","img/object_images/floss01.jpg","1","1","1","0","0","1","0.544323200010695","0.763030700036325","0.479222599999048","1","1","1","1","1","1","1","1","1"
"260057","img/object_images/floss01.jpg","img/object_images/sign02.jpg","img/object_images/knife01.jpg","1","1","1","1","0","1","0.479222599999048","0.544323200010695","0.395597300026566","1","1","1","1","1","1","1","1","1"
"260057","img/object_images/knife01.jpg","img/object_images/floss01.jpg","img/object_images/ruler02.jpg","1","1","1","1","1","1","0.395597300026566","0.479222599999048","0.375803799950518","1","1","1","1","1","1","1","1","1"
"260057","img/object_images/ruler02.jpg","img/object_images/knife01.jpg","img/object_images/hammer02.jpg","1","1","1","1","1","0","0.375803799950518","0.395597300026566","0.416169899981469","1","1","1","1","1","1","1","1","1"
"260057","img/object_images/hammer02.jpg","img/object_images/ruler02.jpg","img/object_images/lemon_squeezer01.jpg","1","1","1","0","1","1","0.416169899981469","0.375803799950518","0.391230700071901","1","1","1","1","1","1","1","1","1"
"260057","img/object_images/lemon_squeezer01.jpg","img/object_images/hammer02.jpg","img/object_images/dust_pan01.jpg","1","1","1","1","0","1","0.391230700071901","0.416169899981469","0.521236000000499","1","1","1","1","1","1","1","1","1"
"260057","img/object_images/dust_pan01.jpg","img/object_images/lemon_squeezer01.jpg","img/object_images/bag04.jpg","1","1","1","1","1","0","0.521236000000499","0.391230700071901","0.44083119998686","1","1","1","1","1","1","1","1","1"
"260057","img/object_images/bag04.jpg","img/object_images/dust_pan01.jpg","img/object_images/clipboard01.jpg","1","1","1","0","1","1","0.44083119998686","0.521236000000499","0.453081400017254","1","1","1","1","1","1","1","1","1"
"260057","img/object_images/clipboard01.jpg","img/object_images/bag04.jpg","img/object_images/cup01.jpg","1","1","1","1","0","0","0.453081400017254","0.44083119998686","0.438326999894343","1","1","1","1","1","1","1","1","1"
"260057","img/object_images/cup01.jpg","img/object_images/clipboard01.jpg","img/object_images/perfume01.jpg","1","1","0","0","1","0","0.438326999894343","0.453081400017254","0.473670799983665","1","1","1","1","1","1","1","1","1"
"260057","img/object_images/perfume01.jpg","img/object_images/cup01.jpg",NA,"0","1",NA,"0","0",NA,"0.473670799983665","0.438326999894343",NA,"1","1",NA,"1","1",NA,"1","1",NA
"260057","img/object_images/colander01.jpg",NA,"img/object_images/fire_extinguisher01.jpg","1",NA,"1","0",NA,"0","0.755007599946111",NA,"0.52765969990287","1",NA,"1","1",NA,"1","2",NA,"1"
"260057","img/object_images/fire_extinguisher01.jpg","img/object_images/colander01.jpg","img/object_images/blanket01.jpg","1","1","1","0","0","1","0.52765969990287","0.755007599946111","0.45640749996528","1","1","1","1","1","1","1","2","1"
"260057","img/object_images/blanket01.jpg","img/object_images/fire_extinguisher01.jpg","img/object_images/ring03.jpg","1","1","1","1","0","1","0.45640749996528","0.52765969990287","0.497286600060761","1","1","1","1","1","1","1","1","1"
"260057","img/object_images/ring03.jpg","img/object_images/blanket01.jpg","img/object_images/gift_box04.jpg","1","1","1","1","1","0","0.497286600060761","0.45640749996528","0.541943300049752","1","1","1","1","1","1","1","1","1"
"260057","img/object_images/gift_box04.jpg","img/object_images/ring03.jpg","img/object_images/cellphone02.jpg","1","1","1","0","1","1","0.541943300049752","0.497286600060761","0.446156900026836","1","1","1","1","1","1","1","1","1"
"260057","img/object_images/cellphone02.jpg","img/object_images/gift_box04.jpg","img/object_images/basket02.jpg","1","1","0","1","0","0","0.446156900026836","0.541943300049752","0.50251069990918","1","1","1","1","1","1","1","1","2"
"260057","img/object_images/basket02.jpg","img/object_images/cellphone02.jpg","img/object_images/glasses07.jpg","0","1","1","0","1","1","0.50251069990918","0.446156900026836","0.454338299925439","1","1","1","1","1","1","2","1","1"
"260057","img/object_images/glasses07.jpg","img/object_images/basket02.jpg","img/object_images/lighter01.jpg","1","0","1","1","0","1","0.454338299925439","0.50251069990918","0.448936700006016","1","1","1","1","1","1","1","2","1"
"260057","img/object_images/lighter01.jpg","img/object_images/glasses07.jpg","img/object_images/handcuffs01.jpg","1","1","1","1","1","0","0.448936700006016","0.454338299925439","0.380800600047223","1","1","1","1","1","1","1","1","1"
"260057","img/object_images/handcuffs01.jpg","img/object_images/lighter01.jpg","img/object_images/tool08.jpg","1","1","1","0","1","0","0.380800600047223","0.448936700006016","0.551851900061592","1","1","1","1","1","1","1","1","1"
"260057","img/object_images/tool08.jpg","img/object_images/handcuffs01.jpg","img/object_images/pan01.jpg","1","1","1","0","0","1","0.551851900061592","0.380800600047223","0.42312839999795","1","1","1","1","1","1","1","1","1"
"260057","img/object_images/pan01.jpg","img/object_images/tool08.jpg","img/object_images/jewelry09.jpg","1","1","1","1","0","1","0.42312839999795","0.551851900061592","0.481236899970099","1","1","1","1","1","1","1","1","1"
"260057","img/object_images/jewelry09.jpg","img/object_images/pan01.jpg","img/object_images/glasses06.jpg","1","1","1","1","1","1","0.481236899970099","0.42312839999795","0.519375700037926","1","1","1","1","1","1","1","1","1"
"260057","img/object_images/glasses06.jpg","img/object_images/jewelry09.jpg","img/object_images/bicycle_lock01.jpg","1","1","1","1","1","0","0.519375700037926","0.481236899970099","0.524106899974868","1","1","1","1","1","1","1","1","1"
"260057","img/object_images/bicycle_lock01.jpg","img/object_images/glasses06.jpg","img/object_images/Kitchen_Towel.jpg","1","1","1","0","1","0","0.524106899974868","0.519375700037926","0.622837499948218","1","1","1","1","1","1","1","1","1"
"260057","img/object_images/Kitchen_Towel.jpg","img/object_images/bicycle_lock01.jpg","img/object_images/book01.jpg","1","1","1","0","0","1","0.622837499948218","0.524106899974868","0.43747619993519","1","1","1","1","1","1","1","1","1"
"260057","img/object_images/book01.jpg","img/object_images/Kitchen_Towel.jpg","img/object_images/projector01.jpg","1","1","0","1","0","0","0.43747619993519","0.622837499948218","0.503058600006625","1","1","1","1","1","1","1","1","1"
"260057","img/object_images/projector01.jpg","img/object_images/book01.jpg","img/object_images/yo_yo01.jpg","0","1","1","0","1","0","0.503058600006625","0.43747619993519","0.526683200034313","1","1","1","1","1","1","1","1","1"
"260057","img/object_images/yo_yo01.jpg","img/object_images/projector01.jpg","img/object_images/hole_puncher01.jpg","1","0","1","0","0","1","0.526683200034313","0.503058600006625","0.718893799930811","1","1","1","1","1","1","1","1","1"
"260057","img/object_images/hole_puncher01.jpg","img/object_images/yo_yo01.jpg","img/object_images/tool07.jpg","1","1","0","1","0","0","0.718893799930811","0.526683200034313","0.553062500082888","1","1","1","1","1","1","1","1","1"
"260057","img/object_images/tool07.jpg","img/object_images/hole_puncher01.jpg","img/object_images/Traffic Sign 01.jpg","0","1","1","0","1","0","0.553062500082888","0.718893799930811","0.564054499962367","1","1","1","1","1","1","1","1","1"
"260057","img/object_images/Traffic Sign 01.jpg","img/object_images/tool07.jpg","img/object_images/exfoliater_brush01.jpg","1","0","1","0","0","0","0.564054499962367","0.553062500082888","0.525133899995126","1","1","1","1","1","1","1","1","1"
"260057","img/object_images/exfoliater_brush01.jpg","img/object_images/Traffic Sign 01.jpg","img/object_images/TrashCan02.jpg","1","1","1","0","0","1","0.525133899995126","0.564054499962367","0.456686499994248","1","1","1","1","1","1","1","1","1"
"260057","img/object_images/TrashCan02.jpg","img/object_images/exfoliater_brush01.jpg","img/object_images/purse01.jpg","1","1","1","1","0","1","0.456686499994248","0.525133899995126","0.438479900010862","1","1","1","1","1","1","1","1","1"
"260057","img/object_images/purse01.jpg","img/object_images/TrashCan02.jpg","img/object_images/faucet01.jpg","1","1","1","1","1","0","0.438479900010862","0.456686499994248","0.473546599969268","1","1","1","1","1","1","1","1","1"
"260057","img/object_images/faucet01.jpg","img/object_images/purse01.jpg","img/object_images/hair_clips01.jpg","1","1","1","0","1","1","0.473546599969268","0.438479900010862","0.442974900011904","1","1","1","1","1","1","1","1","1"
"260057","img/object_images/hair_clips01.jpg","img/object_images/faucet01.jpg","img/object_images/Pottery01.jpg","1","1","1","1","0","0","0.442974900011904","0.473546599969268","0.485199899994768","1","1","1","1","1","1","1","1","1"
"260057","img/object_images/Pottery01.jpg","img/object_images/hair_clips01.jpg","img/object_images/speaker01.jpg","1","1","1","0","1","1","0.485199899994768","0.442974900011904","0.492254300042987","1","1","1","1","1","1","1","1","1"
"260057","img/object_images/speaker01.jpg","img/object_images/Pottery01.jpg","img/object_images/tray01.jpg","1","1","1","1","0","1","0.492254300042987","0.485199899994768","0.434558099950664","1","1","1","1","1","1","1","1","1"
"260057","img/object_images/tray01.jpg","img/object_images/speaker01.jpg","img/object_images/Sprayer01.jpg","1","1","1","1","1","0","0.434558099950664","0.492254300042987","0.539990599965677","1","1","1","1","1","1","1","1","1"
"260057","img/object_images/Sprayer01.jpg","img/object_images/tray01.jpg","img/object_images/cup03.jpg","1","1","1","0","1","1","0.539990599965677","0.434558099950664","0.478770700050518","1","1","1","1","1","1","1","1","1"
"260057","img/object_images/cup03.jpg","img/object_images/Sprayer01.jpg",NA,"1","1",NA,"1","0",NA,"0.478770700050518","0.539990599965677",NA,"1","1",NA,"1","1",NA,"1","1",NA
"260057","img/object_images/car04.jpg",NA,"img/object_images/MeasuringCup01.jpg","1",NA,"1","0",NA,"1","0.676800600020215",NA,"0.502701699966565","1",NA,"1","1",NA,"1","1",NA,"1"
"260057","img/object_images/MeasuringCup01.jpg","img/object_images/car04.jpg","img/object_images/jewel01.jpg","1","1","0","1","0","0","0.502701699966565","0.676800600020215","0.697393100010231","1","1","1","1","1","1","1","1","1"
"260057","img/object_images/jewel01.jpg","img/object_images/MeasuringCup01.jpg","img/object_images/screwdriver01.jpg","0","1","0","0","1","0","0.697393100010231","0.502701699966565","0.524683400057256","1","1","1","1","1","1","1","1","1"
"260057","img/object_images/screwdriver01.jpg","img/object_images/jewel01.jpg","img/object_images/ladle02.jpg","0","0","1","0","0","0","0.524683400057256","0.697393100010231","0.597937099984847","1","1","1","1","1","1","1","1","1"
"260057","img/object_images/ladle02.jpg","img/object_images/screwdriver01.jpg","img/object_images/hair_brush05.jpg","1","0","1","0","0","1","0.597937099984847","0.524683400057256","0.504019499989226","1","1","1","1","1","1","1","1","1"
"260057","img/object_images/hair_brush05.jpg","img/object_images/ladle02.jpg","img/object_images/shoes10.jpg","1","1","1","1","0","0","0.504019499989226","0.597937099984847","0.588257399969734","1","1","1","1","1","1","1","1","1"
"260057","img/object_images/shoes10.jpg","img/object_images/hair_brush05.jpg","img/object_images/cards01.jpg","1","1","1","0","1","0","0.588257399969734","0.504019499989226","0.589887699927203","1","1","1","1","1","1","1","1","1"
"260057","img/object_images/cards01.jpg","img/object_images/shoes10.jpg","img/object_images/car03.jpg","1","1","1","0","0","0","0.589887699927203","0.588257399969734","0.592148499912582","1","1","1","1","1","1","1","1","1"
"260057","img/object_images/car03.jpg","img/object_images/cards01.jpg","img/object_images/shower_head03.jpg","1","1","1","0","0","1","0.592148499912582","0.589887699927203","0.403486400027759","1","1","1","1","1","1","1","1","1"
"260057","img/object_images/shower_head03.jpg","img/object_images/car03.jpg","img/object_images/tv01.jpg","1","1","1","1","0","0","0.403486400027759","0.592148499912582","0.526176000013947","1","1","1","1","1","1","1","1","1"
"260057","img/object_images/tv01.jpg","img/object_images/shower_head03.jpg","img/object_images/WitchHat02.jpg","1","1","1","0","1","1","0.526176000013947","0.403486400027759","0.450142099987715","1","1","1","1","1","1","1","1","1"
"260057","img/object_images/WitchHat02.jpg","img/object_images/tv01.jpg","img/object_images/rock03.jpg","1","1","1","1","0","0","0.450142099987715","0.526176000013947","0.507537099998444","1","1","1","1","1","1","1","1","1"
"260057","img/object_images/rock03.jpg","img/object_images/WitchHat02.jpg","img/object_images/lemon_squeezer02.jpg","1","1","1","0","1","1","0.507537099998444","0.450142099987715","0.493432099930942","1","1","1","1","1","1","1","1","1"
"260057","img/object_images/lemon_squeezer02.jpg","img/object_images/rock03.jpg","img/object_images/ribbon01.jpg","1","1","1","1","0","0","0.493432099930942","0.507537099998444","0.464114399976097","1","1","1","1","1","1","1","1","1"
"260057","img/object_images/ribbon01.jpg","img/object_images/lemon_squeezer02.jpg","img/object_images/yarn02.jpg","1","1","1","0","1","0","0.464114399976097","0.493432099930942","0.595987900043838","1","1","1","1","1","1","1","1","1"
"260057","img/object_images/yarn02.jpg","img/object_images/ribbon01.jpg","img/object_images/fan05.jpg","1","1","1","0","0","0","0.595987900043838","0.464114399976097","0.476664500078186","1","1","1","1","1","1","1","1","1"
"260057","img/object_images/fan05.jpg","img/object_images/yarn02.jpg","img/object_images/binoculars03.jpg","1","1","1","0","0","1","0.476664500078186","0.595987900043838","0.432403000071645","1","1","1","1","1","1","1","1","1"
"260057","img/object_images/binoculars03.jpg","img/object_images/fan05.jpg","img/object_images/mask01.jpg","1","1","0","1","0","0","0.432403000071645","0.476664500078186","0.418838699930348","1","1","1","1","1","1","1","1","1"
"260057","img/object_images/mask01.jpg","img/object_images/binoculars03.jpg","img/object_images/satellite01.jpg","0","1","1","0","1","0","0.418838699930348","0.432403000071645","0.575278599979356","1","1","1","1","1","1","1","1","1"
"260057","img/object_images/satellite01.jpg","img/object_images/mask01.jpg","img/object_images/razor01.jpg","1","0","1","0","0","0","0.575278599979356","0.418838699930348","0.453606899944134","1","1","1","1","1","1","1","1","1"
"260057","img/object_images/razor01.jpg","img/object_images/satellite01.jpg","img/object_images/ice_tray03.jpg","1","1","1","0","0","1","0.453606899944134","0.575278599979356","0.491761699900962","1","1","1","1","1","1","1","1","1"
"260057","img/object_images/ice_tray03.jpg","img/object_images/razor01.jpg","img/object_images/chair04.jpg","1","1","1","1","0","1","0.491761699900962","0.453606899944134","0.449803899973631","1","1","1","1","1","1","1","1","1"
"260057","img/object_images/chair04.jpg","img/object_images/ice_tray03.jpg","img/object_images/toaster02.jpg","1","1","1","1","1","1","0.449803899973631","0.491761699900962","0.461039700079709","1","1","1","1","1","1","1","1","1"
"260057","img/object_images/toaster02.jpg","img/object_images/chair04.jpg","img/object_images/jewelry07.jpg","1","1","1","1","1","1","0.461039700079709","0.449803899973631","0.413713300018571","1","1","1","1","1","1","1","1","1"
"260057","img/object_images/jewelry07.jpg","img/object_images/toaster02.jpg","img/object_images/key02.jpg","1","1","1","1","1","1","0.413713300018571","0.461039700079709","0.47631309996359","1","1","1","1","1","1","1","1","1"
"260057","img/object_images/key02.jpg","img/object_images/jewelry07.jpg","img/object_images/slinky_toy01.jpg","1","1","0","1","1","1","0.47631309996359","0.413713300018571","0.362305299961008","1","1","1","1","1","1","1","1","1"
"260057","img/object_images/slinky_toy01.jpg","img/object_images/key02.jpg","img/object_images/cutting_board01.jpg","0","1","0","1","1","1","0.362305299961008","0.47631309996359","0.4295831999043","1","1","1","1","1","1","1","1","1"
"260057","img/object_images/cutting_board01.jpg","img/object_images/slinky_toy01.jpg","img/object_images/dress03.jpg","0","0","1","1","1","1","0.4295831999043","0.362305299961008","0.442015700042248","1","1","1","1","1","1","1","1","1"
"260057","img/object_images/dress03.jpg","img/object_images/cutting_board01.jpg","img/object_images/tool11.jpg","1","0","1","1","1","1","0.442015700042248","0.4295831999043","0.455341199995019","1","1","1","1","1","1","1","1","1"
"260057","img/object_images/tool11.jpg","img/object_images/dress03.jpg","img/object_images/belt01.jpg","1","1","1","1","1","0","0.455341199995019","0.442015700042248","0.42998770007398","1","1","1","1","1","1","1","1","1"
"260057","img/object_images/belt01.jpg","img/object_images/tool11.jpg","img/object_images/bag06.jpg","1","1","1","0","1","1","0.42998770007398","0.455341199995019","0.401120799942873","1","1","1","1","1","1","1","1","1"
"260057","img/object_images/bag06.jpg","img/object_images/belt01.jpg",NA,"1","1",NA,"1","0",NA,"0.401120799942873","0.42998770007398",NA,"1","1",NA,"1","1",NA,"1","1",NA
"260057","img/object_images/perfume02.jpg",NA,"img/object_images/bean_bag02.jpg","1",NA,"1","0",NA,"1","0.677755699958652",NA,"0.529417100013234","1",NA,"1","1",NA,"1","1",NA,"1"
"260057","img/object_images/bean_bag02.jpg","img/object_images/perfume02.jpg","img/object_images/camera_lens01.jpg","1","1","1","1","0","1","0.529417100013234","0.677755699958652","0.47583630005829","1","1","1","1","1","1","1","1","1"
"260057","img/object_images/camera_lens01.jpg","img/object_images/bean_bag02.jpg","img/object_images/dog_leash01.jpg","1","1","0","1","1","0","0.47583630005829","0.529417100013234","0.50066300004255","1","1","1","1","1","1","1","1","2"
"260057","img/object_images/dog_leash01.jpg","img/object_images/camera_lens01.jpg","img/object_images/tool19.jpg","0","1","1","0","1","1","0.50066300004255","0.47583630005829","0.436955399927683","1","1","1","1","1","1","2","1","1"
"260057","img/object_images/tool19.jpg","img/object_images/dog_leash01.jpg","img/object_images/coloring_pencil02.jpg","1","0","1","1","0","0","0.436955399927683","0.50066300004255","0.468794899992645","1","1","1","1","1","1","1","2","1"
"260057","img/object_images/coloring_pencil02.jpg","img/object_images/tool19.jpg","img/object_images/boat_toy10.jpg","1","1","1","0","1","0","0.468794899992645","0.436955399927683","0.410660800058395","1","1","1","1","1","1","1","1","1"
"260057","img/object_images/boat_toy10.jpg","img/object_images/coloring_pencil02.jpg","img/object_images/scoreboard01.jpg","1","1","1","0","0","1","0.410660800058395","0.468794899992645","0.587758900015615","1","1","1","1","1","1","1","1","1"
"260057","img/object_images/scoreboard01.jpg","img/object_images/boat_toy10.jpg","img/object_images/wagon_cart03.jpg","1","1","1","1","0","1","0.587758900015615","0.410660800058395","0.523329699994065","1","1","1","1","1","1","1","1","1"
"260057","img/object_images/wagon_cart03.jpg","img/object_images/scoreboard01.jpg","img/object_images/bottle10.jpg","1","1","1","1","1","1","0.523329699994065","0.587758900015615","0.417561899987049","1","1","1","1","1","1","1","1","1"
"260057","img/object_images/bottle10.jpg","img/object_images/wagon_cart03.jpg","img/object_images/purse04.jpg","1","1","1","1","1","1","0.417561899987049","0.523329699994065","0.465289399959147","1","1","1","1","1","1","1","1","1"
"260057","img/object_images/purse04.jpg","img/object_images/bottle10.jpg","img/object_images/boat02.jpg","1","1","1","1","1","1","0.465289399959147","0.417561899987049","0.434730500099249","1","1","1","1","1","1","1","1","1"
"260057","img/object_images/boat02.jpg","img/object_images/purse04.jpg","img/object_images/shoes07.jpg","1","1","1","1","1","0","0.434730500099249","0.465289399959147","0.512217199895531","1","1","1","1","1","1","1","1","1"
"260057","img/object_images/shoes07.jpg","img/object_images/boat02.jpg","img/object_images/bottle02.jpg","1","1","1","0","1","1","0.512217199895531","0.434730500099249","0.563706699991599","1","1","1","1","1","1","1","1","1"
"260057","img/object_images/bottle02.jpg","img/object_images/shoes07.jpg","img/object_images/chair03.jpg","1","1","0","1","0","0","0.563706699991599","0.512217199895531","0.473590399953537","1","1","1","1","1","1","1","1","1"
"260057","img/object_images/chair03.jpg","img/object_images/bottle02.jpg","img/object_images/bicycle01.jpg","0","1","1","0","1","1","0.473590399953537","0.563706699991599","0.487097000004724","1","1","1","1","1","1","1","1","1"
"260057","img/object_images/bicycle01.jpg","img/object_images/chair03.jpg","img/object_images/bottle09.jpg","1","0","1","1","0","0","0.487097000004724","0.473590399953537","0.499855800066143","1","1","1","1","1","1","1","1","1"
"260057","img/object_images/bottle09.jpg","img/object_images/bicycle01.jpg","img/object_images/toilet_paper_dispenser01.jpg","1","1","1","0","1","1","0.499855800066143","0.487097000004724","0.385158199933358","1","1","1","1","1","1","1","1","1"
"260057","img/object_images/toilet_paper_dispenser01.jpg","img/object_images/bottle09.jpg","img/object_images/tie02.jpg","1","1","1","1","0","0","0.385158199933358","0.499855800066143","0.539051700034179","1","1","1","1","1","1","1","1","1"
"260057","img/object_images/tie02.jpg","img/object_images/toilet_paper_dispenser01.jpg","img/object_images/cellphone03.jpg","1","1","1","0","1","0","0.539051700034179","0.385158199933358","0.590055900043808","1","1","1","1","1","1","1","1","1"
"260057","img/object_images/cellphone03.jpg","img/object_images/tie02.jpg","img/object_images/water_scooter01.jpg","1","1","1","0","0","1","0.590055900043808","0.539051700034179","0.412640599999577","1","1","1","1","1","1","1","1","1"
"260057","img/object_images/water_scooter01.jpg","img/object_images/cellphone03.jpg","img/object_images/piggy_bank01.jpg","1","1","1","1","0","1","0.412640599999577","0.590055900043808","0.435023099998944","1","1","1","1","1","1","1","1","1"
"260057","img/object_images/piggy_bank01.jpg","img/object_images/water_scooter01.jpg","img/object_images/fan02.jpg","1","1","1","1","1","0","0.435023099998944","0.412640599999577","0.52666259999387","1","1","1","1","1","1","1","1","1"
"260057","img/object_images/fan02.jpg","img/object_images/piggy_bank01.jpg","img/object_images/hat06.jpg","1","1","1","0","1","0","0.52666259999387","0.435023099998944","0.435570899979211","1","1","1","1","1","1","1","1","1"
"260057","img/object_images/hat06.jpg","img/object_images/fan02.jpg","img/object_images/pen05.jpg","1","1","1","0","0","0","0.435570899979211","0.52666259999387","0.454322200035676","1","1","1","1","1","1","1","1","1"
"260057","img/object_images/pen05.jpg","img/object_images/hat06.jpg","img/object_images/audio_port01.jpg","1","1","1","0","0","1","0.454322200035676","0.435570899979211","0.405395900015719","1","1","1","1","1","1","1","1","1"
"260057","img/object_images/audio_port01.jpg","img/object_images/pen05.jpg","img/object_images/helmet04.jpg","1","1","1","1","0","1","0.405395900015719","0.454322200035676","0.442515400005504","1","1","1","1","1","1","1","1","1"
"260057","img/object_images/helmet04.jpg","img/object_images/audio_port01.jpg","img/object_images/knit01.jpg","1","1","1","1","1","0","0.442515400005504","0.405395900015719","0.447615100070834","1","1","1","1","1","1","1","1","1"
"260057","img/object_images/knit01.jpg","img/object_images/helmet04.jpg","img/object_images/hot_air_balloon02.jpg","1","1","1","0","1","0","0.447615100070834","0.442515400005504","0.480485399952158","1","1","1","1","1","1","1","1","1"
"260057","img/object_images/hot_air_balloon02.jpg","img/object_images/knit01.jpg","img/object_images/flask01.jpg","1","1","1","0","0","0","0.480485399952158","0.447615100070834","0.507221399922855","1","1","1","1","1","1","1","1","1"
"260057","img/object_images/flask01.jpg","img/object_images/hot_air_balloon02.jpg","img/object_images/toaster01.jpg","1","1","1","0","0","1","0.507221399922855","0.480485399952158","0.42129179998301","1","1","1","1","1","1","1","1","1"
"260057","img/object_images/toaster01.jpg","img/object_images/flask01.jpg","img/object_images/WoodBox01.jpg","1","1","1","1","0","0","0.42129179998301","0.507221399922855","0.416454699938186","1","1","1","1","1","1","1","1","1"
"260057","img/object_images/WoodBox01.jpg","img/object_images/toaster01.jpg",NA,"1","1",NA,"0","1",NA,"0.416454699938186","0.42129179998301",NA,"1","1",NA,"1","1",NA,"1","1",NA
"260057","img/object_images/remover01.jpg",NA,"img/object_images/car01.jpg","1",NA,"1","1",NA,"1","0.549253699951805",NA,"0.423270100029185","1",NA,"1","1",NA,"1","1",NA,"1"
"260057","img/object_images/car01.jpg","img/object_images/remover01.jpg","img/object_images/blender02.jpg","1","1","1","1","1","1","0.423270100029185","0.549253699951805","0.409081100020558","1","1","1","1","1","1","1","1","1"
"260057","img/object_images/blender02.jpg","img/object_images/car01.jpg","img/object_images/hoverboard01.jpg","1","1","1","1","1","0","0.409081100020558","0.423270100029185","0.485276299994439","1","1","1","1","1","1","1","1","1"
"260057","img/object_images/hoverboard01.jpg","img/object_images/blender02.jpg","img/object_images/knife02.jpg","1","1","1","0","1","0","0.485276299994439","0.409081100020558","0.400436799973249","1","1","1","1","1","1","1","1","1"
"260057","img/object_images/knife02.jpg","img/object_images/hoverboard01.jpg","img/object_images/backpack01.jpg","1","1","1","0","0","0","0.400436799973249","0.485276299994439","0.545504699926823","1","1","1","1","1","1","1","1","1"
"260057","img/object_images/backpack01.jpg","img/object_images/knife02.jpg","img/object_images/paper_cup02.jpg","1","1","1","0","0","1","0.545504699926823","0.400436799973249","0.495833300054073","1","1","1","1","1","1","1","1","1"
"260057","img/object_images/paper_cup02.jpg","img/object_images/backpack01.jpg","img/object_images/dresser03.jpg","1","1","1","1","0","0","0.495833300054073","0.545504699926823","0.638797900057398","1","1","1","1","1","1","1","1","1"
"260057","img/object_images/dresser03.jpg","img/object_images/paper_cup02.jpg","img/object_images/video_game01.jpg","1","1","1","0","1","1","0.638797900057398","0.495833300054073","0.491107000038028","1","1","1","1","1","1","1","1","1"
"260057","img/object_images/video_game01.jpg","img/object_images/dresser03.jpg","img/object_images/boat04.jpg","1","1","0","1","0","0","0.491107000038028","0.638797900057398","0.47905449999962","1","1","1","1","1","1","1","1","1"
"260057","img/object_images/boat04.jpg","img/object_images/video_game01.jpg","img/object_images/mail_box01.jpg","0","1","1","0","1","0","0.47905449999962","0.491107000038028","0.494030499947257","1","1","1","1","1","1","1","1","1"
"260057","img/object_images/mail_box01.jpg","img/object_images/boat04.jpg","img/object_images/bottle07.jpg","1","0","1","0","0","1","0.494030499947257","0.47905449999962","0.394162700045854","1","1","1","1","1","1","1","1","1"
"260057","img/object_images/bottle07.jpg","img/object_images/mail_box01.jpg","img/object_images/phone02.jpg","1","1","1","1","0","1","0.394162700045854","0.494030499947257","0.40221059997566","1","1","1","1","1","1","1","1","1"
"260057","img/object_images/phone02.jpg","img/object_images/bottle07.jpg","img/object_images/jacket04.jpg","1","1","1","1","1","0","0.40221059997566","0.394162700045854","0.433737099985592","1","1","1","1","1","1","1","1","1"
"260057","img/object_images/jacket04.jpg","img/object_images/phone02.jpg","img/object_images/keyboard02.jpg","1","1","1","0","1","1","0.433737099985592","0.40221059997566","0.418808099930175","1","1","1","1","1","1","1","1","1"
"260057","img/object_images/keyboard02.jpg","img/object_images/jacket04.jpg","img/object_images/shower_head01.jpg","1","1","1","1","0","1","0.418808099930175","0.433737099985592","0.433977400069125","1","1","1","1","1","1","1","1","1"
"260057","img/object_images/shower_head01.jpg","img/object_images/keyboard02.jpg","img/object_images/camera03.jpg","1","1","1","1","1","0","0.433977400069125","0.418808099930175","0.386173499980941","1","1","1","1","1","1","1","1","1"
"260057","img/object_images/camera03.jpg","img/object_images/shower_head01.jpg","img/object_images/Statue01.jpg","1","1","1","0","1","1","0.386173499980941","0.433977400069125","0.478777299984358","1","1","1","1","1","1","1","1","1"
"260057","img/object_images/Statue01.jpg","img/object_images/camera03.jpg","img/object_images/knit04.jpg","1","1","1","1","0","1","0.478777299984358","0.386173499980941","0.412132099969313","1","1","1","1","1","1","1","1","1"
"260057","img/object_images/knit04.jpg","img/object_images/Statue01.jpg","img/object_images/flashlight03.jpg","1","1","1","1","1","0","0.412132099969313","0.478777299984358","0.416024399921298","1","1","1","1","1","1","1","1","1"
"260057","img/object_images/flashlight03.jpg","img/object_images/knit04.jpg","img/object_images/hand_grip_exerciser01.jpg","1","1","1","0","1","0","0.416024399921298","0.412132099969313","0.453692700015381","1","1","1","1","1","1","1","1","1"
"260057","img/object_images/hand_grip_exerciser01.jpg","img/object_images/flashlight03.jpg","img/object_images/remote_controller01.jpg","1","1","1","0","0","1","0.453692700015381","0.416024399921298","0.450559300021268","1","1","1","1","1","1","1","1","1"
"260057","img/object_images/remote_controller01.jpg","img/object_images/hand_grip_exerciser01.jpg","img/object_images/knit03.jpg","1","1","1","1","0","1","0.450559300021268","0.453692700015381","0.363737000036053","1","1","1","1","1","1","1","1","1"
"260057","img/object_images/knit03.jpg","img/object_images/remote_controller01.jpg","img/object_images/curtain02.jpg","1","1","1","1","1","0","0.363737000036053","0.450559300021268","0.40096130000893","1","1","1","1","1","1","1","1","1"
"260057","img/object_images/curtain02.jpg","img/object_images/knit03.jpg","img/object_images/toy08.jpg","1","1","1","0","1","0","0.40096130000893","0.363737000036053","0.332698700018227","1","1","1","1","1","1","1","1","1"
"260057","img/object_images/toy08.jpg","img/object_images/curtain02.jpg","img/object_images/stereo02.jpg","1","1","1","0","0","0","0.332698700018227","0.40096130000893","0.43480519996956","1","1","1","1","1","1","1","1","1"
"260057","img/object_images/stereo02.jpg","img/object_images/toy08.jpg","img/object_images/tool18.jpg","1","1","1","0","0","0","0.43480519996956","0.332698700018227","0.379442199948244","1","1","1","1","1","1","1","1","1"
"260057","img/object_images/tool18.jpg","img/object_images/stereo02.jpg","img/object_images/matches02.jpg","1","1","1","0","0","0","0.379442199948244","0.43480519996956","0.452032600063831","1","1","1","1","1","1","1","1","1"
"260057","img/object_images/matches02.jpg","img/object_images/tool18.jpg","img/object_images/sponge03.jpg","1","1","1","0","0","1","0.452032600063831","0.379442199948244","0.358148699975573","1","1","1","1","1","1","1","1","1"
"260057","img/object_images/sponge03.jpg","img/object_images/matches02.jpg","img/object_images/basket04.jpg","1","1","1","1","0","1","0.358148699975573","0.452032600063831","0.400603199959733","1","1","1","1","1","1","1","1","1"
"260057","img/object_images/basket04.jpg","img/object_images/sponge03.jpg","img/object_images/kite01.jpg","1","1","1","1","1","1","0.400603199959733","0.358148699975573","0.554890600033104","1","1","1","1","1","1","1","1","1"
"260057","img/object_images/kite01.jpg","img/object_images/basket04.jpg","img/object_images/gloves02.jpg","1","1","0","1","1","0","0.554890600033104","0.400603199959733","0.447856500046328","1","1","1","1","1","1","1","1","1"
"260057","img/object_images/gloves02.jpg","img/object_images/kite01.jpg",NA,"0","1",NA,"0","1",NA,"0.447856500046328","0.554890600033104",NA,"1","1",NA,"1","1",NA,"1","1",NA
"260057","img/object_images/egg_basket01.jpg",NA,"img/object_images/shovel01.jpg","1",NA,"1","1",NA,"0","0.433167800074443",NA,"0.538219599984586","1",NA,"1","1",NA,"1","1",NA,"1"
"260057","img/object_images/shovel01.jpg","img/object_images/egg_basket01.jpg","img/object_images/headset02.jpg","1","1","1","0","1","0","0.538219599984586","0.433167800074443","0.493051600060426","1","1","1","1","1","1","1","1","1"
"260057","img/object_images/headset02.jpg","img/object_images/shovel01.jpg","img/object_images/lock03.jpg","1","1","1","0","0","1","0.493051600060426","0.538219599984586","0.440965999965556","1","1","1","1","1","1","1","1","1"
"260057","img/object_images/lock03.jpg","img/object_images/headset02.jpg","img/object_images/helmet03.jpg","1","1","1","1","0","1","0.440965999965556","0.493051600060426","0.42209919996094","1","1","1","1","1","1","1","1","1"
"260057","img/object_images/helmet03.jpg","img/object_images/lock03.jpg","img/object_images/belt03.jpg","1","1","0","1","1","0","0.42209919996094","0.440965999965556","0.405814100056887","1","1","1","1","1","1","1","1","1"
"260057","img/object_images/belt03.jpg","img/object_images/helmet03.jpg","img/object_images/badminton01.jpg","0","1","1","0","1","1","0.405814100056887","0.42209919996094","0.417250900063664","1","1","1","1","1","1","1","1","1"
"260057","img/object_images/badminton01.jpg","img/object_images/belt03.jpg","img/object_images/trumpet01.jpg","1","0","1","1","0","0","0.417250900063664","0.405814100056887","0.412937199929729","1","1","1","1","1","1","1","1","1"
"260057","img/object_images/trumpet01.jpg","img/object_images/badminton01.jpg","img/object_images/TreeSlice01.jpg","1","1","1","0","1","1","0.412937199929729","0.417250900063664","0.380015700007789","1","1","1","1","1","1","1","1","1"
"260057","img/object_images/TreeSlice01.jpg","img/object_images/trumpet01.jpg","img/object_images/frame01.jpg","1","1","1","1","0","1","0.380015700007789","0.412937199929729","0.451146699953824","1","1","1","1","1","1","1","1","1"
"260057","img/object_images/frame01.jpg","img/object_images/TreeSlice01.jpg","img/object_images/note_book02.jpg","1","1","0","1","1","0","0.451146699953824","0.380015700007789","0.423498199903406","1","1","1","1","1","1","1","1","1"
"260057","img/object_images/note_book02.jpg","img/object_images/frame01.jpg","img/object_images/phone04.jpg","0","1","1","0","1","1","0.423498199903406","0.451146699953824","0.394699299940839","1","1","1","1","1","1","1","1","1"
"260057","img/object_images/phone04.jpg","img/object_images/note_book02.jpg","img/object_images/bucket01.jpg","1","0","1","1","0","1","0.394699299940839","0.423498199903406","0.438260699971579","1","1","1","1","1","1","1","1","1"
"260057","img/object_images/bucket01.jpg","img/object_images/phone04.jpg","img/object_images/bookmark01.jpg","1","1","1","1","1","0","0.438260699971579","0.394699299940839","0.425870000035502","1","1","1","1","1","1","1","1","1"
"260057","img/object_images/bookmark01.jpg","img/object_images/bucket01.jpg","img/object_images/joystick03.jpg","1","1","1","0","1","1","0.425870000035502","0.438260699971579","0.364857199951075","1","1","1","1","1","1","1","1","1"
"260057","img/object_images/joystick03.jpg","img/object_images/bookmark01.jpg","img/object_images/yoga_mat01.jpg","1","1","1","1","0","0","0.364857199951075","0.425870000035502","0.437048000050709","1","1","1","1","1","1","1","1","1"
"260057","img/object_images/yoga_mat01.jpg","img/object_images/joystick03.jpg","img/object_images/usb03.jpg","1","1","0","0","1","0","0.437048000050709","0.364857199951075","0.353231800021604","1","1","1","1","1","1","1","1","1"
"260057","img/object_images/usb03.jpg","img/object_images/yoga_mat01.jpg","img/object_images/origami01.jpg","0","1","1","0","0","1","0.353231800021604","0.437048000050709","0.468581499997526","1","1","1","1","1","1","1","1","1"
"260057","img/object_images/origami01.jpg","img/object_images/usb03.jpg","img/object_images/dice01.jpg","1","0","0","1","0","0","0.468581499997526","0.353231800021604","0.429900499992073","1","1","1","1","1","1","1","1","1"
"260057","img/object_images/dice01.jpg","img/object_images/origami01.jpg","img/object_images/piano03.jpg","0","1","1","0","1","0","0.429900499992073","0.468581499997526","0.383419799967669","1","1","1","1","1","1","1","1","1"
"260057","img/object_images/piano03.jpg","img/object_images/dice01.jpg","img/object_images/water_gun01.jpg","1","0","1","0","0","1","0.383419799967669","0.429900499992073","0.410682299989276","1","1","1","1","1","1","1","1","1"
"260057","img/object_images/water_gun01.jpg","img/object_images/piano03.jpg","img/object_images/scale02.jpg","1","1","0","1","0","0","0.410682299989276","0.383419799967669","0.452241700026207","1","1","1","1","1","1","1","1","2"
"260057","img/object_images/scale02.jpg","img/object_images/water_gun01.jpg","img/object_images/fan01.jpg","0","1","0","0","1","0","0.452241700026207","0.410682299989276","0.382794499979354","1","1","1","1","1","1","2","1","1"
"260057","img/object_images/fan01.jpg","img/object_images/scale02.jpg","img/object_images/jewel02.jpg","0","0","1","0","0","0","0.382794499979354","0.452241700026207","0.409234899911098","1","1","1","1","1","1","1","2","1"
"260057","img/object_images/jewel02.jpg","img/object_images/fan01.jpg","img/object_images/Safe01.jpg","1","0","1","0","0","1","0.409234899911098","0.382794499979354","0.427850700099953","1","1","1","1","1","1","1","1","1"
"260057","img/object_images/Safe01.jpg","img/object_images/jewel02.jpg","img/object_images/pitcher07.jpg","1","1","1","1","0","1","0.427850700099953","0.409234899911098","0.518085599993356","1","1","1","1","1","1","1","1","1"
"260057","img/object_images/pitcher07.jpg","img/object_images/Safe01.jpg","img/object_images/Eyeliner01.jpg","1","1","1","1","1","1","0.518085599993356","0.427850700099953","0.374212600057945","1","1","1","1","1","1","1","1","1"
"260057","img/object_images/Eyeliner01.jpg","img/object_images/pitcher07.jpg","img/object_images/ToolBag01.jpg","1","1","1","1","1","0","0.374212600057945","0.518085599993356","0.382792899967171","1","1","1","1","1","1","1","1","1"
"260057","img/object_images/ToolBag01.jpg","img/object_images/Eyeliner01.jpg","img/object_images/Shoes05.jpg","1","1","1","0","1","0","0.382792899967171","0.374212600057945","0.46143570006825","1","1","1","1","1","1","1","1","1"
"260057","img/object_images/Shoes05.jpg","img/object_images/ToolBag01.jpg","img/object_images/nut_cracker01.jpg","1","1","1","0","0","1","0.46143570006825","0.382792899967171","0.489463099977002","1","1","1","1","1","1","1","1","1"
"260057","img/object_images/nut_cracker01.jpg","img/object_images/Shoes05.jpg","img/object_images/tennis_racket01.jpg","1","1","1","1","0","1","0.489463099977002","0.46143570006825","0.453095000004396","1","1","1","1","1","1","1","1","1"
"260057","img/object_images/tennis_racket01.jpg","img/object_images/nut_cracker01.jpg","img/object_images/bottle06.jpg","1","1","1","1","1","0","0.453095000004396","0.489463099977002","0.481226300005801","1","1","1","1","1","1","1","1","1"
"260057","img/object_images/bottle06.jpg","img/object_images/tennis_racket01.jpg",NA,"1","1",NA,"0","1",NA,"0.481226300005801","0.453095000004396",NA,"1","1",NA,"1","1",NA,"1","1",NA
"260057","img/object_images/tripod01.jpg",NA,"img/object_images/book02.jpg","1",NA,"1","1",NA,"1","0.414208899950609",NA,"0.40392830001656","1",NA,"1","1",NA,"1","1",NA,"1"
"260057","img/object_images/book02.jpg","img/object_images/tripod01.jpg","img/object_images/Trowel01.jpg","1","1","1","1","1","0","0.40392830001656","0.414208899950609","0.531100600026548","1","1","1","1","1","1","1","1","1"
"260057","img/object_images/Trowel01.jpg","img/object_images/book02.jpg","img/object_images/toothbrush01.jpg","1","1","0","0","1","0","0.531100600026548","0.40392830001656","0.416686900076456","1","1","1","1","1","1","1","1","1"
"260057","img/object_images/toothbrush01.jpg","img/object_images/Trowel01.jpg","img/object_images/shoes12.jpg","0","1","1","0","0","1","0.416686900076456","0.531100600026548","0.439994799904525","1","1","1","1","1","1","1","1","1"
"260057","img/object_images/shoes12.jpg","img/object_images/toothbrush01.jpg","img/object_images/egg_slicer01.jpg","1","0","1","1","0","1","0.439994799904525","0.416686900076456","0.429169800016098","1","1","1","1","1","1","1","1","1"
"260057","img/object_images/egg_slicer01.jpg","img/object_images/shoes12.jpg","img/object_images/mail_box02.jpg","1","1","1","1","1","1","0.429169800016098","0.439994799904525","0.404838899965398","1","1","1","1","1","1","1","1","1"
"260057","img/object_images/mail_box02.jpg","img/object_images/egg_slicer01.jpg","img/object_images/chain01.jpg","1","1","1","1","1","0","0.404838899965398","0.429169800016098","0.451998599921353","1","1","1","1","1","1","1","1","1"
"260057","img/object_images/chain01.jpg","img/object_images/mail_box02.jpg","img/object_images/clip04.jpg","1","1","1","0","1","1","0.451998599921353","0.404838899965398","0.428489599958993","1","1","1","1","1","1","1","1","1"
"260057","img/object_images/clip04.jpg","img/object_images/chain01.jpg","img/object_images/airfryer02.jpg","1","1","1","1","0","1","0.428489599958993","0.451998599921353","0.415170600055717","1","1","1","1","1","1","1","1","1"
"260057","img/object_images/airfryer02.jpg","img/object_images/clip04.jpg","img/object_images/bag_pipes01.jpg","1","1","1","1","1","1","0.415170600055717","0.428489599958993","0.394444500096142","1","1","1","1","1","1","1","1","1"
"260057","img/object_images/bag_pipes01.jpg","img/object_images/airfryer02.jpg","img/object_images/couch01.jpg","1","1","0","1","1","0","0.394444500096142","0.415170600055717","0.432381700025871","1","1","1","1","1","1","1","1","1"
"260057","img/object_images/couch01.jpg","img/object_images/bag_pipes01.jpg","img/object_images/toy01.jpg","0","1","1","0","1","1","0.432381700025871","0.394444500096142","0.422150200000033","1","1","1","1","1","1","1","1","1"
"260057","img/object_images/toy01.jpg","img/object_images/couch01.jpg","img/object_images/computer_mouse01.jpg","1","0","1","1","0","1","0.422150200000033","0.432381700025871","0.380128900054842","1","1","1","1","1","1","1","1","1"
"260057","img/object_images/computer_mouse01.jpg","img/object_images/toy01.jpg","img/object_images/fork02.jpg","1","1","1","1","1","0","0.380128900054842","0.422150200000033","0.541411299956962","1","1","1","1","1","1","1","1","1"
"260057","img/object_images/fork02.jpg","img/object_images/computer_mouse01.jpg","img/object_images/scarf01.jpg","1","1","1","0","1","1","0.541411299956962","0.380128900054842","0.393988399999216","1","1","1","1","1","1","1","1","1"
"260057","img/object_images/scarf01.jpg","img/object_images/fork02.jpg","img/object_images/pitcher09.jpg","1","1","1","1","0","1","0.393988399999216","0.541411299956962","0.334536100039259","1","1","1","1","1","1","1","1","1"
"260057","img/object_images/pitcher09.jpg","img/object_images/scarf01.jpg","img/object_images/hair_brush01.jpg","1","1","1","1","1","1","0.334536100039259","0.393988399999216","0.409088400076143","1","1","1","1","1","1","1","1","1"
"260057","img/object_images/hair_brush01.jpg","img/object_images/pitcher09.jpg","img/object_images/box03.jpg","1","1","1","1","1","0","0.409088400076143","0.334536100039259","0.494227700051852","1","1","1","1","1","1","1","1","1"
"260057","img/object_images/box03.jpg","img/object_images/hair_brush01.jpg","img/object_images/chair06.jpg","1","1","1","0","1","0","0.494227700051852","0.409088400076143","0.417169700027443","1","1","1","1","1","1","1","1","1"
"260057","img/object_images/chair06.jpg","img/object_images/box03.jpg","img/object_images/blender01.jpg","1","1","1","0","0","0","0.417169700027443","0.494227700051852","0.465284500038251","1","1","1","1","1","1","1","1","1"
"260057","img/object_images/blender01.jpg","img/object_images/chair06.jpg","img/object_images/floss02.jpg","1","1","1","0","0","1","0.465284500038251","0.417169700027443","0.399890400003642","1","1","1","1","1","1","1","1","1"
"260057","img/object_images/floss02.jpg","img/object_images/blender01.jpg","img/object_images/skate_board01.jpg","1","1","0","1","0","0","0.399890400003642","0.465284500038251","0.461818299954757","1","1","1","1","1","1","1","1","2"
"260057","img/object_images/skate_board01.jpg","img/object_images/floss02.jpg","img/object_images/pen01.jpg","0","1","1","0","1","0","0.461818299954757","0.399890400003642","0.575826699961908","1","1","1","1","1","1","2","1","1"
"260057","img/object_images/pen01.jpg","img/object_images/skate_board01.jpg","img/object_images/tool06.jpg","1","0","1","0","0","0","0.575826699961908","0.461818299954757","0.452779300045222","1","1","1","1","1","1","1","2","1"
"260057","img/object_images/tool06.jpg","img/object_images/pen01.jpg","img/object_images/Violin01.jpg","1","1","1","0","0","0","0.452779300045222","0.575826699961908","0.436199299991131","1","1","1","1","1","1","1","1","1"
"260057","img/object_images/Violin01.jpg","img/object_images/tool06.jpg","img/object_images/computer_mouse02.jpg","1","1","1","0","0","0","0.436199299991131","0.452779300045222","0.498831299948506","1","1","1","1","1","1","1","1","1"
"260057","img/object_images/computer_mouse02.jpg","img/object_images/Violin01.jpg","img/object_images/rock02.jpg","1","1","1","0","0","0","0.498831299948506","0.436199299991131","0.503743600100279","1","1","1","1","1","1","1","1","1"
"260057","img/object_images/rock02.jpg","img/object_images/computer_mouse02.jpg","img/object_images/drone01.jpg","1","1","1","0","0","1","0.503743600100279","0.498831299948506","0.414679400040768","1","1","1","1","1","1","1","1","1"
"260057","img/object_images/drone01.jpg","img/object_images/rock02.jpg","img/object_images/soap03.jpg","1","1","1","1","0","0","0.414679400040768","0.503743600100279","0.416917399968952","1","1","1","1","1","1","1","1","1"
"260057","img/object_images/soap03.jpg","img/object_images/drone01.jpg","img/object_images/video_game03.jpg","1","1","1","0","1","1","0.416917399968952","0.414679400040768","0.444046199903823","1","1","1","1","1","1","1","1","1"
"260057","img/object_images/video_game03.jpg","img/object_images/soap03.jpg","img/object_images/bell03.jpg","1","1","1","1","0","0","0.444046199903823","0.416917399968952","0.449668499990366","1","1","1","1","1","1","1","1","1"
"260057","img/object_images/bell03.jpg","img/object_images/video_game03.jpg",NA,"1","1",NA,"0","1",NA,"0.449668499990366","0.444046199903823",NA,"1","1",NA,"1","1",NA,"1","1",NA
"260057","img/object_images/gift_box05.jpg",NA,"img/object_images/stove01.jpg","1",NA,"1","0",NA,"0","0.55369349999819",NA,"0.429416700033471","1",NA,"1","1",NA,"1","1",NA,"1"
"260057","img/object_images/stove01.jpg","img/object_images/gift_box05.jpg","img/object_images/umbrella01.jpg","1","1","1","0","0","0","0.429416700033471","0.55369349999819","0.461736699915491","1","1","1","1","1","1","1","1","1"
"260057","img/object_images/umbrella01.jpg","img/object_images/stove01.jpg","img/object_images/lock01.jpg","1","1","1","0","0","0","0.461736699915491","0.429416700033471","0.360541300033219","1","1","1","1","1","1","1","1","1"
"260057","img/object_images/lock01.jpg","img/object_images/umbrella01.jpg","img/object_images/laptop01.jpg","1","1","0","0","0","0","0.360541300033219","0.461736699915491","0.346037999959663","1","1","1","1","1","1","1","1","1"
"260057","img/object_images/laptop01.jpg","img/object_images/lock01.jpg","img/object_images/calculator01.jpg","0","1","1","0","0","1","0.346037999959663","0.360541300033219","0.405040399986319","1","1","1","1","1","1","1","1","1"
"260057","img/object_images/calculator01.jpg","img/object_images/laptop01.jpg","img/object_images/backpack03.jpg","1","0","1","1","0","1","0.405040399986319","0.346037999959663","0.35423900000751","1","1","1","1","1","1","1","1","1"
"260057","img/object_images/backpack03.jpg","img/object_images/calculator01.jpg","img/object_images/Lint_Roller02.jpg","1","1","0","1","1","0","0.35423900000751","0.405040399986319","0.339645000058226","1","1","1","1","1","1","1","1","1"
"260057","img/object_images/Lint_Roller02.jpg","img/object_images/backpack03.jpg","img/object_images/robe01.jpg","0","1","1","0","1","1","0.339645000058226","0.35423900000751","0.366435599979013","1","1","1","1","1","1","1","1","1"
"260057","img/object_images/robe01.jpg","img/object_images/Lint_Roller02.jpg","img/object_images/spatula02.jpg","1","0","1","1","0","1","0.366435599979013","0.339645000058226","0.418344800011255","1","1","1","1","1","1","1","1","1"
"260057","img/object_images/spatula02.jpg","img/object_images/robe01.jpg","img/object_images/ball02.jpg","1","1","1","1","1","1","0.418344800011255","0.366435599979013","0.51246690005064","1","1","1","1","1","1","1","1","1"
"260057","img/object_images/ball02.jpg","img/object_images/spatula02.jpg","img/object_images/accardion01.jpg","1","1","1","1","1","1","0.51246690005064","0.418344800011255","0.448740299907513","1","1","1","1","1","1","1","1","1"
"260057","img/object_images/accardion01.jpg","img/object_images/ball02.jpg","img/object_images/toy05.jpg","1","1","1","1","1","0","0.448740299907513","0.51246690005064","0.412297000060789","1","1","1","1","1","1","1","1","1"
"260057","img/object_images/toy05.jpg","img/object_images/accardion01.jpg","img/object_images/fan04.jpg","1","1","1","0","1","0","0.412297000060789","0.448740299907513","0.457780300057493","1","1","1","1","1","1","1","1","1"
"260057","img/object_images/fan04.jpg","img/object_images/toy05.jpg","img/object_images/trash_can05.jpg","1","1","1","0","0","1","0.457780300057493","0.412297000060789","0.395287799998186","1","1","1","1","1","1","1","1","1"
"260057","img/object_images/trash_can05.jpg","img/object_images/fan04.jpg","img/object_images/trash_can03.jpg","1","1","1","1","0","1","0.395287799998186","0.457780300057493","0.726090400014073","1","1","1","1","1","1","1","1","1"
"260057","img/object_images/trash_can03.jpg","img/object_images/trash_can05.jpg","img/object_images/towels01.jpg","1","1","1","1","1","0","0.726090400014073","0.395287799998186","0.426973600056954","1","1","1","1","1","1","1","1","1"
"260057","img/object_images/towels01.jpg","img/object_images/trash_can03.jpg","img/object_images/hair_brush02.jpg","1","1","1","0","1","0","0.426973600056954","0.726090400014073","0.443360100034624","1","1","1","1","1","1","1","1","1"
"260057","img/object_images/hair_brush02.jpg","img/object_images/towels01.jpg","img/object_images/shoes08.jpg","1","1","1","0","0","1","0.443360100034624","0.426973600056954","0.406502799945883","1","1","1","1","1","1","1","1","1"
"260057","img/object_images/shoes08.jpg","img/object_images/hair_brush02.jpg","img/object_images/surf_board01.jpg","1","1","1","1","0","1","0.406502799945883","0.443360100034624","0.405622699996457","1","1","1","1","1","1","1","1","1"
"260057","img/object_images/surf_board01.jpg","img/object_images/shoes08.jpg","img/object_images/hair_dryer01.jpg","1","1","1","1","1","0","0.405622699996457","0.406502799945883","0.516054500010796","1","1","1","1","1","1","1","1","1"
"260057","img/object_images/hair_dryer01.jpg","img/object_images/surf_board01.jpg","img/object_images/Vest02.jpg","1","1","1","0","1","0","0.516054500010796","0.405622699996457","0.522605800069869","1","1","1","1","1","1","1","1","1"
"260057","img/object_images/Vest02.jpg","img/object_images/hair_dryer01.jpg","img/object_images/bucket02.jpg","1","1","1","0","0","1","0.522605800069869","0.516054500010796","0.419141100021079","1","1","1","1","1","1","1","1","1"
"260057","img/object_images/bucket02.jpg","img/object_images/Vest02.jpg","img/object_images/microphone03.jpg","1","1","1","1","0","1","0.419141100021079","0.522605800069869","0.431321699987166","1","1","1","1","1","1","1","1","1"
"260057","img/object_images/microphone03.jpg","img/object_images/bucket02.jpg","img/object_images/jewel03.jpg","1","1","1","1","1","1","0.431321699987166","0.419141100021079","0.409686699975282","1","1","1","1","1","1","1","1","1"
"260057","img/object_images/jewel03.jpg","img/object_images/microphone03.jpg","img/object_images/combs01.jpg","1","1","1","1","1","1","0.409686699975282","0.431321699987166","0.391305599943735","1","1","1","1","1","1","1","1","1"
"260057","img/object_images/combs01.jpg","img/object_images/jewel03.jpg","img/object_images/chair02.jpg","1","1","1","1","1","1","0.391305599943735","0.409686699975282","0.421749100089073","1","1","1","1","1","1","1","1","1"
"260057","img/object_images/chair02.jpg","img/object_images/combs01.jpg","img/object_images/pitcher05.jpg","1","1","1","1","1","0","0.421749100089073","0.391305599943735","0.466982600046322","1","1","1","1","1","1","1","1","1"
"260057","img/object_images/pitcher05.jpg","img/object_images/chair02.jpg","img/object_images/helmet02.jpg","1","1","0","0","1","0","0.466982600046322","0.421749100089073","0.426923399907537","1","1","1","1","1","1","1","1","2"
"260057","img/object_images/helmet02.jpg","img/object_images/pitcher05.jpg","img/object_images/chess_piece01.jpg","0","1","1","0","0","0","0.426923399907537","0.466982600046322","0.439014200004749","1","1","1","1","1","1","2","1","1"
"260057","img/object_images/chess_piece01.jpg","img/object_images/helmet02.jpg","img/object_images/vase01.jpg","1","0","1","0","0","0","0.439014200004749","0.426923399907537","0.457748199929483","1","1","1","1","1","1","1","2","1"
"260057","img/object_images/vase01.jpg","img/object_images/chess_piece01.jpg","img/object_images/laptop03.jpg","1","1","1","0","0","1","0.457748199929483","0.439014200004749","0.516629800084047","1","1","1","1","1","1","1","1","1"
"260057","img/object_images/laptop03.jpg","img/object_images/vase01.jpg",NA,"1","1",NA,"1","0",NA,"0.516629800084047","0.457748199929483",NA,"1","1",NA,"1","1",NA,"1","1",NA
"260057","img/object_images/toy03.jpg",NA,"img/object_images/helmet01.jpg","1",NA,"1","1",NA,"0","0.51052529993467",NA,"0.62526360002812","1",NA,"1","1",NA,"1","1",NA,"1"
"260057","img/object_images/helmet01.jpg","img/object_images/toy03.jpg","img/object_images/outlet01.jpg","1","1","1","0","1","0","0.62526360002812","0.51052529993467","0.4703016000567","1","1","1","1","1","1","1","1","1"
"260057","img/object_images/outlet01.jpg","img/object_images/helmet01.jpg","img/object_images/bottle05.jpg","1","1","1","0","0","0","0.4703016000567","0.62526360002812","0.311192899942398","1","1","1","1","1","1","1","1","1"
"260057","img/object_images/bottle05.jpg","img/object_images/outlet01.jpg","img/object_images/video_game07.jpg","1","1","1","0","0","1","0.311192899942398","0.4703016000567","0.428525700001046","1","1","1","1","1","1","1","1","1"
"260057","img/object_images/video_game07.jpg","img/object_images/bottle05.jpg","img/object_images/shovel03.jpg","1","1","1","1","0","1","0.428525700001046","0.311192899942398","0.296946299960837","1","1","1","1","1","1","1","1","1"
"260057","img/object_images/shovel03.jpg","img/object_images/video_game07.jpg","img/object_images/towel02.jpg","1","1","0","1","1","1","0.296946299960837","0.428525700001046","0.340184999979101","1","1","1","1","1","1","1","1","1"
"260057","img/object_images/towel02.jpg","img/object_images/shovel03.jpg","img/object_images/MetalWire01.jpg","0","1","1","1","1","0","0.340184999979101","0.296946299960837","0.327633299981244","1","1","1","1","1","1","1","1","1"
"260057","img/object_images/MetalWire01.jpg","img/object_images/towel02.jpg","img/object_images/crown02.jpg","1","0","1","0","1","1","0.327633299981244","0.340184999979101","0.375688500003889","1","1","1","1","1","1","1","1","1"
"260057","img/object_images/crown02.jpg","img/object_images/MetalWire01.jpg","img/object_images/Tin01.jpg","1","1","1","1","0","1","0.375688500003889","0.327633299981244","0.367948999977671","1","1","1","1","1","1","1","1","1"
"260057","img/object_images/Tin01.jpg","img/object_images/crown02.jpg","img/object_images/judge_gavel01.jpg","1","1","1","1","1","1","0.367948999977671","0.375688500003889","0.338916899985634","1","1","1","1","1","1","1","1","1"
"260057","img/object_images/judge_gavel01.jpg","img/object_images/Tin01.jpg","img/object_images/watch01.jpg","1","1","1","1","1","0","0.338916899985634","0.367948999977671","0.386084600002505","1","1","1","1","1","1","1","1","1"
"260057","img/object_images/watch01.jpg","img/object_images/judge_gavel01.jpg","img/object_images/dart01.jpg","1","1","1","0","1","0","0.386084600002505","0.338916899985634","0.450606300029904","1","1","1","1","1","1","1","1","1"
"260057","img/object_images/dart01.jpg","img/object_images/watch01.jpg","img/object_images/frisbee01.jpg","1","1","1","0","0","1","0.450606300029904","0.386084600002505","0.460799099993892","1","1","1","1","1","1","1","1","1"
"260057","img/object_images/frisbee01.jpg","img/object_images/dart01.jpg","img/object_images/bow01.jpg","1","1","0","1","0","1","0.460799099993892","0.450606300029904","0.360010900069028","1","1","1","1","1","1","1","1","2"
"260057","img/object_images/bow01.jpg","img/object_images/frisbee01.jpg","img/object_images/sink01.jpg","0","1","1","1","1","0","0.360010900069028","0.460799099993892","0.516084400005639","1","1","1","1","1","1","2","1","1"
"260057","img/object_images/sink01.jpg","img/object_images/bow01.jpg","img/object_images/jewel04.jpg","1","0","0","0","1","0","0.516084400005639","0.360010900069028","0.37698860000819","1","1","1","1","1","1","1","2","1"
"260057","img/object_images/jewel04.jpg","img/object_images/sink01.jpg","img/object_images/pot01 (1).jpg","0","1","0","0","0","0","0.37698860000819","0.516084400005639","0.485476300003938","1","1","1","1","1","1","1","1","1"
"260057","img/object_images/pot01 (1).jpg","img/object_images/jewel04.jpg","img/object_images/toy04.jpg","0","0","0","0","0","0","0.485476300003938","0.37698860000819","0.323707600007765","1","1","1","1","1","1","1","1","1"
"260057","img/object_images/toy04.jpg","img/object_images/pot01 (1).jpg","img/object_images/Stool01.jpg","0","0","0","0","0","0","0.323707600007765","0.485476300003938","0.383043400011957","1","1","1","1","1","1","1","1","1"
"260057","img/object_images/Stool01.jpg","img/object_images/toy04.jpg","img/object_images/gauze01.jpg","0","0","1","0","0","0","0.383043400011957","0.323707600007765","0.429190399940126","1","1","1","1","1","1","1","1","1"
"260057","img/object_images/gauze01.jpg","img/object_images/Stool01.jpg","img/object_images/tool09.jpg","1","0","1","0","0","1","0.429190399940126","0.383043400011957","0.397396000102162","1","1","1","1","1","1","1","1","1"
"260057","img/object_images/tool09.jpg","img/object_images/gauze01.jpg","img/object_images/Ring02.jpg","1","1","1","1","0","0","0.397396000102162","0.429190399940126","0.575124899973162","1","1","1","1","1","1","1","1","1"
"260057","img/object_images/Ring02.jpg","img/object_images/tool09.jpg","img/object_images/bird_house02.jpg","1","1","1","0","1","1","0.575124899973162","0.397396000102162","0.64678399998229","1","1","1","1","1","1","1","1","1"
"260057","img/object_images/bird_house02.jpg","img/object_images/Ring02.jpg","img/object_images/ornament01.jpg","1","1","1","1","0","1","0.64678399998229","0.575124899973162","0.360270099947229","1","1","1","1","1","1","1","1","1"
"260057","img/object_images/ornament01.jpg","img/object_images/bird_house02.jpg","img/object_images/tool02.jpg","1","1","1","1","1","1","0.360270099947229","0.64678399998229","0.486464200075716","1","1","1","1","1","1","1","1","1"
"260057","img/object_images/tool02.jpg","img/object_images/ornament01.jpg","img/object_images/fridge03.jpg","1","1","0","1","1","0","0.486464200075716","0.360270099947229","0.465094199986197","1","1","1","1","1","1","1","1","2"
"260057","img/object_images/fridge03.jpg","img/object_images/tool02.jpg","img/object_images/Vacuum01.jpg","0","1","1","0","1","0","0.465094199986197","0.486464200075716","0.374540799995884","1","1","1","1","1","1","2","1","1"
"260057","img/object_images/Vacuum01.jpg","img/object_images/fridge03.jpg","img/object_images/guitar02.jpg","1","0","1","0","0","0","0.374540799995884","0.465094199986197","0.581617699936032","1","1","1","1","1","1","1","2","1"
"260057","img/object_images/guitar02.jpg","img/object_images/Vacuum01.jpg","img/object_images/stapler.jpg","1","1","1","0","0","1","0.581617699936032","0.374540799995884","0.372609500074759","1","1","1","1","1","1","1","1","1"
"260057","img/object_images/stapler.jpg","img/object_images/guitar02.jpg","img/object_images/acoustic_capo01.jpg","1","1","1","1","0","1","0.372609500074759","0.581617699936032","0.47307200008072","1","1","1","1","1","1","1","1","1"
"260057","img/object_images/acoustic_capo01.jpg","img/object_images/stapler.jpg","img/object_images/mirror01.jpg","1","1","1","1","1","1","0.47307200008072","0.372609500074759","0.420268200105056","1","1","1","1","1","1","1","1","1"
"260057","img/object_images/mirror01.jpg","img/object_images/acoustic_capo01.jpg",NA,"1","1",NA,"1","1",NA,"0.420268200105056","0.47307200008072",NA,"1","1",NA,"1","1",NA,"1","1",NA
"260057","img/object_images/video_game06.jpg",NA,"img/object_images/hat02.jpg","0",NA,"0","0",NA,"0","0.444032000028528",NA,"0.446946599986404","1",NA,"1","1",NA,"1","2",NA,"2"
"260057","img/object_images/hat02.jpg","img/object_images/video_game06.jpg","img/object_images/soap01.jpg","0","0","1","0","0","0","0.446946599986404","0.444032000028528","0.51619299990125","1","1","1","1","1","1","2","2","1"
"260057","img/object_images/soap01.jpg","img/object_images/hat02.jpg","img/object_images/airfryer01.jpg","1","0","1","0","0","0","0.51619299990125","0.446946599986404","0.515798700042069","1","1","1","1","1","1","1","2","1"
"260057","img/object_images/airfryer01.jpg","img/object_images/soap01.jpg","img/object_images/Recycling01.jpg","1","1","1","0","0","1","0.515798700042069","0.51619299990125","0.390518600004725","1","1","1","1","1","1","1","1","1"
"260057","img/object_images/Recycling01.jpg","img/object_images/airfryer01.jpg","img/object_images/tie01.jpg","1","1","1","1","0","0","0.390518600004725","0.515798700042069","0.459635999985039","1","1","1","1","1","1","1","1","1"
"260057","img/object_images/tie01.jpg","img/object_images/Recycling01.jpg","img/object_images/couch04.jpg","1","1","1","0","1","1","0.459635999985039","0.390518600004725","0.384081299998797","1","1","1","1","1","1","1","1","1"
"260057","img/object_images/couch04.jpg","img/object_images/tie01.jpg","img/object_images/ball01.jpg","1","1","1","1","0","1","0.384081299998797","0.459635999985039","0.392930399975739","1","1","1","1","1","1","1","1","1"
"260057","img/object_images/ball01.jpg","img/object_images/couch04.jpg","img/object_images/lamp01.jpg","1","1","1","1","1","1","0.392930399975739","0.384081299998797","0.366766099934466","1","1","1","1","1","1","1","1","1"
"260057","img/object_images/lamp01.jpg","img/object_images/ball01.jpg","img/object_images/cochlear_implant01.jpg","1","1","0","1","1","0","0.366766099934466","0.392930399975739","0.338430800009519","1","1","1","1","1","1","1","1","1"
"260057","img/object_images/cochlear_implant01.jpg","img/object_images/lamp01.jpg","img/object_images/lantern01.jpg","0","1","1","0","1","1","0.338430800009519","0.366766099934466","0.410677200066857","1","1","1","1","1","1","1","1","1"
"260057","img/object_images/lantern01.jpg","img/object_images/cochlear_implant01.jpg","img/object_images/helmet05.jpg","1","0","0","1","0","1","0.410677200066857","0.338430800009519","0.439324399922043","1","1","1","1","1","1","1","1","2"
"260057","img/object_images/helmet05.jpg","img/object_images/lantern01.jpg","img/object_images/Wisk01.jpg","0","1","1","1","1","1","0.439324399922043","0.410677200066857","0.442191899986938","1","1","1","1","1","1","2","1","1"
"260057","img/object_images/Wisk01.jpg","img/object_images/helmet05.jpg","img/object_images/gloves05.jpg","1","0","1","1","1","1","0.442191899986938","0.439324399922043","0.422644800040871","1","1","1","1","1","1","1","2","1"
"260057","img/object_images/gloves05.jpg","img/object_images/Wisk01.jpg","img/object_images/Woopie01.jpg","1","1","1","1","1","1","0.422644800040871","0.442191899986938","0.431612199987285","1","1","1","1","1","1","1","1","1"
"260057","img/object_images/Woopie01.jpg","img/object_images/gloves05.jpg","img/object_images/brief_case01.jpg","1","1","1","1","1","0","0.431612199987285","0.422644800040871","0.48299169994425","1","1","1","1","1","1","1","1","1"
"260057","img/object_images/brief_case01.jpg","img/object_images/Woopie01.jpg","img/object_images/container01.jpg","1","1","0","0","1","0","0.48299169994425","0.431612199987285","0.359525099978782","1","1","1","1","1","1","1","1","1"
"260057","img/object_images/container01.jpg","img/object_images/brief_case01.jpg","img/object_images/chair01.jpg","0","1","1","0","0","0","0.359525099978782","0.48299169994425","0.604006400099024","1","1","1","1","1","1","1","1","1"
"260057","img/object_images/chair01.jpg","img/object_images/container01.jpg","img/object_images/brief_case02.jpg","1","0","1","0","0","1","0.604006400099024","0.359525099978782","0.497381999972276","1","1","1","1","1","1","1","1","1"
"260057","img/object_images/brief_case02.jpg","img/object_images/chair01.jpg","img/object_images/toy_train02.jpg","1","1","1","1","0","1","0.497381999972276","0.604006400099024","0.421395599958487","1","1","1","1","1","1","1","1","1"
"260057","img/object_images/toy_train02.jpg","img/object_images/brief_case02.jpg","img/object_images/broom01.jpg","1","1","1","1","1","1","0.421395599958487","0.497381999972276","0.372817800031044","1","1","1","1","1","1","1","1","1"
"260057","img/object_images/broom01.jpg","img/object_images/toy_train02.jpg","img/object_images/guitar01.jpg","1","1","1","1","1","1","0.372817800031044","0.421395599958487","0.423517899936996","1","1","1","1","1","1","1","1","1"
"260057","img/object_images/guitar01.jpg","img/object_images/broom01.jpg","img/object_images/car02.jpg","1","1","1","1","1","0","0.423517899936996","0.372817800031044","0.577252299990505","1","1","1","1","1","1","1","1","1"
"260057","img/object_images/car02.jpg","img/object_images/guitar01.jpg","img/object_images/razor03.jpg","1","1","1","0","1","0","0.577252299990505","0.423517899936996","0.582314600003883","1","1","1","1","1","1","1","1","1"
"260057","img/object_images/razor03.jpg","img/object_images/car02.jpg","img/object_images/pot01.jpg","1","1","1","0","0","0","0.582314600003883","0.577252299990505","0.438658299972303","1","1","1","1","1","1","1","1","1"
"260057","img/object_images/pot01.jpg","img/object_images/razor03.jpg","img/object_images/pitcher03.jpg","1","1","1","0","0","1","0.438658299972303","0.582314600003883","0.435839499928989","1","1","1","1","1","1","1","1","1"
"260057","img/object_images/pitcher03.jpg","img/object_images/pot01.jpg","img/object_images/decorative02.jpg","1","1","1","1","0","0","0.435839499928989","0.438658299972303","0.473434000043198","1","1","1","1","1","1","1","1","1"
"260057","img/object_images/decorative02.jpg","img/object_images/pitcher03.jpg","img/object_images/toilet_paper01.jpg","1","1","1","0","1","1","0.473434000043198","0.435839499928989","0.407875900040381","1","1","1","1","1","1","1","1","1"
"260057","img/object_images/toilet_paper01.jpg","img/object_images/decorative02.jpg","img/object_images/basketball_hoop02.jpg","1","1","1","1","0","0","0.407875900040381","0.473434000043198","0.386759700020775","1","1","1","1","1","1","1","1","1"
"260057","img/object_images/basketball_hoop02.jpg","img/object_images/toilet_paper01.jpg","img/object_images/bottle12.jpg","1","1","1","0","1","1","0.386759700020775","0.407875900040381","0.566145800054073","1","1","1","1","1","1","1","1","1"
"260057","img/object_images/bottle12.jpg","img/object_images/basketball_hoop02.jpg","img/object_images/ironing_table02.jpg","1","1","1","1","0","0","0.566145800054073","0.386759700020775","0.449954700074159","1","1","1","1","1","1","1","1","1"
"260057","img/object_images/ironing_table02.jpg","img/object_images/bottle12.jpg","img/object_images/drone02.jpg","1","1","1","0","1","0","0.449954700074159","0.566145800054073","0.802593400003389","1","1","1","1","1","1","1","1","1"
"260057","img/object_images/drone02.jpg","img/object_images/ironing_table02.jpg",NA,"1","1",NA,"0","0",NA,"0.802593400003389","0.449954700074159",NA,"1","1",NA,"1","1",NA,"1","1",NA
"260057","img/object_images/usb02.jpg",NA,"img/object_images/lid01.jpg","0",NA,"0","0",NA,"1","0.813037300016731",NA,"0.403757699998096","1",NA,"1","1",NA,"1","1",NA,"1"
"260057","img/object_images/lid01.jpg","img/object_images/usb02.jpg","img/object_images/tv02.jpg","0","0","0","1","0","0","0.403757699998096","0.813037300016731","0.356090700021014","1","1","1","1","1","1","1","1","1"
"260057","img/object_images/tv02.jpg","img/object_images/lid01.jpg","img/object_images/crutches02.jpg","0","0","1","0","1","0","0.356090700021014","0.403757699998096","0.473975299973972","1","1","1","1","1","1","1","1","1"
"260057","img/object_images/crutches02.jpg","img/object_images/tv02.jpg","img/object_images/bell02.jpg","1","0","1","0","0","0","0.473975299973972","0.356090700021014","0.489778299932368","1","1","1","1","1","1","1","1","1"
"260057","img/object_images/bell02.jpg","img/object_images/crutches02.jpg","img/object_images/pitcher01.jpg","1","1","1","0","0","0","0.489778299932368","0.473975299973972","0.435756099992432","1","1","1","1","1","1","1","1","1"
"260057","img/object_images/pitcher01.jpg","img/object_images/bell02.jpg","img/object_images/floppy_disk02.jpg","1","1","1","0","0","0","0.435756099992432","0.489778299932368","0.338668899959885","1","1","1","1","1","1","1","1","1"
"260057","img/object_images/floppy_disk02.jpg","img/object_images/pitcher01.jpg","img/object_images/ear_bud01.jpg","1","1","1","0","0","1","0.338668899959885","0.435756099992432","0.364568599965423","1","1","1","1","1","1","1","1","1"
"260057","img/object_images/ear_bud01.jpg","img/object_images/floppy_disk02.jpg","img/object_images/Thermometer01.jpg","1","1","1","1","0","0","0.364568599965423","0.338668899959885","0.446013899985701","1","1","1","1","1","1","1","1","1"
"260057","img/object_images/Thermometer01.jpg","img/object_images/ear_bud01.jpg","img/object_images/Oven01.jpg","1","1","1","0","1","1","0.446013899985701","0.364568599965423","0.372745299944654","1","1","1","1","1","1","1","1","1"
"260057","img/object_images/Oven01.jpg","img/object_images/Thermometer01.jpg","img/object_images/retainer01.jpg","1","1","0","1","0","0","0.372745299944654","0.446013899985701","0.412757800077088","1","1","1","1","1","1","1","1","1"
"260057","img/object_images/retainer01.jpg","img/object_images/Oven01.jpg","img/object_images/hammer03.jpg","0","1","0","0","1","1","0.412757800077088","0.372745299944654","0.387407599948347","1","1","1","1","1","1","1","1","2"
"260057","img/object_images/hammer03.jpg","img/object_images/retainer01.jpg","img/object_images/microscope01.jpg","0","0","1","1","0","0","0.387407599948347","0.412757800077088","0.368254599976353","1","1","1","1","1","1","2","1","1"
"260057","img/object_images/microscope01.jpg","img/object_images/hammer03.jpg","img/object_images/knife04.jpg","1","0","1","0","1","1","0.368254599976353","0.387407599948347","0.452964499942027","1","1","1","1","1","1","1","2","1"
"260057","img/object_images/knife04.jpg","img/object_images/microscope01.jpg","img/object_images/book03.jpg","1","1","1","1","0","1","0.452964499942027","0.368254599976353","0.38457929994911","1","1","1","1","1","1","1","1","1"
"260057","img/object_images/book03.jpg","img/object_images/knife04.jpg","img/object_images/tennis_racket02.jpg","1","1","1","1","1","1","0.38457929994911","0.452964499942027","0.45379940001294","1","1","1","1","1","1","1","1","1"
"260057","img/object_images/tennis_racket02.jpg","img/object_images/book03.jpg","img/object_images/clip03.jpg","1","1","0","1","1","0","0.45379940001294","0.38457929994911","1.0350013000425","1","1","1","1","1","1","1","1","1"
"260057","img/object_images/clip03.jpg","img/object_images/tennis_racket02.jpg","img/object_images/floppy_disk03.jpg","0","1","0","0","1","1","1.0350013000425","0.45379940001294","0.353849700069986","1","1","1","1","1","1","1","1","1"
"260057","img/object_images/floppy_disk03.jpg","img/object_images/clip03.jpg","img/object_images/knit05.jpg","0","0","1","1","0","1","0.353849700069986","1.0350013000425","0.445109000080265","1","1","1","1","1","1","1","1","1"
"260057","img/object_images/knit05.jpg","img/object_images/floppy_disk03.jpg","img/object_images/chess_piece02.jpg","1","0","1","1","1","1","0.445109000080265","0.353849700069986","0.412593399989419","1","1","1","1","1","1","1","1","1"
"260057","img/object_images/chess_piece02.jpg","img/object_images/knit05.jpg","img/object_images/wire02.jpg","1","1","0","1","1","1","0.412593399989419","0.445109000080265","0.402180800097995","1","1","1","1","1","1","1","1","2"
"260057","img/object_images/wire02.jpg","img/object_images/chess_piece02.jpg","img/object_images/note_book01.jpg","0","1","1","1","1","0","0.402180800097995","0.412593399989419","0.572172299958766","1","1","1","1","1","1","2","1","1"
"260057","img/object_images/note_book01.jpg","img/object_images/wire02.jpg","img/object_images/chair05.jpg","1","0","0","0","1","0","0.572172299958766","0.402180800097995","0.423815699992701","1","1","1","1","1","1","1","2","1"
"260057","img/object_images/chair05.jpg","img/object_images/note_book01.jpg","img/object_images/compass01.jpg","0","1","1","0","0","1","0.423815699992701","0.572172299958766","0.401791700045578","1","1","1","1","1","1","1","1","1"
"260057","img/object_images/compass01.jpg","img/object_images/chair05.jpg","img/object_images/motorcycle01.jpg","1","0","1","1","0","1","0.401791700045578","0.423815699992701","0.405977499904111","1","1","1","1","1","1","1","1","1"
"260057","img/object_images/motorcycle01.jpg","img/object_images/compass01.jpg","img/object_images/Staples01.jpg","1","1","1","1","1","1","0.405977499904111","0.401791700045578","0.335334699950181","1","1","1","1","1","1","1","1","1"
"260057","img/object_images/Staples01.jpg","img/object_images/motorcycle01.jpg","img/object_images/pillows01.jpg","1","1","0","1","1","1","0.335334699950181","0.405977499904111","0.371085699996911","1","1","1","1","1","1","1","1","1"
"260057","img/object_images/pillows01.jpg","img/object_images/Staples01.jpg","img/object_images/cellphone01.jpg","0","1","1","1","1","1","0.371085699996911","0.335334699950181","0.401448999997228","1","1","1","1","1","1","1","1","1"
"260057","img/object_images/cellphone01.jpg","img/object_images/pillows01.jpg","img/object_images/pen03.jpg","1","0","0","1","1","0","0.401448999997228","0.371085699996911","0.470751499990001","1","1","1","1","1","1","1","1","1"
"260057","img/object_images/pen03.jpg","img/object_images/cellphone01.jpg","img/object_images/clock02.jpg","0","1","1","0","1","0","0.470751499990001","0.401448999997228","0.740735100000165","1","1","1","1","1","1","1","1","1"
"260057","img/object_images/clock02.jpg","img/object_images/pen03.jpg","img/object_images/bottle01.jpg","1","0","1","0","0","0","0.740735100000165","0.470751499990001","0.627733099972829","1","1","1","1","1","1","1","1","1"
"260057","img/object_images/bottle01.jpg","img/object_images/clock02.jpg","img/object_images/paint_brush04.jpg","1","1","1","0","0","0","0.627733099972829","0.740735100000165","0.444507500040345","1","1","1","1","1","1","1","1","1"
"260057","img/object_images/paint_brush04.jpg","img/object_images/bottle01.jpg",NA,"1","1",NA,"0","0",NA,"0.444507500040345","0.627733099972829",NA,"1","1",NA,"1","1",NA,"1","1",NA
"260057","img/object_images/lock04.jpg",NA,"img/object_images/ironing_table01.jpg","1",NA,"1","1",NA,"0","0.444190100068226",NA,"0.46658380003646","1",NA,"1","1",NA,"1","1",NA,"1"
"260057","img/object_images/ironing_table01.jpg","img/object_images/lock04.jpg","img/object_images/Screws01.jpg","1","1","1","0","1","1","0.46658380003646","0.444190100068226","0.391279499977827","1","1","1","1","1","1","1","1","1"
"260057","img/object_images/Screws01.jpg","img/object_images/ironing_table01.jpg","img/object_images/wallet02.jpg","1","1","1","1","0","1","0.391279499977827","0.46658380003646","0.374037400004454","1","1","1","1","1","1","1","1","1"
"260057","img/object_images/wallet02.jpg","img/object_images/Screws01.jpg","img/object_images/dresser04.jpg","1","1","0","1","1","0","0.374037400004454","0.391279499977827","0.359094599960372","1","1","1","1","1","1","1","1","2"
"260057","img/object_images/dresser04.jpg","img/object_images/wallet02.jpg","img/object_images/funnel01.jpg","0","1","1","0","1","0","0.359094599960372","0.374037400004454","0.518902999931015","1","1","1","1","1","1","2","1","1"
"260057","img/object_images/funnel01.jpg","img/object_images/dresser04.jpg","img/object_images/coloring_pencil01.jpg","1","0","1","0","0","1","0.518902999931015","0.359094599960372","0.464576700003818","1","1","1","1","1","1","1","2","1"
"260057","img/object_images/coloring_pencil01.jpg","img/object_images/funnel01.jpg","img/object_images/bow_tie01.jpg","1","1","1","1","0","0","0.464576700003818","0.518902999931015","0.516870899940841","1","1","1","1","1","1","1","1","1"
"260057","img/object_images/bow_tie01.jpg","img/object_images/coloring_pencil01.jpg","img/object_images/gift_box01.jpg","1","1","1","0","1","1","0.516870899940841","0.464576700003818","0.377196300076321","1","1","1","1","1","1","1","1","1"
"260057","img/object_images/gift_box01.jpg","img/object_images/bow_tie01.jpg","img/object_images/handkerchief01.jpg","1","1","1","1","0","0","0.377196300076321","0.516870899940841","0.493915900005959","1","1","1","1","1","1","1","1","1"
"260057","img/object_images/handkerchief01.jpg","img/object_images/gift_box01.jpg","img/object_images/socks02.jpg","1","1","1","0","1","0","0.493915900005959","0.377196300076321","0.4256642999826","1","1","1","1","1","1","1","1","1"
"260057","img/object_images/socks02.jpg","img/object_images/handkerchief01.jpg","img/object_images/gift_box02.jpg","1","1","1","0","0","1","0.4256642999826","0.493915900005959","0.432609400013462","1","1","1","1","1","1","1","1","1"
"260057","img/object_images/gift_box02.jpg","img/object_images/socks02.jpg","img/object_images/Witchhat01.jpg","1","1","0","1","0","1","0.432609400013462","0.4256642999826","0.358823399990797","1","1","1","1","1","1","1","1","2"
"260057","img/object_images/Witchhat01.jpg","img/object_images/gift_box02.jpg","img/object_images/sleeping_bag01.jpg","0","1","1","1","1","0","0.358823399990797","0.432609400013462","0.471447900054045","1","1","1","1","1","1","2","1","1"
"260057","img/object_images/sleeping_bag01.jpg","img/object_images/Witchhat01.jpg","img/object_images/balloon01.jpg","1","0","1","0","1","0","0.471447900054045","0.358823399990797","0.456462500034831","1","1","1","1","1","1","1","2","1"
"260057","img/object_images/balloon01.jpg","img/object_images/sleeping_bag01.jpg","img/object_images/lawn_mower01.jpg","1","1","1","0","0","1","0.456462500034831","0.471447900054045","0.433171899989247","1","1","1","1","1","1","1","1","1"
"260057","img/object_images/lawn_mower01.jpg","img/object_images/balloon01.jpg","img/object_images/hammer01.jpg","1","1","1","1","0","0","0.433171899989247","0.456462500034831","0.372690899996087","1","1","1","1","1","1","1","1","1"
"260057","img/object_images/hammer01.jpg","img/object_images/lawn_mower01.jpg","img/object_images/grater01.jpg","1","1","1","0","1","1","0.372690899996087","0.433171899989247","0.438641399960034","1","1","1","1","1","1","1","1","1"
"260057","img/object_images/grater01.jpg","img/object_images/hammer01.jpg","img/object_images/jewelry01.jpg","1","1","1","1","0","1","0.438641399960034","0.372690899996087","0.398337500053458","1","1","1","1","1","1","1","1","1"
"260057","img/object_images/jewelry01.jpg","img/object_images/grater01.jpg","img/object_images/fork03.jpg","1","1","1","1","1","1","0.398337500053458","0.438641399960034","0.384541900013574","1","1","1","1","1","1","1","1","1"
"260057","img/object_images/fork03.jpg","img/object_images/jewelry01.jpg","img/object_images/paper_cup01.jpg","1","1","0","1","1","0","0.384541900013574","0.398337500053458","0.404822699958459","1","1","1","1","1","1","1","1","1"
"260057","img/object_images/paper_cup01.jpg","img/object_images/fork03.jpg","img/object_images/jacket03.jpg","0","1","1","0","1","0","0.404822699958459","0.384541900013574","0.693518699961714","1","1","1","1","1","1","1","1","1"
"260057","img/object_images/jacket03.jpg","img/object_images/paper_cup01.jpg","img/object_images/bow_tie02.jpg","1","0","1","0","0","0","0.693518699961714","0.404822699958459","0.471285999985412","1","1","1","1","1","1","1","1","1"
"260057","img/object_images/bow_tie02.jpg","img/object_images/jacket03.jpg","img/object_images/gift_box03.jpg","1","1","1","0","0","0","0.471285999985412","0.693518699961714","0.559390100068413","1","1","1","1","1","1","1","1","1"
"260057","img/object_images/gift_box03.jpg","img/object_images/bow_tie02.jpg","img/object_images/vga_port 01.jpg","1","1","1","0","0","0","0.559390100068413","0.471285999985412","0.432102599996142","1","1","1","1","1","1","1","1","1"
"260057","img/object_images/vga_port 01.jpg","img/object_images/gift_box03.jpg","img/object_images/bath_tub01.jpg","1","1","0","0","0","0","0.432102599996142","0.559390100068413","0.44390359998215","1","1","1","1","1","1","1","1","1"
"260057","img/object_images/bath_tub01.jpg","img/object_images/vga_port 01.jpg","img/object_images/clip02.jpg","0","1","1","0","0","1","0.44390359998215","0.432102599996142","0.417651500087231","1","1","1","1","1","1","1","1","1"
"260057","img/object_images/clip02.jpg","img/object_images/bath_tub01.jpg","img/object_images/measuring_tape02.jpg","1","0","1","1","0","1","0.417651500087231","0.44390359998215","0.463744099950418","1","1","1","1","1","1","1","1","1"
"260057","img/object_images/measuring_tape02.jpg","img/object_images/clip02.jpg","img/object_images/camera07.jpg","1","1","1","1","1","1","0.463744099950418","0.417651500087231","0.480583199998364","1","1","1","1","1","1","1","1","1"
"260057","img/object_images/camera07.jpg","img/object_images/measuring_tape02.jpg","img/object_images/couch03.jpg","1","1","1","1","1","0","0.480583199998364","0.463744099950418","0.470252500032075","1","1","1","1","1","1","1","1","1"
"260057","img/object_images/couch03.jpg","img/object_images/camera07.jpg","img/object_images/golf_ball03.jpg","1","1","1","0","1","1","0.470252500032075","0.480583199998364","0.425627800053917","1","1","1","1","1","1","1","1","1"
"260057","img/object_images/golf_ball03.jpg","img/object_images/couch03.jpg","img/object_images/pitcher02.jpg","1","1","1","1","0","1","0.425627800053917","0.470252500032075","0.390126999933273","1","1","1","1","1","1","1","1","1"
"260057","img/object_images/pitcher02.jpg","img/object_images/golf_ball03.jpg",NA,"1","1",NA,"1","1",NA,"0.390126999933273","0.425627800053917",NA,"1","1",NA,"1","1",NA,"1","1",NA
