"participant_id","current_trial_object","pre_trial_object","post_trial_object","current_trial_accuracy","pre_trial_accuracy","post_trial_accuracy","current_trial_congruency","pre_trial_congruency","post_trial_congruency","current_trial_rt","pre_trial_rt","post_trial_rt","current_trial_responded","pre_trial_responded","post_trial_responded","current_trial_legitResponse","pre_trial_legitResponse","post_trial_legitResponse","current_trial_resp_nums","pre_trial_resp_nums","post_trial_resp_nums"
"260025","img/object_images/remover01.jpg",NA,"img/object_images/flashlight03.jpg","1",NA,"1","1",NA,"0","1.02747929998441",NA,"0.778180699970108","1",NA,"1","1",NA,"1","1",NA,"1"
"260025","img/object_images/flashlight03.jpg","img/object_images/remover01.jpg","img/object_images/Statue01.jpg","1","1","1","0","1","1","0.778180699970108","1.02747929998441","0.654141700011678","1","1","1","1","1","1","1","1","1"
"260025","img/object_images/Statue01.jpg","img/object_images/flashlight03.jpg","img/object_images/knife02.jpg","1","1","1","1","0","0","0.654141700011678","0.778180699970108","0.68881630001124","1","1","1","1","1","1","1","1","1"
"260025","img/object_images/knife02.jpg","img/object_images/Statue01.jpg","img/object_images/blender02.jpg","1","1","1","0","1","1","0.68881630001124","0.654141700011678","0.623634600022342","1","1","1","1","1","1","1","1","1"
"260025","img/object_images/blender02.jpg","img/object_images/knife02.jpg","img/object_images/tool18.jpg","1","1","1","1","0","0","0.623634600022342","0.68881630001124","0.615298299991991","1","1","1","1","1","1","1","1","1"
"260025","img/object_images/tool18.jpg","img/object_images/blender02.jpg","img/object_images/hand_grip_exerciser01.jpg","1","1","1","0","1","0","0.615298299991991","0.623634600022342","0.69205020001391","1","1","1","1","1","1","1","1","1"
"260025","img/object_images/hand_grip_exerciser01.jpg","img/object_images/tool18.jpg","img/object_images/stereo02.jpg","1","1","1","0","0","0","0.69205020001391","0.615298299991991","0.675891699967906","1","1","1","1","1","1","1","1","1"
"260025","img/object_images/stereo02.jpg","img/object_images/hand_grip_exerciser01.jpg","img/object_images/boat04.jpg","1","1","1","0","0","0","0.675891699967906","0.69205020001391","0.82740880001802","1","1","1","1","1","1","1","1","1"
"260025","img/object_images/boat04.jpg","img/object_images/stereo02.jpg","img/object_images/dresser03.jpg","1","1","1","0","0","0","0.82740880001802","0.675891699967906","0.808210099989083","1","1","1","1","1","1","1","1","1"
"260025","img/object_images/dresser03.jpg","img/object_images/boat04.jpg","img/object_images/jacket04.jpg","1","1","1","0","0","0","0.808210099989083","0.82740880001802","0.753560699988157","1","1","1","1","1","1","1","1","1"
"260025","img/object_images/jacket04.jpg","img/object_images/dresser03.jpg","img/object_images/toy08.jpg","1","1","1","0","0","0","0.753560699988157","0.808210099989083","0.910112000012305","1","1","1","1","1","1","1","1","1"
"260025","img/object_images/toy08.jpg","img/object_images/jacket04.jpg","img/object_images/camera03.jpg","1","1","1","0","0","0","0.910112000012305","0.753560699988157","0.536890899995342","1","1","1","1","1","1","1","1","1"
"260025","img/object_images/camera03.jpg","img/object_images/toy08.jpg","img/object_images/keyboard02.jpg","1","1","1","0","0","1","0.536890899995342","0.910112000012305","0.592845999985002","1","1","1","1","1","1","1","1","1"
"260025","img/object_images/keyboard02.jpg","img/object_images/camera03.jpg","img/object_images/curtain02.jpg","1","1","1","1","0","0","0.592845999985002","0.536890899995342","1.07299590000184","1","1","1","1","1","1","1","1","1"
"260025","img/object_images/curtain02.jpg","img/object_images/keyboard02.jpg","img/object_images/paper_cup02.jpg","1","1","1","0","1","1","1.07299590000184","0.592845999985002","0.673265399993397","1","1","1","1","1","1","1","1","1"
"260025","img/object_images/paper_cup02.jpg","img/object_images/curtain02.jpg","img/object_images/knit04.jpg","1","1","1","1","0","1","0.673265399993397","1.07299590000184","0.770200299972203","1","1","1","1","1","1","1","1","1"
"260025","img/object_images/knit04.jpg","img/object_images/paper_cup02.jpg","img/object_images/sponge03.jpg","1","1","1","1","1","1","0.770200299972203","0.673265399993397","0.586747199995443","1","1","1","1","1","1","1","1","1"
"260025","img/object_images/sponge03.jpg","img/object_images/knit04.jpg","img/object_images/kite01.jpg","1","1","1","1","1","1","0.586747199995443","0.770200299972203","0.581545799970627","1","1","1","1","1","1","1","1","1"
"260025","img/object_images/kite01.jpg","img/object_images/sponge03.jpg","img/object_images/bottle07.jpg","1","1","1","1","1","1","0.581545799970627","0.586747199995443","0.485144999984186","1","1","1","1","1","1","1","1","1"
"260025","img/object_images/bottle07.jpg","img/object_images/kite01.jpg","img/object_images/knit03.jpg","1","1","1","1","1","1","0.485144999984186","0.581545799970627","0.528599499957636","1","1","1","1","1","1","1","1","1"
"260025","img/object_images/knit03.jpg","img/object_images/bottle07.jpg","img/object_images/matches02.jpg","1","1","0","1","1","0","0.528599499957636","0.485144999984186","0.803482900024392","1","1","1","1","1","1","1","1","1"
"260025","img/object_images/matches02.jpg","img/object_images/knit03.jpg","img/object_images/backpack01.jpg","0","1","1","0","1","0","0.803482900024392","0.528599499957636","0.500501399976201","1","1","1","1","1","1","1","1","1"
"260025","img/object_images/backpack01.jpg","img/object_images/matches02.jpg","img/object_images/shower_head01.jpg","1","0","1","0","0","1","0.500501399976201","0.803482900024392","0.439333899994381","1","1","1","1","1","1","1","1","1"
"260025","img/object_images/shower_head01.jpg","img/object_images/backpack01.jpg","img/object_images/phone02.jpg","1","1","1","1","0","1","0.439333899994381","0.500501399976201","0.637691400013864","1","1","1","1","1","1","1","1","1"
"260025","img/object_images/phone02.jpg","img/object_images/shower_head01.jpg","img/object_images/car01.jpg","1","1","1","1","1","1","0.637691400013864","0.439333899994381","0.922662800003309","1","1","1","1","1","1","1","1","1"
"260025","img/object_images/car01.jpg","img/object_images/phone02.jpg","img/object_images/hoverboard01.jpg","1","1","1","1","1","0","0.922662800003309","0.637691400013864","0.493022599956021","1","1","1","1","1","1","1","1","1"
"260025","img/object_images/hoverboard01.jpg","img/object_images/car01.jpg","img/object_images/video_game01.jpg","1","1","1","0","1","1","0.493022599956021","0.922662800003309","0.58460980001837","1","1","1","1","1","1","1","1","1"
"260025","img/object_images/video_game01.jpg","img/object_images/hoverboard01.jpg","img/object_images/gloves02.jpg","1","1","1","1","0","0","0.58460980001837","0.493022599956021","0.755427399999462","1","1","1","1","1","1","1","1","1"
"260025","img/object_images/gloves02.jpg","img/object_images/video_game01.jpg","img/object_images/basket04.jpg","1","1","1","0","1","1","0.755427399999462","0.58460980001837","0.50072380003985","1","1","1","1","1","1","1","1","1"
"260025","img/object_images/basket04.jpg","img/object_images/gloves02.jpg","img/object_images/remote_controller01.jpg","1","1","1","1","0","1","0.50072380003985","0.755427399999462","0.503812399983872","1","1","1","1","1","1","1","1","1"
"260025","img/object_images/remote_controller01.jpg","img/object_images/basket04.jpg","img/object_images/mail_box01.jpg","1","1","1","1","1","0","0.503812399983872","0.50072380003985","1.12813129997812","1","1","1","1","1","1","1","1","1"
"260025","img/object_images/mail_box01.jpg","img/object_images/remote_controller01.jpg",NA,"1","1",NA,"0","1",NA,"1.12813129997812","0.503812399983872",NA,"1","1",NA,"1","1",NA,"1","1",NA
"260025","img/object_images/helmet03.jpg",NA,"img/object_images/note_book02.jpg","1",NA,"1","1",NA,"0","0.633465999970213",NA,"0.573296799964737","1",NA,"1","1",NA,"1","1",NA,"1"
"260025","img/object_images/note_book02.jpg","img/object_images/helmet03.jpg","img/object_images/fan01.jpg","1","1","1","0","1","0","0.573296799964737","0.633465999970213","0.559242000046652","1","1","1","1","1","1","1","1","1"
"260025","img/object_images/fan01.jpg","img/object_images/note_book02.jpg","img/object_images/water_gun01.jpg","1","1","0","0","0","1","0.559242000046652","0.573296799964737","0.309598799969535","1","1","1","1","1","1","1","1","1"
"260025","img/object_images/water_gun01.jpg","img/object_images/fan01.jpg","img/object_images/TreeSlice01.jpg","0","1","1","1","0","1","0.309598799969535","0.559242000046652","0.725444699986838","1","1","1","1","1","1","1","1","1"
"260025","img/object_images/TreeSlice01.jpg","img/object_images/water_gun01.jpg","img/object_images/tennis_racket01.jpg","1","0","1","1","1","1","0.725444699986838","0.309598799969535","0.539104400028009","1","1","1","1","1","1","1","1","1"
"260025","img/object_images/tennis_racket01.jpg","img/object_images/TreeSlice01.jpg","img/object_images/bottle06.jpg","1","1","1","1","1","0","0.539104400028009","0.725444699986838","0.595464900019579","1","1","1","1","1","1","1","1","1"
"260025","img/object_images/bottle06.jpg","img/object_images/tennis_racket01.jpg","img/object_images/jewel02.jpg","1","1","1","0","1","0","0.595464900019579","0.539104400028009","0.419632799981628","1","1","1","1","1","1","1","1","1"
"260025","img/object_images/jewel02.jpg","img/object_images/bottle06.jpg","img/object_images/bookmark01.jpg","1","1","1","0","0","0","0.419632799981628","0.595464900019579","0.564464900002349","1","1","1","1","1","1","1","1","1"
"260025","img/object_images/bookmark01.jpg","img/object_images/jewel02.jpg","img/object_images/belt03.jpg","1","1","1","0","0","0","0.564464900002349","0.419632799981628","0.811167599982582","1","1","1","1","1","1","1","1","1"
"260025","img/object_images/belt03.jpg","img/object_images/bookmark01.jpg","img/object_images/phone04.jpg","1","1","1","0","0","1","0.811167599982582","0.564464900002349","0.586032700026408","1","1","1","1","1","1","1","1","1"
"260025","img/object_images/phone04.jpg","img/object_images/belt03.jpg","img/object_images/joystick03.jpg","1","1","1","1","0","1","0.586032700026408","0.811167599982582","0.526389399950858","1","1","1","1","1","1","1","1","1"
"260025","img/object_images/joystick03.jpg","img/object_images/phone04.jpg","img/object_images/shovel01.jpg","1","1","1","1","1","0","0.526389399950858","0.586032700026408","0.517918500001542","1","1","1","1","1","1","1","1","1"
"260025","img/object_images/shovel01.jpg","img/object_images/joystick03.jpg","img/object_images/Shoes05.jpg","1","1","1","0","1","0","0.517918500001542","0.526389399950858","0.584355500002857","1","1","1","1","1","1","1","1","1"
"260025","img/object_images/Shoes05.jpg","img/object_images/shovel01.jpg","img/object_images/bucket01.jpg","1","1","1","0","0","1","0.584355500002857","0.517918500001542","0.881870500044897","1","1","1","1","1","1","1","1","1"
"260025","img/object_images/bucket01.jpg","img/object_images/Shoes05.jpg","img/object_images/trumpet01.jpg","1","1","1","1","0","0","0.881870500044897","0.584355500002857","0.527202699973714","1","1","1","1","1","1","1","1","1"
"260025","img/object_images/trumpet01.jpg","img/object_images/bucket01.jpg","img/object_images/origami01.jpg","1","1","1","0","1","1","0.527202699973714","0.881870500044897","0.4894555999781","1","1","1","1","1","1","1","1","1"
"260025","img/object_images/origami01.jpg","img/object_images/trumpet01.jpg","img/object_images/scale02.jpg","1","1","1","1","0","0","0.4894555999781","0.527202699973714","0.546810799976811","1","1","1","1","1","1","1","1","1"
"260025","img/object_images/scale02.jpg","img/object_images/origami01.jpg","img/object_images/dice01.jpg","1","1","1","0","1","0","0.546810799976811","0.4894555999781","0.459301399998367","1","1","1","1","1","1","1","1","1"
"260025","img/object_images/dice01.jpg","img/object_images/scale02.jpg","img/object_images/Safe01.jpg","1","1","1","0","0","1","0.459301399998367","0.546810799976811","0.525676899997052","1","1","1","1","1","1","1","1","1"
"260025","img/object_images/Safe01.jpg","img/object_images/dice01.jpg","img/object_images/egg_basket01.jpg","1","1","1","1","0","1","0.525676899997052","0.459301399998367","0.462482500006445","1","1","1","1","1","1","1","1","1"
"260025","img/object_images/egg_basket01.jpg","img/object_images/Safe01.jpg","img/object_images/headset02.jpg","1","1","1","1","1","0","0.462482500006445","0.525676899997052","0.551484399999026","1","1","1","1","1","1","1","1","1"
"260025","img/object_images/headset02.jpg","img/object_images/egg_basket01.jpg","img/object_images/yoga_mat01.jpg","1","1","1","0","1","0","0.551484399999026","0.462482500006445","0.564437500026543","1","1","1","1","1","1","1","1","1"
"260025","img/object_images/yoga_mat01.jpg","img/object_images/headset02.jpg","img/object_images/usb03.jpg","1","1","1","0","0","0","0.564437500026543","0.551484399999026","0.647404699993785","1","1","1","1","1","1","1","1","1"
"260025","img/object_images/usb03.jpg","img/object_images/yoga_mat01.jpg","img/object_images/piano03.jpg","1","1","1","0","0","0","0.647404699993785","0.564437500026543","0.824383300030604","1","1","1","1","1","1","1","1","1"
"260025","img/object_images/piano03.jpg","img/object_images/usb03.jpg","img/object_images/frame01.jpg","1","1","1","0","0","1","0.824383300030604","0.647404699993785","0.584482999984175","1","1","1","1","1","1","1","1","1"
"260025","img/object_images/frame01.jpg","img/object_images/piano03.jpg","img/object_images/lock03.jpg","1","1","1","1","0","1","0.584482999984175","0.824383300030604","0.46376670000609","1","1","1","1","1","1","1","1","1"
"260025","img/object_images/lock03.jpg","img/object_images/frame01.jpg","img/object_images/badminton01.jpg","1","1","1","1","1","1","0.46376670000609","0.584482999984175","0.440377099963371","1","1","1","1","1","1","1","1","1"
"260025","img/object_images/badminton01.jpg","img/object_images/lock03.jpg","img/object_images/nut_cracker01.jpg","1","1","1","1","1","1","0.440377099963371","0.46376670000609","0.435565099993255","1","1","1","1","1","1","1","1","1"
"260025","img/object_images/nut_cracker01.jpg","img/object_images/badminton01.jpg","img/object_images/Eyeliner01.jpg","1","1","1","1","1","1","0.435565099993255","0.440377099963371","0.427468599984422","1","1","1","1","1","1","1","1","1"
"260025","img/object_images/Eyeliner01.jpg","img/object_images/nut_cracker01.jpg","img/object_images/ToolBag01.jpg","1","1","1","1","1","0","0.427468599984422","0.435565099993255","0.637206399987917","1","1","1","1","1","1","1","1","1"
"260025","img/object_images/ToolBag01.jpg","img/object_images/Eyeliner01.jpg","img/object_images/pitcher07.jpg","1","1","1","0","1","1","0.637206399987917","0.427468599984422","0.548816199996509","1","1","1","1","1","1","1","1","1"
"260025","img/object_images/pitcher07.jpg","img/object_images/ToolBag01.jpg",NA,"1","1",NA,"1","0",NA,"0.548816199996509","0.637206399987917",NA,"1","1",NA,"1","1",NA,"1","1",NA
"260025","img/object_images/duster01.jpg",NA,"img/object_images/pen06.jpg","1",NA,"0","0",NA,"0","0.697513299994171",NA,"0.81313639995642","1",NA,"1","1",NA,"1","1",NA,"1"
"260025","img/object_images/pen06.jpg","img/object_images/duster01.jpg","img/object_images/clipboard01.jpg","0","1","1","0","0","1","0.81313639995642","0.697513299994171","0.551654600014444","1","1","1","1","1","1","1","1","1"
"260025","img/object_images/clipboard01.jpg","img/object_images/pen06.jpg","img/object_images/bow_tie03.jpg","1","0","1","1","0","1","0.551654600014444","0.81313639995642","0.443961900018621","1","1","1","1","1","1","1","1","1"
"260025","img/object_images/bow_tie03.jpg","img/object_images/clipboard01.jpg","img/object_images/dust_pan01.jpg","1","1","1","1","1","1","0.443961900018621","0.551654600014444","0.473967300029472","1","1","1","1","1","1","1","1","1"
"260025","img/object_images/dust_pan01.jpg","img/object_images/bow_tie03.jpg","img/object_images/cup01.jpg","1","1","0","1","1","0","0.473967300029472","0.443961900018621","0.467225400032476","1","1","1","1","1","1","1","1","1"
"260025","img/object_images/cup01.jpg","img/object_images/dust_pan01.jpg","img/object_images/tool20.jpg","0","1","1","0","1","0","0.467225400032476","0.473967300029472","0.532367700012401","1","1","1","1","1","1","1","1","1"
"260025","img/object_images/tool20.jpg","img/object_images/cup01.jpg","img/object_images/ruler02.jpg","1","0","1","0","0","1","0.532367700012401","0.467225400032476","0.467819899960887","1","1","1","1","1","1","1","1","1"
"260025","img/object_images/ruler02.jpg","img/object_images/tool20.jpg","img/object_images/board01.jpg","1","1","1","1","0","1","0.467819899960887","0.532367700012401","0.449135900009423","1","1","1","1","1","1","1","1","1"
"260025","img/object_images/board01.jpg","img/object_images/ruler02.jpg","img/object_images/lemon_squeezer01.jpg","1","1","0","1","1","1","0.449135900009423","0.467819899960887","0.771712200017646","1","1","1","1","1","1","1","1","1"
"260025","img/object_images/lemon_squeezer01.jpg","img/object_images/board01.jpg","img/object_images/hat09.jpg","0","1","1","1","1","0","0.771712200017646","0.449135900009423","0.591036199999508","1","1","1","1","1","1","1","1","1"
"260025","img/object_images/hat09.jpg","img/object_images/lemon_squeezer01.jpg","img/object_images/socks01.jpg","1","0","1","0","1","1","0.591036199999508","0.771712200017646","0.454132399987429","1","1","1","1","1","1","1","1","1"
"260025","img/object_images/socks01.jpg","img/object_images/hat09.jpg","img/object_images/tool13.jpg","1","1","1","1","0","1","0.454132399987429","0.591036199999508","0.438116499979515","1","1","1","1","1","1","1","1","1"
"260025","img/object_images/tool13.jpg","img/object_images/socks01.jpg","img/object_images/perfume01.jpg","1","1","1","1","1","0","0.438116499979515","0.454132399987429","0.605329099984374","1","1","1","1","1","1","1","1","1"
"260025","img/object_images/perfume01.jpg","img/object_images/tool13.jpg","img/object_images/candle02.jpg","1","1","1","0","1","0","0.605329099984374","0.438116499979515","0.533293800021056","1","1","1","1","1","1","1","1","1"
"260025","img/object_images/candle02.jpg","img/object_images/perfume01.jpg","img/object_images/bag04.jpg","1","1","0","0","0","0","0.533293800021056","0.605329099984374","0.495389699994121","1","1","1","1","1","1","1","1","1"
"260025","img/object_images/bag04.jpg","img/object_images/candle02.jpg","img/object_images/hammer02.jpg","0","1","0","0","0","0","0.495389699994121","0.533293800021056","0.87060590001056","1","1","1","1","1","1","1","1","1"
"260025","img/object_images/hammer02.jpg","img/object_images/bag04.jpg","img/object_images/camera05.jpg","0","0","1","0","0","0","0.87060590001056","0.495389699994121","0.605894599983003","1","1","1","1","1","1","1","1","1"
"260025","img/object_images/camera05.jpg","img/object_images/hammer02.jpg","img/object_images/vase02.jpg","1","0","1","0","0","1","0.605894599983003","0.87060590001056","0.504736699978821","1","1","1","1","1","1","1","1","1"
"260025","img/object_images/vase02.jpg","img/object_images/camera05.jpg","img/object_images/Confetti 01.jpg","1","1","1","1","0","0","0.504736699978821","0.605894599983003","0.534347799955867","1","1","1","1","1","1","1","1","1"
"260025","img/object_images/Confetti 01.jpg","img/object_images/vase02.jpg","img/object_images/glasses03.jpg","1","1","1","0","1","0","0.534347799955867","0.504736699978821","0.564442799950484","1","1","1","1","1","1","1","1","1"
"260025","img/object_images/glasses03.jpg","img/object_images/Confetti 01.jpg","img/object_images/sign02.jpg","1","1","1","0","0","0","0.564442799950484","0.534347799955867","0.555559000000358","1","1","1","1","1","1","1","1","1"
"260025","img/object_images/sign02.jpg","img/object_images/glasses03.jpg","img/object_images/office_supplies01.jpg","1","1","1","0","0","1","0.555559000000358","0.564442799950484","0.568660299992189","1","1","1","1","1","1","1","1","1"
"260025","img/object_images/office_supplies01.jpg","img/object_images/sign02.jpg","img/object_images/knife01.jpg","1","1","1","1","0","1","0.568660299992189","0.555559000000358","0.488216000027023","1","1","1","1","1","1","1","1","1"
"260025","img/object_images/knife01.jpg","img/object_images/office_supplies01.jpg","img/object_images/pan03.jpg","1","1","1","1","1","1","0.488216000027023","0.568660299992189","0.468592700024601","1","1","1","1","1","1","1","1","1"
"260025","img/object_images/pan03.jpg","img/object_images/knife01.jpg","img/object_images/Candle_Holder01.jpg","1","1","1","1","1","0","0.468592700024601","0.488216000027023","0.569786000007298","1","1","1","1","1","1","1","1","1"
"260025","img/object_images/Candle_Holder01.jpg","img/object_images/pan03.jpg","img/object_images/spray_can01.jpg","1","1","1","0","1","0","0.569786000007298","0.468592700024601","0.556928800011519","1","1","1","1","1","1","1","1","1"
"260025","img/object_images/spray_can01.jpg","img/object_images/Candle_Holder01.jpg","img/object_images/floss01.jpg","1","1","1","0","0","1","0.556928800011519","0.569786000007298","0.449680999969132","1","1","1","1","1","1","1","1","1"
"260025","img/object_images/floss01.jpg","img/object_images/spray_can01.jpg","img/object_images/sink_filter01 (1).jpg","1","1","1","1","0","0","0.449680999969132","0.556928800011519","0.61397720000241","1","1","1","1","1","1","1","1","1"
"260025","img/object_images/sink_filter01 (1).jpg","img/object_images/floss01.jpg","img/object_images/hat13.jpg","1","1","1","0","1","1","0.61397720000241","0.449680999969132","0.476438299985602","1","1","1","1","1","1","1","1","1"
"260025","img/object_images/hat13.jpg","img/object_images/sink_filter01 (1).jpg","img/object_images/video_game02.jpg","1","1","1","1","0","1","0.476438299985602","0.61397720000241","0.468424499966204","1","1","1","1","1","1","1","1","1"
"260025","img/object_images/video_game02.jpg","img/object_images/hat13.jpg","img/object_images/razor02.jpg","1","1","1","1","1","1","0.468424499966204","0.476438299985602","0.527805799967609","1","1","1","1","1","1","1","1","1"
"260025","img/object_images/razor02.jpg","img/object_images/video_game02.jpg",NA,"1","1",NA,"1","1",NA,"0.527805799967609","0.468424499966204",NA,"1","1",NA,"1","1",NA,"1","1",NA
"260025","img/object_images/bird_house02.jpg",NA,"img/object_images/Vacuum01.jpg","0",NA,"1","1",NA,"0","0.81351279997034",NA,"0.607507899985649","1",NA,"1","1",NA,"1","1",NA,"1"
"260025","img/object_images/Vacuum01.jpg","img/object_images/bird_house02.jpg","img/object_images/helmet01.jpg","1","0","1","0","1","0","0.607507899985649","0.81351279997034","0.517641800048295","1","1","1","1","1","1","1","1","1"
"260025","img/object_images/helmet01.jpg","img/object_images/Vacuum01.jpg","img/object_images/Stool01.jpg","1","1","1","0","0","0","0.517641800048295","0.607507899985649","0.471801699954085","1","1","1","1","1","1","1","1","1"
"260025","img/object_images/Stool01.jpg","img/object_images/helmet01.jpg","img/object_images/sink01.jpg","1","1","1","0","0","0","0.471801699954085","0.517641800048295","0.511848800000735","1","1","1","1","1","1","1","1","1"
"260025","img/object_images/sink01.jpg","img/object_images/Stool01.jpg","img/object_images/pot01 (1).jpg","1","1","1","0","0","0","0.511848800000735","0.471801699954085","0.514390999975149","1","1","1","1","1","1","1","1","1"
"260025","img/object_images/pot01 (1).jpg","img/object_images/sink01.jpg","img/object_images/crown02.jpg","1","1","1","0","0","1","0.514390999975149","0.511848800000735","0.404109299997799","1","1","1","1","1","1","1","1","1"
"260025","img/object_images/crown02.jpg","img/object_images/pot01 (1).jpg","img/object_images/gauze01.jpg","1","1","1","1","0","0","0.404109299997799","0.514390999975149","0.469570500019472","1","1","1","1","1","1","1","1","1"
"260025","img/object_images/gauze01.jpg","img/object_images/crown02.jpg","img/object_images/Tin01.jpg","1","1","1","0","1","1","0.469570500019472","0.404109299997799","0.399705899995752","1","1","1","1","1","1","1","1","1"
"260025","img/object_images/Tin01.jpg","img/object_images/gauze01.jpg","img/object_images/mirror01.jpg","1","1","1","1","0","1","0.399705899995752","0.469570500019472","0.364648599992506","1","1","1","1","1","1","1","1","1"
"260025","img/object_images/mirror01.jpg","img/object_images/Tin01.jpg","img/object_images/bow01.jpg","1","1","1","1","1","1","0.364648599992506","0.399705899995752","0.515529799973592","1","1","1","1","1","1","1","1","1"
"260025","img/object_images/bow01.jpg","img/object_images/mirror01.jpg","img/object_images/toy04.jpg","1","1","1","1","1","0","0.515529799973592","0.364648599992506","0.429585099976975","1","1","1","1","1","1","1","1","1"
"260025","img/object_images/toy04.jpg","img/object_images/bow01.jpg","img/object_images/jewel04.jpg","1","1","0","0","1","0","0.429585099976975","0.515529799973592","0.310330799955409","1","1","1","1","1","1","1","1","1"
"260025","img/object_images/jewel04.jpg","img/object_images/toy04.jpg","img/object_images/outlet01.jpg","0","1","1","0","0","0","0.310330799955409","0.429585099976975","0.534104000020307","1","1","1","1","1","1","1","1","1"
"260025","img/object_images/outlet01.jpg","img/object_images/jewel04.jpg","img/object_images/bottle05.jpg","1","0","1","0","0","0","0.534104000020307","0.310330799955409","0.547648600011598","1","1","1","1","1","1","1","1","1"
"260025","img/object_images/bottle05.jpg","img/object_images/outlet01.jpg","img/object_images/stapler.jpg","1","1","1","0","0","1","0.547648600011598","0.534104000020307","0.382213100034278","1","1","1","1","1","1","1","1","1"
"260025","img/object_images/stapler.jpg","img/object_images/bottle05.jpg","img/object_images/ornament01.jpg","1","1","1","1","0","1","0.382213100034278","0.547648600011598","0.563035499944817","1","1","1","1","1","1","1","1","1"
"260025","img/object_images/ornament01.jpg","img/object_images/stapler.jpg","img/object_images/tool02.jpg","1","1","1","1","1","1","0.563035499944817","0.382213100034278","0.445214899955317","1","1","1","1","1","1","1","1","1"
"260025","img/object_images/tool02.jpg","img/object_images/ornament01.jpg","img/object_images/acoustic_capo01.jpg","1","1","1","1","1","1","0.445214899955317","0.563035499944817","0.497489199973643","1","1","1","1","1","1","1","1","1"
"260025","img/object_images/acoustic_capo01.jpg","img/object_images/tool02.jpg","img/object_images/shovel03.jpg","1","1","1","1","1","1","0.497489199973643","0.445214899955317","0.440421500010416","1","1","1","1","1","1","1","1","1"
"260025","img/object_images/shovel03.jpg","img/object_images/acoustic_capo01.jpg","img/object_images/MetalWire01.jpg","1","1","1","1","1","0","0.440421500010416","0.497489199973643","0.521665100008249","1","1","1","1","1","1","1","1","1"
"260025","img/object_images/MetalWire01.jpg","img/object_images/shovel03.jpg","img/object_images/judge_gavel01.jpg","1","1","1","0","1","1","0.521665100008249","0.440421500010416","0.438510400010273","1","1","1","1","1","1","1","1","1"
"260025","img/object_images/judge_gavel01.jpg","img/object_images/MetalWire01.jpg","img/object_images/towel02.jpg","1","1","1","1","0","1","0.438510400010273","0.521665100008249","0.419918800005689","1","1","1","1","1","1","1","1","1"
"260025","img/object_images/towel02.jpg","img/object_images/judge_gavel01.jpg","img/object_images/tool09.jpg","1","1","1","1","1","1","0.419918800005689","0.438510400010273","0.376082099974155","1","1","1","1","1","1","1","1","1"
"260025","img/object_images/tool09.jpg","img/object_images/towel02.jpg","img/object_images/fridge03.jpg","1","1","1","1","1","0","0.376082099974155","0.419918800005689","0.543251399998553","1","1","1","1","1","1","1","1","1"
"260025","img/object_images/fridge03.jpg","img/object_images/tool09.jpg","img/object_images/frisbee01.jpg","1","1","1","0","1","1","0.543251399998553","0.376082099974155","0.508684800006449","1","1","1","1","1","1","1","1","1"
"260025","img/object_images/frisbee01.jpg","img/object_images/fridge03.jpg","img/object_images/guitar02.jpg","1","1","1","1","0","0","0.508684800006449","0.543251399998553","0.548236900009215","1","1","1","1","1","1","1","1","1"
"260025","img/object_images/guitar02.jpg","img/object_images/frisbee01.jpg","img/object_images/dart01.jpg","1","1","1","0","1","0","0.548236900009215","0.508684800006449","0.577156199957244","1","1","1","1","1","1","1","1","1"
"260025","img/object_images/dart01.jpg","img/object_images/guitar02.jpg","img/object_images/Ring02.jpg","1","1","1","0","0","0","0.577156199957244","0.548236900009215","0.627616499958094","1","1","1","1","1","1","1","1","1"
"260025","img/object_images/Ring02.jpg","img/object_images/dart01.jpg","img/object_images/toy03.jpg","1","1","1","0","0","1","0.627616499958094","0.577156199957244","0.657641400001012","1","1","1","1","1","1","1","1","1"
"260025","img/object_images/toy03.jpg","img/object_images/Ring02.jpg","img/object_images/video_game07.jpg","1","1","1","1","0","1","0.657641400001012","0.627616499958094","0.513974600005895","1","1","1","1","1","1","1","1","1"
"260025","img/object_images/video_game07.jpg","img/object_images/toy03.jpg","img/object_images/watch01.jpg","1","1","1","1","1","0","0.513974600005895","0.657641400001012","0.626638100016862","1","1","1","1","1","1","1","1","1"
"260025","img/object_images/watch01.jpg","img/object_images/video_game07.jpg",NA,"1","1",NA,"0","1",NA,"0.626638100016862","0.513974600005895",NA,"1","1",NA,"1","1",NA,"1","1",NA
"260025","img/object_images/spatula02.jpg",NA,"img/object_images/hair_brush02.jpg","0",NA,"1","1",NA,"0","0.885684499982744",NA,"0.570883200038224","1",NA,"1","1",NA,"1","1",NA,"1"
"260025","img/object_images/hair_brush02.jpg","img/object_images/spatula02.jpg","img/object_images/fan04.jpg","1","0","1","0","1","0","0.570883200038224","0.885684499982744","0.63296190003166","1","1","1","1","1","1","1","1","1"
"260025","img/object_images/fan04.jpg","img/object_images/hair_brush02.jpg","img/object_images/ball02.jpg","1","1","1","0","0","1","0.63296190003166","0.570883200038224","0.521048999973573","1","1","1","1","1","1","1","1","1"
"260025","img/object_images/ball02.jpg","img/object_images/fan04.jpg","img/object_images/stove01.jpg","1","1","1","1","0","0","0.521048999973573","0.63296190003166","0.398811899998691","1","1","1","1","1","1","1","1","1"
"260025","img/object_images/stove01.jpg","img/object_images/ball02.jpg","img/object_images/chess_piece01.jpg","1","1","1","0","1","0","0.398811899998691","0.521048999973573","0.391107799950987","1","1","1","1","1","1","1","1","1"
"260025","img/object_images/chess_piece01.jpg","img/object_images/stove01.jpg","img/object_images/umbrella01.jpg","1","1","1","0","0","0","0.391107799950987","0.398811899998691","0.476702300016768","1","1","1","1","1","1","1","1","1"
"260025","img/object_images/umbrella01.jpg","img/object_images/chess_piece01.jpg","img/object_images/microphone03.jpg","1","1","1","0","0","1","0.476702300016768","0.391107799950987","0.454793400014751","1","1","1","1","1","1","1","1","1"
"260025","img/object_images/microphone03.jpg","img/object_images/umbrella01.jpg","img/object_images/calculator01.jpg","1","1","1","1","0","1","0.454793400014751","0.476702300016768","0.364811000006739","1","1","1","1","1","1","1","1","1"
"260025","img/object_images/calculator01.jpg","img/object_images/microphone03.jpg","img/object_images/Lint_Roller02.jpg","1","1","0","1","1","0","0.364811000006739","0.454793400014751","0.3897667999845","1","1","1","1","1","1","1","1","1"
"260025","img/object_images/Lint_Roller02.jpg","img/object_images/calculator01.jpg","img/object_images/laptop01.jpg","0","1","1","0","1","0","0.3897667999845","0.364811000006739","0.399884299957193","1","1","1","1","1","1","1","1","1"
"260025","img/object_images/laptop01.jpg","img/object_images/Lint_Roller02.jpg","img/object_images/helmet02.jpg","1","0","1","0","0","0","0.399884299957193","0.3897667999845","0.469715900020674","1","1","1","1","1","1","1","1","1"
"260025","img/object_images/helmet02.jpg","img/object_images/laptop01.jpg","img/object_images/robe01.jpg","1","1","1","0","0","1","0.469715900020674","0.399884299957193","0.633616000006441","1","1","1","1","1","1","1","1","1"
"260025","img/object_images/robe01.jpg","img/object_images/helmet02.jpg","img/object_images/jewel03.jpg","1","1","1","1","0","1","0.633616000006441","0.469715900020674","0.412527100008447","1","1","1","1","1","1","1","1","1"
"260025","img/object_images/jewel03.jpg","img/object_images/robe01.jpg","img/object_images/gift_box05.jpg","1","1","0","1","1","0","0.412527100008447","0.633616000006441","0.516613400017377","1","1","1","1","1","1","1","1","2"
"260025","img/object_images/gift_box05.jpg","img/object_images/jewel03.jpg","img/object_images/towels01.jpg","0","1","1","0","1","0","0.516613400017377","0.412527100008447","0.598555500037037","1","1","1","1","1","1","2","1","1"
"260025","img/object_images/towels01.jpg","img/object_images/gift_box05.jpg","img/object_images/chair02.jpg","1","0","1","0","0","1","0.598555500037037","0.516613400017377","0.883720400044695","1","1","1","1","1","1","1","2","1"
"260025","img/object_images/chair02.jpg","img/object_images/towels01.jpg","img/object_images/trash_can05.jpg","1","1","1","1","0","1","0.883720400044695","0.598555500037037","0.401612899964675","1","1","1","1","1","1","1","1","1"
"260025","img/object_images/trash_can05.jpg","img/object_images/chair02.jpg","img/object_images/combs01.jpg","1","1","1","1","1","1","0.401612899964675","0.883720400044695","0.534797200001776","1","1","1","1","1","1","1","1","1"
"260025","img/object_images/combs01.jpg","img/object_images/trash_can05.jpg","img/object_images/vase01.jpg","1","1","1","1","1","0","0.534797200001776","0.401612899964675","0.563681699975859","1","1","1","1","1","1","1","1","1"
"260025","img/object_images/vase01.jpg","img/object_images/combs01.jpg","img/object_images/accardion01.jpg","1","1","1","0","1","1","0.563681699975859","0.534797200001776","0.434301000030246","1","1","1","1","1","1","1","1","1"
"260025","img/object_images/accardion01.jpg","img/object_images/vase01.jpg","img/object_images/surf_board01.jpg","1","1","0","1","0","1","0.434301000030246","0.563681699975859","0.609311199979857","1","1","1","1","1","1","1","1","1"
"260025","img/object_images/surf_board01.jpg","img/object_images/accardion01.jpg","img/object_images/pitcher05.jpg","0","1","1","1","1","0","0.609311199979857","0.434301000030246","0.592629700026009","1","1","1","1","1","1","1","1","1"
"260025","img/object_images/pitcher05.jpg","img/object_images/surf_board01.jpg","img/object_images/hair_dryer01.jpg","1","0","0","0","1","0","0.592629700026009","0.609311199979857","0.392222199996468","1","1","1","1","1","1","1","1","1"
"260025","img/object_images/hair_dryer01.jpg","img/object_images/pitcher05.jpg","img/object_images/Vest02.jpg","0","1","0","0","0","0","0.392222199996468","0.592629700026009","0.93132459995104","1","1","1","1","1","1","1","1","1"
"260025","img/object_images/Vest02.jpg","img/object_images/hair_dryer01.jpg","img/object_images/lock01.jpg","0","0","1","0","0","0","0.93132459995104","0.392222199996468","0.517934300005436","1","1","1","1","1","1","1","1","1"
"260025","img/object_images/lock01.jpg","img/object_images/Vest02.jpg","img/object_images/toy05.jpg","1","0","1","0","0","0","0.517934300005436","0.93132459995104","0.518537700001616","1","1","1","1","1","1","1","1","1"
"260025","img/object_images/toy05.jpg","img/object_images/lock01.jpg","img/object_images/trash_can03.jpg","1","1","1","0","0","1","0.518537700001616","0.517934300005436","0.666622199991252","1","1","1","1","1","1","1","1","1"
"260025","img/object_images/trash_can03.jpg","img/object_images/toy05.jpg","img/object_images/shoes08.jpg","1","1","1","1","0","1","0.666622199991252","0.518537700001616","0.377624699962325","1","1","1","1","1","1","1","1","1"
"260025","img/object_images/shoes08.jpg","img/object_images/trash_can03.jpg","img/object_images/backpack03.jpg","1","1","1","1","1","1","0.377624699962325","0.666622199991252","0.501854899979662","1","1","1","1","1","1","1","1","1"
"260025","img/object_images/backpack03.jpg","img/object_images/shoes08.jpg","img/object_images/laptop03.jpg","1","1","1","1","1","1","0.501854899979662","0.377624699962325","0.342877399991266","1","1","1","1","1","1","1","1","1"
"260025","img/object_images/laptop03.jpg","img/object_images/backpack03.jpg","img/object_images/bucket02.jpg","1","1","1","1","1","1","0.342877399991266","0.501854899979662","0.59719950001454","1","1","1","1","1","1","1","1","1"
"260025","img/object_images/bucket02.jpg","img/object_images/laptop03.jpg",NA,"1","1",NA,"1","1",NA,"0.59719950001454","0.342877399991266",NA,"1","1",NA,"1","1",NA,"1","1",NA
"260025","img/object_images/fan05.jpg",NA,"img/object_images/shoes10.jpg","0",NA,"0","0",NA,"0","0.537008699961007",NA,"0.668061800010037","1",NA,"1","1",NA,"1","1",NA,"1"
"260025","img/object_images/shoes10.jpg","img/object_images/fan05.jpg","img/object_images/tool11.jpg","0","0","1","0","0","1","0.668061800010037","0.537008699961007","0.568673000030685","1","1","1","1","1","1","1","1","1"
"260025","img/object_images/tool11.jpg","img/object_images/shoes10.jpg","img/object_images/tv01.jpg","1","0","1","1","0","0","0.568673000030685","0.668061800010037","0.578378999955021","1","1","1","1","1","1","1","1","1"
"260025","img/object_images/tv01.jpg","img/object_images/tool11.jpg","img/object_images/jewel01.jpg","1","1","1","0","1","0","0.578378999955021","0.568673000030685","0.536829199991189","1","1","1","1","1","1","1","1","1"
"260025","img/object_images/jewel01.jpg","img/object_images/tv01.jpg","img/object_images/mask01.jpg","1","1","1","0","0","0","0.536829199991189","0.578378999955021","0.577451899996959","1","1","1","1","1","1","1","1","1"
"260025","img/object_images/mask01.jpg","img/object_images/jewel01.jpg","img/object_images/toaster02.jpg","1","1","1","0","0","1","0.577451899996959","0.536829199991189","0.439368799969088","1","1","1","1","1","1","1","1","1"
"260025","img/object_images/toaster02.jpg","img/object_images/mask01.jpg","img/object_images/ice_tray03.jpg","1","1","1","1","0","1","0.439368799969088","0.577451899996959","0.506047500006389","1","1","1","1","1","1","1","1","1"
"260025","img/object_images/ice_tray03.jpg","img/object_images/toaster02.jpg","img/object_images/car03.jpg","1","1","1","1","1","0","0.506047500006389","0.439368799969088","0.442366499977652","1","1","1","1","1","1","1","1","1"
"260025","img/object_images/car03.jpg","img/object_images/ice_tray03.jpg","img/object_images/lemon_squeezer02.jpg","1","1","1","0","1","1","0.442366499977652","0.506047500006389","0.444249499996658","1","1","1","1","1","1","1","1","1"
"260025","img/object_images/lemon_squeezer02.jpg","img/object_images/car03.jpg","img/object_images/ribbon01.jpg","1","1","1","1","0","0","0.444249499996658","0.442366499977652","0.59661440004129","1","1","1","1","1","1","1","1","1"
"260025","img/object_images/ribbon01.jpg","img/object_images/lemon_squeezer02.jpg","img/object_images/dress03.jpg","1","1","1","0","1","1","0.59661440004129","0.444249499996658","0.531908500008285","1","1","1","1","1","1","1","1","1"
"260025","img/object_images/dress03.jpg","img/object_images/ribbon01.jpg","img/object_images/screwdriver01.jpg","1","1","0","1","0","0","0.531908500008285","0.59661440004129","0.49283409997588","1","1","1","1","1","1","1","1","1"
"260025","img/object_images/screwdriver01.jpg","img/object_images/dress03.jpg","img/object_images/cutting_board01.jpg","0","1","1","0","1","1","0.49283409997588","0.531908500008285","0.789426000032108","1","1","1","1","1","1","1","1","1"
"260025","img/object_images/cutting_board01.jpg","img/object_images/screwdriver01.jpg","img/object_images/car04.jpg","1","0","1","1","0","0","0.789426000032108","0.49283409997588","0.489247199962847","1","1","1","1","1","1","1","1","1"
"260025","img/object_images/car04.jpg","img/object_images/cutting_board01.jpg","img/object_images/WitchHat02.jpg","1","1","1","0","1","1","0.489247199962847","0.789426000032108","0.518201200000476","1","1","1","1","1","1","1","1","1"
"260025","img/object_images/WitchHat02.jpg","img/object_images/car04.jpg","img/object_images/shower_head03.jpg","1","1","1","1","0","1","0.518201200000476","0.489247199962847","0.499397399951704","1","1","1","1","1","1","1","1","1"
"260025","img/object_images/shower_head03.jpg","img/object_images/WitchHat02.jpg","img/object_images/razor01.jpg","1","1","1","1","1","0","0.499397399951704","0.518201200000476","0.589128600026015","1","1","1","1","1","1","1","1","1"
"260025","img/object_images/razor01.jpg","img/object_images/shower_head03.jpg","img/object_images/MeasuringCup01.jpg","1","1","1","0","1","1","0.589128600026015","0.499397399951704","0.450956200016662","1","1","1","1","1","1","1","1","1"
"260025","img/object_images/MeasuringCup01.jpg","img/object_images/razor01.jpg","img/object_images/rock03.jpg","1","1","1","1","0","0","0.450956200016662","0.589128600026015","0.480658299988136","1","1","1","1","1","1","1","1","1"
"260025","img/object_images/rock03.jpg","img/object_images/MeasuringCup01.jpg","img/object_images/jewelry07.jpg","1","1","1","0","1","1","0.480658299988136","0.450956200016662","0.500165399978869","1","1","1","1","1","1","1","1","1"
"260025","img/object_images/jewelry07.jpg","img/object_images/rock03.jpg","img/object_images/slinky_toy01.jpg","1","1","1","1","0","1","0.500165399978869","0.480658299988136","0.513308299996424","1","1","1","1","1","1","1","1","1"
"260025","img/object_images/slinky_toy01.jpg","img/object_images/jewelry07.jpg","img/object_images/ladle02.jpg","1","1","1","1","1","0","0.513308299996424","0.500165399978869","0.652647500042804","1","1","1","1","1","1","1","1","1"
"260025","img/object_images/ladle02.jpg","img/object_images/slinky_toy01.jpg","img/object_images/key02.jpg","1","1","1","0","1","1","0.652647500042804","0.513308299996424","0.420259499980602","1","1","1","1","1","1","1","1","1"
"260025","img/object_images/key02.jpg","img/object_images/ladle02.jpg","img/object_images/binoculars03.jpg","1","1","1","1","0","1","0.420259499980602","0.652647500042804","0.61522579996381","1","1","1","1","1","1","1","1","1"
"260025","img/object_images/binoculars03.jpg","img/object_images/key02.jpg","img/object_images/chair04.jpg","1","1","1","1","1","1","0.61522579996381","0.420259499980602","0.327189999981783","1","1","1","1","1","1","1","1","1"
"260025","img/object_images/chair04.jpg","img/object_images/binoculars03.jpg","img/object_images/bag06.jpg","1","1","1","1","1","1","0.327189999981783","0.61522579996381","0.456108800019138","1","1","1","1","1","1","1","1","1"
"260025","img/object_images/bag06.jpg","img/object_images/chair04.jpg","img/object_images/hair_brush05.jpg","1","1","1","1","1","1","0.456108800019138","0.327189999981783","0.426870000024792","1","1","1","1","1","1","1","1","1"
"260025","img/object_images/hair_brush05.jpg","img/object_images/bag06.jpg","img/object_images/satellite01.jpg","1","1","0","1","1","0","0.426870000024792","0.456108800019138","0.755310599983204","1","1","1","1","1","1","1","1","1"
"260025","img/object_images/satellite01.jpg","img/object_images/hair_brush05.jpg","img/object_images/belt01.jpg","0","1","1","0","1","0","0.755310599983204","0.426870000024792","0.551111999957357","1","1","1","1","1","1","1","1","1"
"260025","img/object_images/belt01.jpg","img/object_images/satellite01.jpg","img/object_images/yarn02.jpg","1","0","1","0","0","0","0.551111999957357","0.755310599983204","0.797895000025164","1","1","1","1","1","1","1","1","1"
"260025","img/object_images/yarn02.jpg","img/object_images/belt01.jpg","img/object_images/cards01.jpg","1","1","1","0","0","0","0.797895000025164","0.551111999957357","0.60157459997572","1","1","1","1","1","1","1","1","1"
"260025","img/object_images/cards01.jpg","img/object_images/yarn02.jpg",NA,"1","1",NA,"0","0",NA,"0.60157459997572","0.797895000025164",NA,"1","1",NA,"1","1",NA,"1","1",NA
"260025","img/object_images/chain01.jpg",NA,"img/object_images/video_game03.jpg","1",NA,"1","0",NA,"1","0.596179299987853",NA,"0.494247200025711","1",NA,"1","1",NA,"1","1",NA,"1"
"260025","img/object_images/video_game03.jpg","img/object_images/chain01.jpg","img/object_images/computer_mouse02.jpg","1","1","1","1","0","0","0.494247200025711","0.596179299987853","0.468229599995539","1","1","1","1","1","1","1","1","1"
"260025","img/object_images/computer_mouse02.jpg","img/object_images/video_game03.jpg","img/object_images/floss02.jpg","1","1","1","0","1","1","0.468229599995539","0.494247200025711","0.486348600010388","1","1","1","1","1","1","1","1","1"
"260025","img/object_images/floss02.jpg","img/object_images/computer_mouse02.jpg","img/object_images/fork02.jpg","1","1","1","1","0","0","0.486348600010388","0.468229599995539","0.670823999971617","1","1","1","1","1","1","1","1","1"
"260025","img/object_images/fork02.jpg","img/object_images/floss02.jpg","img/object_images/Trowel01.jpg","1","1","0","0","1","0","0.670823999971617","0.486348600010388","0.473155200015754","1","1","1","1","1","1","1","1","1"
"260025","img/object_images/Trowel01.jpg","img/object_images/fork02.jpg","img/object_images/skate_board01.jpg","0","1","1","0","0","0","0.473155200015754","0.670823999971617","0.445587800000794","1","1","1","1","1","1","1","1","1"
"260025","img/object_images/skate_board01.jpg","img/object_images/Trowel01.jpg","img/object_images/pen01.jpg","1","0","1","0","0","0","0.445587800000794","0.473155200015754","0.560277700016741","1","1","1","1","1","1","1","1","1"
"260025","img/object_images/pen01.jpg","img/object_images/skate_board01.jpg","img/object_images/toy01.jpg","1","1","1","0","0","1","0.560277700016741","0.445587800000794","0.326858499960508","1","1","1","1","1","1","1","1","1"
"260025","img/object_images/toy01.jpg","img/object_images/pen01.jpg","img/object_images/hair_brush01.jpg","1","1","1","1","0","1","0.326858499960508","0.560277700016741","0.524399399990216","1","1","1","1","1","1","1","1","1"
"260025","img/object_images/hair_brush01.jpg","img/object_images/toy01.jpg","img/object_images/book02.jpg","1","1","1","1","1","1","0.524399399990216","0.326858499960508","0.421541900024749","1","1","1","1","1","1","1","1","1"
"260025","img/object_images/book02.jpg","img/object_images/hair_brush01.jpg","img/object_images/drone01.jpg","1","1","1","1","1","1","0.421541900024749","0.524399399990216","0.460625100007746","1","1","1","1","1","1","1","1","1"
"260025","img/object_images/drone01.jpg","img/object_images/book02.jpg","img/object_images/blender01.jpg","1","1","1","1","1","0","0.460625100007746","0.421541900024749","0.43027070001699","1","1","1","1","1","1","1","1","1"
"260025","img/object_images/blender01.jpg","img/object_images/drone01.jpg","img/object_images/chair06.jpg","1","1","1","0","1","0","0.43027070001699","0.460625100007746","0.488607399980538","1","1","1","1","1","1","1","1","1"
"260025","img/object_images/chair06.jpg","img/object_images/blender01.jpg","img/object_images/computer_mouse01.jpg","1","1","1","0","0","1","0.488607399980538","0.43027070001699","0.439578699995764","1","1","1","1","1","1","1","1","1"
"260025","img/object_images/computer_mouse01.jpg","img/object_images/chair06.jpg","img/object_images/pitcher09.jpg","1","1","1","1","0","1","0.439578699995764","0.488607399980538","0.388486300013028","1","1","1","1","1","1","1","1","1"
"260025","img/object_images/pitcher09.jpg","img/object_images/computer_mouse01.jpg","img/object_images/bell03.jpg","1","1","1","1","1","0","0.388486300013028","0.439578699995764","0.535252899979241","1","1","1","1","1","1","1","1","1"
"260025","img/object_images/bell03.jpg","img/object_images/pitcher09.jpg","img/object_images/shoes12.jpg","1","1","0","0","1","1","0.535252899979241","0.388486300013028","0.405929500004277","1","1","1","1","1","1","1","1","1"
"260025","img/object_images/shoes12.jpg","img/object_images/bell03.jpg","img/object_images/soap03.jpg","0","1","1","1","0","0","0.405929500004277","0.535252899979241","0.6069911000086","1","1","1","1","1","1","1","1","1"
"260025","img/object_images/soap03.jpg","img/object_images/shoes12.jpg","img/object_images/tool06.jpg","1","0","1","0","1","0","0.6069911000086","0.405929500004277","0.556562100013252","1","1","1","1","1","1","1","1","1"
"260025","img/object_images/tool06.jpg","img/object_images/soap03.jpg","img/object_images/couch01.jpg","1","1","1","0","0","0","0.556562100013252","0.6069911000086","0.479858500009868","1","1","1","1","1","1","1","1","1"
"260025","img/object_images/couch01.jpg","img/object_images/tool06.jpg","img/object_images/tripod01.jpg","1","1","1","0","0","1","0.479858500009868","0.556562100013252","0.502133499947377","1","1","1","1","1","1","1","1","1"
"260025","img/object_images/tripod01.jpg","img/object_images/couch01.jpg","img/object_images/egg_slicer01.jpg","1","1","1","1","0","1","0.502133499947377","0.479858500009868","0.494144399999641","1","1","1","1","1","1","1","1","1"
"260025","img/object_images/egg_slicer01.jpg","img/object_images/tripod01.jpg","img/object_images/clip04.jpg","1","1","1","1","1","1","0.494144399999641","0.502133499947377","0.504299800028093","1","1","1","1","1","1","1","1","1"
"260025","img/object_images/clip04.jpg","img/object_images/egg_slicer01.jpg","img/object_images/toothbrush01.jpg","1","1","1","1","1","0","0.504299800028093","0.494144399999641","0.619116100016981","1","1","1","1","1","1","1","1","1"
"260025","img/object_images/toothbrush01.jpg","img/object_images/clip04.jpg","img/object_images/airfryer02.jpg","1","1","1","0","1","1","0.619116100016981","0.504299800028093","0.91700779995881","1","1","1","1","1","1","1","1","1"
"260025","img/object_images/airfryer02.jpg","img/object_images/toothbrush01.jpg","img/object_images/rock02.jpg","1","1","1","1","0","0","0.91700779995881","0.619116100016981","0.54576409998117","1","1","1","1","1","1","1","1","1"
"260025","img/object_images/rock02.jpg","img/object_images/airfryer02.jpg","img/object_images/scarf01.jpg","1","1","1","0","1","1","0.54576409998117","0.91700779995881","0.58807280001929","1","1","1","1","1","1","1","1","1"
"260025","img/object_images/scarf01.jpg","img/object_images/rock02.jpg","img/object_images/bag_pipes01.jpg","1","1","1","1","0","1","0.58807280001929","0.54576409998117","0.491607999952976","1","1","1","1","1","1","1","1","1"
"260025","img/object_images/bag_pipes01.jpg","img/object_images/scarf01.jpg","img/object_images/box03.jpg","1","1","0","1","1","0","0.491607999952976","0.58807280001929","0.493949999974575","1","1","1","1","1","1","1","1","1"
"260025","img/object_images/box03.jpg","img/object_images/bag_pipes01.jpg","img/object_images/mail_box02.jpg","0","1","1","0","1","1","0.493949999974575","0.491607999952976","0.615151399979368","1","1","1","1","1","1","1","1","1"
"260025","img/object_images/mail_box02.jpg","img/object_images/box03.jpg","img/object_images/Violin01.jpg","1","0","1","1","0","0","0.615151399979368","0.493949999974575","0.543185200018343","1","1","1","1","1","1","1","1","1"
"260025","img/object_images/Violin01.jpg","img/object_images/mail_box02.jpg",NA,"1","1",NA,"0","1",NA,"0.543185200018343","0.615151399979368",NA,"1","1",NA,"1","1",NA,"1","1",NA
"260025","img/object_images/floppy_disk02.jpg",NA,"img/object_images/book03.jpg","0",NA,"1","0",NA,"1","0.958914900023956",NA,"0.472618900006637","1",NA,"1","1",NA,"1","1",NA,"1"
"260025","img/object_images/book03.jpg","img/object_images/floppy_disk02.jpg","img/object_images/paint_brush04.jpg","1","0","1","1","0","0","0.472618900006637","0.958914900023956","0.58617399999639","1","1","1","1","1","1","1","1","1"
"260025","img/object_images/paint_brush04.jpg","img/object_images/book03.jpg","img/object_images/knit05.jpg","1","1","1","0","1","1","0.58617399999639","0.472618900006637","0.42953339999076","1","1","1","1","1","1","1","1","1"
"260025","img/object_images/knit05.jpg","img/object_images/paint_brush04.jpg","img/object_images/clip03.jpg","1","1","1","1","0","0","0.42953339999076","0.58617399999639","0.712613899959251","1","1","1","1","1","1","1","1","1"
"260025","img/object_images/clip03.jpg","img/object_images/knit05.jpg","img/object_images/cellphone01.jpg","1","1","1","0","1","1","0.712613899959251","0.42953339999076","0.454634399968199","1","1","1","1","1","1","1","1","1"
"260025","img/object_images/cellphone01.jpg","img/object_images/clip03.jpg","img/object_images/usb02.jpg","1","1","1","1","0","0","0.454634399968199","0.712613899959251","0.527086599962786","1","1","1","1","1","1","1","1","1"
"260025","img/object_images/usb02.jpg","img/object_images/cellphone01.jpg","img/object_images/pillows01.jpg","1","1","1","0","1","1","0.527086599962786","0.454634399968199","0.435084199998528","1","1","1","1","1","1","1","1","1"
"260025","img/object_images/pillows01.jpg","img/object_images/usb02.jpg","img/object_images/lid01.jpg","1","1","1","1","0","1","0.435084199998528","0.527086599962786","0.438220599957276","1","1","1","1","1","1","1","1","1"
"260025","img/object_images/lid01.jpg","img/object_images/pillows01.jpg","img/object_images/hammer03.jpg","1","1","1","1","1","1","0.438220599957276","0.435084199998528","0.393119300017133","1","1","1","1","1","1","1","1","1"
"260025","img/object_images/hammer03.jpg","img/object_images/lid01.jpg","img/object_images/Oven01.jpg","1","1","1","1","1","1","0.393119300017133","0.438220599957276","0.427275100024417","1","1","1","1","1","1","1","1","1"
"260025","img/object_images/Oven01.jpg","img/object_images/hammer03.jpg","img/object_images/compass01.jpg","1","1","1","1","1","1","0.427275100024417","0.393119300017133","0.528811599942856","1","1","1","1","1","1","1","1","1"
"260025","img/object_images/compass01.jpg","img/object_images/Oven01.jpg","img/object_images/bell02.jpg","1","1","1","1","1","0","0.528811599942856","0.427275100024417","0.522777800040785","1","1","1","1","1","1","1","1","1"
"260025","img/object_images/bell02.jpg","img/object_images/compass01.jpg","img/object_images/retainer01.jpg","1","1","1","0","1","0","0.522777800040785","0.528811599942856","0.538567599956878","1","1","1","1","1","1","1","1","1"
"260025","img/object_images/retainer01.jpg","img/object_images/bell02.jpg","img/object_images/knife04.jpg","1","1","1","0","0","1","0.538567599956878","0.522777800040785","0.493668900046032","1","1","1","1","1","1","1","1","1"
"260025","img/object_images/knife04.jpg","img/object_images/retainer01.jpg","img/object_images/wire02.jpg","1","1","1","1","0","1","0.493668900046032","0.538567599956878","0.438200200034771","1","1","1","1","1","1","1","1","1"
"260025","img/object_images/wire02.jpg","img/object_images/knife04.jpg","img/object_images/tv02.jpg","1","1","1","1","1","0","0.438200200034771","0.493668900046032","0.572924999985844","1","1","1","1","1","1","1","1","1"
"260025","img/object_images/tv02.jpg","img/object_images/wire02.jpg","img/object_images/chair05.jpg","1","1","1","0","1","0","0.572924999985844","0.438200200034771","0.484652899962384","1","1","1","1","1","1","1","1","1"
"260025","img/object_images/chair05.jpg","img/object_images/tv02.jpg","img/object_images/tennis_racket02.jpg","1","1","1","0","0","1","0.484652899962384","0.572924999985844","0.511642999947071","1","1","1","1","1","1","1","1","1"
"260025","img/object_images/tennis_racket02.jpg","img/object_images/chair05.jpg","img/object_images/note_book01.jpg","1","1","1","1","0","0","0.511642999947071","0.484652899962384","0.563843900046777","1","1","1","1","1","1","1","1","1"
"260025","img/object_images/note_book01.jpg","img/object_images/tennis_racket02.jpg","img/object_images/crutches02.jpg","1","1","1","0","1","0","0.563843900046777","0.511642999947071","0.458486900024582","1","1","1","1","1","1","1","1","1"
"260025","img/object_images/crutches02.jpg","img/object_images/note_book01.jpg","img/object_images/floppy_disk03.jpg","1","1","1","0","0","1","0.458486900024582","0.563843900046777","0.435316199960653","1","1","1","1","1","1","1","1","1"
"260025","img/object_images/floppy_disk03.jpg","img/object_images/crutches02.jpg","img/object_images/chess_piece02.jpg","1","1","1","1","0","1","0.435316199960653","0.458486900024582","0.429470699978992","1","1","1","1","1","1","1","1","1"
"260025","img/object_images/chess_piece02.jpg","img/object_images/floppy_disk03.jpg","img/object_images/bottle01.jpg","1","1","1","1","1","0","0.429470699978992","0.435316199960653","0.515432100044563","1","1","1","1","1","1","1","1","1"
"260025","img/object_images/bottle01.jpg","img/object_images/chess_piece02.jpg","img/object_images/motorcycle01.jpg","1","1","1","0","1","1","0.515432100044563","0.429470699978992","0.442631999962032","1","1","1","1","1","1","1","1","1"
"260025","img/object_images/motorcycle01.jpg","img/object_images/bottle01.jpg","img/object_images/pen03.jpg","1","1","1","1","0","0","0.442631999962032","0.515432100044563","0.469880799995735","1","1","1","1","1","1","1","1","1"
"260025","img/object_images/pen03.jpg","img/object_images/motorcycle01.jpg","img/object_images/Thermometer01.jpg","1","1","1","0","1","0","0.469880799995735","0.442631999962032","0.650166799954604","1","1","1","1","1","1","1","1","1"
"260025","img/object_images/Thermometer01.jpg","img/object_images/pen03.jpg","img/object_images/microscope01.jpg","1","1","0","0","0","0","0.650166799954604","0.469880799995735","0.61599209997803","1","1","1","1","1","1","1","1","1"
"260025","img/object_images/microscope01.jpg","img/object_images/Thermometer01.jpg","img/object_images/ear_bud01.jpg","0","1","1","0","0","1","0.61599209997803","0.650166799954604","0.671177299984265","1","1","1","1","1","1","1","1","1"
"260025","img/object_images/ear_bud01.jpg","img/object_images/microscope01.jpg","img/object_images/Staples01.jpg","1","0","1","1","0","1","0.671177299984265","0.61599209997803","0.438446899992414","1","1","1","1","1","1","1","1","1"
"260025","img/object_images/Staples01.jpg","img/object_images/ear_bud01.jpg","img/object_images/pitcher01.jpg","1","1","1","1","1","0","0.438446899992414","0.671177299984265","0.550452800001949","1","1","1","1","1","1","1","1","1"
"260025","img/object_images/pitcher01.jpg","img/object_images/Staples01.jpg","img/object_images/clock02.jpg","1","1","1","0","1","0","0.550452800001949","0.438446899992414","0.548725300002843","1","1","1","1","1","1","1","1","1"
"260025","img/object_images/clock02.jpg","img/object_images/pitcher01.jpg",NA,"1","1",NA,"0","0",NA,"0.548725300002843","0.550452800001949",NA,"1","1",NA,"1","1",NA,"1","1",NA
"260025","img/object_images/cup03.jpg",NA,"img/object_images/hole_puncher01.jpg","1",NA,"1","1",NA,"1","0.892939000041224",NA,"0.463505799998529","1",NA,"1","1",NA,"1","1",NA,"1"
"260025","img/object_images/hole_puncher01.jpg","img/object_images/cup03.jpg","img/object_images/glasses07.jpg","1","1","1","1","1","1","0.463505799998529","0.892939000041224","0.478195299976505","1","1","1","1","1","1","1","1","1"
"260025","img/object_images/glasses07.jpg","img/object_images/hole_puncher01.jpg","img/object_images/gift_box04.jpg","1","1","0","1","1","0","0.478195299976505","0.463505799998529","0.440273499989417","1","1","1","1","1","1","1","1","1"
"260025","img/object_images/gift_box04.jpg","img/object_images/glasses07.jpg","img/object_images/jewelry09.jpg","0","1","1","0","1","1","0.440273499989417","0.478195299976505","0.518978299980517","1","1","1","1","1","1","1","1","1"
"260025","img/object_images/jewelry09.jpg","img/object_images/gift_box04.jpg","img/object_images/purse01.jpg","1","0","1","1","0","1","0.518978299980517","0.440273499989417","0.608827099960763","1","1","1","1","1","1","1","1","1"
"260025","img/object_images/purse01.jpg","img/object_images/jewelry09.jpg","img/object_images/tray01.jpg","1","1","1","1","1","1","0.608827099960763","0.518978299980517","0.454490299976896","1","1","1","1","1","1","1","1","1"
"260025","img/object_images/tray01.jpg","img/object_images/purse01.jpg","img/object_images/Kitchen_Towel.jpg","1","1","1","1","1","0","0.454490299976896","0.608827099960763","0.563222499971744","1","1","1","1","1","1","1","1","1"
"260025","img/object_images/Kitchen_Towel.jpg","img/object_images/tray01.jpg","img/object_images/faucet01.jpg","1","1","1","0","1","0","0.563222499971744","0.454490299976896","0.65071130002616","1","1","1","1","1","1","1","1","1"
"260025","img/object_images/faucet01.jpg","img/object_images/Kitchen_Towel.jpg","img/object_images/tool08.jpg","1","1","1","0","0","0","0.65071130002616","0.563222499971744","0.469060400035232","1","1","1","1","1","1","1","1","1"
"260025","img/object_images/tool08.jpg","img/object_images/faucet01.jpg","img/object_images/exfoliater_brush01.jpg","1","1","1","0","0","0","0.469060400035232","0.65071130002616","0.555047200003173","1","1","1","1","1","1","1","1","1"
"260025","img/object_images/exfoliater_brush01.jpg","img/object_images/tool08.jpg","img/object_images/bicycle_lock01.jpg","1","1","0","0","0","0","0.555047200003173","0.469060400035232","0.471940300019924","1","1","1","1","1","1","1","1","1"
"260025","img/object_images/bicycle_lock01.jpg","img/object_images/exfoliater_brush01.jpg","img/object_images/pan01.jpg","0","1","1","0","0","1","0.471940300019924","0.555047200003173","0.488756800012197","1","1","1","1","1","1","1","1","1"
"260025","img/object_images/pan01.jpg","img/object_images/bicycle_lock01.jpg","img/object_images/basket02.jpg","1","0","1","1","0","0","0.488756800012197","0.471940300019924","0.490005300031044","1","1","1","1","1","1","1","1","1"
"260025","img/object_images/basket02.jpg","img/object_images/pan01.jpg","img/object_images/glasses06.jpg","1","1","1","0","1","1","0.490005300031044","0.488756800012197","0.558730499993544","1","1","1","1","1","1","1","1","1"
"260025","img/object_images/glasses06.jpg","img/object_images/basket02.jpg","img/object_images/cellphone02.jpg","1","1","1","1","0","1","0.558730499993544","0.490005300031044","0.448686000017915","1","1","1","1","1","1","1","1","1"
"260025","img/object_images/cellphone02.jpg","img/object_images/glasses06.jpg","img/object_images/blanket01.jpg","1","1","1","1","1","1","0.448686000017915","0.558730499993544","0.44763230002718","1","1","1","1","1","1","1","1","1"
"260025","img/object_images/blanket01.jpg","img/object_images/cellphone02.jpg","img/object_images/lighter01.jpg","1","1","1","1","1","1","0.44763230002718","0.448686000017915","0.351152600022033","1","1","1","1","1","1","1","1","1"
"260025","img/object_images/lighter01.jpg","img/object_images/blanket01.jpg","img/object_images/Sprayer01.jpg","1","1","1","1","1","0","0.351152600022033","0.44763230002718","0.49204570002621","1","1","1","1","1","1","1","1","1"
"260025","img/object_images/Sprayer01.jpg","img/object_images/lighter01.jpg","img/object_images/speaker01.jpg","1","1","1","0","1","1","0.49204570002621","0.351152600022033","0.576786299992818","1","1","1","1","1","1","1","1","1"
"260025","img/object_images/speaker01.jpg","img/object_images/Sprayer01.jpg","img/object_images/handcuffs01.jpg","1","1","1","1","0","0","0.576786299992818","0.49204570002621","0.469255500007421","1","1","1","1","1","1","1","1","1"
"260025","img/object_images/handcuffs01.jpg","img/object_images/speaker01.jpg","img/object_images/tool07.jpg","1","1","1","0","1","0","0.469255500007421","0.576786299992818","0.544131199945696","1","1","1","1","1","1","1","1","1"
"260025","img/object_images/tool07.jpg","img/object_images/handcuffs01.jpg","img/object_images/colander01.jpg","1","1","1","0","0","0","0.544131199945696","0.469255500007421","0.527192899957299","1","1","1","1","1","1","1","1","1"
"260025","img/object_images/colander01.jpg","img/object_images/tool07.jpg","img/object_images/ring03.jpg","1","1","1","0","0","1","0.527192899957299","0.544131199945696","0.532112799992319","1","1","1","1","1","1","1","1","1"
"260025","img/object_images/ring03.jpg","img/object_images/colander01.jpg","img/object_images/Traffic Sign 01.jpg","1","1","0","1","0","0","0.532112799992319","0.527192899957299","0.474846699973568","1","1","1","1","1","1","1","1","2"
"260025","img/object_images/Traffic Sign 01.jpg","img/object_images/ring03.jpg","img/object_images/fire_extinguisher01.jpg","0","1","1","0","1","0","0.474846699973568","0.532112799992319","0.578214699984528","1","1","1","1","1","1","2","1","1"
"260025","img/object_images/fire_extinguisher01.jpg","img/object_images/Traffic Sign 01.jpg","img/object_images/book01.jpg","1","0","1","0","0","1","0.578214699984528","0.474846699973568","0.473436899948865","1","1","1","1","1","1","1","2","1"
"260025","img/object_images/book01.jpg","img/object_images/fire_extinguisher01.jpg","img/object_images/projector01.jpg","1","1","1","1","0","0","0.473436899948865","0.578214699984528","0.507171200006269","1","1","1","1","1","1","1","1","1"
"260025","img/object_images/projector01.jpg","img/object_images/book01.jpg","img/object_images/TrashCan02.jpg","1","1","1","0","1","1","0.507171200006269","0.473436899948865","0.473778999992646","1","1","1","1","1","1","1","1","1"
"260025","img/object_images/TrashCan02.jpg","img/object_images/projector01.jpg","img/object_images/yo_yo01.jpg","1","1","1","1","0","0","0.473778999992646","0.507171200006269","0.469370999955572","1","1","1","1","1","1","1","1","1"
"260025","img/object_images/yo_yo01.jpg","img/object_images/TrashCan02.jpg","img/object_images/Pottery01.jpg","1","1","0","0","1","0","0.469370999955572","0.473778999992646","0.424213899997994","1","1","1","1","1","1","1","1","1"
"260025","img/object_images/Pottery01.jpg","img/object_images/yo_yo01.jpg","img/object_images/hair_clips01.jpg","0","1","1","0","0","1","0.424213899997994","0.469370999955572","0.518019600014668","1","1","1","1","1","1","1","1","1"
"260025","img/object_images/hair_clips01.jpg","img/object_images/Pottery01.jpg",NA,"1","0",NA,"1","0",NA,"0.518019600014668","0.424213899997994",NA,"1","1",NA,"1","1",NA,"1","1",NA
"260025","img/object_images/jewelry01.jpg",NA,"img/object_images/lock04.jpg","0",NA,"1","1",NA,"1","0.77643149998039",NA,"0.65607170003932","1",NA,"1","1",NA,"1","1",NA,"1"
"260025","img/object_images/lock04.jpg","img/object_images/jewelry01.jpg","img/object_images/Screws01.jpg","1","0","1","1","1","1","0.65607170003932","0.77643149998039","0.445466099947225","1","1","1","1","1","1","1","1","1"
"260025","img/object_images/Screws01.jpg","img/object_images/lock04.jpg","img/object_images/couch03.jpg","1","1","1","1","1","0","0.445466099947225","0.65607170003932","0.422454099985771","1","1","1","1","1","1","1","1","1"
"260025","img/object_images/couch03.jpg","img/object_images/Screws01.jpg","img/object_images/golf_ball03.jpg","1","1","1","0","1","1","0.422454099985771","0.445466099947225","0.461031100014225","1","1","1","1","1","1","1","1","1"
"260025","img/object_images/golf_ball03.jpg","img/object_images/couch03.jpg","img/object_images/vga_port 01.jpg","1","1","1","1","0","0","0.461031100014225","0.422454099985771","0.511908099986613","1","1","1","1","1","1","1","1","1"
"260025","img/object_images/vga_port 01.jpg","img/object_images/golf_ball03.jpg","img/object_images/ironing_table01.jpg","1","1","0","0","1","0","0.511908099986613","0.461031100014225","0.498892100004014","1","1","1","1","1","1","1","1","2"
"260025","img/object_images/ironing_table01.jpg","img/object_images/vga_port 01.jpg","img/object_images/grater01.jpg","0","1","1","0","0","1","0.498892100004014","0.511908099986613","0.627996199997142","1","1","1","1","1","1","2","1","1"
"260025","img/object_images/grater01.jpg","img/object_images/ironing_table01.jpg","img/object_images/jacket03.jpg","1","0","1","1","0","0","0.627996199997142","0.498892100004014","0.485174499975983","1","1","1","1","1","1","1","2","1"
"260025","img/object_images/jacket03.jpg","img/object_images/grater01.jpg","img/object_images/sleeping_bag01.jpg","1","1","1","0","1","0","0.485174499975983","0.627996199997142","0.482322699972428","1","1","1","1","1","1","1","1","1"
"260025","img/object_images/sleeping_bag01.jpg","img/object_images/jacket03.jpg","img/object_images/bow_tie01.jpg","1","1","0","0","0","0","0.482322699972428","0.485174499975983","0.43898730003275","1","1","1","1","1","1","1","1","1"
"260025","img/object_images/bow_tie01.jpg","img/object_images/sleeping_bag01.jpg","img/object_images/clip02.jpg","0","1","1","0","0","1","0.43898730003275","0.482322699972428","0.487947600020561","1","1","1","1","1","1","1","1","1"
"260025","img/object_images/clip02.jpg","img/object_images/bow_tie01.jpg","img/object_images/Witchhat01.jpg","1","0","1","1","0","1","0.487947600020561","0.43898730003275","0.508460099983495","1","1","1","1","1","1","1","1","1"
"260025","img/object_images/Witchhat01.jpg","img/object_images/clip02.jpg","img/object_images/wallet02.jpg","1","1","1","1","1","1","0.508460099983495","0.487947600020561","0.407265799993183","1","1","1","1","1","1","1","1","1"
"260025","img/object_images/wallet02.jpg","img/object_images/Witchhat01.jpg","img/object_images/funnel01.jpg","1","1","0","1","1","0","0.407265799993183","0.508460099983495","0.420184499991592","1","1","1","1","1","1","1","1","1"
"260025","img/object_images/funnel01.jpg","img/object_images/wallet02.jpg","img/object_images/lawn_mower01.jpg","0","1","1","0","1","1","0.420184499991592","0.407265799993183","0.447770400031004","1","1","1","1","1","1","1","1","1"
"260025","img/object_images/lawn_mower01.jpg","img/object_images/funnel01.jpg","img/object_images/gift_box02.jpg","1","0","1","1","0","1","0.447770400031004","0.420184499991592","0.494523600034881","1","1","1","1","1","1","1","1","1"
"260025","img/object_images/gift_box02.jpg","img/object_images/lawn_mower01.jpg","img/object_images/hammer01.jpg","1","1","1","1","1","0","0.494523600034881","0.447770400031004","0.567587800032925","1","1","1","1","1","1","1","1","1"
"260025","img/object_images/hammer01.jpg","img/object_images/gift_box02.jpg","img/object_images/pitcher02.jpg","1","1","1","0","1","1","0.567587800032925","0.494523600034881","0.506652100011706","1","1","1","1","1","1","1","1","1"
"260025","img/object_images/pitcher02.jpg","img/object_images/hammer01.jpg","img/object_images/socks02.jpg","1","1","1","1","0","0","0.506652100011706","0.567587800032925","0.550727399997413","1","1","1","1","1","1","1","1","1"
"260025","img/object_images/socks02.jpg","img/object_images/pitcher02.jpg","img/object_images/measuring_tape02.jpg","1","1","1","0","1","1","0.550727399997413","0.506652100011706","0.481889499991667","1","1","1","1","1","1","1","1","1"
"260025","img/object_images/measuring_tape02.jpg","img/object_images/socks02.jpg","img/object_images/bath_tub01.jpg","1","1","1","1","0","0","0.481889499991667","0.550727399997413","0.49614089995157","1","1","1","1","1","1","1","1","1"
"260025","img/object_images/bath_tub01.jpg","img/object_images/measuring_tape02.jpg","img/object_images/bow_tie02.jpg","1","1","1","0","1","0","0.49614089995157","0.481889499991667","0.560283899947535","1","1","1","1","1","1","1","1","1"
"260025","img/object_images/bow_tie02.jpg","img/object_images/bath_tub01.jpg","img/object_images/gift_box01.jpg","1","1","1","0","0","1","0.560283899947535","0.49614089995157","0.533855599991512","1","1","1","1","1","1","1","1","1"
"260025","img/object_images/gift_box01.jpg","img/object_images/bow_tie02.jpg","img/object_images/gift_box03.jpg","1","1","1","1","0","0","0.533855599991512","0.560283899947535","0.557418399956077","1","1","1","1","1","1","1","1","1"
"260025","img/object_images/gift_box03.jpg","img/object_images/gift_box01.jpg","img/object_images/camera07.jpg","1","1","1","0","1","1","0.557418399956077","0.533855599991512","0.47150630003307","1","1","1","1","1","1","1","1","1"
"260025","img/object_images/camera07.jpg","img/object_images/gift_box03.jpg","img/object_images/fork03.jpg","1","1","1","1","0","1","0.47150630003307","0.557418399956077","0.402079000021331","1","1","1","1","1","1","1","1","1"
"260025","img/object_images/fork03.jpg","img/object_images/camera07.jpg","img/object_images/dresser04.jpg","1","1","1","1","1","0","0.402079000021331","0.47150630003307","0.655508299998473","1","1","1","1","1","1","1","1","1"
"260025","img/object_images/dresser04.jpg","img/object_images/fork03.jpg","img/object_images/balloon01.jpg","1","1","0","0","1","0","0.655508299998473","0.402079000021331","0.489255399967078","1","1","1","1","1","1","1","1","1"
"260025","img/object_images/balloon01.jpg","img/object_images/dresser04.jpg","img/object_images/coloring_pencil01.jpg","0","1","1","0","0","1","0.489255399967078","0.655508299998473","0.446625000040512","1","1","1","1","1","1","1","1","1"
"260025","img/object_images/coloring_pencil01.jpg","img/object_images/balloon01.jpg","img/object_images/handkerchief01.jpg","1","0","1","1","0","0","0.446625000040512","0.489255399967078","0.613681200018618","1","1","1","1","1","1","1","1","1"
"260025","img/object_images/handkerchief01.jpg","img/object_images/coloring_pencil01.jpg","img/object_images/paper_cup01.jpg","1","1","1","0","1","0","0.613681200018618","0.446625000040512","0.553559900028631","1","1","1","1","1","1","1","1","1"
"260025","img/object_images/paper_cup01.jpg","img/object_images/handkerchief01.jpg",NA,"1","1",NA,"0","0",NA,"0.553559900028631","0.613681200018618",NA,"1","1",NA,"1","1",NA,"1","1",NA
"260025","img/object_images/container01.jpg",NA,"img/object_images/toilet_paper01.jpg","1",NA,"1","0",NA,"1","0.511727000004612",NA,"0.451327899994794","1",NA,"1","1",NA,"1","1",NA,"1"
"260025","img/object_images/toilet_paper01.jpg","img/object_images/container01.jpg","img/object_images/lantern01.jpg","1","1","1","1","0","1","0.451327899994794","0.511727000004612","0.520026200043503","1","1","1","1","1","1","1","1","1"
"260025","img/object_images/lantern01.jpg","img/object_images/toilet_paper01.jpg","img/object_images/decorative02.jpg","1","1","1","1","1","0","0.520026200043503","0.451327899994794","0.519163199991453","1","1","1","1","1","1","1","1","1"
"260025","img/object_images/decorative02.jpg","img/object_images/lantern01.jpg","img/object_images/ball01.jpg","1","1","1","0","1","1","0.519163199991453","0.520026200043503","0.498951599991415","1","1","1","1","1","1","1","1","1"
"260025","img/object_images/ball01.jpg","img/object_images/decorative02.jpg","img/object_images/basketball_hoop02.jpg","1","1","1","1","0","0","0.498951599991415","0.519163199991453","0.507115899992641","1","1","1","1","1","1","1","1","1"
"260025","img/object_images/basketball_hoop02.jpg","img/object_images/ball01.jpg","img/object_images/Woopie01.jpg","1","1","1","0","1","1","0.507115899992641","0.498951599991415","0.5605148000177","1","1","1","1","1","1","1","1","1"
"260025","img/object_images/Woopie01.jpg","img/object_images/basketball_hoop02.jpg","img/object_images/brief_case01.jpg","1","1","1","1","0","0","0.5605148000177","0.507115899992641","0.627317600010429","1","1","1","1","1","1","1","1","1"
"260025","img/object_images/brief_case01.jpg","img/object_images/Woopie01.jpg","img/object_images/brief_case02.jpg","1","1","1","0","1","1","0.627317600010429","0.5605148000177","0.403265900036786","1","1","1","1","1","1","1","1","1"
"260025","img/object_images/brief_case02.jpg","img/object_images/brief_case01.jpg","img/object_images/hat02.jpg","1","1","1","1","0","0","0.403265900036786","0.627317600010429","0.403772999998182","1","1","1","1","1","1","1","1","1"
"260025","img/object_images/hat02.jpg","img/object_images/brief_case02.jpg","img/object_images/Wisk01.jpg","1","1","1","0","1","1","0.403772999998182","0.403265900036786","0.388984499964863","1","1","1","1","1","1","1","1","1"
"260025","img/object_images/Wisk01.jpg","img/object_images/hat02.jpg","img/object_images/broom01.jpg","1","1","1","1","0","1","0.388984499964863","0.403772999998182","0.37010790000204","1","1","1","1","1","1","1","1","1"
"260025","img/object_images/broom01.jpg","img/object_images/Wisk01.jpg","img/object_images/bottle12.jpg","1","1","1","1","1","1","0.37010790000204","0.388984499964863","0.431290399981663","1","1","1","1","1","1","1","1","1"
"260025","img/object_images/bottle12.jpg","img/object_images/broom01.jpg","img/object_images/guitar01.jpg","1","1","1","1","1","1","0.431290399981663","0.37010790000204","0.496293900010642","1","1","1","1","1","1","1","1","1"
"260025","img/object_images/guitar01.jpg","img/object_images/bottle12.jpg","img/object_images/video_game06.jpg","1","1","1","1","1","0","0.496293900010642","0.431290399981663","0.462782100017648","1","1","1","1","1","1","1","1","1"
"260025","img/object_images/video_game06.jpg","img/object_images/guitar01.jpg","img/object_images/razor03.jpg","1","1","1","0","1","0","0.462782100017648","0.496293900010642","0.57341999997152","1","1","1","1","1","1","1","1","1"
"260025","img/object_images/razor03.jpg","img/object_images/video_game06.jpg","img/object_images/airfryer01.jpg","1","1","1","0","0","0","0.57341999997152","0.462782100017648","0.620748400047887","1","1","1","1","1","1","1","1","1"
"260025","img/object_images/airfryer01.jpg","img/object_images/razor03.jpg","img/object_images/cochlear_implant01.jpg","1","1","1","0","0","0","0.620748400047887","0.57341999997152","0.546260599978268","1","1","1","1","1","1","1","1","1"
"260025","img/object_images/cochlear_implant01.jpg","img/object_images/airfryer01.jpg","img/object_images/tie01.jpg","1","1","1","0","0","0","0.546260599978268","0.620748400047887","0.498067100008484","1","1","1","1","1","1","1","1","1"
"260025","img/object_images/tie01.jpg","img/object_images/cochlear_implant01.jpg","img/object_images/pot01.jpg","1","1","1","0","0","0","0.498067100008484","0.546260599978268","0.467568900028709","1","1","1","1","1","1","1","1","1"
"260025","img/object_images/pot01.jpg","img/object_images/tie01.jpg","img/object_images/couch04.jpg","1","1","1","0","0","1","0.467568900028709","0.498067100008484","0.419868400029372","1","1","1","1","1","1","1","1","1"
"260025","img/object_images/couch04.jpg","img/object_images/pot01.jpg","img/object_images/car02.jpg","1","1","0","1","0","0","0.419868400029372","0.467568900028709","0.730919900001027","1","1","1","1","1","1","1","1","1"
"260025","img/object_images/car02.jpg","img/object_images/couch04.jpg","img/object_images/ironing_table02.jpg","0","1","1","0","1","0","0.730919900001027","0.419868400029372","0.459186099993531","1","1","1","1","1","1","1","1","1"
"260025","img/object_images/ironing_table02.jpg","img/object_images/car02.jpg","img/object_images/lamp01.jpg","1","0","1","0","0","1","0.459186099993531","0.730919900001027","0.536863799963612","1","1","1","1","1","1","1","1","1"
"260025","img/object_images/lamp01.jpg","img/object_images/ironing_table02.jpg","img/object_images/drone02.jpg","1","1","1","1","0","0","0.536863799963612","0.459186099993531","0.4852763999952","1","1","1","1","1","1","1","1","1"
"260025","img/object_images/drone02.jpg","img/object_images/lamp01.jpg","img/object_images/gloves05.jpg","1","1","1","0","1","1","0.4852763999952","0.536863799963612","0.420212099968921","1","1","1","1","1","1","1","1","1"
"260025","img/object_images/gloves05.jpg","img/object_images/drone02.jpg","img/object_images/pitcher03.jpg","1","1","1","1","0","1","0.420212099968921","0.4852763999952","0.383160199970007","1","1","1","1","1","1","1","1","1"
"260025","img/object_images/pitcher03.jpg","img/object_images/gloves05.jpg","img/object_images/chair01.jpg","1","1","1","1","1","0","0.383160199970007","0.420212099968921","0.448564700025599","1","1","1","1","1","1","1","1","1"
"260025","img/object_images/chair01.jpg","img/object_images/pitcher03.jpg","img/object_images/soap01.jpg","1","1","0","0","1","0","0.448564700025599","0.383160199970007","0.418126899981871","1","1","1","1","1","1","1","1","1"
"260025","img/object_images/soap01.jpg","img/object_images/chair01.jpg","img/object_images/Recycling01.jpg","0","1","1","0","0","1","0.418126899981871","0.448564700025599","0.389914400002453","1","1","1","1","1","1","1","1","1"
"260025","img/object_images/Recycling01.jpg","img/object_images/soap01.jpg","img/object_images/toy_train02.jpg","1","0","1","1","0","1","0.389914400002453","0.418126899981871","0.400273100007325","1","1","1","1","1","1","1","1","1"
"260025","img/object_images/toy_train02.jpg","img/object_images/Recycling01.jpg","img/object_images/helmet05.jpg","1","1","1","1","1","1","0.400273100007325","0.389914400002453","0.542318899999373","1","1","1","1","1","1","1","1","1"
"260025","img/object_images/helmet05.jpg","img/object_images/toy_train02.jpg",NA,"1","1",NA,"1","1",NA,"0.542318899999373","0.400273100007325",NA,"1","1",NA,"1","1",NA,"1","1",NA
"260025","img/object_images/boat_toy10.jpg",NA,"img/object_images/dog_leash01.jpg","1",NA,"1","0",NA,"0","0.535725900030229",NA,"0.469864699989557","1",NA,"1","1",NA,"1","1",NA,"1"
"260025","img/object_images/dog_leash01.jpg","img/object_images/boat_toy10.jpg","img/object_images/shoes07.jpg","1","1","1","0","0","0","0.469864699989557","0.535725900030229","0.598217599967029","1","1","1","1","1","1","1","1","1"
"260025","img/object_images/shoes07.jpg","img/object_images/dog_leash01.jpg","img/object_images/toaster01.jpg","1","1","1","0","0","1","0.598217599967029","0.469864699989557","0.460566899972036","1","1","1","1","1","1","1","1","1"
"260025","img/object_images/toaster01.jpg","img/object_images/shoes07.jpg","img/object_images/camera_lens01.jpg","1","1","1","1","0","1","0.460566899972036","0.598217599967029","0.379102500039153","1","1","1","1","1","1","1","1","1"
"260025","img/object_images/camera_lens01.jpg","img/object_images/toaster01.jpg","img/object_images/scoreboard01.jpg","1","1","1","1","1","1","0.379102500039153","0.460566899972036","0.419019200024195","1","1","1","1","1","1","1","1","1"
"260025","img/object_images/scoreboard01.jpg","img/object_images/camera_lens01.jpg","img/object_images/flask01.jpg","1","1","1","1","1","0","0.419019200024195","0.379102500039153","0.573785600019619","1","1","1","1","1","1","1","1","1"
"260025","img/object_images/flask01.jpg","img/object_images/scoreboard01.jpg","img/object_images/knit01.jpg","1","1","1","0","1","0","0.573785600019619","0.419019200024195","0.469038199982606","1","1","1","1","1","1","1","1","1"
"260025","img/object_images/knit01.jpg","img/object_images/flask01.jpg","img/object_images/audio_port01.jpg","1","1","1","0","0","1","0.469038199982606","0.573785600019619","0.381203400029335","1","1","1","1","1","1","1","1","1"
"260025","img/object_images/audio_port01.jpg","img/object_images/knit01.jpg","img/object_images/chair03.jpg","1","1","1","1","0","0","0.381203400029335","0.469038199982606","0.583219599968288","1","1","1","1","1","1","1","1","1"
"260025","img/object_images/chair03.jpg","img/object_images/audio_port01.jpg","img/object_images/bicycle01.jpg","1","1","1","0","1","1","0.583219599968288","0.381203400029335","0.510813500033692","1","1","1","1","1","1","1","1","1"
"260025","img/object_images/bicycle01.jpg","img/object_images/chair03.jpg","img/object_images/boat02.jpg","1","1","1","1","0","1","0.510813500033692","0.583219599968288","0.48334109998541","1","1","1","1","1","1","1","1","1"
"260025","img/object_images/boat02.jpg","img/object_images/bicycle01.jpg","img/object_images/wagon_cart03.jpg","1","1","1","1","1","1","0.48334109998541","0.510813500033692","0.520399699977133","1","1","1","1","1","1","1","1","1"
"260025","img/object_images/wagon_cart03.jpg","img/object_images/boat02.jpg","img/object_images/bottle02.jpg","1","1","1","1","1","1","0.520399699977133","0.48334109998541","0.472114800009876","1","1","1","1","1","1","1","1","1"
"260025","img/object_images/bottle02.jpg","img/object_images/wagon_cart03.jpg","img/object_images/piggy_bank01.jpg","1","1","1","1","1","1","0.472114800009876","0.520399699977133","0.50924159999704","1","1","1","1","1","1","1","1","1"
"260025","img/object_images/piggy_bank01.jpg","img/object_images/bottle02.jpg","img/object_images/tool19.jpg","1","1","1","1","1","1","0.50924159999704","0.472114800009876","0.46801760001108","1","1","1","1","1","1","1","1","1"
"260025","img/object_images/tool19.jpg","img/object_images/piggy_bank01.jpg","img/object_images/coloring_pencil02.jpg","1","1","1","1","1","0","0.46801760001108","0.50924159999704","0.507634399982635","1","1","1","1","1","1","1","1","1"
"260025","img/object_images/coloring_pencil02.jpg","img/object_images/tool19.jpg","img/object_images/bean_bag02.jpg","1","1","1","0","1","1","0.507634399982635","0.46801760001108","0.536175699962769","1","1","1","1","1","1","1","1","1"
"260025","img/object_images/bean_bag02.jpg","img/object_images/coloring_pencil02.jpg","img/object_images/toilet_paper_dispenser01.jpg","1","1","1","1","0","1","0.536175699962769","0.507634399982635","0.451110399968456","1","1","1","1","1","1","1","1","1"
"260025","img/object_images/toilet_paper_dispenser01.jpg","img/object_images/bean_bag02.jpg","img/object_images/bottle09.jpg","1","1","1","1","1","0","0.451110399968456","0.536175699962769","0.452884499973152","1","1","1","1","1","1","1","1","1"
"260025","img/object_images/bottle09.jpg","img/object_images/toilet_paper_dispenser01.jpg","img/object_images/pen05.jpg","1","1","1","0","1","0","0.452884499973152","0.451110399968456","0.534094100003131","1","1","1","1","1","1","1","1","1"
"260025","img/object_images/pen05.jpg","img/object_images/bottle09.jpg","img/object_images/perfume02.jpg","1","1","1","0","0","0","0.534094100003131","0.452884499973152","0.586506000021473","1","1","1","1","1","1","1","1","1"
"260025","img/object_images/perfume02.jpg","img/object_images/pen05.jpg","img/object_images/WoodBox01.jpg","1","1","1","0","0","0","0.586506000021473","0.534094100003131","0.585649300017394","1","1","1","1","1","1","1","1","1"
"260025","img/object_images/WoodBox01.jpg","img/object_images/perfume02.jpg","img/object_images/helmet04.jpg","1","1","1","0","0","1","0.585649300017394","0.586506000021473","0.461224299971946","1","1","1","1","1","1","1","1","1"
"260025","img/object_images/helmet04.jpg","img/object_images/WoodBox01.jpg","img/object_images/hot_air_balloon02.jpg","1","1","1","1","0","0","0.461224299971946","0.585649300017394","0.504880200023763","1","1","1","1","1","1","1","1","1"
"260025","img/object_images/hot_air_balloon02.jpg","img/object_images/helmet04.jpg","img/object_images/water_scooter01.jpg","1","1","1","0","1","1","0.504880200023763","0.461224299971946","0.579352700035088","1","1","1","1","1","1","1","1","1"
"260025","img/object_images/water_scooter01.jpg","img/object_images/hot_air_balloon02.jpg","img/object_images/fan02.jpg","1","1","1","1","0","0","0.579352700035088","0.504880200023763","0.492779700027313","1","1","1","1","1","1","1","1","1"
"260025","img/object_images/fan02.jpg","img/object_images/water_scooter01.jpg","img/object_images/tie02.jpg","1","1","1","0","1","0","0.492779700027313","0.579352700035088","0.531184599967673","1","1","1","1","1","1","1","1","1"
"260025","img/object_images/tie02.jpg","img/object_images/fan02.jpg","img/object_images/hat06.jpg","1","1","1","0","0","0","0.531184599967673","0.492779700027313","0.542321799963247","1","1","1","1","1","1","1","1","1"
"260025","img/object_images/hat06.jpg","img/object_images/tie02.jpg","img/object_images/purse04.jpg","1","1","1","0","0","1","0.542321799963247","0.531184599967673","0.384447799995542","1","1","1","1","1","1","1","1","1"
"260025","img/object_images/purse04.jpg","img/object_images/hat06.jpg","img/object_images/cellphone03.jpg","1","1","1","1","0","0","0.384447799995542","0.542321799963247","0.548083500005305","1","1","1","1","1","1","1","1","1"
"260025","img/object_images/cellphone03.jpg","img/object_images/purse04.jpg","img/object_images/bottle10.jpg","1","1","1","0","1","1","0.548083500005305","0.384447799995542","0.445507099968381","1","1","1","1","1","1","1","1","1"
"260025","img/object_images/bottle10.jpg","img/object_images/cellphone03.jpg",NA,"1","1",NA,"1","0",NA,"0.445507099968381","0.548083500005305",NA,"1","1",NA,"1","1",NA,"1","1",NA
