"participant_id","current_trial_object","pre_trial_object","post_trial_object","current_trial_accuracy","pre_trial_accuracy","post_trial_accuracy","current_trial_congruency","pre_trial_congruency","post_trial_congruency","current_trial_rt","pre_trial_rt","post_trial_rt","current_trial_responded","pre_trial_responded","post_trial_responded","current_trial_legitResponse","pre_trial_legitResponse","post_trial_legitResponse","current_trial_resp_nums","pre_trial_resp_nums","post_trial_resp_nums"
"260008","img/object_images/water_scooter01.jpg",NA,"img/object_images/helmet04.jpg","1",NA,"1","1",NA,"1","0.475963299977593",NA,"0.535649399971589","1",NA,"1","1",NA,"1","1",NA,"1"
"260008","img/object_images/helmet04.jpg","img/object_images/water_scooter01.jpg","img/object_images/wagon_cart03.jpg","1","1","1","1","1","1","0.535649399971589","0.475963299977593","0.445566199952736","1","1","1","1","1","1","1","1","1"
"260008","img/object_images/wagon_cart03.jpg","img/object_images/helmet04.jpg","img/object_images/perfume02.jpg","1","1","0","1","1","0","0.445566199952736","0.535649399971589","0.563060100015718","1","1","1","1","1","1","1","1","1"
"260008","img/object_images/perfume02.jpg","img/object_images/wagon_cart03.jpg","img/object_images/bottle09.jpg","0","1","1","0","1","0","0.563060100015718","0.445566199952736","0.527762299985625","1","1","1","1","1","1","1","1","1"
"260008","img/object_images/bottle09.jpg","img/object_images/perfume02.jpg","img/object_images/audio_port01.jpg","1","0","1","0","0","1","0.527762299985625","0.563060100015718","0.469360899995081","1","1","1","1","1","1","1","1","1"
"260008","img/object_images/audio_port01.jpg","img/object_images/bottle09.jpg","img/object_images/toilet_paper_dispenser01.jpg","1","1","1","1","0","1","0.469360899995081","0.527762299985625","0.506688199995551","1","1","1","1","1","1","1","1","1"
"260008","img/object_images/toilet_paper_dispenser01.jpg","img/object_images/audio_port01.jpg","img/object_images/coloring_pencil02.jpg","1","1","1","1","1","0","0.506688199995551","0.469360899995081","0.461696799960919","1","1","1","1","1","1","1","1","1"
"260008","img/object_images/coloring_pencil02.jpg","img/object_images/toilet_paper_dispenser01.jpg","img/object_images/bottle02.jpg","1","1","1","0","1","1","0.461696799960919","0.506688199995551","0.539506300003268","1","1","1","1","1","1","1","1","1"
"260008","img/object_images/bottle02.jpg","img/object_images/coloring_pencil02.jpg","img/object_images/WoodBox01.jpg","1","1","1","1","0","0","0.539506300003268","0.461696799960919","0.476346399984322","1","1","1","1","1","1","1","1","1"
"260008","img/object_images/WoodBox01.jpg","img/object_images/bottle02.jpg","img/object_images/pen05.jpg","1","1","1","0","1","0","0.476346399984322","0.539506300003268","0.456833500007633","1","1","1","1","1","1","1","1","1"
"260008","img/object_images/pen05.jpg","img/object_images/WoodBox01.jpg","img/object_images/purse04.jpg","1","1","1","0","0","1","0.456833500007633","0.476346399984322","0.459720600047149","1","1","1","1","1","1","1","1","1"
"260008","img/object_images/purse04.jpg","img/object_images/pen05.jpg","img/object_images/boat02.jpg","1","1","1","1","0","1","0.459720600047149","0.456833500007633","0.453640800027642","1","1","1","1","1","1","1","1","1"
"260008","img/object_images/boat02.jpg","img/object_images/purse04.jpg","img/object_images/camera_lens01.jpg","1","1","1","1","1","1","0.453640800027642","0.459720600047149","0.510145899956115","1","1","1","1","1","1","1","1","1"
"260008","img/object_images/camera_lens01.jpg","img/object_images/boat02.jpg","img/object_images/hot_air_balloon02.jpg","1","1","1","1","1","0","0.510145899956115","0.453640800027642","0.59325199999148","1","1","1","1","1","1","1","1","1"
"260008","img/object_images/hot_air_balloon02.jpg","img/object_images/camera_lens01.jpg","img/object_images/bottle10.jpg","1","1","1","0","1","1","0.59325199999148","0.510145899956115","0.590251200017519","1","1","1","1","1","1","1","1","1"
"260008","img/object_images/bottle10.jpg","img/object_images/hot_air_balloon02.jpg","img/object_images/bean_bag02.jpg","1","1","1","1","0","1","0.590251200017519","0.59325199999148","0.422777800005861","1","1","1","1","1","1","1","1","1"
"260008","img/object_images/bean_bag02.jpg","img/object_images/bottle10.jpg","img/object_images/cellphone03.jpg","1","1","1","1","1","0","0.422777800005861","0.590251200017519","0.535452699987218","1","1","1","1","1","1","1","1","1"
"260008","img/object_images/cellphone03.jpg","img/object_images/bean_bag02.jpg","img/object_images/knit01.jpg","1","1","1","0","1","0","0.535452699987218","0.422777800005861","0.543885599996429","1","1","1","1","1","1","1","1","1"
"260008","img/object_images/knit01.jpg","img/object_images/cellphone03.jpg","img/object_images/chair03.jpg","1","1","1","0","0","0","0.543885599996429","0.535452699987218","0.545819399994798","1","1","1","1","1","1","1","1","1"
"260008","img/object_images/chair03.jpg","img/object_images/knit01.jpg","img/object_images/piggy_bank01.jpg","1","1","1","0","0","1","0.545819399994798","0.543885599996429","0.476321000023745","1","1","1","1","1","1","1","1","1"
"260008","img/object_images/piggy_bank01.jpg","img/object_images/chair03.jpg","img/object_images/tool19.jpg","1","1","1","1","0","1","0.476321000023745","0.545819399994798","0.501402700028848","1","1","1","1","1","1","1","1","1"
"260008","img/object_images/tool19.jpg","img/object_images/piggy_bank01.jpg","img/object_images/shoes07.jpg","1","1","1","1","1","0","0.501402700028848","0.476321000023745","0.524020400014706","1","1","1","1","1","1","1","1","1"
"260008","img/object_images/shoes07.jpg","img/object_images/tool19.jpg","img/object_images/hat06.jpg","1","1","1","0","1","0","0.524020400014706","0.501402700028848","0.561182799981907","1","1","1","1","1","1","1","1","1"
"260008","img/object_images/hat06.jpg","img/object_images/shoes07.jpg","img/object_images/boat_toy10.jpg","1","1","1","0","0","0","0.561182799981907","0.524020400014706","0.596091299958061","1","1","1","1","1","1","1","1","1"
"260008","img/object_images/boat_toy10.jpg","img/object_images/hat06.jpg","img/object_images/fan02.jpg","1","1","1","0","0","0","0.596091299958061","0.561182799981907","0.698246999992989","1","1","1","1","1","1","1","1","1"
"260008","img/object_images/fan02.jpg","img/object_images/boat_toy10.jpg","img/object_images/tie02.jpg","1","1","1","0","0","0","0.698246999992989","0.596091299958061","0.424579599988647","1","1","1","1","1","1","1","1","1"
"260008","img/object_images/tie02.jpg","img/object_images/fan02.jpg","img/object_images/toaster01.jpg","1","1","1","0","0","1","0.424579599988647","0.698246999992989","0.47237779997522","1","1","1","1","1","1","1","1","1"
"260008","img/object_images/toaster01.jpg","img/object_images/tie02.jpg","img/object_images/scoreboard01.jpg","1","1","1","1","0","1","0.47237779997522","0.424579599988647","0.505534500000067","1","1","1","1","1","1","1","1","1"
"260008","img/object_images/scoreboard01.jpg","img/object_images/toaster01.jpg","img/object_images/dog_leash01.jpg","1","1","1","1","1","0","0.505534500000067","0.47237779997522","0.608765400014818","1","1","1","1","1","1","1","1","1"
"260008","img/object_images/dog_leash01.jpg","img/object_images/scoreboard01.jpg","img/object_images/bicycle01.jpg","1","1","1","0","1","1","0.608765400014818","0.505534500000067","0.444945199997164","1","1","1","1","1","1","1","1","1"
"260008","img/object_images/bicycle01.jpg","img/object_images/dog_leash01.jpg","img/object_images/flask01.jpg","1","1","1","1","0","0","0.444945199997164","0.608765400014818","0.589331099996343","1","1","1","1","1","1","1","1","1"
"260008","img/object_images/flask01.jpg","img/object_images/bicycle01.jpg",NA,"1","1",NA,"0","1",NA,"0.589331099996343","0.444945199997164",NA,"1","1",NA,"1","1",NA,"1","1",NA
"260008","img/object_images/jewelry01.jpg",NA,"img/object_images/socks02.jpg","1",NA,"1","1",NA,"0","0.520040399977006",NA,"0.521400299970992","1",NA,"1","1",NA,"1","1",NA,"1"
"260008","img/object_images/socks02.jpg","img/object_images/jewelry01.jpg","img/object_images/funnel01.jpg","1","1","1","0","1","0","0.521400299970992","0.520040399977006","0.485556000028737","1","1","1","1","1","1","1","1","1"
"260008","img/object_images/funnel01.jpg","img/object_images/socks02.jpg","img/object_images/jacket03.jpg","1","1","0","0","0","0","0.485556000028737","0.521400299970992","0.492858799989335","1","1","1","1","1","1","1","1","2"
"260008","img/object_images/jacket03.jpg","img/object_images/funnel01.jpg","img/object_images/grater01.jpg","0","1","1","0","0","1","0.492858799989335","0.485556000028737","0.428844499983825","1","1","1","1","1","1","2","1","1"
"260008","img/object_images/grater01.jpg","img/object_images/jacket03.jpg","img/object_images/gift_box02.jpg","1","0","1","1","0","1","0.428844499983825","0.492858799989335","0.344929000013508","1","1","1","1","1","1","1","2","1"
"260008","img/object_images/gift_box02.jpg","img/object_images/grater01.jpg","img/object_images/clip02.jpg","1","1","1","1","1","1","0.344929000013508","0.428844499983825","0.395857999974396","1","1","1","1","1","1","1","1","1"
"260008","img/object_images/clip02.jpg","img/object_images/gift_box02.jpg","img/object_images/fork03.jpg","1","1","1","1","1","1","0.395857999974396","0.344929000013508","0.309764600009657","1","1","1","1","1","1","1","1","1"
"260008","img/object_images/fork03.jpg","img/object_images/clip02.jpg","img/object_images/bow_tie01.jpg","1","1","1","1","1","0","0.309764600009657","0.395857999974396","0.243956900027115","1","1","1","1","1","1","1","1","1"
"260008","img/object_images/bow_tie01.jpg","img/object_images/fork03.jpg","img/object_images/camera07.jpg","1","1","1","0","1","1","0.243956900027115","0.309764600009657","0.37266069999896","1","1","1","1","1","1","1","1","1"
"260008","img/object_images/camera07.jpg","img/object_images/bow_tie01.jpg","img/object_images/wallet02.jpg","1","1","1","1","0","1","0.37266069999896","0.243956900027115","0.459839100018144","1","1","1","1","1","1","1","1","1"
"260008","img/object_images/wallet02.jpg","img/object_images/camera07.jpg","img/object_images/dresser04.jpg","1","1","1","1","1","0","0.459839100018144","0.37266069999896","0.521881000022404","1","1","1","1","1","1","1","1","1"
"260008","img/object_images/dresser04.jpg","img/object_images/wallet02.jpg","img/object_images/coloring_pencil01.jpg","1","1","1","0","1","1","0.521881000022404","0.459839100018144","0.497742599982303","1","1","1","1","1","1","1","1","1"
"260008","img/object_images/coloring_pencil01.jpg","img/object_images/dresser04.jpg","img/object_images/balloon01.jpg","1","1","1","1","0","0","0.497742599982303","0.521881000022404","0.44857560005039","1","1","1","1","1","1","1","1","1"
"260008","img/object_images/balloon01.jpg","img/object_images/coloring_pencil01.jpg","img/object_images/paper_cup01.jpg","1","1","1","0","1","0","0.44857560005039","0.497742599982303","0.478048199962359","1","1","1","1","1","1","1","1","1"
"260008","img/object_images/paper_cup01.jpg","img/object_images/balloon01.jpg","img/object_images/sleeping_bag01.jpg","1","1","1","0","0","0","0.478048199962359","0.44857560005039","0.578675900003873","1","1","1","1","1","1","1","1","1"
"260008","img/object_images/sleeping_bag01.jpg","img/object_images/paper_cup01.jpg","img/object_images/lock04.jpg","1","1","1","0","0","1","0.578675900003873","0.478048199962359","0.3869485000032","1","1","1","1","1","1","1","1","1"
"260008","img/object_images/lock04.jpg","img/object_images/sleeping_bag01.jpg","img/object_images/gift_box03.jpg","1","1","1","1","0","0","0.3869485000032","0.578675900003873","0.277813399967272","1","1","1","1","1","1","1","1","1"
"260008","img/object_images/gift_box03.jpg","img/object_images/lock04.jpg","img/object_images/handkerchief01.jpg","1","1","1","0","1","0","0.277813399967272","0.3869485000032","0.551601300016046","1","1","1","1","1","1","1","1","1"
"260008","img/object_images/handkerchief01.jpg","img/object_images/gift_box03.jpg","img/object_images/ironing_table01.jpg","1","1","1","0","0","0","0.551601300016046","0.277813399967272","0.50425090000499","1","1","1","1","1","1","1","1","1"
"260008","img/object_images/ironing_table01.jpg","img/object_images/handkerchief01.jpg","img/object_images/vga_port 01.jpg","1","1","1","0","0","0","0.50425090000499","0.551601300016046","0.370866800018121","1","1","1","1","1","1","1","1","1"
"260008","img/object_images/vga_port 01.jpg","img/object_images/ironing_table01.jpg","img/object_images/hammer01.jpg","1","1","0","0","0","0","0.370866800018121","0.50425090000499","0.28880909999134","1","1","1","1","1","1","1","1","1"
"260008","img/object_images/hammer01.jpg","img/object_images/vga_port 01.jpg","img/object_images/bow_tie02.jpg","0","1","1","0","0","0","0.28880909999134","0.370866800018121","0.543854099989403","1","1","1","1","1","1","1","1","1"
"260008","img/object_images/bow_tie02.jpg","img/object_images/hammer01.jpg","img/object_images/bath_tub01.jpg","1","0","1","0","0","0","0.543854099989403","0.28880909999134","0.430447199963965","1","1","1","1","1","1","1","1","1"
"260008","img/object_images/bath_tub01.jpg","img/object_images/bow_tie02.jpg","img/object_images/gift_box01.jpg","1","1","1","0","0","1","0.430447199963965","0.543854099989403","0.369905499974266","1","1","1","1","1","1","1","1","1"
"260008","img/object_images/gift_box01.jpg","img/object_images/bath_tub01.jpg","img/object_images/golf_ball03.jpg","1","1","1","1","0","1","0.369905499974266","0.430447199963965","0.346250000002328","1","1","1","1","1","1","1","1","1"
"260008","img/object_images/golf_ball03.jpg","img/object_images/gift_box01.jpg","img/object_images/Witchhat01.jpg","1","1","1","1","1","1","0.346250000002328","0.369905499974266","0.432053100026678","1","1","1","1","1","1","1","1","1"
"260008","img/object_images/Witchhat01.jpg","img/object_images/golf_ball03.jpg","img/object_images/Screws01.jpg","1","1","1","1","1","1","0.432053100026678","0.346250000002328","0.426648100023158","1","1","1","1","1","1","1","1","1"
"260008","img/object_images/Screws01.jpg","img/object_images/Witchhat01.jpg","img/object_images/couch03.jpg","1","1","0","1","1","0","0.426648100023158","0.432053100026678","0.511002300016116","1","1","1","1","1","1","1","1","1"
"260008","img/object_images/couch03.jpg","img/object_images/Screws01.jpg","img/object_images/pitcher02.jpg","0","1","1","0","1","1","0.511002300016116","0.426648100023158","0.336513899965212","1","1","1","1","1","1","1","1","1"
"260008","img/object_images/pitcher02.jpg","img/object_images/couch03.jpg","img/object_images/lawn_mower01.jpg","1","0","1","1","0","1","0.336513899965212","0.511002300016116","0.372600700007752","1","1","1","1","1","1","1","1","1"
"260008","img/object_images/lawn_mower01.jpg","img/object_images/pitcher02.jpg","img/object_images/measuring_tape02.jpg","1","1","1","1","1","1","0.372600700007752","0.336513899965212","0.429632199986372","1","1","1","1","1","1","1","1","1"
"260008","img/object_images/measuring_tape02.jpg","img/object_images/lawn_mower01.jpg",NA,"1","1",NA,"1","1",NA,"0.429632199986372","0.372600700007752",NA,"1","1",NA,"1","1",NA,"1","1",NA
"260008","img/object_images/Wisk01.jpg",NA,"img/object_images/couch04.jpg","1",NA,"1","1",NA,"1","0.438532600004692",NA,"0.329163299989887","1",NA,"1","1",NA,"1","1",NA,"1"
"260008","img/object_images/couch04.jpg","img/object_images/Wisk01.jpg","img/object_images/cochlear_implant01.jpg","1","1","1","1","1","0","0.329163299989887","0.438532600004692","0.331501699984074","1","1","1","1","1","1","1","1","1"
"260008","img/object_images/cochlear_implant01.jpg","img/object_images/couch04.jpg","img/object_images/chair01.jpg","1","1","0","0","1","0","0.331501699984074","0.329163299989887","0.324227100005373","1","1","1","1","1","1","1","1","1"
"260008","img/object_images/chair01.jpg","img/object_images/cochlear_implant01.jpg","img/object_images/airfryer01.jpg","0","1","0","0","0","0","0.324227100005373","0.331501699984074","0.306222199986223","1","1","1","1","1","1","1","1","1"
"260008","img/object_images/airfryer01.jpg","img/object_images/chair01.jpg","img/object_images/drone02.jpg","0","0","1","0","0","0","0.306222199986223","0.324227100005373","0.471562899998389","1","1","1","1","1","1","1","1","1"
"260008","img/object_images/drone02.jpg","img/object_images/airfryer01.jpg","img/object_images/bottle12.jpg","1","0","1","0","0","1","0.471562899998389","0.306222199986223","0.348228599992581","1","1","1","1","1","1","1","1","1"
"260008","img/object_images/bottle12.jpg","img/object_images/drone02.jpg","img/object_images/soap01.jpg","1","1","1","1","0","0","0.348228599992581","0.471562899998389","0.483659300021827","1","1","1","1","1","1","1","1","1"
"260008","img/object_images/soap01.jpg","img/object_images/bottle12.jpg","img/object_images/lamp01.jpg","1","1","1","0","1","1","0.483659300021827","0.348228599992581","0.413238700013608","1","1","1","1","1","1","1","1","1"
"260008","img/object_images/lamp01.jpg","img/object_images/soap01.jpg","img/object_images/hat02.jpg","1","1","1","1","0","0","0.413238700013608","0.483659300021827","0.286366800020915","1","1","1","1","1","1","1","1","1"
"260008","img/object_images/hat02.jpg","img/object_images/lamp01.jpg","img/object_images/lantern01.jpg","1","1","1","0","1","1","0.286366800020915","0.413238700013608","0.350466199975926","1","1","1","1","1","1","1","1","1"
"260008","img/object_images/lantern01.jpg","img/object_images/hat02.jpg","img/object_images/decorative02.jpg","1","1","0","1","0","0","0.350466199975926","0.286366800020915","0.286522999987938","1","1","1","1","1","1","1","1","1"
"260008","img/object_images/decorative02.jpg","img/object_images/lantern01.jpg","img/object_images/car02.jpg","0","1","1","0","1","0","0.286522999987938","0.350466199975926","0.433026399987284","1","1","1","1","1","1","1","1","1"
"260008","img/object_images/car02.jpg","img/object_images/decorative02.jpg","img/object_images/ball01.jpg","1","0","1","0","0","1","0.433026399987284","0.286522999987938","0.457832799991593","1","1","1","1","1","1","1","1","1"
"260008","img/object_images/ball01.jpg","img/object_images/car02.jpg","img/object_images/guitar01.jpg","1","1","1","1","0","1","0.457832799991593","0.433026399987284","0.464834999991581","1","1","1","1","1","1","1","1","1"
"260008","img/object_images/guitar01.jpg","img/object_images/ball01.jpg","img/object_images/toy_train02.jpg","1","1","1","1","1","1","0.464834999991581","0.457832799991593","0.427241700002924","1","1","1","1","1","1","1","1","1"
"260008","img/object_images/toy_train02.jpg","img/object_images/guitar01.jpg","img/object_images/Woopie01.jpg","1","1","1","1","1","1","0.427241700002924","0.464834999991581","0.474330400000326","1","1","1","1","1","1","1","1","1"
"260008","img/object_images/Woopie01.jpg","img/object_images/toy_train02.jpg","img/object_images/ironing_table02.jpg","1","1","1","1","1","0","0.474330400000326","0.427241700002924","0.46169829997234","1","1","1","1","1","1","1","1","1"
"260008","img/object_images/ironing_table02.jpg","img/object_images/Woopie01.jpg","img/object_images/container01.jpg","1","1","1","0","1","0","0.46169829997234","0.474330400000326","0.492357900016941","1","1","1","1","1","1","1","1","1"
"260008","img/object_images/container01.jpg","img/object_images/ironing_table02.jpg","img/object_images/broom01.jpg","1","1","1","0","0","1","0.492357900016941","0.46169829997234","0.414085700002033","1","1","1","1","1","1","1","1","1"
"260008","img/object_images/broom01.jpg","img/object_images/container01.jpg","img/object_images/video_game06.jpg","1","1","0","1","0","0","0.414085700002033","0.492357900016941","0.338513099995907","1","1","1","1","1","1","1","1","2"
"260008","img/object_images/video_game06.jpg","img/object_images/broom01.jpg","img/object_images/helmet05.jpg","0","1","1","0","1","1","0.338513099995907","0.414085700002033","0.4960891000228","1","1","1","1","1","1","2","1","1"
"260008","img/object_images/helmet05.jpg","img/object_images/video_game06.jpg","img/object_images/brief_case02.jpg","1","0","1","1","0","1","0.4960891000228","0.338513099995907","0.379299900028855","1","1","1","1","1","1","1","2","1"
"260008","img/object_images/brief_case02.jpg","img/object_images/helmet05.jpg","img/object_images/gloves05.jpg","1","1","0","1","1","1","0.379299900028855","0.4960891000228","0.265760399983265","1","1","1","1","1","1","1","1","2"
"260008","img/object_images/gloves05.jpg","img/object_images/brief_case02.jpg","img/object_images/brief_case01.jpg","0","1","1","1","1","0","0.265760399983265","0.379299900028855","0.586237000010442","1","1","1","1","1","1","2","1","1"
"260008","img/object_images/brief_case01.jpg","img/object_images/gloves05.jpg","img/object_images/basketball_hoop02.jpg","1","0","1","0","1","0","0.586237000010442","0.265760399983265","0.579585800005589","1","1","1","1","1","1","1","2","1"
"260008","img/object_images/basketball_hoop02.jpg","img/object_images/brief_case01.jpg","img/object_images/razor03.jpg","1","1","1","0","0","0","0.579585800005589","0.586237000010442","0.563209499989171","1","1","1","1","1","1","1","1","1"
"260008","img/object_images/razor03.jpg","img/object_images/basketball_hoop02.jpg","img/object_images/pitcher03.jpg","1","1","1","0","0","1","0.563209499989171","0.579585800005589","0.441952600027434","1","1","1","1","1","1","1","1","1"
"260008","img/object_images/pitcher03.jpg","img/object_images/razor03.jpg","img/object_images/toilet_paper01.jpg","1","1","1","1","0","1","0.441952600027434","0.563209499989171","0.315453700022772","1","1","1","1","1","1","1","1","1"
"260008","img/object_images/toilet_paper01.jpg","img/object_images/pitcher03.jpg","img/object_images/Recycling01.jpg","1","1","1","1","1","1","0.315453700022772","0.441952600027434","0.386369800020475","1","1","1","1","1","1","1","1","1"
"260008","img/object_images/Recycling01.jpg","img/object_images/toilet_paper01.jpg","img/object_images/tie01.jpg","1","1","1","1","1","0","0.386369800020475","0.315453700022772","0.499234299990349","1","1","1","1","1","1","1","1","1"
"260008","img/object_images/tie01.jpg","img/object_images/Recycling01.jpg","img/object_images/pot01.jpg","1","1","1","0","1","0","0.499234299990349","0.386369800020475","0.518347000004724","1","1","1","1","1","1","1","1","1"
"260008","img/object_images/pot01.jpg","img/object_images/tie01.jpg",NA,"1","1",NA,"0","0",NA,"0.518347000004724","0.499234299990349",NA,"1","1",NA,"1","1",NA,"1","1",NA
"260008","img/object_images/chair04.jpg",NA,"img/object_images/belt01.jpg","1",NA,"0","1",NA,"0","0.446001000003889",NA,"0.449278699990828","1",NA,"1","1",NA,"1","1",NA,"2"
"260008","img/object_images/belt01.jpg","img/object_images/chair04.jpg","img/object_images/binoculars03.jpg","0","1","1","0","1","1","0.449278699990828","0.446001000003889","0.565081400040071","1","1","1","1","1","1","2","1","1"
"260008","img/object_images/binoculars03.jpg","img/object_images/belt01.jpg","img/object_images/MeasuringCup01.jpg","1","0","1","1","0","1","0.565081400040071","0.449278699990828","0.281116899976041","1","1","1","1","1","1","1","2","1"
"260008","img/object_images/MeasuringCup01.jpg","img/object_images/binoculars03.jpg","img/object_images/toaster02.jpg","1","1","1","1","1","1","0.281116899976041","0.565081400040071","0.339415099995676","1","1","1","1","1","1","1","1","1"
"260008","img/object_images/toaster02.jpg","img/object_images/MeasuringCup01.jpg","img/object_images/tool11.jpg","1","1","1","1","1","1","0.339415099995676","0.281116899976041","0.433664000011049","1","1","1","1","1","1","1","1","1"
"260008","img/object_images/tool11.jpg","img/object_images/toaster02.jpg","img/object_images/mask01.jpg","1","1","1","1","1","0","0.433664000011049","0.339415099995676","0.496902600047179","1","1","1","1","1","1","1","1","1"
"260008","img/object_images/mask01.jpg","img/object_images/tool11.jpg","img/object_images/shower_head03.jpg","1","1","1","0","1","1","0.496902600047179","0.433664000011049","0.364754100039136","1","1","1","1","1","1","1","1","1"
"260008","img/object_images/shower_head03.jpg","img/object_images/mask01.jpg","img/object_images/jewelry07.jpg","1","1","1","1","0","1","0.364754100039136","0.496902600047179","0.545146799995564","1","1","1","1","1","1","1","1","1"
"260008","img/object_images/jewelry07.jpg","img/object_images/shower_head03.jpg","img/object_images/key02.jpg","1","1","1","1","1","1","0.545146799995564","0.364754100039136","0.425163400010206","1","1","1","1","1","1","1","1","1"
"260008","img/object_images/key02.jpg","img/object_images/jewelry07.jpg","img/object_images/tv01.jpg","1","1","1","1","1","0","0.425163400010206","0.545146799995564","0.497091399971396","1","1","1","1","1","1","1","1","1"
"260008","img/object_images/tv01.jpg","img/object_images/key02.jpg","img/object_images/cutting_board01.jpg","1","1","1","0","1","1","0.497091399971396","0.425163400010206","0.537618000002112","1","1","1","1","1","1","1","1","1"
"260008","img/object_images/cutting_board01.jpg","img/object_images/tv01.jpg","img/object_images/satellite01.jpg","1","1","1","1","0","0","0.537618000002112","0.497091399971396","0.564049600041471","1","1","1","1","1","1","1","1","1"
"260008","img/object_images/satellite01.jpg","img/object_images/cutting_board01.jpg","img/object_images/car03.jpg","1","1","1","0","1","0","0.564049600041471","0.537618000002112","0.572165200021118","1","1","1","1","1","1","1","1","1"
"260008","img/object_images/car03.jpg","img/object_images/satellite01.jpg","img/object_images/shoes10.jpg","1","1","0","0","0","0","0.572165200021118","0.564049600041471","0.366942299995571","1","1","1","1","1","1","1","1","1"
"260008","img/object_images/shoes10.jpg","img/object_images/car03.jpg","img/object_images/slinky_toy01.jpg","0","1","1","0","0","1","0.366942299995571","0.572165200021118","0.406152400013525","1","1","1","1","1","1","1","1","1"
"260008","img/object_images/slinky_toy01.jpg","img/object_images/shoes10.jpg","img/object_images/WitchHat02.jpg","1","0","1","1","0","1","0.406152400013525","0.366942299995571","0.424746499978937","1","1","1","1","1","1","1","1","1"
"260008","img/object_images/WitchHat02.jpg","img/object_images/slinky_toy01.jpg","img/object_images/car04.jpg","1","1","1","1","1","0","0.424746499978937","0.406152400013525","0.44840509997448","1","1","1","1","1","1","1","1","1"
"260008","img/object_images/car04.jpg","img/object_images/WitchHat02.jpg","img/object_images/yarn02.jpg","1","1","1","0","1","0","0.44840509997448","0.424746499978937","0.352262000029441","1","1","1","1","1","1","1","1","1"
"260008","img/object_images/yarn02.jpg","img/object_images/car04.jpg","img/object_images/razor01.jpg","1","1","0","0","0","0","0.352262000029441","0.44840509997448","0.355262500001118","1","1","1","1","1","1","1","1","1"
"260008","img/object_images/razor01.jpg","img/object_images/yarn02.jpg","img/object_images/ribbon01.jpg","0","1","1","0","0","0","0.355262500001118","0.352262000029441","0.59812579996651","1","1","1","1","1","1","1","1","1"
"260008","img/object_images/ribbon01.jpg","img/object_images/razor01.jpg","img/object_images/dress03.jpg","1","0","1","0","0","1","0.59812579996651","0.355262500001118","0.402028799988329","1","1","1","1","1","1","1","1","1"
"260008","img/object_images/dress03.jpg","img/object_images/ribbon01.jpg","img/object_images/ladle02.jpg","1","1","1","1","0","0","0.402028799988329","0.59812579996651","0.578985300031491","1","1","1","1","1","1","1","1","1"
"260008","img/object_images/ladle02.jpg","img/object_images/dress03.jpg","img/object_images/hair_brush05.jpg","1","1","1","0","1","1","0.578985300031491","0.402028799988329","0.447053199983202","1","1","1","1","1","1","1","1","1"
"260008","img/object_images/hair_brush05.jpg","img/object_images/ladle02.jpg","img/object_images/ice_tray03.jpg","1","1","1","1","0","1","0.447053199983202","0.578985300031491","0.418350299994927","1","1","1","1","1","1","1","1","1"
"260008","img/object_images/ice_tray03.jpg","img/object_images/hair_brush05.jpg","img/object_images/jewel01.jpg","1","1","0","1","1","0","0.418350299994927","0.447053199983202","0.306687099975534","1","1","1","1","1","1","1","1","1"
"260008","img/object_images/jewel01.jpg","img/object_images/ice_tray03.jpg","img/object_images/bag06.jpg","0","1","1","0","1","1","0.306687099975534","0.418350299994927","0.408517900039442","1","1","1","1","1","1","1","1","1"
"260008","img/object_images/bag06.jpg","img/object_images/jewel01.jpg","img/object_images/cards01.jpg","1","0","1","1","0","0","0.408517900039442","0.306687099975534","0.544898699969053","1","1","1","1","1","1","1","1","1"
"260008","img/object_images/cards01.jpg","img/object_images/bag06.jpg","img/object_images/screwdriver01.jpg","1","1","1","0","1","0","0.544898699969053","0.408517900039442","0.443838200008031","1","1","1","1","1","1","1","1","1"
"260008","img/object_images/screwdriver01.jpg","img/object_images/cards01.jpg","img/object_images/fan05.jpg","1","1","1","0","0","0","0.443838200008031","0.544898699969053","0.543299000011757","1","1","1","1","1","1","1","1","1"
"260008","img/object_images/fan05.jpg","img/object_images/screwdriver01.jpg","img/object_images/lemon_squeezer02.jpg","1","1","1","0","0","1","0.543299000011757","0.443838200008031","0.393013500026427","1","1","1","1","1","1","1","1","1"
"260008","img/object_images/lemon_squeezer02.jpg","img/object_images/fan05.jpg","img/object_images/rock03.jpg","1","1","0","1","0","0","0.393013500026427","0.543299000011757","0.322445500001777","1","1","1","1","1","1","1","1","2"
"260008","img/object_images/rock03.jpg","img/object_images/lemon_squeezer02.jpg",NA,"0","1",NA,"0","1",NA,"0.322445500001777","0.393013500026427",NA,"1","1",NA,"1","1",NA,"2","1",NA
"260008","img/object_images/umbrella01.jpg",NA,"img/object_images/chess_piece01.jpg","0",NA,"0","0",NA,"0","0.91281720000552",NA,"0.3335179000278","1",NA,"1","1",NA,"1","1",NA,"1"
"260008","img/object_images/chess_piece01.jpg","img/object_images/umbrella01.jpg","img/object_images/fan04.jpg","0","0","1","0","0","0","0.3335179000278","0.91281720000552","0.522390600002836","1","1","1","1","1","1","1","1","1"
"260008","img/object_images/fan04.jpg","img/object_images/chess_piece01.jpg","img/object_images/robe01.jpg","1","0","1","0","0","1","0.522390600002836","0.3335179000278","0.366532700019889","1","1","1","1","1","1","1","1","1"
"260008","img/object_images/robe01.jpg","img/object_images/fan04.jpg","img/object_images/pitcher05.jpg","1","1","1","1","0","0","0.366532700019889","0.522390600002836","0.47405079996679","1","1","1","1","1","1","1","1","1"
"260008","img/object_images/pitcher05.jpg","img/object_images/robe01.jpg","img/object_images/chair02.jpg","1","1","1","0","1","1","0.47405079996679","0.366532700019889","0.48715409997385","1","1","1","1","1","1","1","1","1"
"260008","img/object_images/chair02.jpg","img/object_images/pitcher05.jpg","img/object_images/backpack03.jpg","1","1","1","1","0","1","0.48715409997385","0.47405079996679","0.40615119994618","1","1","1","1","1","1","1","1","1"
"260008","img/object_images/backpack03.jpg","img/object_images/chair02.jpg","img/object_images/Vest02.jpg","1","1","1","1","1","0","0.40615119994618","0.48715409997385","0.503280700009782","1","1","1","1","1","1","1","1","1"
"260008","img/object_images/Vest02.jpg","img/object_images/backpack03.jpg","img/object_images/stove01.jpg","1","1","1","0","1","0","0.503280700009782","0.40615119994618","0.499549900006968","1","1","1","1","1","1","1","1","1"
"260008","img/object_images/stove01.jpg","img/object_images/Vest02.jpg","img/object_images/trash_can03.jpg","1","1","1","0","0","1","0.499549900006968","0.503280700009782","0.362170099979267","1","1","1","1","1","1","1","1","1"
"260008","img/object_images/trash_can03.jpg","img/object_images/stove01.jpg","img/object_images/surf_board01.jpg","1","1","1","1","0","1","0.362170099979267","0.499549900006968","0.429240000026766","1","1","1","1","1","1","1","1","1"
"260008","img/object_images/surf_board01.jpg","img/object_images/trash_can03.jpg","img/object_images/spatula02.jpg","1","1","1","1","1","1","0.429240000026766","0.362170099979267","0.553158900002018","1","1","1","1","1","1","1","1","1"
"260008","img/object_images/spatula02.jpg","img/object_images/surf_board01.jpg","img/object_images/gift_box05.jpg","1","1","1","1","1","0","0.553158900002018","0.429240000026766","0.521070999966469","1","1","1","1","1","1","1","1","1"
"260008","img/object_images/gift_box05.jpg","img/object_images/spatula02.jpg","img/object_images/hair_dryer01.jpg","1","1","1","0","1","0","0.521070999966469","0.553158900002018","0.486246599990409","1","1","1","1","1","1","1","1","1"
"260008","img/object_images/hair_dryer01.jpg","img/object_images/gift_box05.jpg","img/object_images/accardion01.jpg","1","1","1","0","0","1","0.486246599990409","0.521070999966469","0.459079799999017","1","1","1","1","1","1","1","1","1"
"260008","img/object_images/accardion01.jpg","img/object_images/hair_dryer01.jpg","img/object_images/vase01.jpg","1","1","1","1","0","0","0.459079799999017","0.486246599990409","0.462989599967841","1","1","1","1","1","1","1","1","1"
"260008","img/object_images/vase01.jpg","img/object_images/accardion01.jpg","img/object_images/Lint_Roller02.jpg","1","1","0","0","1","0","0.462989599967841","0.459079799999017","0.47011780005414","1","1","1","1","1","1","1","1","1"
"260008","img/object_images/Lint_Roller02.jpg","img/object_images/vase01.jpg","img/object_images/helmet02.jpg","0","1","1","0","0","0","0.47011780005414","0.462989599967841","0.508987299981527","1","1","1","1","1","1","1","1","1"
"260008","img/object_images/helmet02.jpg","img/object_images/Lint_Roller02.jpg","img/object_images/shoes08.jpg","1","0","1","0","0","1","0.508987299981527","0.47011780005414","0.508664999972098","1","1","1","1","1","1","1","1","1"
"260008","img/object_images/shoes08.jpg","img/object_images/helmet02.jpg","img/object_images/trash_can05.jpg","1","1","1","1","0","1","0.508664999972098","0.508987299981527","0.557856700033881","1","1","1","1","1","1","1","1","1"
"260008","img/object_images/trash_can05.jpg","img/object_images/shoes08.jpg","img/object_images/laptop03.jpg","1","1","1","1","1","1","0.557856700033881","0.508664999972098","0.470366600027774","1","1","1","1","1","1","1","1","1"
"260008","img/object_images/laptop03.jpg","img/object_images/trash_can05.jpg","img/object_images/hair_brush02.jpg","1","1","1","1","1","0","0.470366600027774","0.557856700033881","0.395721599983517","1","1","1","1","1","1","1","1","1"
"260008","img/object_images/hair_brush02.jpg","img/object_images/laptop03.jpg","img/object_images/ball02.jpg","1","1","1","0","1","1","0.395721599983517","0.470366600027774","0.515019799990114","1","1","1","1","1","1","1","1","1"
"260008","img/object_images/ball02.jpg","img/object_images/hair_brush02.jpg","img/object_images/microphone03.jpg","1","1","1","1","0","1","0.515019799990114","0.395721599983517","0.490859500016086","1","1","1","1","1","1","1","1","1"
"260008","img/object_images/microphone03.jpg","img/object_images/ball02.jpg","img/object_images/lock01.jpg","1","1","1","1","1","0","0.490859500016086","0.515019799990114","0.525745099992491","1","1","1","1","1","1","1","1","1"
"260008","img/object_images/lock01.jpg","img/object_images/microphone03.jpg","img/object_images/combs01.jpg","1","1","1","0","1","1","0.525745099992491","0.490859500016086","0.497045899974182","1","1","1","1","1","1","1","1","1"
"260008","img/object_images/combs01.jpg","img/object_images/lock01.jpg","img/object_images/calculator01.jpg","1","1","1","1","0","1","0.497045899974182","0.525745099992491","0.502961500023957","1","1","1","1","1","1","1","1","1"
"260008","img/object_images/calculator01.jpg","img/object_images/combs01.jpg","img/object_images/laptop01.jpg","1","1","1","1","1","0","0.502961500023957","0.497045899974182","0.535616100009065","1","1","1","1","1","1","1","1","1"
"260008","img/object_images/laptop01.jpg","img/object_images/calculator01.jpg","img/object_images/toy05.jpg","1","1","1","0","1","0","0.535616100009065","0.502961500023957","0.492695299966727","1","1","1","1","1","1","1","1","1"
"260008","img/object_images/toy05.jpg","img/object_images/laptop01.jpg","img/object_images/bucket02.jpg","1","1","1","0","0","1","0.492695299966727","0.535616100009065","0.411754600005224","1","1","1","1","1","1","1","1","1"
"260008","img/object_images/bucket02.jpg","img/object_images/toy05.jpg","img/object_images/jewel03.jpg","1","1","1","1","0","1","0.411754600005224","0.492695299966727","0.407918100012466","1","1","1","1","1","1","1","1","1"
"260008","img/object_images/jewel03.jpg","img/object_images/bucket02.jpg","img/object_images/towels01.jpg","1","1","1","1","1","0","0.407918100012466","0.411754600005224","0.562418999965303","1","1","1","1","1","1","1","1","1"
"260008","img/object_images/towels01.jpg","img/object_images/jewel03.jpg",NA,"1","1",NA,"0","1",NA,"0.562418999965303","0.407918100012466",NA,"1","1",NA,"1","1",NA,"1","1",NA
"260008","img/object_images/tool13.jpg",NA,"img/object_images/ruler02.jpg","1",NA,"1","1",NA,"1","0.608396199997514",NA,"0.442640000022948","1",NA,"1","1",NA,"1","1",NA,"1"
"260008","img/object_images/ruler02.jpg","img/object_images/tool13.jpg","img/object_images/socks01.jpg","1","1","1","1","1","1","0.442640000022948","0.608396199997514","0.289854099974036","1","1","1","1","1","1","1","1","1"
"260008","img/object_images/socks01.jpg","img/object_images/ruler02.jpg","img/object_images/candle02.jpg","1","1","1","1","1","0","0.289854099974036","0.442640000022948","0.29088079999201","1","1","1","1","1","1","1","1","1"
"260008","img/object_images/candle02.jpg","img/object_images/socks01.jpg","img/object_images/glasses03.jpg","1","1","0","0","1","0","0.29088079999201","0.289854099974036","0.242780800035689","1","1","1","1","1","1","1","1","1"
"260008","img/object_images/glasses03.jpg","img/object_images/candle02.jpg","img/object_images/razor02.jpg","0","1","1","0","0","1","0.242780800035689","0.29088079999201","0.456066799990367","1","1","1","1","1","1","1","1","1"
"260008","img/object_images/razor02.jpg","img/object_images/glasses03.jpg","img/object_images/bow_tie03.jpg","1","0","1","1","0","1","0.456066799990367","0.242780800035689","0.460554099990986","1","1","1","1","1","1","1","1","1"
"260008","img/object_images/bow_tie03.jpg","img/object_images/razor02.jpg","img/object_images/pan03.jpg","1","1","1","1","1","1","0.460554099990986","0.456066799990367","0.449354599986691","1","1","1","1","1","1","1","1","1"
"260008","img/object_images/pan03.jpg","img/object_images/bow_tie03.jpg","img/object_images/vase02.jpg","1","1","1","1","1","1","0.449354599986691","0.460554099990986","0.513765699986834","1","1","1","1","1","1","1","1","1"
"260008","img/object_images/vase02.jpg","img/object_images/pan03.jpg","img/object_images/tool20.jpg","1","1","0","1","1","0","0.513765699986834","0.449354599986691","0.335186299984343","1","1","1","1","1","1","1","1","1"
"260008","img/object_images/tool20.jpg","img/object_images/vase02.jpg","img/object_images/clipboard01.jpg","0","1","1","0","1","1","0.335186299984343","0.513765699986834","0.381497700000182","1","1","1","1","1","1","1","1","1"
"260008","img/object_images/clipboard01.jpg","img/object_images/tool20.jpg","img/object_images/hammer02.jpg","1","0","0","1","0","0","0.381497700000182","0.335186299984343","0.271777099987958","1","1","1","1","1","1","1","1","1"
"260008","img/object_images/hammer02.jpg","img/object_images/clipboard01.jpg","img/object_images/spray_can01.jpg","0","1","1","0","1","0","0.271777099987958","0.381497700000182","0.641707899980247","1","1","1","1","1","1","1","1","1"
"260008","img/object_images/spray_can01.jpg","img/object_images/hammer02.jpg","img/object_images/Confetti 01.jpg","1","0","1","0","0","0","0.641707899980247","0.271777099987958","0.493610199948307","1","1","1","1","1","1","1","1","1"
"260008","img/object_images/Confetti 01.jpg","img/object_images/spray_can01.jpg","img/object_images/hat09.jpg","1","1","1","0","0","0","0.493610199948307","0.641707899980247","0.507660499948543","1","1","1","1","1","1","1","1","1"
"260008","img/object_images/hat09.jpg","img/object_images/Confetti 01.jpg","img/object_images/video_game02.jpg","1","1","1","0","0","1","0.507660499948543","0.493610199948307","0.495776800031308","1","1","1","1","1","1","1","1","1"
"260008","img/object_images/video_game02.jpg","img/object_images/hat09.jpg","img/object_images/cup01.jpg","1","1","1","1","0","0","0.495776800031308","0.507660499948543","0.573470500006806","1","1","1","1","1","1","1","1","1"
"260008","img/object_images/cup01.jpg","img/object_images/video_game02.jpg","img/object_images/duster01.jpg","1","1","1","0","1","0","0.573470500006806","0.495776800031308","0.422780300024897","1","1","1","1","1","1","1","1","1"
"260008","img/object_images/duster01.jpg","img/object_images/cup01.jpg","img/object_images/pen06.jpg","1","1","1","0","0","0","0.422780300024897","0.573470500006806","0.44440089998534","1","1","1","1","1","1","1","1","1"
"260008","img/object_images/pen06.jpg","img/object_images/duster01.jpg","img/object_images/floss01.jpg","1","1","1","0","0","1","0.44440089998534","0.422780300024897","0.467783899977803","1","1","1","1","1","1","1","1","1"
"260008","img/object_images/floss01.jpg","img/object_images/pen06.jpg","img/object_images/bag04.jpg","1","1","1","1","0","0","0.467783899977803","0.44440089998534","0.61144880001666","1","1","1","1","1","1","1","1","1"
"260008","img/object_images/bag04.jpg","img/object_images/floss01.jpg","img/object_images/hat13.jpg","1","1","1","0","1","1","0.61144880001666","0.467783899977803","0.399010399996769","1","1","1","1","1","1","1","1","1"
"260008","img/object_images/hat13.jpg","img/object_images/bag04.jpg","img/object_images/board01.jpg","1","1","1","1","0","1","0.399010399996769","0.61144880001666","0.460163599986117","1","1","1","1","1","1","1","1","1"
"260008","img/object_images/board01.jpg","img/object_images/hat13.jpg","img/object_images/lemon_squeezer01.jpg","1","1","1","1","1","1","0.460163599986117","0.399010399996769","0.876278399955481","1","1","1","1","1","1","1","1","1"
"260008","img/object_images/lemon_squeezer01.jpg","img/object_images/board01.jpg","img/object_images/knife01.jpg","1","1","1","1","1","1","0.876278399955481","0.460163599986117","0.511869200039655","1","1","1","1","1","1","1","1","1"
"260008","img/object_images/knife01.jpg","img/object_images/lemon_squeezer01.jpg","img/object_images/Candle_Holder01.jpg","1","1","1","1","1","0","0.511869200039655","0.876278399955481","0.359705300012138","1","1","1","1","1","1","1","1","1"
"260008","img/object_images/Candle_Holder01.jpg","img/object_images/knife01.jpg","img/object_images/sign02.jpg","1","1","0","0","1","0","0.359705300012138","0.511869200039655","0.35384910000721","1","1","1","1","1","1","1","1","1"
"260008","img/object_images/sign02.jpg","img/object_images/Candle_Holder01.jpg","img/object_images/sink_filter01 (1).jpg","0","1","1","0","0","0","0.35384910000721","0.359705300012138","0.595887100032996","1","1","1","1","1","1","1","1","1"
"260008","img/object_images/sink_filter01 (1).jpg","img/object_images/sign02.jpg","img/object_images/office_supplies01.jpg","1","0","1","0","0","1","0.595887100032996","0.35384910000721","0.469065199955367","1","1","1","1","1","1","1","1","1"
"260008","img/object_images/office_supplies01.jpg","img/object_images/sink_filter01 (1).jpg","img/object_images/perfume01.jpg","1","1","1","1","0","0","0.469065199955367","0.595887100032996","0.604387300030794","1","1","1","1","1","1","1","1","1"
"260008","img/object_images/perfume01.jpg","img/object_images/office_supplies01.jpg","img/object_images/camera05.jpg","1","1","1","0","1","0","0.604387300030794","0.469065199955367","0.479025600012392","1","1","1","1","1","1","1","1","1"
"260008","img/object_images/camera05.jpg","img/object_images/perfume01.jpg","img/object_images/dust_pan01.jpg","1","1","1","0","0","1","0.479025600012392","0.604387300030794","0.398734699992929","1","1","1","1","1","1","1","1","1"
"260008","img/object_images/dust_pan01.jpg","img/object_images/camera05.jpg",NA,"1","1",NA,"1","0",NA,"0.398734699992929","0.479025600012392",NA,"1","1",NA,"1","1",NA,"1","1",NA
"260008","img/object_images/origami01.jpg",NA,"img/object_images/bottle06.jpg","1",NA,"1","1",NA,"0","0.61054670001613",NA,"0.484352800005581","1",NA,"1","1",NA,"1","1",NA,"1"
"260008","img/object_images/bottle06.jpg","img/object_images/origami01.jpg","img/object_images/phone04.jpg","1","1","1","0","1","1","0.484352800005581","0.61054670001613","0.568625600019004","1","1","1","1","1","1","1","1","1"
"260008","img/object_images/phone04.jpg","img/object_images/bottle06.jpg","img/object_images/headset02.jpg","1","1","1","1","0","0","0.568625600019004","0.484352800005581","0.63542679999955","1","1","1","1","1","1","1","1","1"
"260008","img/object_images/headset02.jpg","img/object_images/phone04.jpg","img/object_images/tennis_racket01.jpg","1","1","1","0","1","1","0.63542679999955","0.568625600019004","0.349646000016946","1","1","1","1","1","1","1","1","1"
"260008","img/object_images/tennis_racket01.jpg","img/object_images/headset02.jpg","img/object_images/pitcher07.jpg","1","1","1","1","0","1","0.349646000016946","0.63542679999955","0.436572400038131","1","1","1","1","1","1","1","1","1"
"260008","img/object_images/pitcher07.jpg","img/object_images/tennis_racket01.jpg","img/object_images/lock03.jpg","1","1","1","1","1","1","0.436572400038131","0.349646000016946","0.367735000036191","1","1","1","1","1","1","1","1","1"
"260008","img/object_images/lock03.jpg","img/object_images/pitcher07.jpg","img/object_images/usb03.jpg","1","1","1","1","1","0","0.367735000036191","0.436572400038131","0.460306400025729","1","1","1","1","1","1","1","1","1"
"260008","img/object_images/usb03.jpg","img/object_images/lock03.jpg","img/object_images/Eyeliner01.jpg","1","1","1","0","1","1","0.460306400025729","0.367735000036191","0.33553209999809","1","1","1","1","1","1","1","1","1"
"260008","img/object_images/Eyeliner01.jpg","img/object_images/usb03.jpg","img/object_images/Safe01.jpg","1","1","1","1","0","1","0.33553209999809","0.460306400025729","0.487888699979521","1","1","1","1","1","1","1","1","1"
"260008","img/object_images/Safe01.jpg","img/object_images/Eyeliner01.jpg","img/object_images/dice01.jpg","1","1","0","1","1","0","0.487888699979521","0.33553209999809","0.374616399989463","1","1","1","1","1","1","1","1","1"
"260008","img/object_images/dice01.jpg","img/object_images/Safe01.jpg","img/object_images/yoga_mat01.jpg","0","1","1","0","1","0","0.374616399989463","0.487888699979521","0.622962999972515","1","1","1","1","1","1","1","1","1"
"260008","img/object_images/yoga_mat01.jpg","img/object_images/dice01.jpg","img/object_images/water_gun01.jpg","1","0","1","0","0","1","0.622962999972515","0.374616399989463","0.567920300003607","1","1","1","1","1","1","1","1","1"
"260008","img/object_images/water_gun01.jpg","img/object_images/yoga_mat01.jpg","img/object_images/bookmark01.jpg","1","1","1","1","0","0","0.567920300003607","0.622962999972515","0.518672199978027","1","1","1","1","1","1","1","1","1"
"260008","img/object_images/bookmark01.jpg","img/object_images/water_gun01.jpg","img/object_images/note_book02.jpg","1","1","1","0","1","0","0.518672199978027","0.567920300003607","0.594558699987829","1","1","1","1","1","1","1","1","1"
"260008","img/object_images/note_book02.jpg","img/object_images/bookmark01.jpg","img/object_images/shovel01.jpg","1","1","0","0","0","0","0.594558699987829","0.518672199978027","0.389361199981067","1","1","1","1","1","1","1","1","2"
"260008","img/object_images/shovel01.jpg","img/object_images/note_book02.jpg","img/object_images/piano03.jpg","0","1","1","0","0","0","0.389361199981067","0.594558699987829","0.572209400008433","1","1","1","1","1","1","2","1","1"
"260008","img/object_images/piano03.jpg","img/object_images/shovel01.jpg","img/object_images/jewel02.jpg","1","0","1","0","0","0","0.572209400008433","0.389361199981067","0.628761200001463","1","1","1","1","1","1","1","2","1"
"260008","img/object_images/jewel02.jpg","img/object_images/piano03.jpg","img/object_images/fan01.jpg","1","1","1","0","0","0","0.628761200001463","0.572209400008433","0.488726599956863","1","1","1","1","1","1","1","1","1"
"260008","img/object_images/fan01.jpg","img/object_images/jewel02.jpg","img/object_images/badminton01.jpg","1","1","1","0","0","1","0.488726599956863","0.628761200001463","0.376077400054783","1","1","1","1","1","1","1","1","1"
"260008","img/object_images/badminton01.jpg","img/object_images/fan01.jpg","img/object_images/Shoes05.jpg","1","1","1","1","0","0","0.376077400054783","0.488726599956863","0.502818600041792","1","1","1","1","1","1","1","1","1"
"260008","img/object_images/Shoes05.jpg","img/object_images/badminton01.jpg","img/object_images/joystick03.jpg","1","1","1","0","1","1","0.502818600041792","0.376077400054783","0.377760000003036","1","1","1","1","1","1","1","1","1"
"260008","img/object_images/joystick03.jpg","img/object_images/Shoes05.jpg","img/object_images/egg_basket01.jpg","1","1","1","1","0","1","0.377760000003036","0.502818600041792","0.394597900041845","1","1","1","1","1","1","1","1","1"
"260008","img/object_images/egg_basket01.jpg","img/object_images/joystick03.jpg","img/object_images/nut_cracker01.jpg","1","1","1","1","1","1","0.394597900041845","0.377760000003036","0.379870100005064","1","1","1","1","1","1","1","1","1"
"260008","img/object_images/nut_cracker01.jpg","img/object_images/egg_basket01.jpg","img/object_images/helmet03.jpg","1","1","1","1","1","1","0.379870100005064","0.394597900041845","0.366877200023737","1","1","1","1","1","1","1","1","1"
"260008","img/object_images/helmet03.jpg","img/object_images/nut_cracker01.jpg","img/object_images/belt03.jpg","1","1","1","1","1","0","0.366877200023737","0.379870100005064","0.540887599985581","1","1","1","1","1","1","1","1","1"
"260008","img/object_images/belt03.jpg","img/object_images/helmet03.jpg","img/object_images/ToolBag01.jpg","1","1","0","0","1","0","0.540887599985581","0.366877200023737","0.530109100043774","1","1","1","1","1","1","1","1","1"
"260008","img/object_images/ToolBag01.jpg","img/object_images/belt03.jpg","img/object_images/TreeSlice01.jpg","0","1","1","0","0","1","0.530109100043774","0.540887599985581","0.366069599986076","1","1","1","1","1","1","1","1","1"
"260008","img/object_images/TreeSlice01.jpg","img/object_images/ToolBag01.jpg","img/object_images/trumpet01.jpg","1","0","1","1","0","0","0.366069599986076","0.530109100043774","0.342120799992699","1","1","1","1","1","1","1","1","1"
"260008","img/object_images/trumpet01.jpg","img/object_images/TreeSlice01.jpg","img/object_images/frame01.jpg","1","1","1","0","1","1","0.342120799992699","0.366069599986076","0.533947500050999","1","1","1","1","1","1","1","1","1"
"260008","img/object_images/frame01.jpg","img/object_images/trumpet01.jpg","img/object_images/scale02.jpg","1","1","1","1","0","0","0.533947500050999","0.342120799992699","0.662468100024853","1","1","1","1","1","1","1","1","1"
"260008","img/object_images/scale02.jpg","img/object_images/frame01.jpg","img/object_images/bucket01.jpg","1","1","1","0","1","1","0.662468100024853","0.533947500050999","0.419405099994037","1","1","1","1","1","1","1","1","2"
"260008","img/object_images/bucket01.jpg","img/object_images/scale02.jpg",NA,"1","1",NA,"1","0",NA,"0.419405099994037","0.662468100024853",NA,"1","1",NA,"1","1",NA,"2","1",NA
"260008","img/object_images/usb02.jpg",NA,"img/object_images/pillows01.jpg","1",NA,"1","0",NA,"1","0.571769699978177",NA,"0.44343599997228","1",NA,"1","1",NA,"1","1",NA,"1"
"260008","img/object_images/pillows01.jpg","img/object_images/usb02.jpg","img/object_images/knife04.jpg","1","1","1","1","0","1","0.44343599997228","0.571769699978177","0.385523699980695","1","1","1","1","1","1","1","1","1"
"260008","img/object_images/knife04.jpg","img/object_images/pillows01.jpg","img/object_images/wire02.jpg","1","1","1","1","1","1","0.385523699980695","0.44343599997228","0.433264099992812","1","1","1","1","1","1","1","1","1"
"260008","img/object_images/wire02.jpg","img/object_images/knife04.jpg","img/object_images/ear_bud01.jpg","1","1","1","1","1","1","0.433264099992812","0.385523699980695","0.593601099972147","1","1","1","1","1","1","1","1","1"
"260008","img/object_images/ear_bud01.jpg","img/object_images/wire02.jpg","img/object_images/pen03.jpg","1","1","1","1","1","0","0.593601099972147","0.433264099992812","0.555757199996151","1","1","1","1","1","1","1","1","1"
"260008","img/object_images/pen03.jpg","img/object_images/ear_bud01.jpg","img/object_images/bell02.jpg","1","1","1","0","1","0","0.555757199996151","0.593601099972147","0.643033700005617","1","1","1","1","1","1","1","1","1"
"260008","img/object_images/bell02.jpg","img/object_images/pen03.jpg","img/object_images/cellphone01.jpg","1","1","0","0","0","1","0.643033700005617","0.555757199996151","0.435592199966777","1","1","1","1","1","1","1","1","1"
"260008","img/object_images/cellphone01.jpg","img/object_images/bell02.jpg","img/object_images/tennis_racket02.jpg","0","1","1","1","0","1","0.435592199966777","0.643033700005617","0.376542799989693","1","1","1","1","1","1","1","1","1"
"260008","img/object_images/tennis_racket02.jpg","img/object_images/cellphone01.jpg","img/object_images/floppy_disk02.jpg","1","0","1","1","1","0","0.376542799989693","0.435592199966777","0.571907800040208","1","1","1","1","1","1","1","1","1"
"260008","img/object_images/floppy_disk02.jpg","img/object_images/tennis_racket02.jpg","img/object_images/crutches02.jpg","1","1","1","0","1","0","0.571907800040208","0.376542799989693","0.514376100036316","1","1","1","1","1","1","1","1","1"
"260008","img/object_images/crutches02.jpg","img/object_images/floppy_disk02.jpg","img/object_images/Oven01.jpg","1","1","1","0","0","1","0.514376100036316","0.571907800040208","0.476136700017378","1","1","1","1","1","1","1","1","1"
"260008","img/object_images/Oven01.jpg","img/object_images/crutches02.jpg","img/object_images/microscope01.jpg","1","1","1","1","0","0","0.476136700017378","0.514376100036316","0.588195500022266","1","1","1","1","1","1","1","1","1"
"260008","img/object_images/microscope01.jpg","img/object_images/Oven01.jpg","img/object_images/pitcher01.jpg","1","1","1","0","1","0","0.588195500022266","0.476136700017378","0.542985300009605","1","1","1","1","1","1","1","1","1"
"260008","img/object_images/pitcher01.jpg","img/object_images/microscope01.jpg","img/object_images/chess_piece02.jpg","1","1","1","0","0","1","0.542985300009605","0.588195500022266","0.422874699987005","1","1","1","1","1","1","1","1","1"
"260008","img/object_images/chess_piece02.jpg","img/object_images/pitcher01.jpg","img/object_images/Thermometer01.jpg","1","1","1","1","0","0","0.422874699987005","0.542985300009605","0.531102199980523","1","1","1","1","1","1","1","1","1"
"260008","img/object_images/Thermometer01.jpg","img/object_images/chess_piece02.jpg","img/object_images/clip03.jpg","1","1","0","0","1","0","0.531102199980523","0.422874699987005","0.393358799978159","1","1","1","1","1","1","1","1","1"
"260008","img/object_images/clip03.jpg","img/object_images/Thermometer01.jpg","img/object_images/chair05.jpg","0","1","1","0","0","0","0.393358799978159","0.531102199980523","0.539743800007273","1","1","1","1","1","1","1","1","1"
"260008","img/object_images/chair05.jpg","img/object_images/clip03.jpg","img/object_images/paint_brush04.jpg","1","0","1","0","0","0","0.539743800007273","0.393358799978159","0.618570099992212","1","1","1","1","1","1","1","1","1"
"260008","img/object_images/paint_brush04.jpg","img/object_images/chair05.jpg","img/object_images/book03.jpg","1","1","1","0","0","1","0.618570099992212","0.539743800007273","0.347211999993306","1","1","1","1","1","1","1","1","1"
"260008","img/object_images/book03.jpg","img/object_images/paint_brush04.jpg","img/object_images/Staples01.jpg","1","1","1","1","0","1","0.347211999993306","0.618570099992212","0.427122000022791","1","1","1","1","1","1","1","1","1"
"260008","img/object_images/Staples01.jpg","img/object_images/book03.jpg","img/object_images/retainer01.jpg","1","1","1","1","1","0","0.427122000022791","0.347211999993306","0.608835600025486","1","1","1","1","1","1","1","1","1"
"260008","img/object_images/retainer01.jpg","img/object_images/Staples01.jpg","img/object_images/tv02.jpg","1","1","1","0","1","0","0.608835600025486","0.427122000022791","0.582876600034069","1","1","1","1","1","1","1","1","1"
"260008","img/object_images/tv02.jpg","img/object_images/retainer01.jpg","img/object_images/lid01.jpg","1","1","1","0","0","1","0.582876600034069","0.608835600025486","0.426971199980471","1","1","1","1","1","1","1","1","1"
"260008","img/object_images/lid01.jpg","img/object_images/tv02.jpg","img/object_images/note_book01.jpg","1","1","1","1","0","0","0.426971199980471","0.582876600034069","0.466388800006825","1","1","1","1","1","1","1","1","1"
"260008","img/object_images/note_book01.jpg","img/object_images/lid01.jpg","img/object_images/bottle01.jpg","1","1","0","0","1","0","0.466388800006825","0.426971199980471","0.395787600020412","1","1","1","1","1","1","1","1","2"
"260008","img/object_images/bottle01.jpg","img/object_images/note_book01.jpg","img/object_images/motorcycle01.jpg","0","1","1","0","0","1","0.395787600020412","0.466388800006825","0.541977000015322","1","1","1","1","1","1","2","1","1"
"260008","img/object_images/motorcycle01.jpg","img/object_images/bottle01.jpg","img/object_images/clock02.jpg","1","0","1","1","0","0","0.541977000015322","0.395787600020412","0.537418099993374","1","1","1","1","1","1","1","2","1"
"260008","img/object_images/clock02.jpg","img/object_images/motorcycle01.jpg","img/object_images/hammer03.jpg","1","1","1","0","1","1","0.537418099993374","0.541977000015322","0.424798999971244","1","1","1","1","1","1","1","1","1"
"260008","img/object_images/hammer03.jpg","img/object_images/clock02.jpg","img/object_images/knit05.jpg","1","1","1","1","0","1","0.424798999971244","0.537418099993374","0.535940099973232","1","1","1","1","1","1","1","1","1"
"260008","img/object_images/knit05.jpg","img/object_images/hammer03.jpg","img/object_images/floppy_disk03.jpg","1","1","1","1","1","1","0.535940099973232","0.424798999971244","0.442030100035481","1","1","1","1","1","1","1","1","1"
"260008","img/object_images/floppy_disk03.jpg","img/object_images/knit05.jpg","img/object_images/compass01.jpg","1","1","1","1","1","1","0.442030100035481","0.535940099973232","0.446991699980572","1","1","1","1","1","1","1","1","1"
"260008","img/object_images/compass01.jpg","img/object_images/floppy_disk03.jpg",NA,"1","1",NA,"1","1",NA,"0.446991699980572","0.442030100035481",NA,"1","1",NA,"1","1",NA,"1","1",NA
"260008","img/object_images/gauze01.jpg",NA,"img/object_images/jewel04.jpg","0",NA,"1","0",NA,"0","0.742205500020646",NA,"0.481358699966222","1",NA,"1","1",NA,"1","1",NA,"1"
"260008","img/object_images/jewel04.jpg","img/object_images/gauze01.jpg","img/object_images/MetalWire01.jpg","1","0","1","0","0","0","0.481358699966222","0.742205500020646","0.514508099993691","1","1","1","1","1","1","1","1","1"
"260008","img/object_images/MetalWire01.jpg","img/object_images/jewel04.jpg","img/object_images/pot01 (1).jpg","1","1","0","0","0","0","0.514508099993691","0.481358699966222","0.389787100022659","1","1","1","1","1","1","1","1","1"
"260008","img/object_images/pot01 (1).jpg","img/object_images/MetalWire01.jpg","img/object_images/tool09.jpg","0","1","1","0","0","1","0.389787100022659","0.514508099993691","0.441796499944758","1","1","1","1","1","1","1","1","1"
"260008","img/object_images/tool09.jpg","img/object_images/pot01 (1).jpg","img/object_images/bow01.jpg","1","0","1","1","0","1","0.441796499944758","0.389787100022659","0.574655999953393","1","1","1","1","1","1","1","1","1"
"260008","img/object_images/bow01.jpg","img/object_images/tool09.jpg","img/object_images/sink01.jpg","1","1","1","1","1","0","0.574655999953393","0.441796499944758","0.618835900037084","1","1","1","1","1","1","1","1","1"
"260008","img/object_images/sink01.jpg","img/object_images/bow01.jpg","img/object_images/toy03.jpg","1","1","1","0","1","1","0.618835900037084","0.574655999953393","0.484603899996728","1","1","1","1","1","1","1","1","1"
"260008","img/object_images/toy03.jpg","img/object_images/sink01.jpg","img/object_images/crown02.jpg","1","1","1","1","0","1","0.484603899996728","0.618835900037084","0.477127700054552","1","1","1","1","1","1","1","1","1"
"260008","img/object_images/crown02.jpg","img/object_images/toy03.jpg","img/object_images/Tin01.jpg","1","1","1","1","1","1","0.477127700054552","0.484603899996728","0.401588800013997","1","1","1","1","1","1","1","1","1"
"260008","img/object_images/Tin01.jpg","img/object_images/crown02.jpg","img/object_images/towel02.jpg","1","1","0","1","1","1","0.401588800013997","0.477127700054552","0.355114200036041","1","1","1","1","1","1","1","1","2"
"260008","img/object_images/towel02.jpg","img/object_images/Tin01.jpg","img/object_images/judge_gavel01.jpg","0","1","1","1","1","1","0.355114200036041","0.401588800013997","0.34387969999807","1","1","1","1","1","1","2","1","1"
"260008","img/object_images/judge_gavel01.jpg","img/object_images/towel02.jpg","img/object_images/bird_house02.jpg","1","0","1","1","1","1","0.34387969999807","0.355114200036041","0.447847599978559","1","1","1","1","1","1","1","2","1"
"260008","img/object_images/bird_house02.jpg","img/object_images/judge_gavel01.jpg","img/object_images/Ring02.jpg","1","1","0","1","1","0","0.447847599978559","0.34387969999807","0.280191499972716","1","1","1","1","1","1","1","1","1"
"260008","img/object_images/Ring02.jpg","img/object_images/bird_house02.jpg","img/object_images/dart01.jpg","0","1","1","0","1","0","0.280191499972716","0.447847599978559","0.584201799996663","1","1","1","1","1","1","1","1","1"
"260008","img/object_images/dart01.jpg","img/object_images/Ring02.jpg","img/object_images/shovel03.jpg","1","0","1","0","0","1","0.584201799996663","0.280191499972716","0.532484699971974","1","1","1","1","1","1","1","1","1"
"260008","img/object_images/shovel03.jpg","img/object_images/dart01.jpg","img/object_images/watch01.jpg","1","1","0","1","0","0","0.532484699971974","0.584201799996663","0.364396499993745","1","1","1","1","1","1","1","1","1"
"260008","img/object_images/watch01.jpg","img/object_images/shovel03.jpg","img/object_images/helmet01.jpg","0","1","0","0","1","0","0.364396499993745","0.532484699971974","0.663643400010187","1","1","1","1","1","1","1","1","1"
"260008","img/object_images/helmet01.jpg","img/object_images/watch01.jpg","img/object_images/frisbee01.jpg","0","0","1","0","0","1","0.663643400010187","0.364396499993745","0.492155899992213","1","1","1","1","1","1","1","1","1"
"260008","img/object_images/frisbee01.jpg","img/object_images/helmet01.jpg","img/object_images/toy04.jpg","1","0","1","1","0","0","0.492155899992213","0.663643400010187","0.545640799973626","1","1","1","1","1","1","1","1","1"
"260008","img/object_images/toy04.jpg","img/object_images/frisbee01.jpg","img/object_images/guitar02.jpg","1","1","1","0","1","0","0.545640799973626","0.492155899992213","0.387097300030291","1","1","1","1","1","1","1","1","1"
"260008","img/object_images/guitar02.jpg","img/object_images/toy04.jpg","img/object_images/Vacuum01.jpg","1","1","1","0","0","0","0.387097300030291","0.545640799973626","0.452406399999745","1","1","1","1","1","1","1","1","1"
"260008","img/object_images/Vacuum01.jpg","img/object_images/guitar02.jpg","img/object_images/video_game07.jpg","1","1","0","0","0","1","0.452406399999745","0.387097300030291","0.30886410002131","1","1","1","1","1","1","1","1","1"
"260008","img/object_images/video_game07.jpg","img/object_images/Vacuum01.jpg","img/object_images/fridge03.jpg","0","1","1","1","0","0","0.30886410002131","0.452406399999745","0.637640299974009","1","1","1","1","1","1","1","1","1"
"260008","img/object_images/fridge03.jpg","img/object_images/video_game07.jpg","img/object_images/outlet01.jpg","1","0","1","0","1","0","0.637640299974009","0.30886410002131","0.467544999963138","1","1","1","1","1","1","1","1","1"
"260008","img/object_images/outlet01.jpg","img/object_images/fridge03.jpg","img/object_images/stapler.jpg","1","1","1","0","0","1","0.467544999963138","0.637640299974009","0.462831099983305","1","1","1","1","1","1","1","1","1"
"260008","img/object_images/stapler.jpg","img/object_images/outlet01.jpg","img/object_images/bottle05.jpg","1","1","1","1","0","0","0.462831099983305","0.467544999963138","0.664237299992237","1","1","1","1","1","1","1","1","1"
"260008","img/object_images/bottle05.jpg","img/object_images/stapler.jpg","img/object_images/ornament01.jpg","1","1","1","0","1","1","0.664237299992237","0.462831099983305","0.386168600001838","1","1","1","1","1","1","1","1","1"
"260008","img/object_images/ornament01.jpg","img/object_images/bottle05.jpg","img/object_images/acoustic_capo01.jpg","1","1","1","1","0","1","0.386168600001838","0.664237299992237","0.421104999957606","1","1","1","1","1","1","1","1","1"
"260008","img/object_images/acoustic_capo01.jpg","img/object_images/ornament01.jpg","img/object_images/mirror01.jpg","1","1","1","1","1","1","0.421104999957606","0.386168600001838","0.437296400021296","1","1","1","1","1","1","1","1","1"
"260008","img/object_images/mirror01.jpg","img/object_images/acoustic_capo01.jpg","img/object_images/tool02.jpg","1","1","1","1","1","1","0.437296400021296","0.421104999957606","0.412258900003508","1","1","1","1","1","1","1","1","1"
"260008","img/object_images/tool02.jpg","img/object_images/mirror01.jpg","img/object_images/Stool01.jpg","1","1","1","1","1","0","0.412258900003508","0.437296400021296","0.583915499970317","1","1","1","1","1","1","1","1","1"
"260008","img/object_images/Stool01.jpg","img/object_images/tool02.jpg",NA,"1","1",NA,"0","1",NA,"0.583915499970317","0.412258900003508",NA,"1","1",NA,"1","1",NA,"1","1",NA
"260008","img/object_images/computer_mouse01.jpg",NA,"img/object_images/computer_mouse02.jpg","1",NA,"0","1",NA,"0","0.504043799999636",NA,"0.351581900031306","1",NA,"1","1",NA,"1","1",NA,"2"
"260008","img/object_images/computer_mouse02.jpg","img/object_images/computer_mouse01.jpg","img/object_images/toothbrush01.jpg","0","1","1","0","1","0","0.351581900031306","0.504043799999636","0.504979800025467","1","1","1","1","1","1","2","1","1"
"260008","img/object_images/toothbrush01.jpg","img/object_images/computer_mouse02.jpg","img/object_images/skate_board01.jpg","1","0","1","0","0","0","0.504979800025467","0.351581900031306","0.323601099953521","1","1","1","1","1","1","1","2","1"
"260008","img/object_images/skate_board01.jpg","img/object_images/toothbrush01.jpg","img/object_images/bell03.jpg","1","1","1","0","0","0","0.323601099953521","0.504979800025467","0.276679700007662","1","1","1","1","1","1","1","1","1"
"260008","img/object_images/bell03.jpg","img/object_images/skate_board01.jpg","img/object_images/soap03.jpg","1","1","1","0","0","0","0.276679700007662","0.323601099953521","0.532689499959815","1","1","1","1","1","1","1","1","1"
"260008","img/object_images/soap03.jpg","img/object_images/bell03.jpg","img/object_images/clip04.jpg","1","1","1","0","0","1","0.532689499959815","0.276679700007662","0.461989900039043","1","1","1","1","1","1","1","1","1"
"260008","img/object_images/clip04.jpg","img/object_images/soap03.jpg","img/object_images/mail_box02.jpg","1","1","1","1","0","1","0.461989900039043","0.532689499959815","0.408829300024081","1","1","1","1","1","1","1","1","1"
"260008","img/object_images/mail_box02.jpg","img/object_images/clip04.jpg","img/object_images/box03.jpg","1","1","1","1","1","0","0.408829300024081","0.461989900039043","0.601553299988154","1","1","1","1","1","1","1","1","1"
"260008","img/object_images/box03.jpg","img/object_images/mail_box02.jpg","img/object_images/blender01.jpg","1","1","1","0","1","0","0.601553299988154","0.408829300024081","0.521733900008257","1","1","1","1","1","1","1","1","1"
"260008","img/object_images/blender01.jpg","img/object_images/box03.jpg","img/object_images/pitcher09.jpg","1","1","1","0","0","1","0.521733900008257","0.601553299988154","0.416893200017512","1","1","1","1","1","1","1","1","1"
"260008","img/object_images/pitcher09.jpg","img/object_images/blender01.jpg","img/object_images/pen01.jpg","1","1","1","1","0","0","0.416893200017512","0.521733900008257","0.507488199975342","1","1","1","1","1","1","1","1","1"
"260008","img/object_images/pen01.jpg","img/object_images/pitcher09.jpg","img/object_images/chair06.jpg","1","1","1","0","1","0","0.507488199975342","0.416893200017512","0.715898900001775","1","1","1","1","1","1","1","1","1"
"260008","img/object_images/chair06.jpg","img/object_images/pen01.jpg","img/object_images/fork02.jpg","1","1","1","0","0","0","0.715898900001775","0.507488199975342","0.524540899961721","1","1","1","1","1","1","1","1","1"
"260008","img/object_images/fork02.jpg","img/object_images/chair06.jpg","img/object_images/tool06.jpg","1","1","1","0","0","0","0.524540899961721","0.715898900001775","0.35625800001435","1","1","1","1","1","1","1","1","1"
"260008","img/object_images/tool06.jpg","img/object_images/fork02.jpg","img/object_images/rock02.jpg","1","1","0","0","0","0","0.35625800001435","0.524540899961721","0.357337499968708","1","1","1","1","1","1","1","1","1"
"260008","img/object_images/rock02.jpg","img/object_images/tool06.jpg","img/object_images/scarf01.jpg","0","1","1","0","0","1","0.357337499968708","0.35625800001435","0.441542599990498","1","1","1","1","1","1","1","1","1"
"260008","img/object_images/scarf01.jpg","img/object_images/rock02.jpg","img/object_images/hair_brush01.jpg","1","0","1","1","0","1","0.441542599990498","0.357337499968708","0.375460799958091","1","1","1","1","1","1","1","1","1"
"260008","img/object_images/hair_brush01.jpg","img/object_images/scarf01.jpg","img/object_images/floss02.jpg","1","1","1","1","1","1","0.375460799958091","0.441542599990498","0.574990699999034","1","1","1","1","1","1","1","1","1"
"260008","img/object_images/floss02.jpg","img/object_images/hair_brush01.jpg","img/object_images/bag_pipes01.jpg","1","1","1","1","1","1","0.574990699999034","0.375460799958091","0.584580899972934","1","1","1","1","1","1","1","1","1"
"260008","img/object_images/bag_pipes01.jpg","img/object_images/floss02.jpg","img/object_images/airfryer02.jpg","1","1","1","1","1","1","0.584580899972934","0.574990699999034","0.352566399960779","1","1","1","1","1","1","1","1","1"
"260008","img/object_images/airfryer02.jpg","img/object_images/bag_pipes01.jpg","img/object_images/video_game03.jpg","1","1","1","1","1","1","0.352566399960779","0.584580899972934","0.414325200021267","1","1","1","1","1","1","1","1","1"
"260008","img/object_images/video_game03.jpg","img/object_images/airfryer02.jpg","img/object_images/toy01.jpg","1","1","1","1","1","1","0.414325200021267","0.352566399960779","0.398904300003778","1","1","1","1","1","1","1","1","1"
"260008","img/object_images/toy01.jpg","img/object_images/video_game03.jpg","img/object_images/drone01.jpg","1","1","1","1","1","1","0.398904300003778","0.414325200021267","0.32899130001897","1","1","1","1","1","1","1","1","1"
"260008","img/object_images/drone01.jpg","img/object_images/toy01.jpg","img/object_images/shoes12.jpg","1","1","1","1","1","1","0.32899130001897","0.398904300003778","0.488728800031822","1","1","1","1","1","1","1","1","1"
"260008","img/object_images/shoes12.jpg","img/object_images/drone01.jpg","img/object_images/tripod01.jpg","1","1","1","1","1","1","0.488728800031822","0.32899130001897","0.464516300009564","1","1","1","1","1","1","1","1","1"
"260008","img/object_images/tripod01.jpg","img/object_images/shoes12.jpg","img/object_images/couch01.jpg","1","1","1","1","1","0","0.464516300009564","0.488728800031822","0.539121200039517","1","1","1","1","1","1","1","1","1"
"260008","img/object_images/couch01.jpg","img/object_images/tripod01.jpg","img/object_images/egg_slicer01.jpg","1","1","1","0","1","1","0.539121200039517","0.464516300009564","0.313573500025086","1","1","1","1","1","1","1","1","1"
"260008","img/object_images/egg_slicer01.jpg","img/object_images/couch01.jpg","img/object_images/chain01.jpg","1","1","0","1","0","0","0.313573500025086","0.539121200039517","0.474363500019535","1","1","1","1","1","1","1","1","1"
"260008","img/object_images/chain01.jpg","img/object_images/egg_slicer01.jpg","img/object_images/Trowel01.jpg","0","1","0","0","1","0","0.474363500019535","0.313573500025086","0.639266100013629","1","1","1","1","1","1","1","1","1"
"260008","img/object_images/Trowel01.jpg","img/object_images/chain01.jpg","img/object_images/book02.jpg","0","0","1","0","0","1","0.639266100013629","0.474363500019535","0.548127699992619","1","1","1","1","1","1","1","1","1"
"260008","img/object_images/book02.jpg","img/object_images/Trowel01.jpg","img/object_images/Violin01.jpg","1","0","1","1","0","0","0.548127699992619","0.639266100013629","0.483383400016464","1","1","1","1","1","1","1","1","1"
"260008","img/object_images/Violin01.jpg","img/object_images/book02.jpg",NA,"1","1",NA,"0","1",NA,"0.483383400016464","0.548127699992619",NA,"1","1",NA,"1","1",NA,"1","1",NA
"260008","img/object_images/glasses07.jpg",NA,"img/object_images/hole_puncher01.jpg","1",NA,"1","1",NA,"1","0.526696600019932",NA,"0.363484699977562","1",NA,"1","1",NA,"1","1",NA,"1"
"260008","img/object_images/hole_puncher01.jpg","img/object_images/glasses07.jpg","img/object_images/jewelry09.jpg","1","1","1","1","1","1","0.363484699977562","0.526696600019932","0.495491899957415","1","1","1","1","1","1","1","1","1"
"260008","img/object_images/jewelry09.jpg","img/object_images/hole_puncher01.jpg","img/object_images/Sprayer01.jpg","1","1","1","1","1","0","0.495491899957415","0.363484699977562","0.39432169997599","1","1","1","1","1","1","1","1","1"
"260008","img/object_images/Sprayer01.jpg","img/object_images/jewelry09.jpg","img/object_images/tool08.jpg","1","1","1","0","1","0","0.39432169997599","0.495491899957415","0.313746399944648","1","1","1","1","1","1","1","1","1"
"260008","img/object_images/tool08.jpg","img/object_images/Sprayer01.jpg","img/object_images/pan01.jpg","1","1","1","0","0","1","0.313746399944648","0.39432169997599","0.414424000016879","1","1","1","1","1","1","1","1","1"
"260008","img/object_images/pan01.jpg","img/object_images/tool08.jpg","img/object_images/colander01.jpg","1","1","1","1","0","0","0.414424000016879","0.313746399944648","0.632120899972506","1","1","1","1","1","1","1","1","1"
"260008","img/object_images/colander01.jpg","img/object_images/pan01.jpg","img/object_images/projector01.jpg","1","1","1","0","1","0","0.632120899972506","0.414424000016879","0.58571169996867","1","1","1","1","1","1","1","1","1"
"260008","img/object_images/projector01.jpg","img/object_images/colander01.jpg","img/object_images/Traffic Sign 01.jpg","1","1","1","0","0","0","0.58571169996867","0.632120899972506","0.569240899989381","1","1","1","1","1","1","1","1","1"
"260008","img/object_images/Traffic Sign 01.jpg","img/object_images/projector01.jpg","img/object_images/fire_extinguisher01.jpg","1","1","1","0","0","0","0.569240899989381","0.58571169996867","0.489034500031266","1","1","1","1","1","1","1","1","1"
"260008","img/object_images/fire_extinguisher01.jpg","img/object_images/Traffic Sign 01.jpg","img/object_images/faucet01.jpg","1","1","0","0","0","0","0.489034500031266","0.569240899989381","0.329926299978979","1","1","1","1","1","1","1","1","1"
"260008","img/object_images/faucet01.jpg","img/object_images/fire_extinguisher01.jpg","img/object_images/lighter01.jpg","0","1","1","0","0","1","0.329926299978979","0.489034500031266","0.379770300001837","1","1","1","1","1","1","1","1","1"
"260008","img/object_images/lighter01.jpg","img/object_images/faucet01.jpg","img/object_images/yo_yo01.jpg","1","0","1","1","0","0","0.379770300001837","0.329926299978979","0.344138299988117","1","1","1","1","1","1","1","1","1"
"260008","img/object_images/yo_yo01.jpg","img/object_images/lighter01.jpg","img/object_images/bicycle_lock01.jpg","1","1","1","0","1","0","0.344138299988117","0.379770300001837","0.470942899992224","1","1","1","1","1","1","1","1","1"
"260008","img/object_images/bicycle_lock01.jpg","img/object_images/yo_yo01.jpg","img/object_images/gift_box04.jpg","1","1","0","0","0","0","0.470942899992224","0.344138299988117","0.377498000045307","1","1","1","1","1","1","1","1","1"
"260008","img/object_images/gift_box04.jpg","img/object_images/bicycle_lock01.jpg","img/object_images/exfoliater_brush01.jpg","0","1","1","0","0","0","0.377498000045307","0.470942899992224","0.486784700013231","1","1","1","1","1","1","1","1","1"
"260008","img/object_images/exfoliater_brush01.jpg","img/object_images/gift_box04.jpg","img/object_images/book01.jpg","1","0","1","0","0","1","0.486784700013231","0.377498000045307","0.854174999985844","1","1","1","1","1","1","1","1","1"
"260008","img/object_images/book01.jpg","img/object_images/exfoliater_brush01.jpg","img/object_images/glasses06.jpg","1","1","1","1","0","1","0.854174999985844","0.486784700013231","0.460209099983331","1","1","1","1","1","1","1","1","1"
"260008","img/object_images/glasses06.jpg","img/object_images/book01.jpg","img/object_images/cup03.jpg","1","1","1","1","1","1","0.460209099983331","0.854174999985844","0.400145600026008","1","1","1","1","1","1","1","1","1"
"260008","img/object_images/cup03.jpg","img/object_images/glasses06.jpg","img/object_images/basket02.jpg","1","1","1","1","1","0","0.400145600026008","0.460209099983331","0.65589930000715","1","1","1","1","1","1","1","1","1"
"260008","img/object_images/basket02.jpg","img/object_images/cup03.jpg","img/object_images/purse01.jpg","1","1","1","0","1","1","0.65589930000715","0.400145600026008","1.3643577999901","1","1","1","1","1","1","1","1","1"
"260008","img/object_images/purse01.jpg","img/object_images/basket02.jpg","img/object_images/handcuffs01.jpg","1","1","1","1","0","0","1.3643577999901","0.65589930000715","0.536169899976812","1","1","1","1","1","1","1","1","1"
"260008","img/object_images/handcuffs01.jpg","img/object_images/purse01.jpg","img/object_images/tray01.jpg","1","1","1","0","1","1","0.536169899976812","1.3643577999901","0.56993749999674","1","1","1","1","1","1","1","1","1"
"260008","img/object_images/tray01.jpg","img/object_images/handcuffs01.jpg","img/object_images/blanket01.jpg","1","1","1","1","0","1","0.56993749999674","0.536169899976812","0.468364899978042","1","1","1","1","1","1","1","1","1"
"260008","img/object_images/blanket01.jpg","img/object_images/tray01.jpg","img/object_images/Pottery01.jpg","1","1","0","1","1","0","0.468364899978042","0.56993749999674","0.327990300022066","1","1","1","1","1","1","1","1","1"
"260008","img/object_images/Pottery01.jpg","img/object_images/blanket01.jpg","img/object_images/ring03.jpg","0","1","1","0","1","1","0.327990300022066","0.468364899978042","0.431889200001024","1","1","1","1","1","1","1","1","1"
"260008","img/object_images/ring03.jpg","img/object_images/Pottery01.jpg","img/object_images/TrashCan02.jpg","1","0","1","1","0","1","0.431889200001024","0.327990300022066","0.947579800034873","1","1","1","1","1","1","1","1","1"
"260008","img/object_images/TrashCan02.jpg","img/object_images/ring03.jpg","img/object_images/tool07.jpg","1","1","1","1","1","0","0.947579800034873","0.431889200001024","0.590497500030324","1","1","1","1","1","1","1","1","1"
"260008","img/object_images/tool07.jpg","img/object_images/TrashCan02.jpg","img/object_images/cellphone02.jpg","1","1","1","0","1","1","0.590497500030324","0.947579800034873","0.699908500013407","1","1","1","1","1","1","1","1","1"
"260008","img/object_images/cellphone02.jpg","img/object_images/tool07.jpg","img/object_images/hair_clips01.jpg","1","1","1","1","0","1","0.699908500013407","0.590497500030324","0.615328799991403","1","1","1","1","1","1","1","1","1"
"260008","img/object_images/hair_clips01.jpg","img/object_images/cellphone02.jpg","img/object_images/Kitchen_Towel.jpg","1","1","1","1","1","0","0.615328799991403","0.699908500013407","0.676688100036699","1","1","1","1","1","1","1","1","1"
"260008","img/object_images/Kitchen_Towel.jpg","img/object_images/hair_clips01.jpg","img/object_images/speaker01.jpg","1","1","1","0","1","1","0.676688100036699","0.615328799991403","0.560977000044659","1","1","1","1","1","1","1","1","1"
"260008","img/object_images/speaker01.jpg","img/object_images/Kitchen_Towel.jpg",NA,"1","1",NA,"1","0",NA,"0.560977000044659","0.676688100036699",NA,"1","1",NA,"1","1",NA,"1","1",NA
"260008","img/object_images/keyboard02.jpg",NA,"img/object_images/stereo02.jpg","1",NA,"1","1",NA,"0","0.683136900013778",NA,"0.593002499954309","1",NA,"1","1",NA,"1","1",NA,"1"
"260008","img/object_images/stereo02.jpg","img/object_images/keyboard02.jpg","img/object_images/camera03.jpg","1","1","0","0","1","0","0.593002499954309","0.683136900013778","0.341584899986628","1","1","1","1","1","1","1","1","1"
"260008","img/object_images/camera03.jpg","img/object_images/stereo02.jpg","img/object_images/phone02.jpg","0","1","1","0","0","1","0.341584899986628","0.593002499954309","0.412444600020535","1","1","1","1","1","1","1","1","1"
"260008","img/object_images/phone02.jpg","img/object_images/camera03.jpg","img/object_images/blender02.jpg","1","0","1","1","0","1","0.412444600020535","0.341584899986628","0.457362299959641","1","1","1","1","1","1","1","1","1"
"260008","img/object_images/blender02.jpg","img/object_images/phone02.jpg","img/object_images/flashlight03.jpg","1","1","1","1","1","0","0.457362299959641","0.412444600020535","0.587655000039376","1","1","1","1","1","1","1","1","1"
"260008","img/object_images/flashlight03.jpg","img/object_images/blender02.jpg","img/object_images/car01.jpg","1","1","1","0","1","1","0.587655000039376","0.457362299959641","0.484475200006273","1","1","1","1","1","1","1","1","1"
"260008","img/object_images/car01.jpg","img/object_images/flashlight03.jpg","img/object_images/bottle07.jpg","1","1","1","1","0","1","0.484475200006273","0.587655000039376","0.481936700001825","1","1","1","1","1","1","1","1","1"
"260008","img/object_images/bottle07.jpg","img/object_images/car01.jpg","img/object_images/video_game01.jpg","1","1","1","1","1","1","0.481936700001825","0.484475200006273","0.39397779997671","1","1","1","1","1","1","1","1","1"
"260008","img/object_images/video_game01.jpg","img/object_images/bottle07.jpg","img/object_images/jacket04.jpg","1","1","1","1","1","0","0.39397779997671","0.481936700001825","0.441287800029386","1","1","1","1","1","1","1","1","1"
"260008","img/object_images/jacket04.jpg","img/object_images/video_game01.jpg","img/object_images/paper_cup02.jpg","1","1","1","0","1","1","0.441287800029386","0.39397779997671","0.421839199960232","1","1","1","1","1","1","1","1","1"
"260008","img/object_images/paper_cup02.jpg","img/object_images/jacket04.jpg","img/object_images/hand_grip_exerciser01.jpg","1","1","0","1","0","0","0.421839199960232","0.441287800029386","0.396781100018416","1","1","1","1","1","1","1","1","1"
"260008","img/object_images/hand_grip_exerciser01.jpg","img/object_images/paper_cup02.jpg","img/object_images/tool18.jpg","0","1","1","0","1","0","0.396781100018416","0.421839199960232","0.651936399983242","1","1","1","1","1","1","1","1","1"
"260008","img/object_images/tool18.jpg","img/object_images/hand_grip_exerciser01.jpg","img/object_images/gloves02.jpg","1","0","1","0","0","0","0.651936399983242","0.396781100018416","0.567766299995128","1","1","1","1","1","1","1","1","1"
"260008","img/object_images/gloves02.jpg","img/object_images/tool18.jpg","img/object_images/curtain02.jpg","1","1","1","0","0","0","0.567766299995128","0.651936399983242","0.619089399988297","1","1","1","1","1","1","1","1","1"
"260008","img/object_images/curtain02.jpg","img/object_images/gloves02.jpg","img/object_images/hoverboard01.jpg","1","1","1","0","0","0","0.619089399988297","0.567766299995128","0.489509300037753","1","1","1","1","1","1","1","1","1"
"260008","img/object_images/hoverboard01.jpg","img/object_images/curtain02.jpg","img/object_images/mail_box01.jpg","1","1","1","0","0","0","0.489509300037753","0.619089399988297","0.494550799950957","1","1","1","1","1","1","1","1","1"
"260008","img/object_images/mail_box01.jpg","img/object_images/hoverboard01.jpg","img/object_images/backpack01.jpg","1","1","0","0","0","0","0.494550799950957","0.489509300037753","0.439870500005782","1","1","1","1","1","1","1","1","1"
"260008","img/object_images/backpack01.jpg","img/object_images/mail_box01.jpg","img/object_images/basket04.jpg","0","1","1","0","0","1","0.439870500005782","0.494550799950957","0.58356639998965","1","1","1","1","1","1","1","1","1"
"260008","img/object_images/basket04.jpg","img/object_images/backpack01.jpg","img/object_images/knife02.jpg","1","0","1","1","0","0","0.58356639998965","0.439870500005782","0.591519499954302","1","1","1","1","1","1","1","1","1"
"260008","img/object_images/knife02.jpg","img/object_images/basket04.jpg","img/object_images/remover01.jpg","1","1","1","0","1","1","0.591519499954302","0.58356639998965","0.410894600034226","1","1","1","1","1","1","1","1","1"
"260008","img/object_images/remover01.jpg","img/object_images/knife02.jpg","img/object_images/remote_controller01.jpg","1","1","1","1","0","1","0.410894600034226","0.591519499954302","0.582822299969848","1","1","1","1","1","1","1","1","1"
"260008","img/object_images/remote_controller01.jpg","img/object_images/remover01.jpg","img/object_images/kite01.jpg","1","1","1","1","1","1","0.582822299969848","0.410894600034226","0.475267000030726","1","1","1","1","1","1","1","1","1"
"260008","img/object_images/kite01.jpg","img/object_images/remote_controller01.jpg","img/object_images/knit03.jpg","1","1","1","1","1","1","0.475267000030726","0.582822299969848","0.445859199971892","1","1","1","1","1","1","1","1","1"
"260008","img/object_images/knit03.jpg","img/object_images/kite01.jpg","img/object_images/toy08.jpg","1","1","1","1","1","0","0.445859199971892","0.475267000030726","0.489394499978516","1","1","1","1","1","1","1","1","1"
"260008","img/object_images/toy08.jpg","img/object_images/knit03.jpg","img/object_images/knit04.jpg","1","1","1","0","1","1","0.489394499978516","0.445859199971892","0.570914199983235","1","1","1","1","1","1","1","1","1"
"260008","img/object_images/knit04.jpg","img/object_images/toy08.jpg","img/object_images/Statue01.jpg","1","1","1","1","0","1","0.570914199983235","0.489394499978516","0.494046700012404","1","1","1","1","1","1","1","1","1"
"260008","img/object_images/Statue01.jpg","img/object_images/knit04.jpg","img/object_images/sponge03.jpg","1","1","1","1","1","1","0.494046700012404","0.570914199983235","0.53071949997684","1","1","1","1","1","1","1","1","1"
"260008","img/object_images/sponge03.jpg","img/object_images/Statue01.jpg","img/object_images/shower_head01.jpg","1","1","1","1","1","1","0.53071949997684","0.494046700012404","0.416378199995961","1","1","1","1","1","1","1","1","1"
"260008","img/object_images/shower_head01.jpg","img/object_images/sponge03.jpg","img/object_images/boat04.jpg","1","1","1","1","1","0","0.416378199995961","0.53071949997684","0.441504399990663","1","1","1","1","1","1","1","1","1"
"260008","img/object_images/boat04.jpg","img/object_images/shower_head01.jpg","img/object_images/dresser03.jpg","1","1","1","0","1","0","0.441504399990663","0.416378199995961","0.690679399995133","1","1","1","1","1","1","1","1","1"
"260008","img/object_images/dresser03.jpg","img/object_images/boat04.jpg","img/object_images/matches02.jpg","1","1","1","0","0","0","0.690679399995133","0.441504399990663","0.547863599960692","1","1","1","1","1","1","1","1","1"
"260008","img/object_images/matches02.jpg","img/object_images/dresser03.jpg",NA,"1","1",NA,"0","0",NA,"0.547863599960692","0.690679399995133",NA,"1","1",NA,"1","1",NA,"1","1",NA
