"participant_id","current_trial_object","pre_trial_object","post_trial_object","current_trial_accuracy","pre_trial_accuracy","post_trial_accuracy","current_trial_congruency","pre_trial_congruency","post_trial_congruency","current_trial_rt","pre_trial_rt","post_trial_rt","current_trial_responded","pre_trial_responded","post_trial_responded","current_trial_legitResponse","pre_trial_legitResponse","post_trial_legitResponse","current_trial_resp_nums","pre_trial_resp_nums","post_trial_resp_nums"
"260021","img/object_images/stove01.jpg",NA,"img/object_images/pitcher05.jpg","1",NA,"1","0",NA,"0","0.923852599982638",NA,"1.33568800002104","1",NA,"1","1",NA,"1","1",NA,"1"
"260021","img/object_images/pitcher05.jpg","img/object_images/stove01.jpg","img/object_images/backpack03.jpg","1","1","1","0","0","1","1.33568800002104","0.923852599982638","0.646566200011875","1","1","1","1","1","1","1","1","1"
"260021","img/object_images/backpack03.jpg","img/object_images/pitcher05.jpg","img/object_images/ball02.jpg","1","1","1","1","0","1","0.646566200011875","1.33568800002104","0.587819100008346","1","1","1","1","1","1","1","1","1"
"260021","img/object_images/ball02.jpg","img/object_images/backpack03.jpg","img/object_images/Lint_Roller02.jpg","1","1","1","1","1","0","0.587819100008346","0.646566200011875","0.671445299987681","1","1","1","1","1","1","1","1","1"
"260021","img/object_images/Lint_Roller02.jpg","img/object_images/ball02.jpg","img/object_images/spatula02.jpg","1","1","1","0","1","1","0.671445299987681","0.587819100008346","0.579503200016916","1","1","1","1","1","1","1","1","1"
"260021","img/object_images/spatula02.jpg","img/object_images/Lint_Roller02.jpg","img/object_images/trash_can03.jpg","1","1","1","1","0","1","0.579503200016916","0.671445299987681","0.670679999981076","1","1","1","1","1","1","1","1","1"
"260021","img/object_images/trash_can03.jpg","img/object_images/spatula02.jpg","img/object_images/helmet02.jpg","1","1","1","1","1","0","0.670679999981076","0.579503200016916","0.835858699982055","1","1","1","1","1","1","1","1","1"
"260021","img/object_images/helmet02.jpg","img/object_images/trash_can03.jpg","img/object_images/fan04.jpg","1","1","1","0","1","0","0.835858699982055","0.670679999981076","0.804621800023597","1","1","1","1","1","1","1","1","1"
"260021","img/object_images/fan04.jpg","img/object_images/helmet02.jpg","img/object_images/vase01.jpg","1","1","1","0","0","0","0.804621800023597","0.835858699982055","1.87604210001882","1","1","1","1","1","1","1","1","1"
"260021","img/object_images/vase01.jpg","img/object_images/fan04.jpg","img/object_images/chair02.jpg","1","1","1","0","0","1","1.87604210001882","0.804621800023597","0.775944299995899","1","1","1","1","1","1","1","1","1"
"260021","img/object_images/chair02.jpg","img/object_images/vase01.jpg","img/object_images/trash_can05.jpg","1","1","1","1","0","1","0.775944299995899","1.87604210001882","0.695174599997699","1","1","1","1","1","1","1","1","1"
"260021","img/object_images/trash_can05.jpg","img/object_images/chair02.jpg","img/object_images/hair_dryer01.jpg","1","1","1","1","1","0","0.695174599997699","0.775944299995899","0.686609799973667","1","1","1","1","1","1","1","1","1"
"260021","img/object_images/hair_dryer01.jpg","img/object_images/trash_can05.jpg","img/object_images/microphone03.jpg","1","1","1","0","1","1","0.686609799973667","0.695174599997699","0.63327410002239","1","1","1","1","1","1","1","1","1"
"260021","img/object_images/microphone03.jpg","img/object_images/hair_dryer01.jpg","img/object_images/hair_brush02.jpg","1","1","1","1","0","0","0.63327410002239","0.686609799973667","0.7695878999657","1","1","1","1","1","1","1","1","1"
"260021","img/object_images/hair_brush02.jpg","img/object_images/microphone03.jpg","img/object_images/bucket02.jpg","1","1","1","0","1","1","0.7695878999657","0.63327410002239","0.654214899986982","1","1","1","1","1","1","1","1","1"
"260021","img/object_images/bucket02.jpg","img/object_images/hair_brush02.jpg","img/object_images/laptop03.jpg","1","1","1","1","0","1","0.654214899986982","0.7695878999657","0.719795199984219","1","1","1","1","1","1","1","1","1"
"260021","img/object_images/laptop03.jpg","img/object_images/bucket02.jpg","img/object_images/accardion01.jpg","1","1","1","1","1","1","0.719795199984219","0.654214899986982","0.610656800039578","1","1","1","1","1","1","1","1","1"
"260021","img/object_images/accardion01.jpg","img/object_images/laptop03.jpg","img/object_images/surf_board01.jpg","1","1","1","1","1","1","0.610656800039578","0.719795199984219","0.731229800032452","1","1","1","1","1","1","1","1","1"
"260021","img/object_images/surf_board01.jpg","img/object_images/accardion01.jpg","img/object_images/toy05.jpg","1","1","1","1","1","0","0.731229800032452","0.610656800039578","0.63023329997668","1","1","1","1","1","1","1","1","1"
"260021","img/object_images/toy05.jpg","img/object_images/surf_board01.jpg","img/object_images/gift_box05.jpg","1","1","1","0","1","0","0.63023329997668","0.731229800032452","0.838925099989865","1","1","1","1","1","1","1","1","1"
"260021","img/object_images/gift_box05.jpg","img/object_images/toy05.jpg","img/object_images/combs01.jpg","1","1","1","0","0","1","0.838925099989865","0.63023329997668","0.635779700009152","1","1","1","1","1","1","1","1","1"
"260021","img/object_images/combs01.jpg","img/object_images/gift_box05.jpg","img/object_images/lock01.jpg","1","1","1","1","0","0","0.635779700009152","0.838925099989865","1.3545582999941","1","1","1","1","1","1","1","1","1"
"260021","img/object_images/lock01.jpg","img/object_images/combs01.jpg","img/object_images/jewel03.jpg","1","1","1","0","1","1","1.3545582999941","0.635779700009152","0.93737770000007","1","1","1","1","1","1","1","1","1"
"260021","img/object_images/jewel03.jpg","img/object_images/lock01.jpg","img/object_images/laptop01.jpg","1","1","1","1","0","0","0.93737770000007","1.3545582999941","1.11551929998677","1","1","1","1","1","1","1","1","1"
"260021","img/object_images/laptop01.jpg","img/object_images/jewel03.jpg","img/object_images/towels01.jpg","1","1","1","0","1","0","1.11551929998677","0.93737770000007","0.720577899948694","1","1","1","1","1","1","1","1","1"
"260021","img/object_images/towels01.jpg","img/object_images/laptop01.jpg","img/object_images/Vest02.jpg","1","1","1","0","0","0","0.720577899948694","1.11551929998677","0.594846500025596","1","1","1","1","1","1","1","1","1"
"260021","img/object_images/Vest02.jpg","img/object_images/towels01.jpg","img/object_images/chess_piece01.jpg","1","1","1","0","0","0","0.594846500025596","0.720577899948694","0.811774000001606","1","1","1","1","1","1","1","1","1"
"260021","img/object_images/chess_piece01.jpg","img/object_images/Vest02.jpg","img/object_images/calculator01.jpg","1","1","1","0","0","1","0.811774000001606","0.594846500025596","0.668301100027747","1","1","1","1","1","1","1","1","1"
"260021","img/object_images/calculator01.jpg","img/object_images/chess_piece01.jpg","img/object_images/shoes08.jpg","1","1","1","1","0","1","0.668301100027747","0.811774000001606","0.70571149996249","1","1","1","1","1","1","1","1","1"
"260021","img/object_images/shoes08.jpg","img/object_images/calculator01.jpg","img/object_images/robe01.jpg","1","1","1","1","1","1","0.70571149996249","0.668301100027747","0.68852040002821","1","1","1","1","1","1","1","1","1"
"260021","img/object_images/robe01.jpg","img/object_images/shoes08.jpg","img/object_images/umbrella01.jpg","1","1","1","1","1","0","0.68852040002821","0.70571149996249","0.654780199984089","1","1","1","1","1","1","1","1","1"
"260021","img/object_images/umbrella01.jpg","img/object_images/robe01.jpg",NA,"1","1",NA,"0","1",NA,"0.654780199984089","0.68852040002821",NA,"1","1",NA,"1","1",NA,"1","1",NA
"260021","img/object_images/stereo02.jpg",NA,"img/object_images/hand_grip_exerciser01.jpg","0",NA,"1","0",NA,"0","0.56724150001537",NA,"0.662541800003964","1",NA,"1","1",NA,"1","2",NA,"1"
"260021","img/object_images/hand_grip_exerciser01.jpg","img/object_images/stereo02.jpg","img/object_images/knife02.jpg","1","0","1","0","0","0","0.662541800003964","0.56724150001537","0.509230299969204","1","1","1","1","1","1","1","2","1"
"260021","img/object_images/knife02.jpg","img/object_images/hand_grip_exerciser01.jpg","img/object_images/knit03.jpg","1","1","1","0","0","1","0.509230299969204","0.662541800003964","0.55206990003353","1","1","1","1","1","1","1","1","1"
"260021","img/object_images/knit03.jpg","img/object_images/knife02.jpg","img/object_images/backpack01.jpg","1","1","1","1","0","0","0.55206990003353","0.509230299969204","0.493653899990022","1","1","1","1","1","1","1","1","1"
"260021","img/object_images/backpack01.jpg","img/object_images/knit03.jpg","img/object_images/flashlight03.jpg","1","1","1","0","1","0","0.493653899990022","0.55206990003353","0.475293700001203","1","1","1","1","1","1","1","1","1"
"260021","img/object_images/flashlight03.jpg","img/object_images/backpack01.jpg","img/object_images/blender02.jpg","1","1","1","0","0","1","0.475293700001203","0.493653899990022","0.39340479997918","1","1","1","1","1","1","1","1","1"
"260021","img/object_images/blender02.jpg","img/object_images/flashlight03.jpg","img/object_images/Statue01.jpg","1","1","0","1","0","1","0.39340479997918","0.475293700001203","0.473461900022812","1","1","1","1","1","1","1","1","2"
"260021","img/object_images/Statue01.jpg","img/object_images/blender02.jpg","img/object_images/tool18.jpg","0","1","0","1","1","0","0.473461900022812","0.39340479997918","0.983271100034472","1","1","1","1","1","1","2","1","1"
"260021","img/object_images/tool18.jpg","img/object_images/Statue01.jpg","img/object_images/curtain02.jpg","0","0","1","0","1","0","0.983271100034472","0.473461900022812","1.55680900003063","1","1","1","1","1","1","1","2","1"
"260021","img/object_images/curtain02.jpg","img/object_images/tool18.jpg","img/object_images/mail_box01.jpg","1","0","1","0","0","0","1.55680900003063","0.983271100034472","0.659578499966301","1","1","1","1","1","1","1","1","1"
"260021","img/object_images/mail_box01.jpg","img/object_images/curtain02.jpg","img/object_images/sponge03.jpg","1","1","1","0","0","1","0.659578499966301","1.55680900003063","0.544659000006504","1","1","1","1","1","1","1","1","1"
"260021","img/object_images/sponge03.jpg","img/object_images/mail_box01.jpg","img/object_images/basket04.jpg","1","1","1","1","0","1","0.544659000006504","0.659578499966301","0.51180320000276","1","1","1","1","1","1","1","1","1"
"260021","img/object_images/basket04.jpg","img/object_images/sponge03.jpg","img/object_images/remover01.jpg","1","1","1","1","1","1","0.51180320000276","0.544659000006504","0.550792600028217","1","1","1","1","1","1","1","1","1"
"260021","img/object_images/remover01.jpg","img/object_images/basket04.jpg","img/object_images/keyboard02.jpg","1","1","1","1","1","1","0.550792600028217","0.51180320000276","0.543821100029163","1","1","1","1","1","1","1","1","1"
"260021","img/object_images/keyboard02.jpg","img/object_images/remover01.jpg","img/object_images/toy08.jpg","1","1","1","1","1","0","0.543821100029163","0.550792600028217","0.724564099975396","1","1","1","1","1","1","1","1","1"
"260021","img/object_images/toy08.jpg","img/object_images/keyboard02.jpg","img/object_images/shower_head01.jpg","1","1","1","0","1","1","0.724564099975396","0.543821100029163","0.759806799993385","1","1","1","1","1","1","1","1","1"
"260021","img/object_images/shower_head01.jpg","img/object_images/toy08.jpg","img/object_images/camera03.jpg","1","1","1","1","0","0","0.759806799993385","0.724564099975396","0.603996899968479","1","1","1","1","1","1","1","1","1"
"260021","img/object_images/camera03.jpg","img/object_images/shower_head01.jpg","img/object_images/phone02.jpg","1","1","1","0","1","1","0.603996899968479","0.759806799993385","0.570237499952782","1","1","1","1","1","1","1","1","1"
"260021","img/object_images/phone02.jpg","img/object_images/camera03.jpg","img/object_images/car01.jpg","1","1","1","1","0","1","0.570237499952782","0.603996899968479","0.673015000007581","1","1","1","1","1","1","1","1","1"
"260021","img/object_images/car01.jpg","img/object_images/phone02.jpg","img/object_images/gloves02.jpg","1","1","1","1","1","0","0.673015000007581","0.570237499952782","0.54426539997803","1","1","1","1","1","1","1","1","1"
"260021","img/object_images/gloves02.jpg","img/object_images/car01.jpg","img/object_images/hoverboard01.jpg","1","1","1","0","1","0","0.54426539997803","0.673015000007581","0.707864400057588","1","1","1","1","1","1","1","1","1"
"260021","img/object_images/hoverboard01.jpg","img/object_images/gloves02.jpg","img/object_images/matches02.jpg","1","1","1","0","0","0","0.707864400057588","0.54426539997803","0.627542000031099","1","1","1","1","1","1","1","1","1"
"260021","img/object_images/matches02.jpg","img/object_images/hoverboard01.jpg","img/object_images/video_game01.jpg","1","1","1","0","0","1","0.627542000031099","0.707864400057588","0.606632500013802","1","1","1","1","1","1","1","1","1"
"260021","img/object_images/video_game01.jpg","img/object_images/matches02.jpg","img/object_images/kite01.jpg","1","1","1","1","0","1","0.606632500013802","0.627542000031099","0.566105100035202","1","1","1","1","1","1","1","1","1"
"260021","img/object_images/kite01.jpg","img/object_images/video_game01.jpg","img/object_images/bottle07.jpg","1","1","1","1","1","1","0.566105100035202","0.606632500013802","0.53294200001983","1","1","1","1","1","1","1","1","1"
"260021","img/object_images/bottle07.jpg","img/object_images/kite01.jpg","img/object_images/dresser03.jpg","1","1","1","1","1","0","0.53294200001983","0.566105100035202","0.434011500037741","1","1","1","1","1","1","1","1","1"
"260021","img/object_images/dresser03.jpg","img/object_images/bottle07.jpg","img/object_images/knit04.jpg","1","1","1","0","1","1","0.434011500037741","0.53294200001983","0.637277400004677","1","1","1","1","1","1","1","1","1"
"260021","img/object_images/knit04.jpg","img/object_images/dresser03.jpg","img/object_images/jacket04.jpg","1","1","1","1","0","0","0.637277400004677","0.434011500037741","0.56794420001097","1","1","1","1","1","1","1","1","1"
"260021","img/object_images/jacket04.jpg","img/object_images/knit04.jpg","img/object_images/remote_controller01.jpg","1","1","1","0","1","1","0.56794420001097","0.637277400004677","1.05074370000511","1","1","1","1","1","1","1","1","1"
"260021","img/object_images/remote_controller01.jpg","img/object_images/jacket04.jpg","img/object_images/boat04.jpg","1","1","1","1","0","0","1.05074370000511","0.56794420001097","0.70549880003091","1","1","1","1","1","1","1","1","1"
"260021","img/object_images/boat04.jpg","img/object_images/remote_controller01.jpg","img/object_images/paper_cup02.jpg","1","1","1","0","1","1","0.70549880003091","1.05074370000511","0.477498099964578","1","1","1","1","1","1","1","1","1"
"260021","img/object_images/paper_cup02.jpg","img/object_images/boat04.jpg",NA,"1","1",NA,"1","0",NA,"0.477498099964578","0.70549880003091",NA,"1","1",NA,"1","1",NA,"1","1",NA
"260021","img/object_images/dust_pan01.jpg",NA,"img/object_images/office_supplies01.jpg","1",NA,"1","1",NA,"1","0.6638977000257",NA,"0.550679599982686","1",NA,"1","1",NA,"1","1",NA,"1"
"260021","img/object_images/office_supplies01.jpg","img/object_images/dust_pan01.jpg","img/object_images/Candle_Holder01.jpg","1","1","0","1","1","0","0.550679599982686","0.6638977000257","0.839568199997302","1","1","1","1","1","1","1","1","1"
"260021","img/object_images/Candle_Holder01.jpg","img/object_images/office_supplies01.jpg","img/object_images/video_game02.jpg","0","1","1","0","1","1","0.839568199997302","0.550679599982686","0.375424699974246","1","1","1","1","1","1","1","1","1"
"260021","img/object_images/video_game02.jpg","img/object_images/Candle_Holder01.jpg","img/object_images/pen06.jpg","1","0","1","1","0","0","0.375424699974246","0.839568199997302","0.594618399976753","1","1","1","1","1","1","1","1","1"
"260021","img/object_images/pen06.jpg","img/object_images/video_game02.jpg","img/object_images/tool20.jpg","1","1","1","0","1","0","0.594618399976753","0.375424699974246","0.444452600029763","1","1","1","1","1","1","1","1","1"
"260021","img/object_images/tool20.jpg","img/object_images/pen06.jpg","img/object_images/glasses03.jpg","1","1","1","0","0","0","0.444452600029763","0.594618399976753","0.670020500023384","1","1","1","1","1","1","1","1","1"
"260021","img/object_images/glasses03.jpg","img/object_images/tool20.jpg","img/object_images/socks01.jpg","1","1","1","0","0","1","0.670020500023384","0.444452600029763","0.778655999980401","1","1","1","1","1","1","1","1","1"
"260021","img/object_images/socks01.jpg","img/object_images/glasses03.jpg","img/object_images/camera05.jpg","1","1","1","1","0","0","0.778655999980401","0.670020500023384","0.601415600045584","1","1","1","1","1","1","1","1","1"
"260021","img/object_images/camera05.jpg","img/object_images/socks01.jpg","img/object_images/razor02.jpg","1","1","1","0","1","1","0.601415600045584","0.778655999980401","0.526875000039581","1","1","1","1","1","1","1","1","1"
"260021","img/object_images/razor02.jpg","img/object_images/camera05.jpg","img/object_images/sign02.jpg","1","1","1","1","0","0","0.526875000039581","0.601415600045584","0.531238299969118","1","1","1","1","1","1","1","1","1"
"260021","img/object_images/sign02.jpg","img/object_images/razor02.jpg","img/object_images/bow_tie03.jpg","1","1","1","0","1","1","0.531238299969118","0.526875000039581","0.450948700017761","1","1","1","1","1","1","1","1","1"
"260021","img/object_images/bow_tie03.jpg","img/object_images/sign02.jpg","img/object_images/pan03.jpg","1","1","1","1","0","1","0.450948700017761","0.531238299969118","0.532408199971542","1","1","1","1","1","1","1","1","1"
"260021","img/object_images/pan03.jpg","img/object_images/bow_tie03.jpg","img/object_images/duster01.jpg","1","1","1","1","1","0","0.532408199971542","0.450948700017761","0.513446100056171","1","1","1","1","1","1","1","1","1"
"260021","img/object_images/duster01.jpg","img/object_images/pan03.jpg","img/object_images/board01.jpg","1","1","1","0","1","1","0.513446100056171","0.532408199971542","0.600942499993835","1","1","1","1","1","1","1","1","1"
"260021","img/object_images/board01.jpg","img/object_images/duster01.jpg","img/object_images/knife01.jpg","1","1","1","1","0","1","0.600942499993835","0.513446100056171","0.433575300034136","1","1","1","1","1","1","1","1","1"
"260021","img/object_images/knife01.jpg","img/object_images/board01.jpg","img/object_images/lemon_squeezer01.jpg","1","1","1","1","1","1","0.433575300034136","0.600942499993835","0.47352190001402","1","1","1","1","1","1","1","1","1"
"260021","img/object_images/lemon_squeezer01.jpg","img/object_images/knife01.jpg","img/object_images/tool13.jpg","1","1","1","1","1","1","0.47352190001402","0.433575300034136","0.449336900026537","1","1","1","1","1","1","1","1","1"
"260021","img/object_images/tool13.jpg","img/object_images/lemon_squeezer01.jpg","img/object_images/Confetti 01.jpg","1","1","0","1","1","0","0.449336900026537","0.47352190001402","0.441746399970725","1","1","1","1","1","1","1","1","1"
"260021","img/object_images/Confetti 01.jpg","img/object_images/tool13.jpg","img/object_images/hammer02.jpg","0","1","1","0","1","0","0.441746399970725","0.449336900026537","0.477123800024856","1","1","1","1","1","1","1","1","1"
"260021","img/object_images/hammer02.jpg","img/object_images/Confetti 01.jpg","img/object_images/candle02.jpg","1","0","1","0","0","0","0.477123800024856","0.441746399970725","0.566152299987152","1","1","1","1","1","1","1","1","1"
"260021","img/object_images/candle02.jpg","img/object_images/hammer02.jpg","img/object_images/hat13.jpg","1","1","1","0","0","1","0.566152299987152","0.477123800024856","0.406614699983038","1","1","1","1","1","1","1","1","1"
"260021","img/object_images/hat13.jpg","img/object_images/candle02.jpg","img/object_images/vase02.jpg","1","1","1","1","0","1","0.406614699983038","0.566152299987152","0.452254300005734","1","1","1","1","1","1","1","1","1"
"260021","img/object_images/vase02.jpg","img/object_images/hat13.jpg","img/object_images/spray_can01.jpg","1","1","0","1","1","0","0.452254300005734","0.406614699983038","0.472719700017478","1","1","1","1","1","1","1","1","1"
"260021","img/object_images/spray_can01.jpg","img/object_images/vase02.jpg","img/object_images/floss01.jpg","0","1","1","0","1","1","0.472719700017478","0.452254300005734","0.451456000038888","1","1","1","1","1","1","1","1","1"
"260021","img/object_images/floss01.jpg","img/object_images/spray_can01.jpg","img/object_images/perfume01.jpg","1","0","0","1","0","0","0.451456000038888","0.472719700017478","0.610433500027284","1","1","1","1","1","1","1","1","1"
"260021","img/object_images/perfume01.jpg","img/object_images/floss01.jpg","img/object_images/bag04.jpg","0","1","1","0","1","0","0.610433500027284","0.451456000038888","0.815060599998105","1","1","1","1","1","1","1","1","1"
"260021","img/object_images/bag04.jpg","img/object_images/perfume01.jpg","img/object_images/sink_filter01 (1).jpg","1","0","1","0","0","0","0.815060599998105","0.610433500027284","0.701989100023638","1","1","1","1","1","1","1","1","1"
"260021","img/object_images/sink_filter01 (1).jpg","img/object_images/bag04.jpg","img/object_images/hat09.jpg","1","1","1","0","0","0","0.701989100023638","0.815060599998105","0.726800500007812","1","1","1","1","1","1","1","1","1"
"260021","img/object_images/hat09.jpg","img/object_images/sink_filter01 (1).jpg","img/object_images/cup01.jpg","1","1","1","0","0","0","0.726800500007812","0.701989100023638","0.575301399978343","1","1","1","1","1","1","1","1","1"
"260021","img/object_images/cup01.jpg","img/object_images/hat09.jpg","img/object_images/ruler02.jpg","1","1","1","0","0","1","0.575301399978343","0.726800500007812","0.577278200013097","1","1","1","1","1","1","1","1","1"
"260021","img/object_images/ruler02.jpg","img/object_images/cup01.jpg","img/object_images/clipboard01.jpg","1","1","1","1","0","1","0.577278200013097","0.575301399978343","0.53131890000077","1","1","1","1","1","1","1","1","1"
"260021","img/object_images/clipboard01.jpg","img/object_images/ruler02.jpg",NA,"1","1",NA,"1","1",NA,"0.53131890000077","0.577278200013097",NA,"1","1",NA,"1","1",NA,"1","1",NA
"260021","img/object_images/toaster02.jpg",NA,"img/object_images/yarn02.jpg","0",NA,"1","1",NA,"0","0.494197399995755",NA,"0.977414700028021","1",NA,"1","1",NA,"1","1",NA,"1"
"260021","img/object_images/yarn02.jpg","img/object_images/toaster02.jpg","img/object_images/shoes10.jpg","1","0","1","0","1","0","0.977414700028021","0.494197399995755","0.656228700012434","1","1","1","1","1","1","1","1","1"
"260021","img/object_images/shoes10.jpg","img/object_images/yarn02.jpg","img/object_images/ribbon01.jpg","1","1","1","0","0","0","0.656228700012434","0.977414700028021","0.396061899955384","1","1","1","1","1","1","1","1","1"
"260021","img/object_images/ribbon01.jpg","img/object_images/shoes10.jpg","img/object_images/WitchHat02.jpg","1","1","0","0","0","1","0.396061899955384","0.656228700012434","0.494001400016714","1","1","1","1","1","1","1","1","1"
"260021","img/object_images/WitchHat02.jpg","img/object_images/ribbon01.jpg","img/object_images/screwdriver01.jpg","0","1","1","1","0","0","0.494001400016714","0.396061899955384","0.685093300009612","1","1","1","1","1","1","1","1","1"
"260021","img/object_images/screwdriver01.jpg","img/object_images/WitchHat02.jpg","img/object_images/cards01.jpg","1","0","1","0","1","0","0.685093300009612","0.494001400016714","0.59325059998082","1","1","1","1","1","1","1","1","1"
"260021","img/object_images/cards01.jpg","img/object_images/screwdriver01.jpg","img/object_images/razor01.jpg","1","1","1","0","0","0","0.59325059998082","0.685093300009612","0.524273499962874","1","1","1","1","1","1","1","1","1"
"260021","img/object_images/razor01.jpg","img/object_images/cards01.jpg","img/object_images/hair_brush05.jpg","1","1","1","0","0","1","0.524273499962874","0.59325059998082","0.478926999960095","1","1","1","1","1","1","1","1","1"
"260021","img/object_images/hair_brush05.jpg","img/object_images/razor01.jpg","img/object_images/tv01.jpg","1","1","1","1","0","0","0.478926999960095","0.524273499962874","0.49231930001406","1","1","1","1","1","1","1","1","1"
"260021","img/object_images/tv01.jpg","img/object_images/hair_brush05.jpg","img/object_images/rock03.jpg","1","1","1","0","1","0","0.49231930001406","0.478926999960095","0.488655299996026","1","1","1","1","1","1","1","1","1"
"260021","img/object_images/rock03.jpg","img/object_images/tv01.jpg","img/object_images/satellite01.jpg","1","1","1","0","0","0","0.488655299996026","0.49231930001406","0.615725500043482","1","1","1","1","1","1","1","1","1"
"260021","img/object_images/satellite01.jpg","img/object_images/rock03.jpg","img/object_images/bag06.jpg","1","1","1","0","0","1","0.615725500043482","0.488655299996026","0.447451199986972","1","1","1","1","1","1","1","1","1"
"260021","img/object_images/bag06.jpg","img/object_images/satellite01.jpg","img/object_images/binoculars03.jpg","1","1","1","1","0","1","0.447451199986972","0.615725500043482","0.640132099972107","1","1","1","1","1","1","1","1","1"
"260021","img/object_images/binoculars03.jpg","img/object_images/bag06.jpg","img/object_images/key02.jpg","1","1","1","1","1","1","0.640132099972107","0.447451199986972","0.422501900000498","1","1","1","1","1","1","1","1","1"
"260021","img/object_images/key02.jpg","img/object_images/binoculars03.jpg","img/object_images/jewel01.jpg","1","1","1","1","1","0","0.422501900000498","0.640132099972107","0.408499600016512","1","1","1","1","1","1","1","1","1"
"260021","img/object_images/jewel01.jpg","img/object_images/key02.jpg","img/object_images/lemon_squeezer02.jpg","1","1","1","0","1","1","0.408499600016512","0.422501900000498","0.422973199980334","1","1","1","1","1","1","1","1","1"
"260021","img/object_images/lemon_squeezer02.jpg","img/object_images/jewel01.jpg","img/object_images/shower_head03.jpg","1","1","1","1","0","1","0.422973199980334","0.408499600016512","0.520288200001232","1","1","1","1","1","1","1","1","1"
"260021","img/object_images/shower_head03.jpg","img/object_images/lemon_squeezer02.jpg","img/object_images/cutting_board01.jpg","1","1","1","1","1","1","0.520288200001232","0.422973199980334","0.612372200004756","1","1","1","1","1","1","1","1","1"
"260021","img/object_images/cutting_board01.jpg","img/object_images/shower_head03.jpg","img/object_images/ice_tray03.jpg","1","1","1","1","1","1","0.612372200004756","0.520288200001232","0.648864399990998","1","1","1","1","1","1","1","1","1"
"260021","img/object_images/ice_tray03.jpg","img/object_images/cutting_board01.jpg","img/object_images/car03.jpg","1","1","1","1","1","0","0.648864399990998","0.612372200004756","0.850774699996691","1","1","1","1","1","1","1","1","1"
"260021","img/object_images/car03.jpg","img/object_images/ice_tray03.jpg","img/object_images/MeasuringCup01.jpg","1","1","1","0","1","1","0.850774699996691","0.648864399990998","0.694377800042275","1","1","1","1","1","1","1","1","1"
"260021","img/object_images/MeasuringCup01.jpg","img/object_images/car03.jpg","img/object_images/slinky_toy01.jpg","1","1","1","1","0","1","0.694377800042275","0.850774699996691","0.616687699977774","1","1","1","1","1","1","1","1","1"
"260021","img/object_images/slinky_toy01.jpg","img/object_images/MeasuringCup01.jpg","img/object_images/dress03.jpg","1","1","1","1","1","1","0.616687699977774","0.694377800042275","0.617024300037883","1","1","1","1","1","1","1","1","1"
"260021","img/object_images/dress03.jpg","img/object_images/slinky_toy01.jpg","img/object_images/ladle02.jpg","1","1","1","1","1","0","0.617024300037883","0.616687699977774","0.493028400000185","1","1","1","1","1","1","1","1","1"
"260021","img/object_images/ladle02.jpg","img/object_images/dress03.jpg","img/object_images/belt01.jpg","1","1","1","0","1","0","0.493028400000185","0.617024300037883","0.665722100005951","1","1","1","1","1","1","1","1","1"
"260021","img/object_images/belt01.jpg","img/object_images/ladle02.jpg","img/object_images/jewelry07.jpg","1","1","1","0","0","1","0.665722100005951","0.493028400000185","0.573454800003674","1","1","1","1","1","1","1","1","1"
"260021","img/object_images/jewelry07.jpg","img/object_images/belt01.jpg","img/object_images/chair04.jpg","1","1","1","1","0","1","0.573454800003674","0.665722100005951","0.698997799947392","1","1","1","1","1","1","1","1","1"
"260021","img/object_images/chair04.jpg","img/object_images/jewelry07.jpg","img/object_images/fan05.jpg","1","1","1","1","1","0","0.698997799947392","0.573454800003674","0.986742999986745","1","1","1","1","1","1","1","1","1"
"260021","img/object_images/fan05.jpg","img/object_images/chair04.jpg","img/object_images/tool11.jpg","1","1","1","0","1","1","0.986742999986745","0.698997799947392","0.788334099983331","1","1","1","1","1","1","1","1","1"
"260021","img/object_images/tool11.jpg","img/object_images/fan05.jpg","img/object_images/mask01.jpg","1","1","1","1","0","0","0.788334099983331","0.986742999986745","0.577333000022918","1","1","1","1","1","1","1","1","1"
"260021","img/object_images/mask01.jpg","img/object_images/tool11.jpg","img/object_images/car04.jpg","1","1","1","0","1","0","0.577333000022918","0.788334099983331","0.785582899989095","1","1","1","1","1","1","1","1","1"
"260021","img/object_images/car04.jpg","img/object_images/mask01.jpg",NA,"1","1",NA,"0","0",NA,"0.785582899989095","0.577333000022918",NA,"1","1",NA,"1","1",NA,"1","1",NA
"260021","img/object_images/box03.jpg",NA,"img/object_images/drone01.jpg","1",NA,"1","0",NA,"1","0.969938600028399",NA,"0.468729000014719","1",NA,"1","1",NA,"1","1",NA,"1"
"260021","img/object_images/drone01.jpg","img/object_images/box03.jpg","img/object_images/toy01.jpg","1","1","1","1","0","1","0.468729000014719","0.969938600028399","0.573989199998323","1","1","1","1","1","1","1","1","1"
"260021","img/object_images/toy01.jpg","img/object_images/drone01.jpg","img/object_images/hair_brush01.jpg","1","1","1","1","1","1","0.573989199998323","0.468729000014719","0.434933600015938","1","1","1","1","1","1","1","1","1"
"260021","img/object_images/hair_brush01.jpg","img/object_images/toy01.jpg","img/object_images/pitcher09.jpg","1","1","1","1","1","1","0.434933600015938","0.573989199998323","0.430241400026716","1","1","1","1","1","1","1","1","1"
"260021","img/object_images/pitcher09.jpg","img/object_images/hair_brush01.jpg","img/object_images/mail_box02.jpg","1","1","1","1","1","1","0.430241400026716","0.434933600015938","0.56200199999148","1","1","1","1","1","1","1","1","1"
"260021","img/object_images/mail_box02.jpg","img/object_images/pitcher09.jpg","img/object_images/blender01.jpg","1","1","0","1","1","0","0.56200199999148","0.430241400026716","0.492356600007042","1","1","1","1","1","1","1","1","1"
"260021","img/object_images/blender01.jpg","img/object_images/mail_box02.jpg","img/object_images/soap03.jpg","0","1","1","0","1","0","0.492356600007042","0.56200199999148","0.754587500006892","1","1","1","1","1","1","1","1","1"
"260021","img/object_images/soap03.jpg","img/object_images/blender01.jpg","img/object_images/tool06.jpg","1","0","1","0","0","0","0.754587500006892","0.492356600007042","0.659093199996278","1","1","1","1","1","1","1","1","1"
"260021","img/object_images/tool06.jpg","img/object_images/soap03.jpg","img/object_images/scarf01.jpg","1","1","1","0","0","1","0.659093199996278","0.754587500006892","0.458476100000553","1","1","1","1","1","1","1","1","1"
"260021","img/object_images/scarf01.jpg","img/object_images/tool06.jpg","img/object_images/chain01.jpg","1","1","0","1","0","0","0.458476100000553","0.659093199996278","0.394423000048846","1","1","1","1","1","1","1","1","1"
"260021","img/object_images/chain01.jpg","img/object_images/scarf01.jpg","img/object_images/tripod01.jpg","0","1","1","0","1","1","0.394423000048846","0.458476100000553","0.490354999958072","1","1","1","1","1","1","1","1","1"
"260021","img/object_images/tripod01.jpg","img/object_images/chain01.jpg","img/object_images/chair06.jpg","1","0","1","1","0","0","0.490354999958072","0.394423000048846","0.654031099984422","1","1","1","1","1","1","1","1","1"
"260021","img/object_images/chair06.jpg","img/object_images/tripod01.jpg","img/object_images/couch01.jpg","1","1","1","0","1","0","0.654031099984422","0.490354999958072","0.485082300030626","1","1","1","1","1","1","1","1","1"
"260021","img/object_images/couch01.jpg","img/object_images/chair06.jpg","img/object_images/pen01.jpg","1","1","1","0","0","0","0.485082300030626","0.654031099984422","0.601111500000115","1","1","1","1","1","1","1","1","1"
"260021","img/object_images/pen01.jpg","img/object_images/couch01.jpg","img/object_images/computer_mouse02.jpg","1","1","1","0","0","0","0.601111500000115","0.485082300030626","0.686603499983903","1","1","1","1","1","1","1","1","1"
"260021","img/object_images/computer_mouse02.jpg","img/object_images/pen01.jpg","img/object_images/floss02.jpg","1","1","1","0","0","1","0.686603499983903","0.601111500000115","0.437739199958742","1","1","1","1","1","1","1","1","1"
"260021","img/object_images/floss02.jpg","img/object_images/computer_mouse02.jpg","img/object_images/rock02.jpg","1","1","1","1","0","0","0.437739199958742","0.686603499983903","0.533495600044262","1","1","1","1","1","1","1","1","1"
"260021","img/object_images/rock02.jpg","img/object_images/floss02.jpg","img/object_images/egg_slicer01.jpg","1","1","1","0","1","1","0.533495600044262","0.437739199958742","0.50378119997913","1","1","1","1","1","1","1","1","1"
"260021","img/object_images/egg_slicer01.jpg","img/object_images/rock02.jpg","img/object_images/book02.jpg","1","1","1","1","0","1","0.50378119997913","0.533495600044262","0.427182300016284","1","1","1","1","1","1","1","1","1"
"260021","img/object_images/book02.jpg","img/object_images/egg_slicer01.jpg","img/object_images/fork02.jpg","1","1","1","1","1","0","0.427182300016284","0.50378119997913","0.522008500003722","1","1","1","1","1","1","1","1","1"
"260021","img/object_images/fork02.jpg","img/object_images/book02.jpg","img/object_images/computer_mouse01.jpg","1","1","1","0","1","1","0.522008500003722","0.427182300016284","0.470355099998415","1","1","1","1","1","1","1","1","1"
"260021","img/object_images/computer_mouse01.jpg","img/object_images/fork02.jpg","img/object_images/Violin01.jpg","1","1","0","1","0","0","0.470355099998415","0.522008500003722","0.459109599993099","1","1","1","1","1","1","1","1","1"
"260021","img/object_images/Violin01.jpg","img/object_images/computer_mouse01.jpg","img/object_images/skate_board01.jpg","0","1","1","0","1","0","0.459109599993099","0.470355099998415","0.660441000014544","1","1","1","1","1","1","1","1","1"
"260021","img/object_images/skate_board01.jpg","img/object_images/Violin01.jpg","img/object_images/Trowel01.jpg","1","0","1","0","0","0","0.660441000014544","0.459109599993099","0.653279800026212","1","1","1","1","1","1","1","1","1"
"260021","img/object_images/Trowel01.jpg","img/object_images/skate_board01.jpg","img/object_images/clip04.jpg","1","1","1","0","0","1","0.653279800026212","0.660441000014544","0.585550099960528","1","1","1","1","1","1","1","1","1"
"260021","img/object_images/clip04.jpg","img/object_images/Trowel01.jpg","img/object_images/toothbrush01.jpg","1","1","1","1","0","0","0.585550099960528","0.653279800026212","0.498267799965106","1","1","1","1","1","1","1","1","1"
"260021","img/object_images/toothbrush01.jpg","img/object_images/clip04.jpg","img/object_images/video_game03.jpg","1","1","1","0","1","1","0.498267799965106","0.585550099960528","0.491596499981824","1","1","1","1","1","1","1","1","1"
"260021","img/object_images/video_game03.jpg","img/object_images/toothbrush01.jpg","img/object_images/shoes12.jpg","1","1","1","1","0","1","0.491596499981824","0.498267799965106","0.455524800054263","1","1","1","1","1","1","1","1","1"
"260021","img/object_images/shoes12.jpg","img/object_images/video_game03.jpg","img/object_images/airfryer02.jpg","1","1","1","1","1","1","0.455524800054263","0.491596499981824","0.423338100023102","1","1","1","1","1","1","1","1","1"
"260021","img/object_images/airfryer02.jpg","img/object_images/shoes12.jpg","img/object_images/bag_pipes01.jpg","1","1","0","1","1","1","0.423338100023102","0.455524800054263","0.388745000003837","1","1","1","1","1","1","1","1","1"
"260021","img/object_images/bag_pipes01.jpg","img/object_images/airfryer02.jpg","img/object_images/bell03.jpg","0","1","0","1","1","0","0.388745000003837","0.423338100023102","0.647520800004713","1","1","1","1","1","1","1","1","1"
"260021","img/object_images/bell03.jpg","img/object_images/bag_pipes01.jpg",NA,"0","0",NA,"0","1",NA,"0.647520800004713","0.388745000003837",NA,"1","1",NA,"1","1",NA,"1","1",NA
"260021","img/object_images/tool08.jpg",NA,"img/object_images/colander01.jpg","1",NA,"0","0",NA,"0","0.796533799963072",NA,"0.436657099984586","1",NA,"1","1",NA,"1","1",NA,"2"
"260021","img/object_images/colander01.jpg","img/object_images/tool08.jpg","img/object_images/Pottery01.jpg","0","1","1","0","0","0","0.436657099984586","0.796533799963072","0.729115699999966","1","1","1","1","1","1","2","1","1"
"260021","img/object_images/Pottery01.jpg","img/object_images/colander01.jpg","img/object_images/speaker01.jpg","1","0","0","0","0","1","0.729115699999966","0.436657099984586","0.474303200026043","1","1","1","1","1","1","1","2","1"
"260021","img/object_images/speaker01.jpg","img/object_images/Pottery01.jpg","img/object_images/basket02.jpg","0","1","1","1","0","0","0.474303200026043","0.729115699999966","0.41598700004397","1","1","1","1","1","1","1","1","1"
"260021","img/object_images/basket02.jpg","img/object_images/speaker01.jpg","img/object_images/yo_yo01.jpg","1","0","1","0","1","0","0.41598700004397","0.474303200026043","0.409803999995347","1","1","1","1","1","1","1","1","1"
"260021","img/object_images/yo_yo01.jpg","img/object_images/basket02.jpg","img/object_images/ring03.jpg","1","1","1","0","0","1","0.409803999995347","0.41598700004397","0.549128799990285","1","1","1","1","1","1","1","1","1"
"260021","img/object_images/ring03.jpg","img/object_images/yo_yo01.jpg","img/object_images/fire_extinguisher01.jpg","1","1","1","1","0","0","0.549128799990285","0.409803999995347","0.68568910000613","1","1","1","1","1","1","1","1","1"
"260021","img/object_images/fire_extinguisher01.jpg","img/object_images/ring03.jpg","img/object_images/jewelry09.jpg","1","1","1","0","1","1","0.68568910000613","0.549128799990285","0.424583400017582","1","1","1","1","1","1","1","1","1"
"260021","img/object_images/jewelry09.jpg","img/object_images/fire_extinguisher01.jpg","img/object_images/Sprayer01.jpg","1","1","1","1","0","0","0.424583400017582","0.68568910000613","0.428748800011817","1","1","1","1","1","1","1","1","1"
"260021","img/object_images/Sprayer01.jpg","img/object_images/jewelry09.jpg","img/object_images/cup03.jpg","1","1","1","0","1","1","0.428748800011817","0.424583400017582","0.510780400014482","1","1","1","1","1","1","1","1","1"
"260021","img/object_images/cup03.jpg","img/object_images/Sprayer01.jpg","img/object_images/lighter01.jpg","1","1","1","1","0","1","0.510780400014482","0.428748800011817","0.47625310003059","1","1","1","1","1","1","1","1","1"
"260021","img/object_images/lighter01.jpg","img/object_images/cup03.jpg","img/object_images/Kitchen_Towel.jpg","1","1","0","1","1","0","0.47625310003059","0.510780400014482","0.318317600002047","1","1","1","1","1","1","1","1","1"
"260021","img/object_images/Kitchen_Towel.jpg","img/object_images/lighter01.jpg","img/object_images/purse01.jpg","0","1","1","0","1","1","0.318317600002047","0.47625310003059","1.27716719999444","1","1","1","1","1","1","1","1","1"
"260021","img/object_images/purse01.jpg","img/object_images/Kitchen_Towel.jpg","img/object_images/Traffic Sign 01.jpg","1","0","1","1","0","0","1.27716719999444","0.318317600002047","0.910649400029797","1","1","1","1","1","1","1","1","1"
"260021","img/object_images/Traffic Sign 01.jpg","img/object_images/purse01.jpg","img/object_images/hole_puncher01.jpg","1","1","1","0","1","1","0.910649400029797","1.27716719999444","0.564668000035454","1","1","1","1","1","1","1","1","1"
"260021","img/object_images/hole_puncher01.jpg","img/object_images/Traffic Sign 01.jpg","img/object_images/gift_box04.jpg","1","1","1","1","0","0","0.564668000035454","0.910649400029797","0.619484600028954","1","1","1","1","1","1","1","1","1"
"260021","img/object_images/gift_box04.jpg","img/object_images/hole_puncher01.jpg","img/object_images/glasses06.jpg","1","1","1","0","1","1","0.619484600028954","0.564668000035454","0.577355300018098","1","1","1","1","1","1","1","1","1"
"260021","img/object_images/glasses06.jpg","img/object_images/gift_box04.jpg","img/object_images/pan01.jpg","1","1","1","1","0","1","0.577355300018098","0.619484600028954","0.456920600030571","1","1","1","1","1","1","1","1","1"
"260021","img/object_images/pan01.jpg","img/object_images/glasses06.jpg","img/object_images/exfoliater_brush01.jpg","1","1","1","1","1","0","0.456920600030571","0.577355300018098","0.609032000007574","1","1","1","1","1","1","1","1","1"
"260021","img/object_images/exfoliater_brush01.jpg","img/object_images/pan01.jpg","img/object_images/bicycle_lock01.jpg","1","1","1","0","1","0","0.609032000007574","0.456920600030571","0.620845300029032","1","1","1","1","1","1","1","1","1"
"260021","img/object_images/bicycle_lock01.jpg","img/object_images/exfoliater_brush01.jpg","img/object_images/glasses07.jpg","1","1","1","0","0","1","0.620845300029032","0.609032000007574","0.479417899972759","1","1","1","1","1","1","1","1","1"
"260021","img/object_images/glasses07.jpg","img/object_images/bicycle_lock01.jpg","img/object_images/blanket01.jpg","1","1","1","1","0","1","0.479417899972759","0.620845300029032","0.582114499993622","1","1","1","1","1","1","1","1","1"
"260021","img/object_images/blanket01.jpg","img/object_images/glasses07.jpg","img/object_images/faucet01.jpg","1","1","1","1","1","0","0.582114499993622","0.479417899972759","0.683380000002217","1","1","1","1","1","1","1","1","1"
"260021","img/object_images/faucet01.jpg","img/object_images/blanket01.jpg","img/object_images/cellphone02.jpg","1","1","1","0","1","1","0.683380000002217","0.582114499993622","0.844379600021057","1","1","1","1","1","1","1","1","1"
"260021","img/object_images/cellphone02.jpg","img/object_images/faucet01.jpg","img/object_images/handcuffs01.jpg","1","1","0","1","0","0","0.844379600021057","0.683380000002217","0.517306599998847","1","1","1","1","1","1","1","1","1"
"260021","img/object_images/handcuffs01.jpg","img/object_images/cellphone02.jpg","img/object_images/hair_clips01.jpg","0","1","1","0","1","1","0.517306599998847","0.844379600021057","0.723146600008477","1","1","1","1","1","1","1","1","1"
"260021","img/object_images/hair_clips01.jpg","img/object_images/handcuffs01.jpg","img/object_images/projector01.jpg","1","0","1","1","0","0","0.723146600008477","0.517306599998847","0.720426699961536","1","1","1","1","1","1","1","1","1"
"260021","img/object_images/projector01.jpg","img/object_images/hair_clips01.jpg","img/object_images/TrashCan02.jpg","1","1","1","0","1","1","0.720426699961536","0.723146600008477","0.591292600031011","1","1","1","1","1","1","1","1","1"
"260021","img/object_images/TrashCan02.jpg","img/object_images/projector01.jpg","img/object_images/tray01.jpg","1","1","1","1","0","1","0.591292600031011","0.720426699961536","0.625093600014225","1","1","1","1","1","1","1","1","1"
"260021","img/object_images/tray01.jpg","img/object_images/TrashCan02.jpg","img/object_images/tool07.jpg","1","1","1","1","1","0","0.625093600014225","0.591292600031011","0.564293700037524","1","1","1","1","1","1","1","1","1"
"260021","img/object_images/tool07.jpg","img/object_images/tray01.jpg","img/object_images/book01.jpg","1","1","1","0","1","1","0.564293700037524","0.625093600014225","0.553420100011863","1","1","1","1","1","1","1","1","1"
"260021","img/object_images/book01.jpg","img/object_images/tool07.jpg",NA,"1","1",NA,"1","0",NA,"0.553420100011863","0.564293700037524",NA,"1","1",NA,"1","1",NA,"1","1",NA
"260021","img/object_images/water_gun01.jpg",NA,"img/object_images/badminton01.jpg","1",NA,"1","1",NA,"1","0.622341900016181",NA,"0.518223299994133","1",NA,"1","1",NA,"1","1",NA,"1"
"260021","img/object_images/badminton01.jpg","img/object_images/water_gun01.jpg","img/object_images/bottle06.jpg","1","1","0","1","1","0","0.518223299994133","0.622341900016181","0.479143199976534","1","1","1","1","1","1","1","1","2"
"260021","img/object_images/bottle06.jpg","img/object_images/badminton01.jpg","img/object_images/headset02.jpg","0","1","0","0","1","0","0.479143199976534","0.518223299994133","0.593801100039855","1","1","1","1","1","1","2","1","1"
"260021","img/object_images/headset02.jpg","img/object_images/bottle06.jpg","img/object_images/bucket01.jpg","0","0","1","0","0","1","0.593801100039855","0.479143199976534","1.04281160002574","1","1","1","1","1","1","1","2","1"
"260021","img/object_images/bucket01.jpg","img/object_images/headset02.jpg","img/object_images/piano03.jpg","1","0","1","1","0","0","1.04281160002574","0.593801100039855","0.72126770002069","1","1","1","1","1","1","1","1","1"
"260021","img/object_images/piano03.jpg","img/object_images/bucket01.jpg","img/object_images/egg_basket01.jpg","1","1","1","0","1","1","0.72126770002069","1.04281160002574","0.493266800011043","1","1","1","1","1","1","1","1","1"
"260021","img/object_images/egg_basket01.jpg","img/object_images/piano03.jpg","img/object_images/tennis_racket01.jpg","1","1","1","1","0","1","0.493266800011043","0.72126770002069","0.627680899982806","1","1","1","1","1","1","1","1","1"
"260021","img/object_images/tennis_racket01.jpg","img/object_images/egg_basket01.jpg","img/object_images/joystick03.jpg","1","1","1","1","1","1","0.627680899982806","0.493266800011043","0.403649299987592","1","1","1","1","1","1","1","1","1"
"260021","img/object_images/joystick03.jpg","img/object_images/tennis_racket01.jpg","img/object_images/nut_cracker01.jpg","1","1","1","1","1","1","0.403649299987592","0.627680899982806","0.615809400042053","1","1","1","1","1","1","1","1","1"
"260021","img/object_images/nut_cracker01.jpg","img/object_images/joystick03.jpg","img/object_images/shovel01.jpg","1","1","1","1","1","0","0.615809400042053","0.403649299987592","0.604927600012161","1","1","1","1","1","1","1","1","1"
"260021","img/object_images/shovel01.jpg","img/object_images/nut_cracker01.jpg","img/object_images/helmet03.jpg","1","1","1","0","1","1","0.604927600012161","0.615809400042053","0.593106499989517","1","1","1","1","1","1","1","1","1"
"260021","img/object_images/helmet03.jpg","img/object_images/shovel01.jpg","img/object_images/note_book02.jpg","1","1","1","1","0","0","0.593106499989517","0.604927600012161","0.616864599986002","1","1","1","1","1","1","1","1","1"
"260021","img/object_images/note_book02.jpg","img/object_images/helmet03.jpg","img/object_images/belt03.jpg","1","1","1","0","1","0","0.616864599986002","0.593106499989517","0.603065499977674","1","1","1","1","1","1","1","1","1"
"260021","img/object_images/belt03.jpg","img/object_images/note_book02.jpg","img/object_images/jewel02.jpg","1","1","1","0","0","0","0.603065499977674","0.616864599986002","0.651465900009498","1","1","1","1","1","1","1","1","1"
"260021","img/object_images/jewel02.jpg","img/object_images/belt03.jpg","img/object_images/scale02.jpg","1","1","1","0","0","0","0.651465900009498","0.603065499977674","0.646619999955874","1","1","1","1","1","1","1","1","1"
"260021","img/object_images/scale02.jpg","img/object_images/jewel02.jpg","img/object_images/Eyeliner01.jpg","1","1","1","0","0","1","0.646619999955874","0.651465900009498","0.61871800001245","1","1","1","1","1","1","1","1","1"
"260021","img/object_images/Eyeliner01.jpg","img/object_images/scale02.jpg","img/object_images/phone04.jpg","1","1","1","1","0","1","0.61871800001245","0.646619999955874","0.72621439996874","1","1","1","1","1","1","1","1","1"
"260021","img/object_images/phone04.jpg","img/object_images/Eyeliner01.jpg","img/object_images/Safe01.jpg","1","1","1","1","1","1","0.72621439996874","0.61871800001245","0.597083200002089","1","1","1","1","1","1","1","1","1"
"260021","img/object_images/Safe01.jpg","img/object_images/phone04.jpg","img/object_images/ToolBag01.jpg","1","1","1","1","1","0","0.597083200002089","0.72621439996874","0.636331700021401","1","1","1","1","1","1","1","1","1"
"260021","img/object_images/ToolBag01.jpg","img/object_images/Safe01.jpg","img/object_images/frame01.jpg","1","1","1","0","1","1","0.636331700021401","0.597083200002089","0.56526510004187","1","1","1","1","1","1","1","1","1"
"260021","img/object_images/frame01.jpg","img/object_images/ToolBag01.jpg","img/object_images/pitcher07.jpg","1","1","1","1","0","1","0.56526510004187","0.636331700021401","0.496706300007645","1","1","1","1","1","1","1","1","1"
"260021","img/object_images/pitcher07.jpg","img/object_images/frame01.jpg","img/object_images/yoga_mat01.jpg","1","1","1","1","1","0","0.496706300007645","0.56526510004187","0.597960499988403","1","1","1","1","1","1","1","1","1"
"260021","img/object_images/yoga_mat01.jpg","img/object_images/pitcher07.jpg","img/object_images/trumpet01.jpg","1","1","1","0","1","0","0.597960499988403","0.496706300007645","0.712471500039101","1","1","1","1","1","1","1","1","1"
"260021","img/object_images/trumpet01.jpg","img/object_images/yoga_mat01.jpg","img/object_images/Shoes05.jpg","1","1","1","0","0","0","0.712471500039101","0.597960499988403","0.593657200050075","1","1","1","1","1","1","1","1","1"
"260021","img/object_images/Shoes05.jpg","img/object_images/trumpet01.jpg","img/object_images/lock03.jpg","1","1","1","0","0","1","0.593657200050075","0.712471500039101","0.461194499977864","1","1","1","1","1","1","1","1","1"
"260021","img/object_images/lock03.jpg","img/object_images/Shoes05.jpg","img/object_images/fan01.jpg","1","1","1","1","0","0","0.461194499977864","0.593657200050075","0.57229780004127","1","1","1","1","1","1","1","1","1"
"260021","img/object_images/fan01.jpg","img/object_images/lock03.jpg","img/object_images/TreeSlice01.jpg","1","1","1","0","1","1","0.57229780004127","0.461194499977864","0.545131899998523","1","1","1","1","1","1","1","1","1"
"260021","img/object_images/TreeSlice01.jpg","img/object_images/fan01.jpg","img/object_images/dice01.jpg","1","1","1","1","0","0","0.545131899998523","0.57229780004127","0.477184600022156","1","1","1","1","1","1","1","1","1"
"260021","img/object_images/dice01.jpg","img/object_images/TreeSlice01.jpg","img/object_images/origami01.jpg","1","1","1","0","1","1","0.477184600022156","0.545131899998523","0.38043210003525","1","1","1","1","1","1","1","1","1"
"260021","img/object_images/origami01.jpg","img/object_images/dice01.jpg","img/object_images/bookmark01.jpg","1","1","1","1","0","0","0.38043210003525","0.477184600022156","0.495763500046451","1","1","1","1","1","1","1","1","1"
"260021","img/object_images/bookmark01.jpg","img/object_images/origami01.jpg","img/object_images/usb03.jpg","1","1","1","0","1","0","0.495763500046451","0.38043210003525","0.529577400011476","1","1","1","1","1","1","1","1","1"
"260021","img/object_images/usb03.jpg","img/object_images/bookmark01.jpg",NA,"1","1",NA,"0","0",NA,"0.529577400011476","0.495763500046451",NA,"1","1",NA,"1","1",NA,"1","1",NA
"260021","img/object_images/water_scooter01.jpg",NA,"img/object_images/chair03.jpg","1",NA,"1","1",NA,"0","0.839850099990144",NA,"0.629528000019491","1",NA,"1","1",NA,"1","1",NA,"1"
"260021","img/object_images/chair03.jpg","img/object_images/water_scooter01.jpg","img/object_images/bean_bag02.jpg","1","1","1","0","1","1","0.629528000019491","0.839850099990144","0.522233900032006","1","1","1","1","1","1","1","1","1"
"260021","img/object_images/bean_bag02.jpg","img/object_images/chair03.jpg","img/object_images/fan02.jpg","1","1","0","1","0","0","0.522233900032006","0.629528000019491","0.462922900042031","1","1","1","1","1","1","1","1","1"
"260021","img/object_images/fan02.jpg","img/object_images/bean_bag02.jpg","img/object_images/bicycle01.jpg","0","1","1","0","1","1","0.462922900042031","0.522233900032006","0.559938799997326","1","1","1","1","1","1","1","1","1"
"260021","img/object_images/bicycle01.jpg","img/object_images/fan02.jpg","img/object_images/dog_leash01.jpg","1","0","1","1","0","0","0.559938799997326","0.462922900042031","0.489508000027854","1","1","1","1","1","1","1","1","1"
"260021","img/object_images/dog_leash01.jpg","img/object_images/bicycle01.jpg","img/object_images/bottle10.jpg","1","1","1","0","1","1","0.489508000027854","0.559938799997326","0.467893599998206","1","1","1","1","1","1","1","1","1"
"260021","img/object_images/bottle10.jpg","img/object_images/dog_leash01.jpg","img/object_images/audio_port01.jpg","1","1","1","1","0","1","0.467893599998206","0.489508000027854","0.383214200031944","1","1","1","1","1","1","1","1","1"
"260021","img/object_images/audio_port01.jpg","img/object_images/bottle10.jpg","img/object_images/camera_lens01.jpg","1","1","1","1","1","1","0.383214200031944","0.467893599998206","0.472031800018158","1","1","1","1","1","1","1","1","1"
"260021","img/object_images/camera_lens01.jpg","img/object_images/audio_port01.jpg","img/object_images/bottle02.jpg","1","1","1","1","1","1","0.472031800018158","0.383214200031944","0.445298100006767","1","1","1","1","1","1","1","1","1"
"260021","img/object_images/bottle02.jpg","img/object_images/camera_lens01.jpg","img/object_images/helmet04.jpg","1","1","1","1","1","1","0.445298100006767","0.472031800018158","0.365148600016255","1","1","1","1","1","1","1","1","1"
"260021","img/object_images/helmet04.jpg","img/object_images/bottle02.jpg","img/object_images/hat06.jpg","1","1","1","1","1","0","0.365148600016255","0.445298100006767","0.37243980000494","1","1","1","1","1","1","1","1","1"
"260021","img/object_images/hat06.jpg","img/object_images/helmet04.jpg","img/object_images/bottle09.jpg","1","1","0","0","1","0","0.37243980000494","0.365148600016255","0.52472480002325","1","1","1","1","1","1","1","1","1"
"260021","img/object_images/bottle09.jpg","img/object_images/hat06.jpg","img/object_images/cellphone03.jpg","0","1","1","0","0","0","0.52472480002325","0.37243980000494","0.636481300054584","1","1","1","1","1","1","1","1","1"
"260021","img/object_images/cellphone03.jpg","img/object_images/bottle09.jpg","img/object_images/tool19.jpg","1","0","1","0","0","1","0.636481300054584","0.52472480002325","0.378138900035992","1","1","1","1","1","1","1","1","1"
"260021","img/object_images/tool19.jpg","img/object_images/cellphone03.jpg","img/object_images/scoreboard01.jpg","1","1","1","1","0","1","0.378138900035992","0.636481300054584","0.457997400022577","1","1","1","1","1","1","1","1","1"
"260021","img/object_images/scoreboard01.jpg","img/object_images/tool19.jpg","img/object_images/knit01.jpg","1","1","1","1","1","0","0.457997400022577","0.378138900035992","0.677751899987925","1","1","1","1","1","1","1","1","1"
"260021","img/object_images/knit01.jpg","img/object_images/scoreboard01.jpg","img/object_images/purse04.jpg","1","1","1","0","1","1","0.677751899987925","0.457997400022577","0.382631700020283","1","1","1","1","1","1","1","1","1"
"260021","img/object_images/purse04.jpg","img/object_images/knit01.jpg","img/object_images/toilet_paper_dispenser01.jpg","1","1","0","1","0","1","0.382631700020283","0.677751899987925","0.458098200033419","1","1","1","1","1","1","1","1","1"
"260021","img/object_images/toilet_paper_dispenser01.jpg","img/object_images/purse04.jpg","img/object_images/toaster01.jpg","0","1","1","1","1","1","0.458098200033419","0.382631700020283","0.489806499972474","1","1","1","1","1","1","1","1","1"
"260021","img/object_images/toaster01.jpg","img/object_images/toilet_paper_dispenser01.jpg","img/object_images/tie02.jpg","1","0","0","1","1","0","0.489806499972474","0.458098200033419","0.771672900009435","1","1","1","1","1","1","1","1","1"
"260021","img/object_images/tie02.jpg","img/object_images/toaster01.jpg","img/object_images/boat02.jpg","0","1","1","0","1","1","0.771672900009435","0.489806499972474","0.771429500018712","1","1","1","1","1","1","1","1","1"
"260021","img/object_images/boat02.jpg","img/object_images/tie02.jpg","img/object_images/WoodBox01.jpg","1","0","1","1","0","0","0.771429500018712","0.771672900009435","0.641821799974423","1","1","1","1","1","1","1","1","1"
"260021","img/object_images/WoodBox01.jpg","img/object_images/boat02.jpg","img/object_images/wagon_cart03.jpg","1","1","1","0","1","1","0.641821799974423","0.771429500018712","0.483701100049075","1","1","1","1","1","1","1","1","1"
"260021","img/object_images/wagon_cart03.jpg","img/object_images/WoodBox01.jpg","img/object_images/perfume02.jpg","1","1","1","1","0","0","0.483701100049075","0.641821799974423","0.478098599996883","1","1","1","1","1","1","1","1","1"
"260021","img/object_images/perfume02.jpg","img/object_images/wagon_cart03.jpg","img/object_images/shoes07.jpg","1","1","1","0","1","0","0.478098599996883","0.483701100049075","0.498350800015032","1","1","1","1","1","1","1","1","1"
"260021","img/object_images/shoes07.jpg","img/object_images/perfume02.jpg","img/object_images/pen05.jpg","1","1","1","0","0","0","0.498350800015032","0.478098599996883","0.67567930003861","1","1","1","1","1","1","1","1","1"
"260021","img/object_images/pen05.jpg","img/object_images/shoes07.jpg","img/object_images/boat_toy10.jpg","1","1","1","0","0","0","0.67567930003861","0.498350800015032","0.606866899994202","1","1","1","1","1","1","1","1","1"
"260021","img/object_images/boat_toy10.jpg","img/object_images/pen05.jpg","img/object_images/hot_air_balloon02.jpg","1","1","1","0","0","0","0.606866899994202","0.67567930003861","0.563918999978341","1","1","1","1","1","1","1","1","1"
"260021","img/object_images/hot_air_balloon02.jpg","img/object_images/boat_toy10.jpg","img/object_images/piggy_bank01.jpg","1","1","1","0","0","1","0.563918999978341","0.606866899994202","0.400957999983802","1","1","1","1","1","1","1","1","1"
"260021","img/object_images/piggy_bank01.jpg","img/object_images/hot_air_balloon02.jpg","img/object_images/flask01.jpg","1","1","0","1","0","0","0.400957999983802","0.563918999978341","0.417935799981933","1","1","1","1","1","1","1","1","1"
"260021","img/object_images/flask01.jpg","img/object_images/piggy_bank01.jpg","img/object_images/coloring_pencil02.jpg","0","1","1","0","1","0","0.417935799981933","0.400957999983802","0.664548999979161","1","1","1","1","1","1","1","1","1"
"260021","img/object_images/coloring_pencil02.jpg","img/object_images/flask01.jpg",NA,"1","0",NA,"0","0",NA,"0.664548999979161","0.417935799981933",NA,"1","1",NA,"1","1",NA,"1","1",NA
"260021","img/object_images/clock02.jpg",NA,"img/object_images/compass01.jpg","1",NA,"1","0",NA,"1","0.684927500027698",NA,"0.676246900053229","1",NA,"1","1",NA,"1","1",NA,"1"
"260021","img/object_images/compass01.jpg","img/object_images/clock02.jpg","img/object_images/book03.jpg","1","1","1","1","0","1","0.676246900053229","0.684927500027698","0.53224999998929","1","1","1","1","1","1","1","1","1"
"260021","img/object_images/book03.jpg","img/object_images/compass01.jpg","img/object_images/pillows01.jpg","1","1","1","1","1","1","0.53224999998929","0.676246900053229","0.477496299950872","1","1","1","1","1","1","1","1","1"
"260021","img/object_images/pillows01.jpg","img/object_images/book03.jpg","img/object_images/wire02.jpg","1","1","1","1","1","1","0.477496299950872","0.53224999998929","0.405126700003166","1","1","1","1","1","1","1","1","1"
"260021","img/object_images/wire02.jpg","img/object_images/pillows01.jpg","img/object_images/Staples01.jpg","1","1","1","1","1","1","0.405126700003166","0.477496299950872","0.513313699979335","1","1","1","1","1","1","1","1","1"
"260021","img/object_images/Staples01.jpg","img/object_images/wire02.jpg","img/object_images/tennis_racket02.jpg","1","1","1","1","1","1","0.513313699979335","0.405126700003166","0.39765840000473","1","1","1","1","1","1","1","1","1"
"260021","img/object_images/tennis_racket02.jpg","img/object_images/Staples01.jpg","img/object_images/microscope01.jpg","1","1","1","1","1","0","0.39765840000473","0.513313699979335","0.468196999980137","1","1","1","1","1","1","1","1","1"
"260021","img/object_images/microscope01.jpg","img/object_images/tennis_racket02.jpg","img/object_images/floppy_disk03.jpg","1","1","1","0","1","1","0.468196999980137","0.39765840000473","0.561495499976445","1","1","1","1","1","1","1","1","1"
"260021","img/object_images/floppy_disk03.jpg","img/object_images/microscope01.jpg","img/object_images/knife04.jpg","1","1","1","1","0","1","0.561495499976445","0.468196999980137","0.374996400030795","1","1","1","1","1","1","1","1","1"
"260021","img/object_images/knife04.jpg","img/object_images/floppy_disk03.jpg","img/object_images/pitcher01.jpg","1","1","0","1","1","0","0.374996400030795","0.561495499976445","0.407423699973151","1","1","1","1","1","1","1","1","1"
"260021","img/object_images/pitcher01.jpg","img/object_images/knife04.jpg","img/object_images/bottle01.jpg","0","1","1","0","1","0","0.407423699973151","0.374996400030795","0.697659700002987","1","1","1","1","1","1","1","1","1"
"260021","img/object_images/bottle01.jpg","img/object_images/pitcher01.jpg","img/object_images/knit05.jpg","1","0","1","0","0","1","0.697659700002987","0.407423699973151","0.50379410001915","1","1","1","1","1","1","1","1","2"
"260021","img/object_images/knit05.jpg","img/object_images/bottle01.jpg","img/object_images/Oven01.jpg","1","1","1","1","0","1","0.50379410001915","0.697659700002987","0.644987899984699","1","1","1","1","1","1","2","1","1"
"260021","img/object_images/Oven01.jpg","img/object_images/knit05.jpg","img/object_images/motorcycle01.jpg","1","1","1","1","1","1","0.644987899984699","0.50379410001915","0.702104300027713","1","1","1","1","1","1","1","2","1"
"260021","img/object_images/motorcycle01.jpg","img/object_images/Oven01.jpg","img/object_images/tv02.jpg","1","1","1","1","1","0","0.702104300027713","0.644987899984699","0.758030300028622","1","1","1","1","1","1","1","1","1"
"260021","img/object_images/tv02.jpg","img/object_images/motorcycle01.jpg","img/object_images/Thermometer01.jpg","1","1","0","0","1","0","0.758030300028622","0.702104300027713","0.556582299992442","1","1","1","1","1","1","1","1","1"
"260021","img/object_images/Thermometer01.jpg","img/object_images/tv02.jpg","img/object_images/retainer01.jpg","0","1","1","0","0","0","0.556582299992442","0.758030300028622","0.707848799997009","1","1","1","1","1","1","1","1","1"
"260021","img/object_images/retainer01.jpg","img/object_images/Thermometer01.jpg","img/object_images/bell02.jpg","1","0","1","0","0","0","0.707848799997009","0.556582299992442","0.631009100005031","1","1","1","1","1","1","1","1","1"
"260021","img/object_images/bell02.jpg","img/object_images/retainer01.jpg","img/object_images/pen03.jpg","1","1","1","0","0","0","0.631009100005031","0.707848799997009","0.632064600009471","1","1","1","1","1","1","1","1","1"
"260021","img/object_images/pen03.jpg","img/object_images/bell02.jpg","img/object_images/hammer03.jpg","1","1","1","0","0","1","0.632064600009471","0.631009100005031","0.636328399996273","1","1","1","1","1","1","1","1","1"
"260021","img/object_images/hammer03.jpg","img/object_images/pen03.jpg","img/object_images/clip03.jpg","1","1","1","1","0","0","0.636328399996273","0.632064600009471","0.502803399984259","1","1","1","1","1","1","1","1","1"
"260021","img/object_images/clip03.jpg","img/object_images/hammer03.jpg","img/object_images/paint_brush04.jpg","1","1","1","0","1","0","0.502803399984259","0.636328399996273","0.571504199993797","1","1","1","1","1","1","1","1","1"
"260021","img/object_images/paint_brush04.jpg","img/object_images/clip03.jpg","img/object_images/ear_bud01.jpg","1","1","1","0","0","1","0.571504199993797","0.502803399984259","0.407222100009676","1","1","1","1","1","1","1","1","1"
"260021","img/object_images/ear_bud01.jpg","img/object_images/paint_brush04.jpg","img/object_images/note_book01.jpg","1","1","1","1","0","0","0.407222100009676","0.571504199993797","0.445094500028063","1","1","1","1","1","1","1","1","1"
"260021","img/object_images/note_book01.jpg","img/object_images/ear_bud01.jpg","img/object_images/chair05.jpg","1","1","1","0","1","0","0.445094500028063","0.407222100009676","0.402204500045627","1","1","1","1","1","1","1","1","1"
"260021","img/object_images/chair05.jpg","img/object_images/note_book01.jpg","img/object_images/chess_piece02.jpg","1","1","1","0","0","1","0.402204500045627","0.445094500028063","0.345097700017504","1","1","1","1","1","1","1","1","1"
"260021","img/object_images/chess_piece02.jpg","img/object_images/chair05.jpg","img/object_images/cellphone01.jpg","1","1","0","1","0","1","0.345097700017504","0.402204500045627","0.325147399969865","1","1","1","1","1","1","1","1","1"
"260021","img/object_images/cellphone01.jpg","img/object_images/chess_piece02.jpg","img/object_images/usb02.jpg","0","1","1","1","1","0","0.325147399969865","0.345097700017504","0.583000999991782","1","1","1","1","1","1","1","1","1"
"260021","img/object_images/usb02.jpg","img/object_images/cellphone01.jpg","img/object_images/lid01.jpg","1","0","1","0","1","1","0.583000999991782","0.325147399969865","0.753015900030732","1","1","1","1","1","1","1","1","1"
"260021","img/object_images/lid01.jpg","img/object_images/usb02.jpg","img/object_images/crutches02.jpg","1","1","0","1","0","0","0.753015900030732","0.583000999991782","0.452723799971864","1","1","1","1","1","1","1","1","1"
"260021","img/object_images/crutches02.jpg","img/object_images/lid01.jpg","img/object_images/floppy_disk02.jpg","0","1","1","0","1","0","0.452723799971864","0.753015900030732","0.78849139995873","1","1","1","1","1","1","1","1","1"
"260021","img/object_images/floppy_disk02.jpg","img/object_images/crutches02.jpg",NA,"1","0",NA,"0","0",NA,"0.78849139995873","0.452723799971864",NA,"1","1",NA,"1","1",NA,"1","1",NA
"260021","img/object_images/pitcher03.jpg",NA,"img/object_images/lamp01.jpg","1",NA,"1","1",NA,"1","0.536740200011991",NA,"0.416152499965392","1",NA,"1","1",NA,"1","1",NA,"1"
"260021","img/object_images/lamp01.jpg","img/object_images/pitcher03.jpg","img/object_images/toy_train02.jpg","1","1","0","1","1","1","0.416152499965392","0.536740200011991","0.317000499984715","1","1","1","1","1","1","1","1","1"
"260021","img/object_images/toy_train02.jpg","img/object_images/lamp01.jpg","img/object_images/Woopie01.jpg","0","1","1","1","1","1","0.317000499984715","0.416152499965392","0.520100999972783","1","1","1","1","1","1","1","1","1"
"260021","img/object_images/Woopie01.jpg","img/object_images/toy_train02.jpg","img/object_images/bottle12.jpg","1","0","1","1","1","1","0.520100999972783","0.317000499984715","0.547452300030272","1","1","1","1","1","1","1","1","1"
"260021","img/object_images/bottle12.jpg","img/object_images/Woopie01.jpg","img/object_images/airfryer01.jpg","1","1","1","1","1","0","0.547452300030272","0.520100999972783","0.525535399967339","1","1","1","1","1","1","1","1","1"
"260021","img/object_images/airfryer01.jpg","img/object_images/bottle12.jpg","img/object_images/hat02.jpg","1","1","1","0","1","0","0.525535399967339","0.547452300030272","0.613716799998656","1","1","1","1","1","1","1","1","1"
"260021","img/object_images/hat02.jpg","img/object_images/airfryer01.jpg","img/object_images/brief_case01.jpg","1","1","0","0","0","0","0.613716799998656","0.525535399967339","0.393634300038684","1","1","1","1","1","1","1","1","1"
"260021","img/object_images/brief_case01.jpg","img/object_images/hat02.jpg","img/object_images/broom01.jpg","0","1","1","0","0","1","0.393634300038684","0.613716799998656","0.56648659997154","1","1","1","1","1","1","1","1","1"
"260021","img/object_images/broom01.jpg","img/object_images/brief_case01.jpg","img/object_images/pot01.jpg","1","0","0","1","0","0","0.56648659997154","0.393634300038684","0.423275400011335","1","1","1","1","1","1","1","1","2"
"260021","img/object_images/pot01.jpg","img/object_images/broom01.jpg","img/object_images/decorative02.jpg","0","1","1","0","1","0","0.423275400011335","0.56648659997154","0.673494000046048","1","1","1","1","1","1","2","1","1"
"260021","img/object_images/decorative02.jpg","img/object_images/pot01.jpg","img/object_images/couch04.jpg","1","0","1","0","0","1","0.673494000046048","0.423275400011335","0.420422499999404","1","1","1","1","1","1","1","2","1"
"260021","img/object_images/couch04.jpg","img/object_images/decorative02.jpg","img/object_images/brief_case02.jpg","1","1","1","1","0","1","0.420422499999404","0.673494000046048","0.543361099960748","1","1","1","1","1","1","1","1","1"
"260021","img/object_images/brief_case02.jpg","img/object_images/couch04.jpg","img/object_images/ironing_table02.jpg","1","1","1","1","1","0","0.543361099960748","0.420422499999404","0.600482900044881","1","1","1","1","1","1","1","1","1"
"260021","img/object_images/ironing_table02.jpg","img/object_images/brief_case02.jpg","img/object_images/tie01.jpg","1","1","0","0","1","0","0.600482900044881","0.543361099960748","0.367594000010286","1","1","1","1","1","1","1","1","1"
"260021","img/object_images/tie01.jpg","img/object_images/ironing_table02.jpg","img/object_images/guitar01.jpg","0","1","1","0","0","1","0.367594000010286","0.600482900044881","0.731710200023372","1","1","1","1","1","1","1","1","1"
"260021","img/object_images/guitar01.jpg","img/object_images/tie01.jpg","img/object_images/soap01.jpg","1","0","1","1","0","0","0.731710200023372","0.367594000010286","0.605787400039844","1","1","1","1","1","1","1","1","1"
"260021","img/object_images/soap01.jpg","img/object_images/guitar01.jpg","img/object_images/car02.jpg","1","1","1","0","1","0","0.605787400039844","0.731710200023372","0.517612099996768","1","1","1","1","1","1","1","1","1"
"260021","img/object_images/car02.jpg","img/object_images/soap01.jpg","img/object_images/drone02.jpg","1","1","1","0","0","0","0.517612099996768","0.605787400039844","0.515995699970517","1","1","1","1","1","1","1","1","1"
"260021","img/object_images/drone02.jpg","img/object_images/car02.jpg","img/object_images/toilet_paper01.jpg","1","1","1","0","0","1","0.515995699970517","0.517612099996768","0.376288699975703","1","1","1","1","1","1","1","1","1"
"260021","img/object_images/toilet_paper01.jpg","img/object_images/drone02.jpg","img/object_images/gloves05.jpg","1","1","1","1","0","1","0.376288699975703","0.515995699970517","0.483180900046136","1","1","1","1","1","1","1","1","1"
"260021","img/object_images/gloves05.jpg","img/object_images/toilet_paper01.jpg","img/object_images/container01.jpg","1","1","1","1","1","0","0.483180900046136","0.376288699975703","0.510679700004403","1","1","1","1","1","1","1","1","1"
"260021","img/object_images/container01.jpg","img/object_images/gloves05.jpg","img/object_images/ball01.jpg","1","1","1","0","1","1","0.510679700004403","0.483180900046136","0.4790428999695","1","1","1","1","1","1","1","1","1"
"260021","img/object_images/ball01.jpg","img/object_images/container01.jpg","img/object_images/lantern01.jpg","1","1","1","1","0","1","0.4790428999695","0.510679700004403","0.508202600001823","1","1","1","1","1","1","1","1","1"
"260021","img/object_images/lantern01.jpg","img/object_images/ball01.jpg","img/object_images/cochlear_implant01.jpg","1","1","1","1","1","0","0.508202600001823","0.4790428999695","0.496954400034156","1","1","1","1","1","1","1","1","1"
"260021","img/object_images/cochlear_implant01.jpg","img/object_images/lantern01.jpg","img/object_images/video_game06.jpg","1","1","0","0","1","0","0.496954400034156","0.508202600001823","0.553682900033891","1","1","1","1","1","1","1","1","2"
"260021","img/object_images/video_game06.jpg","img/object_images/cochlear_implant01.jpg","img/object_images/Wisk01.jpg","0","1","1","0","0","1","0.553682900033891","0.496954400034156","0.446932299993932","1","1","1","1","1","1","2","1","1"
"260021","img/object_images/Wisk01.jpg","img/object_images/video_game06.jpg","img/object_images/chair01.jpg","1","0","1","1","0","0","0.446932299993932","0.553682900033891","0.559785899997223","1","1","1","1","1","1","1","2","1"
"260021","img/object_images/chair01.jpg","img/object_images/Wisk01.jpg","img/object_images/razor03.jpg","1","1","1","0","1","0","0.559785899997223","0.446932299993932","0.490682000003289","1","1","1","1","1","1","1","1","1"
"260021","img/object_images/razor03.jpg","img/object_images/chair01.jpg","img/object_images/helmet05.jpg","1","1","1","0","0","1","0.490682000003289","0.559785899997223","0.474389600043651","1","1","1","1","1","1","1","1","1"
"260021","img/object_images/helmet05.jpg","img/object_images/razor03.jpg","img/object_images/basketball_hoop02.jpg","1","1","1","1","0","0","0.474389600043651","0.490682000003289","0.546742899983656","1","1","1","1","1","1","1","1","1"
"260021","img/object_images/basketball_hoop02.jpg","img/object_images/helmet05.jpg","img/object_images/Recycling01.jpg","1","1","1","0","1","1","0.546742899983656","0.474389600043651","0.735136799979955","1","1","1","1","1","1","1","1","1"
"260021","img/object_images/Recycling01.jpg","img/object_images/basketball_hoop02.jpg",NA,"1","1",NA,"1","0",NA,"0.735136799979955","0.546742899983656",NA,"1","1",NA,"1","1",NA,"1","1",NA
"260021","img/object_images/golf_ball03.jpg",NA,"img/object_images/coloring_pencil01.jpg","1",NA,"1","1",NA,"1","0.658044899988454",NA,"0.451841300004162","1",NA,"1","1",NA,"1","1",NA,"1"
"260021","img/object_images/coloring_pencil01.jpg","img/object_images/golf_ball03.jpg","img/object_images/bow_tie01.jpg","1","1","0","1","1","0","0.451841300004162","0.658044899988454","0.408298499998636","1","1","1","1","1","1","1","1","2"
"260021","img/object_images/bow_tie01.jpg","img/object_images/coloring_pencil01.jpg","img/object_images/paper_cup01.jpg","0","1","1","0","1","0","0.408298499998636","0.451841300004162","0.603909000055864","1","1","1","1","1","1","2","1","1"
"260021","img/object_images/paper_cup01.jpg","img/object_images/bow_tie01.jpg","img/object_images/balloon01.jpg","1","0","1","0","0","0","0.603909000055864","0.408298499998636","0.501725700043608","1","1","1","1","1","1","1","2","1"
"260021","img/object_images/balloon01.jpg","img/object_images/paper_cup01.jpg","img/object_images/vga_port 01.jpg","1","1","0","0","0","0","0.501725700043608","0.603909000055864","0.389203099999577","1","1","1","1","1","1","1","1","2"
"260021","img/object_images/vga_port 01.jpg","img/object_images/balloon01.jpg","img/object_images/pitcher02.jpg","0","1","1","0","0","1","0.389203099999577","0.501725700043608","0.418697300017811","1","1","1","1","1","1","2","1","1"
"260021","img/object_images/pitcher02.jpg","img/object_images/vga_port 01.jpg","img/object_images/clip02.jpg","1","0","1","1","0","1","0.418697300017811","0.389203099999577","0.511331100016832","1","1","1","1","1","1","1","2","1"
"260021","img/object_images/clip02.jpg","img/object_images/pitcher02.jpg","img/object_images/Witchhat01.jpg","1","1","1","1","1","1","0.511331100016832","0.418697300017811","0.39537800004473","1","1","1","1","1","1","1","1","1"
"260021","img/object_images/Witchhat01.jpg","img/object_images/clip02.jpg","img/object_images/hammer01.jpg","1","1","1","1","1","0","0.39537800004473","0.511331100016832","0.491078099992592","1","1","1","1","1","1","1","1","1"
"260021","img/object_images/hammer01.jpg","img/object_images/Witchhat01.jpg","img/object_images/handkerchief01.jpg","1","1","1","0","1","0","0.491078099992592","0.39537800004473","0.450662199989892","1","1","1","1","1","1","1","1","1"
"260021","img/object_images/handkerchief01.jpg","img/object_images/hammer01.jpg","img/object_images/couch03.jpg","1","1","1","0","0","0","0.450662199989892","0.491078099992592","0.354163400013931","1","1","1","1","1","1","1","1","2"
"260021","img/object_images/couch03.jpg","img/object_images/handkerchief01.jpg","img/object_images/Screws01.jpg","1","1","1","0","0","1","0.354163400013931","0.450662199989892","0.491083099972457","1","1","1","1","1","1","2","1","1"
"260021","img/object_images/Screws01.jpg","img/object_images/couch03.jpg","img/object_images/lock04.jpg","1","1","1","1","0","1","0.491083099972457","0.354163400013931","0.539383199997246","1","1","1","1","1","1","1","2","1"
"260021","img/object_images/lock04.jpg","img/object_images/Screws01.jpg","img/object_images/dresser04.jpg","1","1","1","1","1","0","0.539383199997246","0.491083099972457","0.548077400017064","1","1","1","1","1","1","1","1","1"
"260021","img/object_images/dresser04.jpg","img/object_images/lock04.jpg","img/object_images/jewelry01.jpg","1","1","1","0","1","1","0.548077400017064","0.539383199997246","0.484482900006697","1","1","1","1","1","1","1","1","1"
"260021","img/object_images/jewelry01.jpg","img/object_images/dresser04.jpg","img/object_images/socks02.jpg","1","1","0","1","0","0","0.484482900006697","0.548077400017064","0.598146999953315","1","1","1","1","1","1","1","1","2"
"260021","img/object_images/socks02.jpg","img/object_images/jewelry01.jpg","img/object_images/ironing_table01.jpg","0","1","1","0","1","0","0.598146999953315","0.484482900006697","0.715221000020392","1","1","1","1","1","1","2","1","1"
"260021","img/object_images/ironing_table01.jpg","img/object_images/socks02.jpg","img/object_images/jacket03.jpg","1","0","0","0","0","0","0.715221000020392","0.598146999953315","0.59227030002512","1","1","1","1","1","1","1","2","1"
"260021","img/object_images/jacket03.jpg","img/object_images/ironing_table01.jpg","img/object_images/measuring_tape02.jpg","0","1","1","0","0","1","0.59227030002512","0.715221000020392","0.525488700019196","1","1","1","1","1","1","1","1","1"
"260021","img/object_images/measuring_tape02.jpg","img/object_images/jacket03.jpg","img/object_images/gift_box03.jpg","1","0","0","1","0","0","0.525488700019196","0.59227030002512","0.341238200024236","1","1","1","1","1","1","1","1","2"
"260021","img/object_images/gift_box03.jpg","img/object_images/measuring_tape02.jpg","img/object_images/gift_box01.jpg","0","1","1","0","1","1","0.341238200024236","0.525488700019196","0.65271950000897","1","1","1","1","1","1","2","1","1"
"260021","img/object_images/gift_box01.jpg","img/object_images/gift_box03.jpg","img/object_images/camera07.jpg","1","0","1","1","0","1","0.65271950000897","0.341238200024236","0.602923300000839","1","1","1","1","1","1","1","2","1"
"260021","img/object_images/camera07.jpg","img/object_images/gift_box01.jpg","img/object_images/bow_tie02.jpg","1","1","1","1","1","0","0.602923300000839","0.65271950000897","0.551668800006155","1","1","1","1","1","1","1","1","1"
"260021","img/object_images/bow_tie02.jpg","img/object_images/camera07.jpg","img/object_images/gift_box02.jpg","1","1","1","0","1","1","0.551668800006155","0.602923300000839","0.45364389999304","1","1","1","1","1","1","1","1","1"
"260021","img/object_images/gift_box02.jpg","img/object_images/bow_tie02.jpg","img/object_images/fork03.jpg","1","1","1","1","0","1","0.45364389999304","0.551668800006155","0.453177499992307","1","1","1","1","1","1","1","1","1"
"260021","img/object_images/fork03.jpg","img/object_images/gift_box02.jpg","img/object_images/grater01.jpg","1","1","1","1","1","1","0.453177499992307","0.45364389999304","0.393373399972916","1","1","1","1","1","1","1","1","1"
"260021","img/object_images/grater01.jpg","img/object_images/fork03.jpg","img/object_images/lawn_mower01.jpg","1","1","1","1","1","1","0.393373399972916","0.453177499992307","0.462847999995574","1","1","1","1","1","1","1","1","1"
"260021","img/object_images/lawn_mower01.jpg","img/object_images/grater01.jpg","img/object_images/wallet02.jpg","1","1","1","1","1","1","0.462847999995574","0.393373399972916","0.453523100004531","1","1","1","1","1","1","1","1","1"
"260021","img/object_images/wallet02.jpg","img/object_images/lawn_mower01.jpg","img/object_images/sleeping_bag01.jpg","1","1","1","1","1","0","0.453523100004531","0.462847999995574","0.415496099973097","1","1","1","1","1","1","1","1","1"
"260021","img/object_images/sleeping_bag01.jpg","img/object_images/wallet02.jpg","img/object_images/bath_tub01.jpg","1","1","1","0","1","0","0.415496099973097","0.453523100004531","0.61236780002946","1","1","1","1","1","1","1","1","1"
"260021","img/object_images/bath_tub01.jpg","img/object_images/sleeping_bag01.jpg","img/object_images/funnel01.jpg","1","1","1","0","0","0","0.61236780002946","0.415496099973097","0.573716999962926","1","1","1","1","1","1","1","1","1"
"260021","img/object_images/funnel01.jpg","img/object_images/bath_tub01.jpg",NA,"1","1",NA,"0","0",NA,"0.573716999962926","0.61236780002946",NA,"1","1",NA,"1","1",NA,"1","1",NA
"260021","img/object_images/shovel03.jpg",NA,"img/object_images/MetalWire01.jpg","1",NA,"1","1",NA,"0","0.497633800026961",NA,"0.540125700004864","1",NA,"1","1",NA,"1","1",NA,"1"
"260021","img/object_images/MetalWire01.jpg","img/object_images/shovel03.jpg","img/object_images/helmet01.jpg","1","1","0","0","1","0","0.540125700004864","0.497633800026961","0.485615900019184","1","1","1","1","1","1","1","1","2"
"260021","img/object_images/helmet01.jpg","img/object_images/MetalWire01.jpg","img/object_images/mirror01.jpg","0","1","1","0","0","1","0.485615900019184","0.540125700004864","0.512266899982933","1","1","1","1","1","1","2","1","1"
"260021","img/object_images/mirror01.jpg","img/object_images/helmet01.jpg","img/object_images/bottle05.jpg","1","0","0","1","0","0","0.512266899982933","0.485615900019184","0.392168000049423","1","1","1","1","1","1","1","2","2"
"260021","img/object_images/bottle05.jpg","img/object_images/mirror01.jpg","img/object_images/Vacuum01.jpg","0","1","1","0","1","0","0.392168000049423","0.512266899982933","0.537168100010604","1","1","1","1","1","1","2","1","1"
"260021","img/object_images/Vacuum01.jpg","img/object_images/bottle05.jpg","img/object_images/stapler.jpg","1","0","0","0","0","1","0.537168100010604","0.392168000049423","0.609850100008771","1","1","1","1","1","1","1","2","1"
"260021","img/object_images/stapler.jpg","img/object_images/Vacuum01.jpg","img/object_images/sink01.jpg","0","1","1","1","0","0","0.609850100008771","0.537168100010604","0.61797869997099","1","1","1","1","1","1","1","1","1"
"260021","img/object_images/sink01.jpg","img/object_images/stapler.jpg","img/object_images/toy04.jpg","1","0","0","0","1","0","0.61797869997099","0.609850100008771","0.497984300018288","1","1","1","1","1","1","1","1","2"
"260021","img/object_images/toy04.jpg","img/object_images/sink01.jpg","img/object_images/bird_house02.jpg","0","1","1","0","0","1","0.497984300018288","0.61797869997099","0.471675800043158","1","1","1","1","1","1","2","1","1"
"260021","img/object_images/bird_house02.jpg","img/object_images/toy04.jpg","img/object_images/frisbee01.jpg","1","0","1","1","0","1","0.471675800043158","0.497984300018288","0.580016399966553","1","1","1","1","1","1","1","2","1"
"260021","img/object_images/frisbee01.jpg","img/object_images/bird_house02.jpg","img/object_images/toy03.jpg","1","1","1","1","1","1","0.580016399966553","0.471675800043158","0.5167087999871","1","1","1","1","1","1","1","1","1"
"260021","img/object_images/toy03.jpg","img/object_images/frisbee01.jpg","img/object_images/towel02.jpg","1","1","1","1","1","1","0.5167087999871","0.580016399966553","0.452503799984697","1","1","1","1","1","1","1","1","1"
"260021","img/object_images/towel02.jpg","img/object_images/toy03.jpg","img/object_images/tool02.jpg","1","1","0","1","1","1","0.452503799984697","0.5167087999871","0.391687800001819","1","1","1","1","1","1","1","1","2"
"260021","img/object_images/tool02.jpg","img/object_images/towel02.jpg","img/object_images/ornament01.jpg","0","1","1","1","1","1","0.391687800001819","0.452503799984697","0.601143700012472","1","1","1","1","1","1","2","1","1"
"260021","img/object_images/ornament01.jpg","img/object_images/tool02.jpg","img/object_images/jewel04.jpg","1","0","1","1","1","0","0.601143700012472","0.391687800001819","0.501720000000205","1","1","1","1","1","1","1","2","1"
"260021","img/object_images/jewel04.jpg","img/object_images/ornament01.jpg","img/object_images/fridge03.jpg","1","1","1","0","1","0","0.501720000000205","0.601143700012472","0.508387400011998","1","1","1","1","1","1","1","1","1"
"260021","img/object_images/fridge03.jpg","img/object_images/jewel04.jpg","img/object_images/guitar02.jpg","1","1","1","0","0","0","0.508387400011998","0.501720000000205","0.432504199969117","1","1","1","1","1","1","1","1","1"
"260021","img/object_images/guitar02.jpg","img/object_images/fridge03.jpg","img/object_images/judge_gavel01.jpg","1","1","0","0","0","1","0.432504199969117","0.508387400011998","0.662700199987739","1","1","1","1","1","1","1","1","2"
"260021","img/object_images/judge_gavel01.jpg","img/object_images/guitar02.jpg","img/object_images/video_game07.jpg","0","1","1","1","0","1","0.662700199987739","0.432504199969117","0.398795899993274","1","1","1","1","1","1","2","1","1"
"260021","img/object_images/video_game07.jpg","img/object_images/judge_gavel01.jpg","img/object_images/Ring02.jpg","1","0","1","1","1","0","0.398795899993274","0.662700199987739","0.60497090005083","1","1","1","1","1","1","1","2","1"
"260021","img/object_images/Ring02.jpg","img/object_images/video_game07.jpg","img/object_images/gauze01.jpg","1","1","1","0","1","0","0.60497090005083","0.398795899993274","0.634235800011083","1","1","1","1","1","1","1","1","1"
"260021","img/object_images/gauze01.jpg","img/object_images/Ring02.jpg","img/object_images/acoustic_capo01.jpg","1","1","1","0","0","1","0.634235800011083","0.60497090005083","0.421324700000696","1","1","1","1","1","1","1","1","1"
"260021","img/object_images/acoustic_capo01.jpg","img/object_images/gauze01.jpg","img/object_images/outlet01.jpg","1","1","1","1","0","0","0.421324700000696","0.634235800011083","0.458991000021342","1","1","1","1","1","1","1","1","1"
"260021","img/object_images/outlet01.jpg","img/object_images/acoustic_capo01.jpg","img/object_images/Stool01.jpg","1","1","1","0","1","0","0.458991000021342","0.421324700000696","0.490871399990283","1","1","1","1","1","1","1","1","1"
"260021","img/object_images/Stool01.jpg","img/object_images/outlet01.jpg","img/object_images/crown02.jpg","1","1","1","0","0","1","0.490871399990283","0.458991000021342","0.370756399992388","1","1","1","1","1","1","1","1","1"
"260021","img/object_images/crown02.jpg","img/object_images/Stool01.jpg","img/object_images/Tin01.jpg","1","1","1","1","0","1","0.370756399992388","0.490871399990283","0.505267500004265","1","1","1","1","1","1","1","1","1"
"260021","img/object_images/Tin01.jpg","img/object_images/crown02.jpg","img/object_images/dart01.jpg","1","1","1","1","1","0","0.505267500004265","0.370756399992388","0.33776319999015","1","1","1","1","1","1","1","1","1"
"260021","img/object_images/dart01.jpg","img/object_images/Tin01.jpg","img/object_images/watch01.jpg","1","1","1","0","1","0","0.33776319999015","0.505267500004265","0.549074899987318","1","1","1","1","1","1","1","1","1"
"260021","img/object_images/watch01.jpg","img/object_images/dart01.jpg","img/object_images/tool09.jpg","1","1","0","0","0","1","0.549074899987318","0.33776319999015","0.393148300005123","1","1","1","1","1","1","1","1","2"
"260021","img/object_images/tool09.jpg","img/object_images/watch01.jpg","img/object_images/pot01 (1).jpg","0","1","1","1","0","0","0.393148300005123","0.549074899987318","0.402694999997038","1","1","1","1","1","1","2","1","1"
"260021","img/object_images/pot01 (1).jpg","img/object_images/tool09.jpg","img/object_images/bow01.jpg","1","0","1","0","1","1","0.402694999997038","0.393148300005123","0.573269299988169","1","1","1","1","1","1","1","2","1"
"260021","img/object_images/bow01.jpg","img/object_images/pot01 (1).jpg",NA,"1","1",NA,"1","0",NA,"0.573269299988169","0.402694999997038",NA,"1","1",NA,"1","1",NA,"1","1",NA
