"participant_id","current_trial_object","pre_trial_object","post_trial_object","current_trial_accuracy","pre_trial_accuracy","post_trial_accuracy","current_trial_congruency","pre_trial_congruency","post_trial_congruency","current_trial_rt","pre_trial_rt","post_trial_rt","current_trial_responded","pre_trial_responded","post_trial_responded","current_trial_legitResponse","pre_trial_legitResponse","post_trial_legitResponse","current_trial_resp_nums","pre_trial_resp_nums","post_trial_resp_nums"
"260047","img/object_images/scoreboard01.jpg",NA,"img/object_images/wagon_cart03.jpg","1",NA,"1","1",NA,"1","0.581624399870634",NA,"0.585338199976832","1",NA,"1","1",NA,"1","1",NA,"1"
"260047","img/object_images/wagon_cart03.jpg","img/object_images/scoreboard01.jpg","img/object_images/toilet_paper_dispenser01.jpg","1","1","1","1","1","1","0.585338199976832","0.581624399870634","0.45144149987027","1","1","1","1","1","1","1","1","1"
"260047","img/object_images/toilet_paper_dispenser01.jpg","img/object_images/wagon_cart03.jpg","img/object_images/perfume02.jpg","1","1","1","1","1","0","0.45144149987027","0.585338199976832","0.607932299841195","1","1","1","1","1","1","1","1","1"
"260047","img/object_images/perfume02.jpg","img/object_images/toilet_paper_dispenser01.jpg","img/object_images/bottle10.jpg","1","1","1","0","1","1","0.607932299841195","0.45144149987027","0.467807699926198","1","1","1","1","1","1","1","1","1"
"260047","img/object_images/bottle10.jpg","img/object_images/perfume02.jpg","img/object_images/bean_bag02.jpg","1","1","1","1","0","1","0.467807699926198","0.607932299841195","0.425362199777737","1","1","1","1","1","1","1","1","1"
"260047","img/object_images/bean_bag02.jpg","img/object_images/bottle10.jpg","img/object_images/WoodBox01.jpg","1","1","1","1","1","0","0.425362199777737","0.467807699926198","0.563392699928954","1","1","1","1","1","1","1","1","1"
"260047","img/object_images/WoodBox01.jpg","img/object_images/bean_bag02.jpg","img/object_images/toaster01.jpg","1","1","1","0","1","1","0.563392699928954","0.425362199777737","0.376068399753422","1","1","1","1","1","1","1","1","1"
"260047","img/object_images/toaster01.jpg","img/object_images/WoodBox01.jpg","img/object_images/helmet04.jpg","1","1","1","1","0","1","0.376068399753422","0.563392699928954","0.424510000040755","1","1","1","1","1","1","1","1","1"
"260047","img/object_images/helmet04.jpg","img/object_images/toaster01.jpg","img/object_images/fan02.jpg","1","1","1","1","1","0","0.424510000040755","0.376068399753422","0.47177409986034","1","1","1","1","1","1","1","1","1"
"260047","img/object_images/fan02.jpg","img/object_images/helmet04.jpg","img/object_images/cellphone03.jpg","1","1","0","0","1","0","0.47177409986034","0.424510000040755","0.527859600028023","1","1","1","1","1","1","1","1","1"
"260047","img/object_images/cellphone03.jpg","img/object_images/fan02.jpg","img/object_images/purse04.jpg","0","1","1","0","0","1","0.527859600028023","0.47177409986034","0.482399699976668","1","1","1","1","1","1","1","1","1"
"260047","img/object_images/purse04.jpg","img/object_images/cellphone03.jpg","img/object_images/dog_leash01.jpg","1","0","1","1","0","0","0.482399699976668","0.527859600028023","0.555038799997419","1","1","1","1","1","1","1","1","1"
"260047","img/object_images/dog_leash01.jpg","img/object_images/purse04.jpg","img/object_images/tie02.jpg","1","1","1","0","1","0","0.555038799997419","0.482399699976668","0.598491899902001","1","1","1","1","1","1","1","1","1"
"260047","img/object_images/tie02.jpg","img/object_images/dog_leash01.jpg","img/object_images/audio_port01.jpg","1","1","1","0","0","1","0.598491899902001","0.555038799997419","0.361300199758261","1","1","1","1","1","1","1","1","1"
"260047","img/object_images/audio_port01.jpg","img/object_images/tie02.jpg","img/object_images/boat_toy10.jpg","1","1","1","1","0","0","0.361300199758261","0.598491899902001","0.569066500058398","1","1","1","1","1","1","1","1","1"
"260047","img/object_images/boat_toy10.jpg","img/object_images/audio_port01.jpg","img/object_images/bicycle01.jpg","1","1","1","0","1","1","0.569066500058398","0.361300199758261","0.467260899953544","1","1","1","1","1","1","1","1","1"
"260047","img/object_images/bicycle01.jpg","img/object_images/boat_toy10.jpg","img/object_images/shoes07.jpg","1","1","1","1","0","0","0.467260899953544","0.569066500058398","0.541974799940363","1","1","1","1","1","1","1","1","1"
"260047","img/object_images/shoes07.jpg","img/object_images/bicycle01.jpg","img/object_images/hot_air_balloon02.jpg","1","1","1","0","1","0","0.541974799940363","0.467260899953544","0.71876039984636","1","1","1","1","1","1","1","1","1"
"260047","img/object_images/hot_air_balloon02.jpg","img/object_images/shoes07.jpg","img/object_images/bottle09.jpg","1","1","1","0","0","0","0.71876039984636","0.541974799940363","0.486699199769646","1","1","1","1","1","1","1","1","1"
"260047","img/object_images/bottle09.jpg","img/object_images/hot_air_balloon02.jpg","img/object_images/camera_lens01.jpg","1","1","1","0","0","1","0.486699199769646","0.71876039984636","0.400221899850294","1","1","1","1","1","1","1","1","1"
"260047","img/object_images/camera_lens01.jpg","img/object_images/bottle09.jpg","img/object_images/boat02.jpg","1","1","1","1","0","1","0.400221899850294","0.486699199769646","0.450926099903882","1","1","1","1","1","1","1","1","1"
"260047","img/object_images/boat02.jpg","img/object_images/camera_lens01.jpg","img/object_images/water_scooter01.jpg","1","1","1","1","1","1","0.450926099903882","0.400221899850294","0.527368899900466","1","1","1","1","1","1","1","1","1"
"260047","img/object_images/water_scooter01.jpg","img/object_images/boat02.jpg","img/object_images/knit01.jpg","1","1","1","1","1","0","0.527368899900466","0.450926099903882","0.516700699925423","1","1","1","1","1","1","1","1","1"
"260047","img/object_images/knit01.jpg","img/object_images/water_scooter01.jpg","img/object_images/pen05.jpg","1","1","0","0","1","0","0.516700699925423","0.527368899900466","0.492022699909285","1","1","1","1","1","1","1","1","1"
"260047","img/object_images/pen05.jpg","img/object_images/knit01.jpg","img/object_images/hat06.jpg","0","1","1","0","0","0","0.492022699909285","0.516700699925423","0.652955299941823","1","1","1","1","1","1","1","1","1"
"260047","img/object_images/hat06.jpg","img/object_images/pen05.jpg","img/object_images/piggy_bank01.jpg","1","0","1","0","0","1","0.652955299941823","0.492022699909285","0.48398320004344","1","1","1","1","1","1","1","1","1"
"260047","img/object_images/piggy_bank01.jpg","img/object_images/hat06.jpg","img/object_images/tool19.jpg","1","1","1","1","0","1","0.48398320004344","0.652955299941823","0.440744799794629","1","1","1","1","1","1","1","1","1"
"260047","img/object_images/tool19.jpg","img/object_images/piggy_bank01.jpg","img/object_images/chair03.jpg","1","1","1","1","1","0","0.440744799794629","0.48398320004344","0.385819299845025","1","1","1","1","1","1","1","1","1"
"260047","img/object_images/chair03.jpg","img/object_images/tool19.jpg","img/object_images/coloring_pencil02.jpg","1","1","1","0","1","0","0.385819299845025","0.440744799794629","0.481689699925482","1","1","1","1","1","1","1","1","1"
"260047","img/object_images/coloring_pencil02.jpg","img/object_images/chair03.jpg","img/object_images/flask01.jpg","1","1","1","0","0","0","0.481689699925482","0.385819299845025","0.543663999764249","1","1","1","1","1","1","1","1","1"
"260047","img/object_images/flask01.jpg","img/object_images/coloring_pencil02.jpg","img/object_images/bottle02.jpg","1","1","1","0","0","1","0.543663999764249","0.481689699925482","0.411315999925137","1","1","1","1","1","1","1","1","1"
"260047","img/object_images/bottle02.jpg","img/object_images/flask01.jpg",NA,"1","1",NA,"1","0",NA,"0.411315999925137","0.543663999764249",NA,"1","1",NA,"1","1",NA,"1","1",NA
"260047","img/object_images/couch01.jpg",NA,"img/object_images/computer_mouse02.jpg","1",NA,"1","0",NA,"0","0.575464199995622",NA,"0.662469599861652","1",NA,"1","1",NA,"1","1",NA,"1"
"260047","img/object_images/computer_mouse02.jpg","img/object_images/couch01.jpg","img/object_images/airfryer02.jpg","1","1","1","0","0","1","0.662469599861652","0.575464199995622","0.508860299829394","1","1","1","1","1","1","1","1","1"
"260047","img/object_images/airfryer02.jpg","img/object_images/computer_mouse02.jpg","img/object_images/chain01.jpg","1","1","1","1","0","0","0.508860299829394","0.662469599861652","0.523965599713847","1","1","1","1","1","1","1","1","1"
"260047","img/object_images/chain01.jpg","img/object_images/airfryer02.jpg","img/object_images/blender01.jpg","1","1","0","0","1","0","0.523965599713847","0.508860299829394","0.467413000063971","1","1","1","1","1","1","1","1","1"
"260047","img/object_images/blender01.jpg","img/object_images/chain01.jpg","img/object_images/skate_board01.jpg","0","1","1","0","0","0","0.467413000063971","0.523965599713847","0.706962700001895","1","1","1","1","1","1","1","1","1"
"260047","img/object_images/skate_board01.jpg","img/object_images/blender01.jpg","img/object_images/rock02.jpg","1","0","1","0","0","0","0.706962700001895","0.467413000063971","0.516419399762526","1","1","1","1","1","1","1","1","1"
"260047","img/object_images/rock02.jpg","img/object_images/skate_board01.jpg","img/object_images/toothbrush01.jpg","1","1","1","0","0","0","0.516419399762526","0.706962700001895","0.510205299826339","1","1","1","1","1","1","1","1","1"
"260047","img/object_images/toothbrush01.jpg","img/object_images/rock02.jpg","img/object_images/pitcher09.jpg","1","1","1","0","0","1","0.510205299826339","0.516419399762526","0.58952709985897","1","1","1","1","1","1","1","1","1"
"260047","img/object_images/pitcher09.jpg","img/object_images/toothbrush01.jpg","img/object_images/floss02.jpg","1","1","1","1","0","1","0.58952709985897","0.510205299826339","0.427833099849522","1","1","1","1","1","1","1","1","1"
"260047","img/object_images/floss02.jpg","img/object_images/pitcher09.jpg","img/object_images/Violin01.jpg","1","1","1","1","1","0","0.427833099849522","0.58952709985897","0.539756499696523","1","1","1","1","1","1","1","1","1"
"260047","img/object_images/Violin01.jpg","img/object_images/floss02.jpg","img/object_images/egg_slicer01.jpg","1","1","1","0","1","1","0.539756499696523","0.427833099849522","0.534086799947545","1","1","1","1","1","1","1","1","1"
"260047","img/object_images/egg_slicer01.jpg","img/object_images/Violin01.jpg","img/object_images/scarf01.jpg","1","1","1","1","0","1","0.534086799947545","0.539756499696523","0.495926299830899","1","1","1","1","1","1","1","1","1"
"260047","img/object_images/scarf01.jpg","img/object_images/egg_slicer01.jpg","img/object_images/pen01.jpg","1","1","1","1","1","0","0.495926299830899","0.534086799947545","0.493908699834719","1","1","1","1","1","1","1","1","1"
"260047","img/object_images/pen01.jpg","img/object_images/scarf01.jpg","img/object_images/shoes12.jpg","1","1","1","0","1","1","0.493908699834719","0.495926299830899","0.4547383999452","1","1","1","1","1","1","1","1","1"
"260047","img/object_images/shoes12.jpg","img/object_images/pen01.jpg","img/object_images/hair_brush01.jpg","1","1","1","1","0","1","0.4547383999452","0.493908699834719","0.516009999904782","1","1","1","1","1","1","1","1","1"
"260047","img/object_images/hair_brush01.jpg","img/object_images/shoes12.jpg","img/object_images/drone01.jpg","1","1","1","1","1","1","0.516009999904782","0.4547383999452","0.400436599738896","1","1","1","1","1","1","1","1","1"
"260047","img/object_images/drone01.jpg","img/object_images/hair_brush01.jpg","img/object_images/bag_pipes01.jpg","1","1","1","1","1","1","0.400436599738896","0.516009999904782","0.479965499835089","1","1","1","1","1","1","1","1","1"
"260047","img/object_images/bag_pipes01.jpg","img/object_images/drone01.jpg","img/object_images/soap03.jpg","1","1","1","1","1","0","0.479965499835089","0.400436599738896","0.522481699939817","1","1","1","1","1","1","1","1","1"
"260047","img/object_images/soap03.jpg","img/object_images/bag_pipes01.jpg","img/object_images/fork02.jpg","1","1","1","0","1","0","0.522481699939817","0.479965499835089","0.531254399800673","1","1","1","1","1","1","1","1","1"
"260047","img/object_images/fork02.jpg","img/object_images/soap03.jpg","img/object_images/box03.jpg","1","1","1","0","0","0","0.531254399800673","0.522481699939817","0.478089999873191","1","1","1","1","1","1","1","1","1"
"260047","img/object_images/box03.jpg","img/object_images/fork02.jpg","img/object_images/Trowel01.jpg","1","1","1","0","0","0","0.478089999873191","0.531254399800673","0.491438199998811","1","1","1","1","1","1","1","1","1"
"260047","img/object_images/Trowel01.jpg","img/object_images/box03.jpg","img/object_images/computer_mouse01.jpg","1","1","1","0","0","1","0.491438199998811","0.478089999873191","0.428758999798447","1","1","1","1","1","1","1","1","1"
"260047","img/object_images/computer_mouse01.jpg","img/object_images/Trowel01.jpg","img/object_images/chair06.jpg","1","1","1","1","0","0","0.428758999798447","0.491438199998811","0.674661699915305","1","1","1","1","1","1","1","1","1"
"260047","img/object_images/chair06.jpg","img/object_images/computer_mouse01.jpg","img/object_images/clip04.jpg","1","1","1","0","1","1","0.674661699915305","0.428758999798447","0.3815469997935","1","1","1","1","1","1","1","1","1"
"260047","img/object_images/clip04.jpg","img/object_images/chair06.jpg","img/object_images/mail_box02.jpg","1","1","1","1","0","1","0.3815469997935","0.674661699915305","0.398404999868944","1","1","1","1","1","1","1","1","1"
"260047","img/object_images/mail_box02.jpg","img/object_images/clip04.jpg","img/object_images/bell03.jpg","1","1","1","1","1","0","0.398404999868944","0.3815469997935","0.53394480003044","1","1","1","1","1","1","1","1","1"
"260047","img/object_images/bell03.jpg","img/object_images/mail_box02.jpg","img/object_images/video_game03.jpg","1","1","1","0","1","1","0.53394480003044","0.398404999868944","0.36777070001699","1","1","1","1","1","1","1","1","1"
"260047","img/object_images/video_game03.jpg","img/object_images/bell03.jpg","img/object_images/tripod01.jpg","1","1","1","1","0","1","0.36777070001699","0.53394480003044","0.463054799707606","1","1","1","1","1","1","1","1","1"
"260047","img/object_images/tripod01.jpg","img/object_images/video_game03.jpg","img/object_images/toy01.jpg","1","1","1","1","1","1","0.463054799707606","0.36777070001699","0.652191899949685","1","1","1","1","1","1","1","1","1"
"260047","img/object_images/toy01.jpg","img/object_images/tripod01.jpg","img/object_images/book02.jpg","1","1","1","1","1","1","0.652191899949685","0.463054799707606","0.396847699768841","1","1","1","1","1","1","1","1","1"
"260047","img/object_images/book02.jpg","img/object_images/toy01.jpg","img/object_images/tool06.jpg","1","1","1","1","1","0","0.396847699768841","0.652191899949685","0.548781599849463","1","1","1","1","1","1","1","1","1"
"260047","img/object_images/tool06.jpg","img/object_images/book02.jpg",NA,"1","1",NA,"0","1",NA,"0.548781599849463","0.396847699768841",NA,"1","1",NA,"1","1",NA,"1","1",NA
"260047","img/object_images/brief_case02.jpg",NA,"img/object_images/hat02.jpg","1",NA,"0","1",NA,"0","0.44757689977996",NA,"0.372628099983558","1",NA,"1","1",NA,"1","1",NA,"1"
"260047","img/object_images/hat02.jpg","img/object_images/brief_case02.jpg","img/object_images/toilet_paper01.jpg","0","1","1","0","1","1","0.372628099983558","0.44757689977996","0.523490800056607","1","1","1","1","1","1","1","1","1"
"260047","img/object_images/toilet_paper01.jpg","img/object_images/hat02.jpg","img/object_images/razor03.jpg","1","0","0","1","0","0","0.523490800056607","0.372628099983558","0.602312499890104","1","1","1","1","1","1","1","1","1"
"260047","img/object_images/razor03.jpg","img/object_images/toilet_paper01.jpg","img/object_images/ball01.jpg","0","1","0","0","1","1","0.602312499890104","0.523490800056607",NA,"1","1","0","1","1","0","1","1","0"
"260047","img/object_images/ball01.jpg","img/object_images/razor03.jpg","img/object_images/lantern01.jpg","0","0","1","1","0","1",NA,"0.602312499890104","0.387167099863291","0","1","1","0","1","1","0","1","1"
"260047","img/object_images/lantern01.jpg","img/object_images/ball01.jpg","img/object_images/chair01.jpg","1","0","1","1","1","0","0.387167099863291",NA,"0.542701399885118","1","0","1","1","0","1","1","0","1"
"260047","img/object_images/chair01.jpg","img/object_images/lantern01.jpg","img/object_images/bottle12.jpg","1","1","1","0","1","1","0.542701399885118","0.387167099863291","0.429806099971756","1","1","1","1","1","1","1","1","1"
"260047","img/object_images/bottle12.jpg","img/object_images/chair01.jpg","img/object_images/broom01.jpg","1","1","1","1","0","1","0.429806099971756","0.542701399885118","0.278755399864167","1","1","1","1","1","1","1","1","1"
"260047","img/object_images/broom01.jpg","img/object_images/bottle12.jpg","img/object_images/basketball_hoop02.jpg","1","1","1","1","1","0","0.278755399864167","0.429806099971756","0.336053599836305","1","1","1","1","1","1","1","1","1"
"260047","img/object_images/basketball_hoop02.jpg","img/object_images/broom01.jpg","img/object_images/decorative02.jpg","1","1","1","0","1","0","0.336053599836305","0.278755399864167","0.482490399852395","1","1","1","1","1","1","1","1","1"
"260047","img/object_images/decorative02.jpg","img/object_images/basketball_hoop02.jpg","img/object_images/drone02.jpg","1","1","1","0","0","0","0.482490399852395","0.336053599836305","0.561476799892262","1","1","1","1","1","1","1","1","1"
"260047","img/object_images/drone02.jpg","img/object_images/decorative02.jpg","img/object_images/Recycling01.jpg","1","1","1","0","0","1","0.561476799892262","0.482490399852395","0.407978099770844","1","1","1","1","1","1","1","1","1"
"260047","img/object_images/Recycling01.jpg","img/object_images/drone02.jpg","img/object_images/pitcher03.jpg","1","1","1","1","0","1","0.407978099770844","0.561476799892262","0.43078099982813","1","1","1","1","1","1","1","1","1"
"260047","img/object_images/pitcher03.jpg","img/object_images/Recycling01.jpg","img/object_images/container01.jpg","1","1","0","1","1","0","0.43078099982813","0.407978099770844","0.358983499929309","1","1","1","1","1","1","1","1","1"
"260047","img/object_images/container01.jpg","img/object_images/pitcher03.jpg","img/object_images/soap01.jpg","0","1","1","0","1","0","0.358983499929309","0.43078099982813","0.734098799992353","1","1","1","1","1","1","1","1","1"
"260047","img/object_images/soap01.jpg","img/object_images/container01.jpg","img/object_images/video_game06.jpg","1","0","0","0","0","0","0.734098799992353","0.358983499929309","0.41806019982323","1","1","1","1","1","1","1","1","1"
"260047","img/object_images/video_game06.jpg","img/object_images/soap01.jpg","img/object_images/airfryer01.jpg","0","1","1","0","0","0","0.41806019982323","0.734098799992353","0.557281499961391","1","1","1","1","1","1","1","1","1"
"260047","img/object_images/airfryer01.jpg","img/object_images/video_game06.jpg","img/object_images/tie01.jpg","1","0","1","0","0","0","0.557281499961391","0.41806019982323","0.737414099974558","1","1","1","1","1","1","1","1","1"
"260047","img/object_images/tie01.jpg","img/object_images/airfryer01.jpg","img/object_images/pot01.jpg","1","1","0","0","0","0","0.737414099974558","0.557281499961391","0.417843899922445","1","1","1","1","1","1","1","1","1"
"260047","img/object_images/pot01.jpg","img/object_images/tie01.jpg","img/object_images/toy_train02.jpg","0","1","1","0","0","1","0.417843899922445","0.737414099974558","0.494097199989483","1","1","1","1","1","1","1","1","1"
"260047","img/object_images/toy_train02.jpg","img/object_images/pot01.jpg","img/object_images/guitar01.jpg","1","0","1","1","0","1","0.494097199989483","0.417843899922445","0.434169399784878","1","1","1","1","1","1","1","1","1"
"260047","img/object_images/guitar01.jpg","img/object_images/toy_train02.jpg","img/object_images/brief_case01.jpg","1","1","1","1","1","0","0.434169399784878","0.494097199989483","0.678312399890274","1","1","1","1","1","1","1","1","1"
"260047","img/object_images/brief_case01.jpg","img/object_images/guitar01.jpg","img/object_images/helmet05.jpg","1","1","1","0","1","1","0.678312399890274","0.434169399784878","0.468605000060052","1","1","1","1","1","1","1","1","1"
"260047","img/object_images/helmet05.jpg","img/object_images/brief_case01.jpg","img/object_images/gloves05.jpg","1","1","1","1","0","1","0.468605000060052","0.678312399890274","0.362976300064474","1","1","1","1","1","1","1","1","1"
"260047","img/object_images/gloves05.jpg","img/object_images/helmet05.jpg","img/object_images/couch04.jpg","1","1","1","1","1","1","0.362976300064474","0.468605000060052","0.4583020999562","1","1","1","1","1","1","1","1","1"
"260047","img/object_images/couch04.jpg","img/object_images/gloves05.jpg","img/object_images/Woopie01.jpg","1","1","1","1","1","1","0.4583020999562","0.362976300064474","0.454341599717736","1","1","1","1","1","1","1","1","1"
"260047","img/object_images/Woopie01.jpg","img/object_images/couch04.jpg","img/object_images/cochlear_implant01.jpg","1","1","1","1","1","0","0.454341599717736","0.4583020999562","0.566631899913773","1","1","1","1","1","1","1","1","1"
"260047","img/object_images/cochlear_implant01.jpg","img/object_images/Woopie01.jpg","img/object_images/lamp01.jpg","1","1","1","0","1","1","0.566631899913773","0.454341599717736","0.525798399932683","1","1","1","1","1","1","1","1","1"
"260047","img/object_images/lamp01.jpg","img/object_images/cochlear_implant01.jpg","img/object_images/car02.jpg","1","1","1","1","0","0","0.525798399932683","0.566631899913773","0.43590039992705","1","1","1","1","1","1","1","1","1"
"260047","img/object_images/car02.jpg","img/object_images/lamp01.jpg","img/object_images/ironing_table02.jpg","1","1","1","0","1","0","0.43590039992705","0.525798399932683","0.468603799818084","1","1","1","1","1","1","1","1","1"
"260047","img/object_images/ironing_table02.jpg","img/object_images/car02.jpg","img/object_images/Wisk01.jpg","1","1","1","0","0","1","0.468603799818084","0.43590039992705","0.482458399841562","1","1","1","1","1","1","1","1","1"
"260047","img/object_images/Wisk01.jpg","img/object_images/ironing_table02.jpg",NA,"1","1",NA,"1","0",NA,"0.482458399841562","0.468603799818084",NA,"1","1",NA,"1","1",NA,"1","1",NA
"260047","img/object_images/hat09.jpg",NA,"img/object_images/tool13.jpg","0",NA,"1","0",NA,"1",NA,NA,"0.550155999837443","0",NA,"1","0",NA,"1","0",NA,"1"
"260047","img/object_images/tool13.jpg","img/object_images/hat09.jpg","img/object_images/perfume01.jpg","1","0","0","1","0","0","0.550155999837443",NA,"0.385524899698794","1","0","1","1","0","1","1","0","1"
"260047","img/object_images/perfume01.jpg","img/object_images/tool13.jpg","img/object_images/vase02.jpg","0","1","1","0","1","1","0.385524899698794","0.550155999837443","0.487964099971578","1","1","1","1","1","1","1","1","1"
"260047","img/object_images/vase02.jpg","img/object_images/perfume01.jpg","img/object_images/cup01.jpg","1","0","1","1","0","0","0.487964099971578","0.385524899698794","0.391563399927691","1","1","1","1","1","1","1","1","1"
"260047","img/object_images/cup01.jpg","img/object_images/vase02.jpg","img/object_images/bag04.jpg","1","1","1","0","1","0","0.391563399927691","0.487964099971578","0.35438789986074","1","1","1","1","1","1","1","1","1"
"260047","img/object_images/bag04.jpg","img/object_images/cup01.jpg","img/object_images/spray_can01.jpg","1","1","1","0","0","0","0.35438789986074","0.391563399927691","0.531386599875987","1","1","1","1","1","1","1","1","1"
"260047","img/object_images/spray_can01.jpg","img/object_images/bag04.jpg","img/object_images/pen06.jpg","1","1","0","0","0","0","0.531386599875987","0.35438789986074","0.356231399811804","1","1","1","1","1","1","1","1","1"
"260047","img/object_images/pen06.jpg","img/object_images/spray_can01.jpg","img/object_images/sink_filter01 (1).jpg","0","1","1","0","0","0","0.356231399811804","0.531386599875987","0.567413599928841","1","1","1","1","1","1","1","1","1"
"260047","img/object_images/sink_filter01 (1).jpg","img/object_images/pen06.jpg","img/object_images/hammer02.jpg","1","0","1","0","0","0","0.567413599928841","0.356231399811804","0.707936099963263","1","1","1","1","1","1","1","1","1"
"260047","img/object_images/hammer02.jpg","img/object_images/sink_filter01 (1).jpg","img/object_images/dust_pan01.jpg","1","1","1","0","0","1","0.707936099963263","0.567413599928841","0.574203999945894","1","1","1","1","1","1","1","1","1"
"260047","img/object_images/dust_pan01.jpg","img/object_images/hammer02.jpg","img/object_images/video_game02.jpg","1","1","1","1","0","1","0.574203999945894","0.707936099963263","0.407425299985334","1","1","1","1","1","1","1","1","1"
"260047","img/object_images/video_game02.jpg","img/object_images/dust_pan01.jpg","img/object_images/board01.jpg","1","1","1","1","1","1","0.407425299985334","0.574203999945894","0.43000499997288","1","1","1","1","1","1","1","1","1"
"260047","img/object_images/board01.jpg","img/object_images/video_game02.jpg","img/object_images/camera05.jpg","1","1","0","1","1","0","0.43000499997288","0.407425299985334","0.425915299914777","1","1","1","1","1","1","1","1","2"
"260047","img/object_images/camera05.jpg","img/object_images/board01.jpg","img/object_images/candle02.jpg","0","1","0","0","1","0","0.425915299914777","0.43000499997288",NA,"1","1","0","1","1","0","2","1","0"
"260047","img/object_images/candle02.jpg","img/object_images/camera05.jpg","img/object_images/ruler02.jpg","0","0","1","0","0","1",NA,"0.425915299914777","0.477498600026593","0","1","1","0","1","1","0","2","1"
"260047","img/object_images/ruler02.jpg","img/object_images/candle02.jpg","img/object_images/bow_tie03.jpg","1","0","1","1","0","1","0.477498600026593",NA,"0.505096999695525","1","0","1","1","0","1","1","0","1"
"260047","img/object_images/bow_tie03.jpg","img/object_images/ruler02.jpg","img/object_images/hat13.jpg","1","1","1","1","1","1","0.505096999695525","0.477498600026593","0.411183199845254","1","1","1","1","1","1","1","1","1"
"260047","img/object_images/hat13.jpg","img/object_images/bow_tie03.jpg","img/object_images/office_supplies01.jpg","1","1","1","1","1","1","0.411183199845254","0.505096999695525","0.404607499949634","1","1","1","1","1","1","1","1","1"
"260047","img/object_images/office_supplies01.jpg","img/object_images/hat13.jpg","img/object_images/Candle_Holder01.jpg","1","1","1","1","1","0","0.404607499949634","0.411183199845254","0.429427199764177","1","1","1","1","1","1","1","1","1"
"260047","img/object_images/Candle_Holder01.jpg","img/object_images/office_supplies01.jpg","img/object_images/socks01.jpg","1","1","1","0","1","1","0.429427199764177","0.404607499949634","0.417640599887818","1","1","1","1","1","1","1","1","1"
"260047","img/object_images/socks01.jpg","img/object_images/Candle_Holder01.jpg","img/object_images/duster01.jpg","1","1","0","1","0","0","0.417640599887818","0.429427199764177","0.546164399944246","1","1","1","1","1","1","1","1","2"
"260047","img/object_images/duster01.jpg","img/object_images/socks01.jpg","img/object_images/clipboard01.jpg","0","1","1","0","1","1","0.546164399944246","0.417640599887818","0.361638000002131","1","1","1","1","1","1","2","1","1"
"260047","img/object_images/clipboard01.jpg","img/object_images/duster01.jpg","img/object_images/floss01.jpg","1","0","1","1","0","1","0.361638000002131","0.546164399944246","0.422698399983346","1","1","1","1","1","1","1","2","1"
"260047","img/object_images/floss01.jpg","img/object_images/clipboard01.jpg","img/object_images/lemon_squeezer01.jpg","1","1","1","1","1","1","0.422698399983346","0.361638000002131","0.429207499837503","1","1","1","1","1","1","1","1","1"
"260047","img/object_images/lemon_squeezer01.jpg","img/object_images/floss01.jpg","img/object_images/razor02.jpg","1","1","1","1","1","1","0.429207499837503","0.422698399983346","0.426452899817377","1","1","1","1","1","1","1","1","1"
"260047","img/object_images/razor02.jpg","img/object_images/lemon_squeezer01.jpg","img/object_images/pan03.jpg","1","1","1","1","1","1","0.426452899817377","0.429207499837503","0.481243999907747","1","1","1","1","1","1","1","1","1"
"260047","img/object_images/pan03.jpg","img/object_images/razor02.jpg","img/object_images/knife01.jpg","1","1","1","1","1","1","0.481243999907747","0.426452899817377","0.534726900048554","1","1","1","1","1","1","1","1","1"
"260047","img/object_images/knife01.jpg","img/object_images/pan03.jpg","img/object_images/glasses03.jpg","1","1","1","1","1","0","0.534726900048554","0.481243999907747","0.510831099702045","1","1","1","1","1","1","1","1","1"
"260047","img/object_images/glasses03.jpg","img/object_images/knife01.jpg","img/object_images/tool20.jpg","1","1","1","0","1","0","0.510831099702045","0.534726900048554","0.545362199889496","1","1","1","1","1","1","1","1","1"
"260047","img/object_images/tool20.jpg","img/object_images/glasses03.jpg","img/object_images/sign02.jpg","1","1","1","0","0","0","0.545362199889496","0.510831099702045","0.49434299999848","1","1","1","1","1","1","1","1","1"
"260047","img/object_images/sign02.jpg","img/object_images/tool20.jpg","img/object_images/Confetti 01.jpg","1","1","1","0","0","0","0.49434299999848","0.545362199889496","0.627676099771634","1","1","1","1","1","1","1","1","1"
"260047","img/object_images/Confetti 01.jpg","img/object_images/sign02.jpg",NA,"1","1",NA,"0","0",NA,"0.627676099771634","0.49434299999848",NA,"1","1",NA,"1","1",NA,"1","1",NA
"260047","img/object_images/tray01.jpg",NA,"img/object_images/purse01.jpg","0",NA,"1","1",NA,"1",NA,NA,"0.479853600030765","0",NA,"1","0",NA,"1","0",NA,"1"
"260047","img/object_images/purse01.jpg","img/object_images/tray01.jpg","img/object_images/handcuffs01.jpg","1","0","0","1","1","0","0.479853600030765",NA,NA,"1","0","0","1","0","0","1","0","0"
"260047","img/object_images/handcuffs01.jpg","img/object_images/purse01.jpg","img/object_images/Traffic Sign 01.jpg","0","1","0","0","1","0",NA,"0.479853600030765","0.458591199945659","0","1","1","0","1","1","0","1","1"
"260047","img/object_images/Traffic Sign 01.jpg","img/object_images/handcuffs01.jpg","img/object_images/yo_yo01.jpg","0","0","1","0","0","0","0.458591199945659",NA,"0.447439399780706","1","0","1","1","0","1","1","0","1"
"260047","img/object_images/yo_yo01.jpg","img/object_images/Traffic Sign 01.jpg","img/object_images/basket02.jpg","1","0","1","0","0","0","0.447439399780706","0.458591199945659","0.613416299689561","1","1","1","1","1","1","1","1","1"
"260047","img/object_images/basket02.jpg","img/object_images/yo_yo01.jpg","img/object_images/lighter01.jpg","1","1","1","0","0","1","0.613416299689561","0.447439399780706","0.583560999948531","1","1","1","1","1","1","1","1","1"
"260047","img/object_images/lighter01.jpg","img/object_images/basket02.jpg","img/object_images/ring03.jpg","1","1","1","1","0","1","0.583560999948531","0.613416299689561","0.46023859991692","1","1","1","1","1","1","1","1","1"
"260047","img/object_images/ring03.jpg","img/object_images/lighter01.jpg","img/object_images/pan01.jpg","1","1","1","1","1","1","0.46023859991692","0.583560999948531","0.354245599824935","1","1","1","1","1","1","1","1","1"
"260047","img/object_images/pan01.jpg","img/object_images/ring03.jpg","img/object_images/tool07.jpg","1","1","1","1","1","0","0.354245599824935","0.46023859991692","0.537309000035748","1","1","1","1","1","1","1","1","1"
"260047","img/object_images/tool07.jpg","img/object_images/pan01.jpg","img/object_images/exfoliater_brush01.jpg","1","1","1","0","1","0","0.537309000035748","0.354245599824935","0.555386699736118","1","1","1","1","1","1","1","1","1"
"260047","img/object_images/exfoliater_brush01.jpg","img/object_images/tool07.jpg","img/object_images/TrashCan02.jpg","1","1","1","0","0","1","0.555386699736118","0.537309000035748","0.510445599909872","1","1","1","1","1","1","1","1","1"
"260047","img/object_images/TrashCan02.jpg","img/object_images/exfoliater_brush01.jpg","img/object_images/cup03.jpg","1","1","1","1","0","1","0.510445599909872","0.555386699736118","0.575422999914736","1","1","1","1","1","1","1","1","1"
"260047","img/object_images/cup03.jpg","img/object_images/TrashCan02.jpg","img/object_images/Sprayer01.jpg","1","1","1","1","1","0","0.575422999914736","0.510445599909872","0.635132599854842","1","1","1","1","1","1","1","1","1"
"260047","img/object_images/Sprayer01.jpg","img/object_images/cup03.jpg","img/object_images/cellphone02.jpg","1","1","1","0","1","1","0.635132599854842","0.575422999914736","0.414373099803925","1","1","1","1","1","1","1","1","1"
"260047","img/object_images/cellphone02.jpg","img/object_images/Sprayer01.jpg","img/object_images/glasses07.jpg","1","1","0","1","0","1","0.414373099803925","0.635132599854842","0.40649739978835","1","1","1","1","1","1","1","1","1"
"260047","img/object_images/glasses07.jpg","img/object_images/cellphone02.jpg","img/object_images/Kitchen_Towel.jpg","0","1","1","1","1","0","0.40649739978835","0.414373099803925","0.563557999907061","1","1","1","1","1","1","1","1","1"
"260047","img/object_images/Kitchen_Towel.jpg","img/object_images/glasses07.jpg","img/object_images/projector01.jpg","1","0","1","0","1","0","0.563557999907061","0.40649739978835","0.498195699881762","1","1","1","1","1","1","1","1","1"
"260047","img/object_images/projector01.jpg","img/object_images/Kitchen_Towel.jpg","img/object_images/Pottery01.jpg","1","1","1","0","0","0","0.498195699881762","0.563557999907061","0.560319599928334","1","1","1","1","1","1","1","1","1"
"260047","img/object_images/Pottery01.jpg","img/object_images/projector01.jpg","img/object_images/fire_extinguisher01.jpg","1","1","1","0","0","0","0.560319599928334","0.498195699881762","0.538426699815318","1","1","1","1","1","1","1","1","1"
"260047","img/object_images/fire_extinguisher01.jpg","img/object_images/Pottery01.jpg","img/object_images/faucet01.jpg","1","1","1","0","0","0","0.538426699815318","0.560319599928334","0.57614259980619","1","1","1","1","1","1","1","1","1"
"260047","img/object_images/faucet01.jpg","img/object_images/fire_extinguisher01.jpg","img/object_images/blanket01.jpg","1","1","1","0","0","1","0.57614259980619","0.538426699815318","0.570148599799722","1","1","1","1","1","1","1","1","1"
"260047","img/object_images/blanket01.jpg","img/object_images/faucet01.jpg","img/object_images/glasses06.jpg","1","1","1","1","0","1","0.570148599799722","0.57614259980619","0.428031800081953","1","1","1","1","1","1","1","1","1"
"260047","img/object_images/glasses06.jpg","img/object_images/blanket01.jpg","img/object_images/gift_box04.jpg","1","1","1","1","1","0","0.428031800081953","0.570148599799722","0.537732600001618","1","1","1","1","1","1","1","1","1"
"260047","img/object_images/gift_box04.jpg","img/object_images/glasses06.jpg","img/object_images/colander01.jpg","1","1","1","0","1","0","0.537732600001618","0.428031800081953","0.556217099772766","1","1","1","1","1","1","1","1","1"
"260047","img/object_images/colander01.jpg","img/object_images/gift_box04.jpg","img/object_images/bicycle_lock01.jpg","1","1","1","0","0","0","0.556217099772766","0.537732600001618","0.516456299927086","1","1","1","1","1","1","1","1","1"
"260047","img/object_images/bicycle_lock01.jpg","img/object_images/colander01.jpg","img/object_images/jewelry09.jpg","1","1","1","0","0","1","0.516456299927086","0.556217099772766","0.43461379990913","1","1","1","1","1","1","1","1","1"
"260047","img/object_images/jewelry09.jpg","img/object_images/bicycle_lock01.jpg","img/object_images/book01.jpg","1","1","1","1","0","1","0.43461379990913","0.516456299927086","0.446519399993122","1","1","1","1","1","1","1","1","1"
"260047","img/object_images/book01.jpg","img/object_images/jewelry09.jpg","img/object_images/hole_puncher01.jpg","1","1","1","1","1","1","0.446519399993122","0.43461379990913","0.546077199745923","1","1","1","1","1","1","1","1","1"
"260047","img/object_images/hole_puncher01.jpg","img/object_images/book01.jpg","img/object_images/hair_clips01.jpg","1","1","1","1","1","1","0.546077199745923","0.446519399993122","0.456466399831697","1","1","1","1","1","1","1","1","1"
"260047","img/object_images/hair_clips01.jpg","img/object_images/hole_puncher01.jpg","img/object_images/speaker01.jpg","1","1","1","1","1","1","0.456466399831697","0.546077199745923","0.412769599817693","1","1","1","1","1","1","1","1","1"
"260047","img/object_images/speaker01.jpg","img/object_images/hair_clips01.jpg","img/object_images/tool08.jpg","1","1","1","1","1","0","0.412769599817693","0.456466399831697","0.493036000058055","1","1","1","1","1","1","1","1","1"
"260047","img/object_images/tool08.jpg","img/object_images/speaker01.jpg",NA,"1","1",NA,"0","1",NA,"0.493036000058055","0.412769599817693",NA,"1","1",NA,"1","1",NA,"1","1",NA
"260047","img/object_images/compass01.jpg",NA,"img/object_images/bell02.jpg","1",NA,"0","1",NA,"0","0.447094499832019",NA,"0.404255399946123","1",NA,"1","1",NA,"1","1",NA,"1"
"260047","img/object_images/bell02.jpg","img/object_images/compass01.jpg","img/object_images/motorcycle01.jpg","0","1","1","0","1","1","0.404255399946123","0.447094499832019","0.425206499872729","1","1","1","1","1","1","1","1","1"
"260047","img/object_images/motorcycle01.jpg","img/object_images/bell02.jpg","img/object_images/book03.jpg","1","0","1","1","0","1","0.425206499872729","0.404255399946123","0.394784399773926","1","1","1","1","1","1","1","1","1"
"260047","img/object_images/book03.jpg","img/object_images/motorcycle01.jpg","img/object_images/bottle01.jpg","1","1","1","1","1","0","0.394784399773926","0.425206499872729","0.54164329986088","1","1","1","1","1","1","1","1","1"
"260047","img/object_images/bottle01.jpg","img/object_images/book03.jpg","img/object_images/wire02.jpg","1","1","1","0","1","1","0.54164329986088","0.394784399773926","0.376686699921265","1","1","1","1","1","1","1","1","1"
"260047","img/object_images/wire02.jpg","img/object_images/bottle01.jpg","img/object_images/knit05.jpg","1","1","1","1","0","1","0.376686699921265","0.54164329986088","0.503553299698979","1","1","1","1","1","1","1","1","1"
"260047","img/object_images/knit05.jpg","img/object_images/wire02.jpg","img/object_images/floppy_disk03.jpg","1","1","1","1","1","1","0.503553299698979","0.376686699921265","0.505847399821505","1","1","1","1","1","1","1","1","1"
"260047","img/object_images/floppy_disk03.jpg","img/object_images/knit05.jpg","img/object_images/clip03.jpg","1","1","1","1","1","0","0.505847399821505","0.503553299698979","0.455377300037071","1","1","1","1","1","1","1","1","1"
"260047","img/object_images/clip03.jpg","img/object_images/floppy_disk03.jpg","img/object_images/ear_bud01.jpg","1","1","1","0","1","1","0.455377300037071","0.505847399821505","0.454954999964684","1","1","1","1","1","1","1","1","1"
"260047","img/object_images/ear_bud01.jpg","img/object_images/clip03.jpg","img/object_images/usb02.jpg","1","1","0","1","0","0","0.454954999964684","0.455377300037071","0.503606399754062","1","1","1","1","1","1","1","1","1"
"260047","img/object_images/usb02.jpg","img/object_images/ear_bud01.jpg","img/object_images/hammer03.jpg","0","1","1","0","1","1","0.503606399754062","0.454954999964684","0.466438499744982","1","1","1","1","1","1","1","1","1"
"260047","img/object_images/hammer03.jpg","img/object_images/usb02.jpg","img/object_images/Oven01.jpg","1","0","1","1","0","1","0.466438499744982","0.503606399754062","0.476475100032985","1","1","1","1","1","1","1","1","1"
"260047","img/object_images/Oven01.jpg","img/object_images/hammer03.jpg","img/object_images/tv02.jpg","1","1","1","1","1","0","0.476475100032985","0.466438499744982","0.548673799959943","1","1","1","1","1","1","1","1","1"
"260047","img/object_images/tv02.jpg","img/object_images/Oven01.jpg","img/object_images/microscope01.jpg","1","1","0","0","1","0","0.548673799959943","0.476475100032985","0.497693799901754","1","1","1","1","1","1","1","1","3"
"260047","img/object_images/microscope01.jpg","img/object_images/tv02.jpg","img/object_images/knife04.jpg","0","1","1","0","0","1","0.497693799901754","0.548673799959943","0.584661499829963","1","1","1","1","1","1","3","1","1"
"260047","img/object_images/knife04.jpg","img/object_images/microscope01.jpg","img/object_images/tennis_racket02.jpg","1","0","1","1","0","1","0.584661499829963","0.497693799901754","0.44598379987292","1","1","1","1","1","1","1","3","1"
"260047","img/object_images/tennis_racket02.jpg","img/object_images/knife04.jpg","img/object_images/pitcher01.jpg","1","1","1","1","1","0","0.44598379987292","0.584661499829963","0.479657199932262","1","1","1","1","1","1","1","1","1"
"260047","img/object_images/pitcher01.jpg","img/object_images/tennis_racket02.jpg","img/object_images/chair05.jpg","1","1","1","0","1","0","0.479657199932262","0.44598379987292","0.5683525998611","1","1","1","1","1","1","1","1","1"
"260047","img/object_images/chair05.jpg","img/object_images/pitcher01.jpg","img/object_images/pillows01.jpg","1","1","1","0","0","1","0.5683525998611","0.479657199932262","0.483783300034702","1","1","1","1","1","1","1","1","1"
"260047","img/object_images/pillows01.jpg","img/object_images/chair05.jpg","img/object_images/Thermometer01.jpg","1","1","1","1","0","0","0.483783300034702","0.5683525998611","0.508249999722466","1","1","1","1","1","1","1","1","1"
"260047","img/object_images/Thermometer01.jpg","img/object_images/pillows01.jpg","img/object_images/floppy_disk02.jpg","1","1","1","0","1","0","0.508249999722466","0.483783300034702","0.624964599963278","1","1","1","1","1","1","1","1","1"
"260047","img/object_images/floppy_disk02.jpg","img/object_images/Thermometer01.jpg","img/object_images/lid01.jpg","1","1","1","0","0","1","0.624964599963278","0.508249999722466","0.45345739973709","1","1","1","1","1","1","1","1","1"
"260047","img/object_images/lid01.jpg","img/object_images/floppy_disk02.jpg","img/object_images/cellphone01.jpg","1","1","1","1","0","1","0.45345739973709","0.624964599963278","0.434645999921486","1","1","1","1","1","1","1","1","1"
"260047","img/object_images/cellphone01.jpg","img/object_images/lid01.jpg","img/object_images/clock02.jpg","1","1","1","1","1","0","0.434645999921486","0.45345739973709","0.539002599893138","1","1","1","1","1","1","1","1","1"
"260047","img/object_images/clock02.jpg","img/object_images/cellphone01.jpg","img/object_images/pen03.jpg","1","1","1","0","1","0","0.539002599893138","0.434645999921486","0.607157599879429","1","1","1","1","1","1","1","1","1"
"260047","img/object_images/pen03.jpg","img/object_images/clock02.jpg","img/object_images/chess_piece02.jpg","1","1","1","0","0","1","0.607157599879429","0.539002599893138","0.585510199889541","1","1","1","1","1","1","1","1","1"
"260047","img/object_images/chess_piece02.jpg","img/object_images/pen03.jpg","img/object_images/Staples01.jpg","1","1","1","1","0","1","0.585510199889541","0.607157599879429","0.409734099870548","1","1","1","1","1","1","1","1","1"
"260047","img/object_images/Staples01.jpg","img/object_images/chess_piece02.jpg","img/object_images/paint_brush04.jpg","1","1","0","1","1","0","0.409734099870548","0.585510199889541","0.899473099969327","1","1","1","1","1","1","1","1","1"
"260047","img/object_images/paint_brush04.jpg","img/object_images/Staples01.jpg","img/object_images/note_book01.jpg","0","1","1","0","1","0","0.899473099969327","0.409734099870548","0.569903499912471","1","1","1","1","1","1","1","1","1"
"260047","img/object_images/note_book01.jpg","img/object_images/paint_brush04.jpg","img/object_images/retainer01.jpg","1","0","1","0","0","0","0.569903499912471","0.899473099969327","0.552659999812022","1","1","1","1","1","1","1","1","1"
"260047","img/object_images/retainer01.jpg","img/object_images/note_book01.jpg","img/object_images/crutches02.jpg","1","1","1","0","0","0","0.552659999812022","0.569903499912471","0.497394799720496","1","1","1","1","1","1","1","1","1"
"260047","img/object_images/crutches02.jpg","img/object_images/retainer01.jpg",NA,"1","1",NA,"0","0",NA,"0.497394799720496","0.552659999812022",NA,"1","1",NA,"1","1",NA,"1","1",NA
"260047","img/object_images/ribbon01.jpg",NA,"img/object_images/lemon_squeezer02.jpg","0",NA,"1","0",NA,"1",NA,NA,"0.44041149970144","0",NA,"1","0",NA,"1","0",NA,"1"
"260047","img/object_images/lemon_squeezer02.jpg","img/object_images/ribbon01.jpg","img/object_images/jewelry07.jpg","1","0","1","1","0","1","0.44041149970144",NA,"0.437653299886733","1","0","1","1","0","1","1","0","1"
"260047","img/object_images/jewelry07.jpg","img/object_images/lemon_squeezer02.jpg","img/object_images/satellite01.jpg","1","1","1","1","1","0","0.437653299886733","0.44041149970144","0.444506799802184","1","1","1","1","1","1","1","1","1"
"260047","img/object_images/satellite01.jpg","img/object_images/jewelry07.jpg","img/object_images/car03.jpg","1","1","1","0","1","0","0.444506799802184","0.437653299886733","0.56916549988091","1","1","1","1","1","1","1","1","1"
"260047","img/object_images/car03.jpg","img/object_images/satellite01.jpg","img/object_images/jewel01.jpg","1","1","1","0","0","0","0.56916549988091","0.444506799802184","0.5010402998887","1","1","1","1","1","1","1","1","1"
"260047","img/object_images/jewel01.jpg","img/object_images/car03.jpg","img/object_images/cutting_board01.jpg","1","1","1","0","0","1","0.5010402998887","0.56916549988091","0.475679599912837","1","1","1","1","1","1","1","1","1"
"260047","img/object_images/cutting_board01.jpg","img/object_images/jewel01.jpg","img/object_images/yarn02.jpg","1","1","1","1","0","0","0.475679599912837","0.5010402998887","0.5032949000597","1","1","1","1","1","1","1","1","1"
"260047","img/object_images/yarn02.jpg","img/object_images/cutting_board01.jpg","img/object_images/ice_tray03.jpg","1","1","1","0","1","1","0.5032949000597","0.475679599912837","0.44859159970656","1","1","1","1","1","1","1","1","1"
"260047","img/object_images/ice_tray03.jpg","img/object_images/yarn02.jpg","img/object_images/toaster02.jpg","1","1","1","1","0","1","0.44859159970656","0.5032949000597","0.458739799913019","1","1","1","1","1","1","1","1","1"
"260047","img/object_images/toaster02.jpg","img/object_images/ice_tray03.jpg","img/object_images/tool11.jpg","1","1","1","1","1","1","0.458739799913019","0.44859159970656","0.401272399816662","1","1","1","1","1","1","1","1","1"
"260047","img/object_images/tool11.jpg","img/object_images/toaster02.jpg","img/object_images/MeasuringCup01.jpg","1","1","0","1","1","1","0.401272399816662","0.458739799913019","0.372623599832878","1","1","1","1","1","1","1","1","1"
"260047","img/object_images/MeasuringCup01.jpg","img/object_images/tool11.jpg","img/object_images/belt01.jpg","0","1","1","1","1","0","0.372623599832878","0.401272399816662","1.91000219993293","1","1","1","1","1","1","1","1","1"
"260047","img/object_images/belt01.jpg","img/object_images/MeasuringCup01.jpg","img/object_images/binoculars03.jpg","1","0","1","0","1","1","1.91000219993293","0.372623599832878","0.433806599816307","1","1","1","1","1","1","1","1","1"
"260047","img/object_images/binoculars03.jpg","img/object_images/belt01.jpg","img/object_images/screwdriver01.jpg","1","1","1","1","0","0","0.433806599816307","1.91000219993293","0.407022400060669","1","1","1","1","1","1","1","1","1"
"260047","img/object_images/screwdriver01.jpg","img/object_images/binoculars03.jpg","img/object_images/bag06.jpg","1","1","1","0","1","1","0.407022400060669","0.433806599816307","0.444191799964756","1","1","1","1","1","1","1","1","1"
"260047","img/object_images/bag06.jpg","img/object_images/screwdriver01.jpg","img/object_images/shoes10.jpg","1","1","1","1","0","0","0.444191799964756","0.407022400060669","0.685198099818081","1","1","1","1","1","1","1","1","1"
"260047","img/object_images/shoes10.jpg","img/object_images/bag06.jpg","img/object_images/ladle02.jpg","1","1","1","0","1","0","0.685198099818081","0.444191799964756","0.565726699773222","1","1","1","1","1","1","1","1","1"
"260047","img/object_images/ladle02.jpg","img/object_images/shoes10.jpg","img/object_images/tv01.jpg","1","1","1","0","0","0","0.565726699773222","0.685198099818081","0.526113499887288","1","1","1","1","1","1","1","1","1"
"260047","img/object_images/tv01.jpg","img/object_images/ladle02.jpg","img/object_images/WitchHat02.jpg","1","1","1","0","0","1","0.526113499887288","0.565726699773222","0.407693399814889","1","1","1","1","1","1","1","1","1"
"260047","img/object_images/WitchHat02.jpg","img/object_images/tv01.jpg","img/object_images/mask01.jpg","1","1","0","1","0","0","0.407693399814889","0.526113499887288","0.445462999865413","1","1","1","1","1","1","1","1","2"
"260047","img/object_images/mask01.jpg","img/object_images/WitchHat02.jpg","img/object_images/rock03.jpg","0","1","1","0","1","0","0.445462999865413","0.407693399814889","0.609822900034487","1","1","1","1","1","1","2","1","1"
"260047","img/object_images/rock03.jpg","img/object_images/mask01.jpg","img/object_images/cards01.jpg","1","0","1","0","0","0","0.609822900034487","0.445462999865413","0.573604899924248","1","1","1","1","1","1","1","2","1"
"260047","img/object_images/cards01.jpg","img/object_images/rock03.jpg","img/object_images/slinky_toy01.jpg","1","1","1","0","0","1","0.573604899924248","0.609822900034487","0.366928899893537","1","1","1","1","1","1","1","1","1"
"260047","img/object_images/slinky_toy01.jpg","img/object_images/cards01.jpg","img/object_images/key02.jpg","1","1","1","1","0","1","0.366928899893537","0.573604899924248","0.595146399689838","1","1","1","1","1","1","1","1","1"
"260047","img/object_images/key02.jpg","img/object_images/slinky_toy01.jpg","img/object_images/shower_head03.jpg","1","1","1","1","1","1","0.595146399689838","0.366928899893537","0.468285299837589","1","1","1","1","1","1","1","1","1"
"260047","img/object_images/shower_head03.jpg","img/object_images/key02.jpg","img/object_images/razor01.jpg","1","1","0","1","1","0","0.468285299837589","0.595146399689838","0.431774399941787","1","1","1","1","1","1","1","1","2"
"260047","img/object_images/razor01.jpg","img/object_images/shower_head03.jpg","img/object_images/car04.jpg","0","1","1","0","1","0","0.431774399941787","0.468285299837589","0.594836500007659","1","1","1","1","1","1","2","1","1"
"260047","img/object_images/car04.jpg","img/object_images/razor01.jpg","img/object_images/dress03.jpg","1","0","1","0","0","1","0.594836500007659","0.431774399941787","0.494596099713817","1","1","1","1","1","1","1","2","1"
"260047","img/object_images/dress03.jpg","img/object_images/car04.jpg","img/object_images/hair_brush05.jpg","1","1","1","1","0","1","0.494596099713817","0.594836500007659","0.461145899724215","1","1","1","1","1","1","1","1","1"
"260047","img/object_images/hair_brush05.jpg","img/object_images/dress03.jpg","img/object_images/fan05.jpg","1","1","1","1","1","0","0.461145899724215","0.494596099713817","0.64312359993346","1","1","1","1","1","1","1","1","1"
"260047","img/object_images/fan05.jpg","img/object_images/hair_brush05.jpg","img/object_images/chair04.jpg","1","1","1","0","1","1","0.64312359993346","0.461145899724215","0.371792599791661","1","1","1","1","1","1","1","1","1"
"260047","img/object_images/chair04.jpg","img/object_images/fan05.jpg",NA,"1","1",NA,"1","0",NA,"0.371792599791661","0.64312359993346",NA,"1","1",NA,"1","1",NA,"1","1",NA
"260047","img/object_images/sink01.jpg",NA,"img/object_images/tool02.jpg","1",NA,"1","0",NA,"1","0.446202899795026",NA,"0.43899879977107","1",NA,"1","1",NA,"1","1",NA,"1"
"260047","img/object_images/tool02.jpg","img/object_images/sink01.jpg","img/object_images/Stool01.jpg","1","1","1","1","0","0","0.43899879977107","0.446202899795026","0.393146699760109","1","1","1","1","1","1","1","1","1"
"260047","img/object_images/Stool01.jpg","img/object_images/tool02.jpg","img/object_images/Tin01.jpg","1","1","1","0","1","1","0.393146699760109","0.43899879977107","0.366159299854189","1","1","1","1","1","1","1","1","1"
"260047","img/object_images/Tin01.jpg","img/object_images/Stool01.jpg","img/object_images/toy04.jpg","1","1","0","1","0","0","0.366159299854189","0.393146699760109","0.330073500052094","1","1","1","1","1","1","1","1","1"
"260047","img/object_images/toy04.jpg","img/object_images/Tin01.jpg","img/object_images/Ring02.jpg","0","1","1","0","1","0","0.330073500052094","0.366159299854189","0.453710899921134","1","1","1","1","1","1","1","1","1"
"260047","img/object_images/Ring02.jpg","img/object_images/toy04.jpg","img/object_images/jewel04.jpg","1","0","1","0","0","0","0.453710899921134","0.330073500052094","0.604855799814686","1","1","1","1","1","1","1","1","1"
"260047","img/object_images/jewel04.jpg","img/object_images/Ring02.jpg","img/object_images/frisbee01.jpg","1","1","1","0","0","1","0.604855799814686","0.453710899921134","0.470040599815547","1","1","1","1","1","1","1","1","1"
"260047","img/object_images/frisbee01.jpg","img/object_images/jewel04.jpg","img/object_images/MetalWire01.jpg","1","1","1","1","0","0","0.470040599815547","0.604855799814686","0.51767269987613","1","1","1","1","1","1","1","1","1"
"260047","img/object_images/MetalWire01.jpg","img/object_images/frisbee01.jpg","img/object_images/pot01 (1).jpg","1","1","1","0","1","0","0.51767269987613","0.470040599815547","0.508494399720803","1","1","1","1","1","1","1","1","1"
"260047","img/object_images/pot01 (1).jpg","img/object_images/MetalWire01.jpg","img/object_images/helmet01.jpg","1","1","1","0","0","0","0.508494399720803","0.51767269987613","0.498015800025314","1","1","1","1","1","1","1","1","1"
"260047","img/object_images/helmet01.jpg","img/object_images/pot01 (1).jpg","img/object_images/crown02.jpg","1","1","1","0","0","1","0.498015800025314","0.508494399720803","0.362224299926311","1","1","1","1","1","1","1","1","1"
"260047","img/object_images/crown02.jpg","img/object_images/helmet01.jpg","img/object_images/bottle05.jpg","1","1","0","1","0","0","0.362224299926311","0.498015800025314","0.787882299860939","1","1","1","1","1","1","1","1","1"
"260047","img/object_images/bottle05.jpg","img/object_images/crown02.jpg","img/object_images/stapler.jpg","0","1","1","0","1","1","0.787882299860939","0.362224299926311","0.455270299687982","1","1","1","1","1","1","1","1","1"
"260047","img/object_images/stapler.jpg","img/object_images/bottle05.jpg","img/object_images/towel02.jpg","1","0","1","1","0","1","0.455270299687982","0.787882299860939","0.369076799834147","1","1","1","1","1","1","1","1","1"
"260047","img/object_images/towel02.jpg","img/object_images/stapler.jpg","img/object_images/toy03.jpg","1","1","1","1","1","1","0.369076799834147","0.455270299687982","0.476120899897069","1","1","1","1","1","1","1","1","1"
"260047","img/object_images/toy03.jpg","img/object_images/towel02.jpg","img/object_images/video_game07.jpg","1","1","1","1","1","1","0.476120899897069","0.369076799834147","0.379398099845275","1","1","1","1","1","1","1","1","1"
"260047","img/object_images/video_game07.jpg","img/object_images/toy03.jpg","img/object_images/shovel03.jpg","1","1","1","1","1","1","0.379398099845275","0.476120899897069","0.380968799814582","1","1","1","1","1","1","1","1","1"
"260047","img/object_images/shovel03.jpg","img/object_images/video_game07.jpg","img/object_images/fridge03.jpg","1","1","1","1","1","0","0.380968799814582","0.379398099845275","0.568679299904034","1","1","1","1","1","1","1","1","1"
"260047","img/object_images/fridge03.jpg","img/object_images/shovel03.jpg","img/object_images/outlet01.jpg","1","1","1","0","1","0","0.568679299904034","0.380968799814582","0.528484499780461","1","1","1","1","1","1","1","1","1"
"260047","img/object_images/outlet01.jpg","img/object_images/fridge03.jpg","img/object_images/gauze01.jpg","1","1","1","0","0","0","0.528484499780461","0.568679299904034","0.50283919996582","1","1","1","1","1","1","1","1","1"
"260047","img/object_images/gauze01.jpg","img/object_images/outlet01.jpg","img/object_images/bird_house02.jpg","1","1","1","0","0","1","0.50283919996582","0.528484499780461","0.395137199899182","1","1","1","1","1","1","1","1","1"
"260047","img/object_images/bird_house02.jpg","img/object_images/gauze01.jpg","img/object_images/ornament01.jpg","1","1","1","1","0","1","0.395137199899182","0.50283919996582","0.324211799772456","1","1","1","1","1","1","1","1","1"
"260047","img/object_images/ornament01.jpg","img/object_images/bird_house02.jpg","img/object_images/guitar02.jpg","1","1","0","1","1","0","0.324211799772456","0.395137199899182","0.387434699805453","1","1","1","1","1","1","1","1","1"
"260047","img/object_images/guitar02.jpg","img/object_images/ornament01.jpg","img/object_images/judge_gavel01.jpg","0","1","1","0","1","1","0.387434699805453","0.324211799772456","0.411762499948964","1","1","1","1","1","1","1","1","1"
"260047","img/object_images/judge_gavel01.jpg","img/object_images/guitar02.jpg","img/object_images/mirror01.jpg","1","0","1","1","0","1","0.411762499948964","0.387434699805453","0.553017699858174","1","1","1","1","1","1","1","1","1"
"260047","img/object_images/mirror01.jpg","img/object_images/judge_gavel01.jpg","img/object_images/Vacuum01.jpg","1","1","1","1","1","0","0.553017699858174","0.411762499948964","0.577448499854654","1","1","1","1","1","1","1","1","1"
"260047","img/object_images/Vacuum01.jpg","img/object_images/mirror01.jpg","img/object_images/watch01.jpg","1","1","1","0","1","0","0.577448499854654","0.553017699858174","0.491729300003499","1","1","1","1","1","1","1","1","1"
"260047","img/object_images/watch01.jpg","img/object_images/Vacuum01.jpg","img/object_images/bow01.jpg","1","1","1","0","0","1","0.491729300003499","0.577448499854654","0.401943000033498","1","1","1","1","1","1","1","1","1"
"260047","img/object_images/bow01.jpg","img/object_images/watch01.jpg","img/object_images/dart01.jpg","1","1","0","1","0","0","0.401943000033498","0.491729300003499","0.490127599798143","1","1","1","1","1","1","1","1","1"
"260047","img/object_images/dart01.jpg","img/object_images/bow01.jpg","img/object_images/tool09.jpg","0","1","1","0","1","1","0.490127599798143","0.401943000033498","0.551271899836138","1","1","1","1","1","1","1","1","1"
"260047","img/object_images/tool09.jpg","img/object_images/dart01.jpg","img/object_images/acoustic_capo01.jpg","1","0","1","1","0","1","0.551271899836138","0.490127599798143","0.547194799873978","1","1","1","1","1","1","1","1","1"
"260047","img/object_images/acoustic_capo01.jpg","img/object_images/tool09.jpg",NA,"1","1",NA,"1","1",NA,"0.547194799873978","0.551271899836138",NA,"1","1",NA,"1","1",NA,"1","1",NA
"260047","img/object_images/gift_box03.jpg",NA,"img/object_images/grater01.jpg","1",NA,"1","0",NA,"1","0.536647599888965",NA,"0.454730299999937","1",NA,"1","1",NA,"1","1",NA,"1"
"260047","img/object_images/grater01.jpg","img/object_images/gift_box03.jpg","img/object_images/golf_ball03.jpg","1","1","1","1","0","1","0.454730299999937","0.536647599888965","0.526725600007921","1","1","1","1","1","1","1","1","1"
"260047","img/object_images/golf_ball03.jpg","img/object_images/grater01.jpg","img/object_images/Screws01.jpg","1","1","1","1","1","1","0.526725600007921","0.454730299999937","0.493490200024098","1","1","1","1","1","1","1","1","1"
"260047","img/object_images/Screws01.jpg","img/object_images/golf_ball03.jpg","img/object_images/jewelry01.jpg","1","1","1","1","1","1","0.493490200024098","0.526725600007921","0.460505499970168","1","1","1","1","1","1","1","1","1"
"260047","img/object_images/jewelry01.jpg","img/object_images/Screws01.jpg","img/object_images/camera07.jpg","1","1","1","1","1","1","0.460505499970168","0.493490200024098","0.455945299938321","1","1","1","1","1","1","1","1","1"
"260047","img/object_images/camera07.jpg","img/object_images/jewelry01.jpg","img/object_images/funnel01.jpg","1","1","1","1","1","0","0.455945299938321","0.460505499970168","0.593376499833539","1","1","1","1","1","1","1","1","1"
"260047","img/object_images/funnel01.jpg","img/object_images/camera07.jpg","img/object_images/measuring_tape02.jpg","1","1","1","0","1","1","0.593376499833539","0.455945299938321","0.452139599714428","1","1","1","1","1","1","1","1","1"
"260047","img/object_images/measuring_tape02.jpg","img/object_images/funnel01.jpg","img/object_images/dresser04.jpg","1","1","0","1","0","0","0.452139599714428","0.593376499833539","0.483370199799538","1","1","1","1","1","1","1","1","1"
"260047","img/object_images/dresser04.jpg","img/object_images/measuring_tape02.jpg","img/object_images/fork03.jpg","0","1","1","0","1","1","0.483370199799538","0.452139599714428","0.384663299890235","1","1","1","1","1","1","1","1","1"
"260047","img/object_images/fork03.jpg","img/object_images/dresser04.jpg","img/object_images/paper_cup01.jpg","1","0","1","1","0","0","0.384663299890235","0.483370199799538","0.554804199840873","1","1","1","1","1","1","1","1","1"
"260047","img/object_images/paper_cup01.jpg","img/object_images/fork03.jpg","img/object_images/gift_box01.jpg","1","1","1","0","1","1","0.554804199840873","0.384663299890235","0.406880599912256","1","1","1","1","1","1","1","1","1"
"260047","img/object_images/gift_box01.jpg","img/object_images/paper_cup01.jpg","img/object_images/handkerchief01.jpg","1","1","0","1","0","0","0.406880599912256","0.554804199840873","0.420763899805024","1","1","1","1","1","1","1","1","1"
"260047","img/object_images/handkerchief01.jpg","img/object_images/gift_box01.jpg","img/object_images/bow_tie01.jpg","0","1","1","0","1","0","0.420763899805024","0.406880599912256","0.607027299934998","1","1","1","1","1","1","1","1","1"
"260047","img/object_images/bow_tie01.jpg","img/object_images/handkerchief01.jpg","img/object_images/ironing_table01.jpg","1","0","1","0","0","0","0.607027299934998","0.420763899805024","0.556349899852648","1","1","1","1","1","1","1","1","1"
"260047","img/object_images/ironing_table01.jpg","img/object_images/bow_tie01.jpg","img/object_images/lawn_mower01.jpg","1","1","1","0","0","1","0.556349899852648","0.607027299934998","0.42871979996562","1","1","1","1","1","1","1","1","1"
"260047","img/object_images/lawn_mower01.jpg","img/object_images/ironing_table01.jpg","img/object_images/pitcher02.jpg","1","1","1","1","0","1","0.42871979996562","0.556349899852648","0.458394600078464","1","1","1","1","1","1","1","1","1"
"260047","img/object_images/pitcher02.jpg","img/object_images/lawn_mower01.jpg","img/object_images/clip02.jpg","1","1","1","1","1","1","0.458394600078464","0.42871979996562","0.533978499937803","1","1","1","1","1","1","1","1","1"
"260047","img/object_images/clip02.jpg","img/object_images/pitcher02.jpg","img/object_images/socks02.jpg","1","1","0","1","1","0","0.533978499937803","0.458394600078464","0.458162399940193","1","1","1","1","1","1","1","1","1"
"260047","img/object_images/socks02.jpg","img/object_images/clip02.jpg","img/object_images/balloon01.jpg","0","1","1","0","1","0","0.458162399940193","0.533978499937803","0.576127999927849","1","1","1","1","1","1","1","1","1"
"260047","img/object_images/balloon01.jpg","img/object_images/socks02.jpg","img/object_images/coloring_pencil01.jpg","1","0","1","0","0","1","0.576127999927849","0.458162399940193","0.609958899905905","1","1","1","1","1","1","1","1","1"
"260047","img/object_images/coloring_pencil01.jpg","img/object_images/balloon01.jpg","img/object_images/Witchhat01.jpg","1","1","1","1","0","1","0.609958899905905","0.576127999927849","0.446666899835691","1","1","1","1","1","1","1","1","1"
"260047","img/object_images/Witchhat01.jpg","img/object_images/coloring_pencil01.jpg","img/object_images/bow_tie02.jpg","1","1","1","1","1","0","0.446666899835691","0.609958899905905","0.528246499830857","1","1","1","1","1","1","1","1","1"
"260047","img/object_images/bow_tie02.jpg","img/object_images/Witchhat01.jpg","img/object_images/hammer01.jpg","1","1","1","0","1","0","0.528246499830857","0.446666899835691","0.511225199792534","1","1","1","1","1","1","1","1","1"
"260047","img/object_images/hammer01.jpg","img/object_images/bow_tie02.jpg","img/object_images/lock04.jpg","1","1","1","0","0","1","0.511225199792534","0.528246499830857","0.622542399913073","1","1","1","1","1","1","1","1","1"
"260047","img/object_images/lock04.jpg","img/object_images/hammer01.jpg","img/object_images/wallet02.jpg","1","1","1","1","0","1","0.622542399913073","0.511225199792534","0.341085999971256","1","1","1","1","1","1","1","1","1"
"260047","img/object_images/wallet02.jpg","img/object_images/lock04.jpg","img/object_images/couch03.jpg","1","1","1","1","1","0","0.341085999971256","0.622542399913073","0.534223899943754","1","1","1","1","1","1","1","1","1"
"260047","img/object_images/couch03.jpg","img/object_images/wallet02.jpg","img/object_images/bath_tub01.jpg","1","1","0","0","1","0","0.534223899943754","0.341085999971256","0.49007759988308","1","1","1","1","1","1","1","1","1"
"260047","img/object_images/bath_tub01.jpg","img/object_images/couch03.jpg","img/object_images/gift_box02.jpg","0","1","1","0","0","1","0.49007759988308","0.534223899943754","0.474745899904519","1","1","1","1","1","1","1","1","1"
"260047","img/object_images/gift_box02.jpg","img/object_images/bath_tub01.jpg","img/object_images/vga_port 01.jpg","1","0","1","1","0","0","0.474745899904519","0.49007759988308","0.502851899713278","1","1","1","1","1","1","1","1","1"
"260047","img/object_images/vga_port 01.jpg","img/object_images/gift_box02.jpg","img/object_images/sleeping_bag01.jpg","1","1","1","0","1","0","0.502851899713278","0.474745899904519","0.612128299893811","1","1","1","1","1","1","1","1","1"
"260047","img/object_images/sleeping_bag01.jpg","img/object_images/vga_port 01.jpg","img/object_images/jacket03.jpg","1","1","1","0","0","0","0.612128299893811","0.502851899713278","0.579839099897072","1","1","1","1","1","1","1","1","1"
"260047","img/object_images/jacket03.jpg","img/object_images/sleeping_bag01.jpg",NA,"1","1",NA,"0","0",NA,"0.579839099897072","0.612128299893811",NA,"1","1",NA,"1","1",NA,"1","1",NA
"260047","img/object_images/boat04.jpg",NA,"img/object_images/paper_cup02.jpg","1",NA,"1","0",NA,"1","0.464586399728432",NA,"0.360451800050214","1",NA,"1","1",NA,"1","1",NA,"1"
"260047","img/object_images/paper_cup02.jpg","img/object_images/boat04.jpg","img/object_images/mail_box01.jpg","1","1","0","1","0","0","0.360451800050214","0.464586399728432","0.437172999838367","1","1","1","1","1","1","1","1","1"
"260047","img/object_images/mail_box01.jpg","img/object_images/paper_cup02.jpg","img/object_images/video_game01.jpg","0","1","1","0","1","1","0.437172999838367","0.360451800050214","0.527443599887192","1","1","1","1","1","1","1","1","1"
"260047","img/object_images/video_game01.jpg","img/object_images/mail_box01.jpg","img/object_images/backpack01.jpg","1","0","1","1","0","0","0.527443599887192","0.437172999838367","0.559720199787989","1","1","1","1","1","1","1","1","1"
"260047","img/object_images/backpack01.jpg","img/object_images/video_game01.jpg","img/object_images/knit04.jpg","1","1","1","0","1","1","0.559720199787989","0.527443599887192","0.381903399713337","1","1","1","1","1","1","1","1","1"
"260047","img/object_images/knit04.jpg","img/object_images/backpack01.jpg","img/object_images/knit03.jpg","1","1","1","1","0","1","0.381903399713337","0.559720199787989","0.451145599829033","1","1","1","1","1","1","1","1","1"
"260047","img/object_images/knit03.jpg","img/object_images/knit04.jpg","img/object_images/shower_head01.jpg","1","1","1","1","1","1","0.451145599829033","0.381903399713337","0.446289999876171","1","1","1","1","1","1","1","1","1"
"260047","img/object_images/shower_head01.jpg","img/object_images/knit03.jpg","img/object_images/phone02.jpg","1","1","1","1","1","1","0.446289999876171","0.451145599829033","0.455368899740279","1","1","1","1","1","1","1","1","1"
"260047","img/object_images/phone02.jpg","img/object_images/shower_head01.jpg","img/object_images/gloves02.jpg","1","1","1","1","1","0","0.455368899740279","0.446289999876171","0.531339399982244","1","1","1","1","1","1","1","1","1"
"260047","img/object_images/gloves02.jpg","img/object_images/phone02.jpg","img/object_images/Statue01.jpg","1","1","1","0","1","1","0.531339399982244","0.455368899740279","0.414125199895352","1","1","1","1","1","1","1","1","1"
"260047","img/object_images/Statue01.jpg","img/object_images/gloves02.jpg","img/object_images/blender02.jpg","1","1","1","1","0","1","0.414125199895352","0.531339399982244","0.393463999731466","1","1","1","1","1","1","1","1","1"
"260047","img/object_images/blender02.jpg","img/object_images/Statue01.jpg","img/object_images/kite01.jpg","1","1","1","1","1","1","0.393463999731466","0.414125199895352","0.446696499828249","1","1","1","1","1","1","1","1","1"
"260047","img/object_images/kite01.jpg","img/object_images/blender02.jpg","img/object_images/flashlight03.jpg","1","1","1","1","1","0","0.446696499828249","0.393463999731466","0.427881899988279","1","1","1","1","1","1","1","1","1"
"260047","img/object_images/flashlight03.jpg","img/object_images/kite01.jpg","img/object_images/toy08.jpg","1","1","1","0","1","0","0.427881899988279","0.446696499828249","0.562011400004849","1","1","1","1","1","1","1","1","1"
"260047","img/object_images/toy08.jpg","img/object_images/flashlight03.jpg","img/object_images/hoverboard01.jpg","1","1","1","0","0","0","0.562011400004849","0.427881899988279","0.557927699992433","1","1","1","1","1","1","1","1","1"
"260047","img/object_images/hoverboard01.jpg","img/object_images/toy08.jpg","img/object_images/sponge03.jpg","1","1","1","0","0","1","0.557927699992433","0.562011400004849","0.537260900018737","1","1","1","1","1","1","1","1","1"
"260047","img/object_images/sponge03.jpg","img/object_images/hoverboard01.jpg","img/object_images/camera03.jpg","1","1","0","1","0","0","0.537260900018737","0.557927699992433","0.41390259983018","1","1","1","1","1","1","1","1","1"
"260047","img/object_images/camera03.jpg","img/object_images/sponge03.jpg","img/object_images/hand_grip_exerciser01.jpg","0","1","1","0","1","0","0.41390259983018","0.537260900018737","0.638284899992868","1","1","1","1","1","1","1","1","1"
"260047","img/object_images/hand_grip_exerciser01.jpg","img/object_images/camera03.jpg","img/object_images/remover01.jpg","1","0","0","0","0","1","0.638284899992868","0.41390259983018","0.443584299879149","1","1","1","1","1","1","1","1","1"
"260047","img/object_images/remover01.jpg","img/object_images/hand_grip_exerciser01.jpg","img/object_images/tool18.jpg","0","1","1","1","0","0","0.443584299879149","0.638284899992868","0.554923400050029","1","1","1","1","1","1","1","1","1"
"260047","img/object_images/tool18.jpg","img/object_images/remover01.jpg","img/object_images/dresser03.jpg","1","0","1","0","1","0","0.554923400050029","0.443584299879149","0.692036699969321","1","1","1","1","1","1","1","1","1"
"260047","img/object_images/dresser03.jpg","img/object_images/tool18.jpg","img/object_images/keyboard02.jpg","1","1","1","0","0","1","0.692036699969321","0.554923400050029","0.468931799987331","1","1","1","1","1","1","1","1","1"
"260047","img/object_images/keyboard02.jpg","img/object_images/dresser03.jpg","img/object_images/basket04.jpg","1","1","1","1","0","1","0.468931799987331","0.692036699969321","0.39902689983137","1","1","1","1","1","1","1","1","1"
"260047","img/object_images/basket04.jpg","img/object_images/keyboard02.jpg","img/object_images/jacket04.jpg","1","1","1","1","1","0","0.39902689983137","0.468931799987331","0.590500100050122","1","1","1","1","1","1","1","1","1"
"260047","img/object_images/jacket04.jpg","img/object_images/basket04.jpg","img/object_images/curtain02.jpg","1","1","1","0","1","0","0.590500100050122","0.39902689983137","0.620217299787328","1","1","1","1","1","1","1","1","1"
"260047","img/object_images/curtain02.jpg","img/object_images/jacket04.jpg","img/object_images/knife02.jpg","1","1","0","0","0","0","0.620217299787328","0.590500100050122","0.469608899904415","1","1","1","1","1","1","1","1","1"
"260047","img/object_images/knife02.jpg","img/object_images/curtain02.jpg","img/object_images/bottle07.jpg","0","1","1","0","0","1","0.469608899904415","0.620217299787328","0.513182899914682","1","1","1","1","1","1","1","1","1"
"260047","img/object_images/bottle07.jpg","img/object_images/knife02.jpg","img/object_images/matches02.jpg","1","0","1","1","0","0","0.513182899914682","0.469608899904415","0.541985599789768","1","1","1","1","1","1","1","1","1"
"260047","img/object_images/matches02.jpg","img/object_images/bottle07.jpg","img/object_images/stereo02.jpg","1","1","1","0","1","0","0.541985599789768","0.513182899914682","0.595455899834633","1","1","1","1","1","1","1","1","1"
"260047","img/object_images/stereo02.jpg","img/object_images/matches02.jpg","img/object_images/remote_controller01.jpg","1","1","1","0","0","1","0.595455899834633","0.541985599789768","0.507867299951613","1","1","1","1","1","1","1","1","1"
"260047","img/object_images/remote_controller01.jpg","img/object_images/stereo02.jpg","img/object_images/car01.jpg","1","1","1","1","0","1","0.507867299951613","0.595455899834633","0.500815900042653","1","1","1","1","1","1","1","1","1"
"260047","img/object_images/car01.jpg","img/object_images/remote_controller01.jpg",NA,"1","1",NA,"1","1",NA,"0.500815900042653","0.507867299951613",NA,"1","1",NA,"1","1",NA,"1","1",NA
"260047","img/object_images/tennis_racket01.jpg",NA,"img/object_images/note_book02.jpg","1",NA,"0","1",NA,"0","0.45811349991709",NA,"0.395182499894872","1",NA,"1","1",NA,"1","1",NA,"2"
"260047","img/object_images/note_book02.jpg","img/object_images/tennis_racket01.jpg","img/object_images/pitcher07.jpg","0","1","1","0","1","1","0.395182499894872","0.45811349991709","0.550637999782339","1","1","1","1","1","1","2","1","1"
"260047","img/object_images/pitcher07.jpg","img/object_images/note_book02.jpg","img/object_images/origami01.jpg","1","0","1","1","0","1","0.550637999782339","0.395182499894872","0.435391299892217","1","1","1","1","1","1","1","2","1"
"260047","img/object_images/origami01.jpg","img/object_images/pitcher07.jpg","img/object_images/Shoes05.jpg","1","1","1","1","1","0","0.435391299892217","0.550637999782339","0.49806459993124","1","1","1","1","1","1","1","1","1"
"260047","img/object_images/Shoes05.jpg","img/object_images/origami01.jpg","img/object_images/jewel02.jpg","1","1","0","0","1","0","0.49806459993124","0.435391299892217","0.49750389973633","1","1","1","1","1","1","1","1","1"
"260047","img/object_images/jewel02.jpg","img/object_images/Shoes05.jpg","img/object_images/yoga_mat01.jpg","0","1","1","0","0","0","0.49750389973633","0.49806459993124","0.507284200051799","1","1","1","1","1","1","1","1","1"
"260047","img/object_images/yoga_mat01.jpg","img/object_images/jewel02.jpg","img/object_images/helmet03.jpg","1","0","1","0","0","1","0.507284200051799","0.49750389973633","0.426951200002804","1","1","1","1","1","1","1","1","1"
"260047","img/object_images/helmet03.jpg","img/object_images/yoga_mat01.jpg","img/object_images/scale02.jpg","1","1","1","1","0","0","0.426951200002804","0.507284200051799","0.517960099736229","1","1","1","1","1","1","1","1","1"
"260047","img/object_images/scale02.jpg","img/object_images/helmet03.jpg","img/object_images/lock03.jpg","1","1","1","0","1","1","0.517960099736229","0.426951200002804","0.403344700112939","1","1","1","1","1","1","1","1","1"
"260047","img/object_images/lock03.jpg","img/object_images/scale02.jpg","img/object_images/water_gun01.jpg","1","1","1","1","0","1","0.403344700112939","0.517960099736229","0.589920399943367","1","1","1","1","1","1","1","1","1"
"260047","img/object_images/water_gun01.jpg","img/object_images/lock03.jpg","img/object_images/ToolBag01.jpg","1","1","1","1","1","0","0.589920399943367","0.403344700112939","0.63642119965516","1","1","1","1","1","1","1","1","1"
"260047","img/object_images/ToolBag01.jpg","img/object_images/water_gun01.jpg","img/object_images/Eyeliner01.jpg","1","1","1","0","1","1","0.63642119965516","0.589920399943367","0.442575599765405","1","1","1","1","1","1","1","1","1"
"260047","img/object_images/Eyeliner01.jpg","img/object_images/ToolBag01.jpg","img/object_images/belt03.jpg","1","1","0","1","0","0","0.442575599765405","0.63642119965516","0.440072099911049","1","1","1","1","1","1","1","1","1"
"260047","img/object_images/belt03.jpg","img/object_images/Eyeliner01.jpg","img/object_images/trumpet01.jpg","0","1","1","0","1","0","0.440072099911049","0.442575599765405","0.575889999978244","1","1","1","1","1","1","1","1","1"
"260047","img/object_images/trumpet01.jpg","img/object_images/belt03.jpg","img/object_images/frame01.jpg","1","0","1","0","0","1","0.575889999978244","0.440072099911049","0.584435099968687","1","1","1","1","1","1","1","1","1"
"260047","img/object_images/frame01.jpg","img/object_images/trumpet01.jpg","img/object_images/piano03.jpg","1","1","1","1","0","0","0.584435099968687","0.575889999978244","0.583415299886838","1","1","1","1","1","1","1","1","1"
"260047","img/object_images/piano03.jpg","img/object_images/frame01.jpg","img/object_images/fan01.jpg","1","1","0","0","1","0","0.583415299886838","0.584435099968687","0.432666599983349","1","1","1","1","1","1","1","1","1"
"260047","img/object_images/fan01.jpg","img/object_images/piano03.jpg","img/object_images/bucket01.jpg","0","1","1","0","0","1","0.432666599983349","0.583415299886838","0.553881699917838","1","1","1","1","1","1","1","1","1"
"260047","img/object_images/bucket01.jpg","img/object_images/fan01.jpg","img/object_images/headset02.jpg","1","0","1","1","0","0","0.553881699917838","0.432666599983349","0.520078499801457","1","1","1","1","1","1","1","1","1"
"260047","img/object_images/headset02.jpg","img/object_images/bucket01.jpg","img/object_images/badminton01.jpg","1","1","1","0","1","1","0.520078499801457","0.553881699917838","0.434125099796802","1","1","1","1","1","1","1","1","2"
"260047","img/object_images/badminton01.jpg","img/object_images/headset02.jpg","img/object_images/egg_basket01.jpg","1","1","1","1","0","1","0.434125099796802","0.520078499801457","0.559424299979582","1","1","1","1","1","1","2","1","1"
"260047","img/object_images/egg_basket01.jpg","img/object_images/badminton01.jpg","img/object_images/shovel01.jpg","1","1","1","1","1","0","0.559424299979582","0.434125099796802","0.564643600024283","1","1","1","1","1","1","1","2","1"
"260047","img/object_images/shovel01.jpg","img/object_images/egg_basket01.jpg","img/object_images/usb03.jpg","1","1","1","0","1","0","0.564643600024283","0.559424299979582","0.642503399867564","1","1","1","1","1","1","1","1","1"
"260047","img/object_images/usb03.jpg","img/object_images/shovel01.jpg","img/object_images/TreeSlice01.jpg","1","1","1","0","0","1","0.642503399867564","0.564643600024283","0.465358899906278","1","1","1","1","1","1","1","1","1"
"260047","img/object_images/TreeSlice01.jpg","img/object_images/usb03.jpg","img/object_images/nut_cracker01.jpg","1","1","1","1","0","1","0.465358899906278","0.642503399867564","0.469471899792552","1","1","1","1","1","1","1","1","1"
"260047","img/object_images/nut_cracker01.jpg","img/object_images/TreeSlice01.jpg","img/object_images/dice01.jpg","1","1","1","1","1","0","0.469471899792552","0.465358899906278","0.52208809973672","1","1","1","1","1","1","1","1","1"
"260047","img/object_images/dice01.jpg","img/object_images/nut_cracker01.jpg","img/object_images/Safe01.jpg","1","1","1","0","1","1","0.52208809973672","0.469471899792552","0.432242600014433","1","1","1","1","1","1","1","1","1"
"260047","img/object_images/Safe01.jpg","img/object_images/dice01.jpg","img/object_images/joystick03.jpg","1","1","1","1","0","1","0.432242600014433","0.52208809973672","0.508085899986327","1","1","1","1","1","1","1","1","1"
"260047","img/object_images/joystick03.jpg","img/object_images/Safe01.jpg","img/object_images/bottle06.jpg","1","1","0","1","1","0","0.508085899986327","0.432242600014433",NA,"1","1","0","1","1","0","1","1","0"
"260047","img/object_images/bottle06.jpg","img/object_images/joystick03.jpg","img/object_images/phone04.jpg","0","1","1","0","1","1",NA,"0.508085899986327","0.55465259985067","0","1","1","0","1","1","0","1","1"
"260047","img/object_images/phone04.jpg","img/object_images/bottle06.jpg","img/object_images/bookmark01.jpg","1","0","1","1","0","0","0.55465259985067",NA,"0.473430099897087","1","0","1","1","0","1","1","0","1"
"260047","img/object_images/bookmark01.jpg","img/object_images/phone04.jpg",NA,"1","1",NA,"0","1",NA,"0.473430099897087","0.55465259985067",NA,"1","1",NA,"1","1",NA,"1","1",NA
"260047","img/object_images/bucket02.jpg",NA,"img/object_images/Lint_Roller02.jpg","1",NA,"1","1",NA,"0","0.43483699997887",NA,"0.596564400009811","1",NA,"1","1",NA,"1","1",NA,"1"
"260047","img/object_images/Lint_Roller02.jpg","img/object_images/bucket02.jpg","img/object_images/ball02.jpg","1","1","1","0","1","1","0.596564400009811","0.43483699997887","0.460293799871579","1","1","1","1","1","1","1","1","1"
"260047","img/object_images/ball02.jpg","img/object_images/Lint_Roller02.jpg","img/object_images/towels01.jpg","1","1","1","1","0","0","0.460293799871579","0.596564400009811","0.521759599912912","1","1","1","1","1","1","1","1","1"
"260047","img/object_images/towels01.jpg","img/object_images/ball02.jpg","img/object_images/chess_piece01.jpg","1","1","1","0","1","0","0.521759599912912","0.460293799871579","0.426124499877915","1","1","1","1","1","1","1","1","1"
"260047","img/object_images/chess_piece01.jpg","img/object_images/towels01.jpg","img/object_images/laptop03.jpg","1","1","1","0","0","1","0.426124499877915","0.521759599912912","0.375541299814358","1","1","1","1","1","1","1","1","1"
"260047","img/object_images/laptop03.jpg","img/object_images/chess_piece01.jpg","img/object_images/pitcher05.jpg","1","1","1","1","0","0","0.375541299814358","0.426124499877915","0.535043699899688","1","1","1","1","1","1","1","1","1"
"260047","img/object_images/pitcher05.jpg","img/object_images/laptop03.jpg","img/object_images/umbrella01.jpg","1","1","1","0","1","0","0.535043699899688","0.375541299814358","0.548191299894825","1","1","1","1","1","1","1","1","1"
"260047","img/object_images/umbrella01.jpg","img/object_images/pitcher05.jpg","img/object_images/jewel03.jpg","1","1","1","0","0","1","0.548191299894825","0.535043699899688","0.460020599886775","1","1","1","1","1","1","1","1","1"
"260047","img/object_images/jewel03.jpg","img/object_images/umbrella01.jpg","img/object_images/spatula02.jpg","1","1","1","1","0","1","0.460020599886775","0.548191299894825","0.397825999883935","1","1","1","1","1","1","1","1","1"
"260047","img/object_images/spatula02.jpg","img/object_images/jewel03.jpg","img/object_images/chair02.jpg","1","1","1","1","1","1","0.397825999883935","0.460020599886775","0.410721799824387","1","1","1","1","1","1","1","1","1"
"260047","img/object_images/chair02.jpg","img/object_images/spatula02.jpg","img/object_images/gift_box05.jpg","1","1","1","1","1","0","0.410721799824387","0.397825999883935","0.469201599946246","1","1","1","1","1","1","1","1","1"
"260047","img/object_images/gift_box05.jpg","img/object_images/chair02.jpg","img/object_images/hair_dryer01.jpg","1","1","1","0","1","0","0.469201599946246","0.410721799824387","0.461072899866849","1","1","1","1","1","1","1","1","1"
"260047","img/object_images/hair_dryer01.jpg","img/object_images/gift_box05.jpg","img/object_images/robe01.jpg","1","1","1","0","0","1","0.461072899866849","0.469201599946246","0.538741199765354","1","1","1","1","1","1","1","1","1"
"260047","img/object_images/robe01.jpg","img/object_images/hair_dryer01.jpg","img/object_images/shoes08.jpg","1","1","1","1","0","1","0.538741199765354","0.461072899866849","0.591675999807194","1","1","1","1","1","1","1","1","1"
"260047","img/object_images/shoes08.jpg","img/object_images/robe01.jpg","img/object_images/vase01.jpg","1","1","1","1","1","0","0.591675999807194","0.538741199765354","0.521221099887043","1","1","1","1","1","1","1","1","1"
"260047","img/object_images/vase01.jpg","img/object_images/shoes08.jpg","img/object_images/microphone03.jpg","1","1","1","0","1","1","0.521221099887043","0.591675999807194","0.39483409980312","1","1","1","1","1","1","1","1","1"
"260047","img/object_images/microphone03.jpg","img/object_images/vase01.jpg","img/object_images/backpack03.jpg","1","1","1","1","0","1","0.39483409980312","0.521221099887043","0.458321599988267","1","1","1","1","1","1","1","1","1"
"260047","img/object_images/backpack03.jpg","img/object_images/microphone03.jpg","img/object_images/helmet02.jpg","1","1","0","1","1","0","0.458321599988267","0.39483409980312","0.602128599770367","1","1","1","1","1","1","1","1","2"
"260047","img/object_images/helmet02.jpg","img/object_images/backpack03.jpg","img/object_images/calculator01.jpg","0","1","1","0","1","1","0.602128599770367","0.458321599988267","0.47063469979912","1","1","1","1","1","1","2","1","1"
"260047","img/object_images/calculator01.jpg","img/object_images/helmet02.jpg","img/object_images/surf_board01.jpg","1","0","1","1","0","1","0.47063469979912","0.602128599770367","0.618894799845293","1","1","1","1","1","1","1","2","1"
"260047","img/object_images/surf_board01.jpg","img/object_images/calculator01.jpg","img/object_images/lock01.jpg","1","1","1","1","1","0","0.618894799845293","0.47063469979912","0.598913399968296","1","1","1","1","1","1","1","1","1"
"260047","img/object_images/lock01.jpg","img/object_images/surf_board01.jpg","img/object_images/toy05.jpg","1","1","1","0","1","0","0.598913399968296","0.618894799845293","0.567204599967226","1","1","1","1","1","1","1","1","1"
"260047","img/object_images/toy05.jpg","img/object_images/lock01.jpg","img/object_images/trash_can05.jpg","1","1","1","0","0","1","0.567204599967226","0.598913399968296","0.492036299780011","1","1","1","1","1","1","1","1","1"
"260047","img/object_images/trash_can05.jpg","img/object_images/toy05.jpg","img/object_images/combs01.jpg","1","1","1","1","0","1","0.492036299780011","0.567204599967226","0.538844699971378","1","1","1","1","1","1","1","1","1"
"260047","img/object_images/combs01.jpg","img/object_images/trash_can05.jpg","img/object_images/stove01.jpg","1","1","1","1","1","0","0.538844699971378","0.492036299780011","0.578700999962166","1","1","1","1","1","1","1","1","1"
"260047","img/object_images/stove01.jpg","img/object_images/combs01.jpg","img/object_images/fan04.jpg","1","1","1","0","1","0","0.578700999962166","0.538844699971378","0.519718099851161","1","1","1","1","1","1","1","1","1"
"260047","img/object_images/fan04.jpg","img/object_images/stove01.jpg","img/object_images/accardion01.jpg","1","1","1","0","0","1","0.519718099851161","0.578700999962166","0.422794299898669","1","1","1","1","1","1","1","1","1"
"260047","img/object_images/accardion01.jpg","img/object_images/fan04.jpg","img/object_images/Vest02.jpg","1","1","0","1","0","0","0.422794299898669","0.519718099851161","0.442007999867201","1","1","1","1","1","1","1","1","3"
"260047","img/object_images/Vest02.jpg","img/object_images/accardion01.jpg","img/object_images/trash_can03.jpg","0","1","1","0","1","1","0.442007999867201","0.422794299898669","0.59938389994204","1","1","1","1","1","1","3","1","1"
"260047","img/object_images/trash_can03.jpg","img/object_images/Vest02.jpg","img/object_images/laptop01.jpg","1","0","1","1","0","0","0.59938389994204","0.442007999867201","0.631256900029257","1","1","1","1","1","1","1","3","1"
"260047","img/object_images/laptop01.jpg","img/object_images/trash_can03.jpg","img/object_images/hair_brush02.jpg","1","1","1","0","1","0","0.631256900029257","0.59938389994204","0.553207199787721","1","1","1","1","1","1","1","1","1"
"260047","img/object_images/hair_brush02.jpg","img/object_images/laptop01.jpg",NA,"1","1",NA,"0","0",NA,"0.553207199787721","0.631256900029257",NA,"1","1",NA,"1","1",NA,"1","1",NA
