"participant_id","current_trial_object","pre_trial_object","post_trial_object","current_trial_accuracy","pre_trial_accuracy","post_trial_accuracy","current_trial_congruency","pre_trial_congruency","post_trial_congruency","current_trial_rt","pre_trial_rt","post_trial_rt","current_trial_responded","pre_trial_responded","post_trial_responded","current_trial_legitResponse","pre_trial_legitResponse","post_trial_legitResponse","current_trial_resp_nums","pre_trial_resp_nums","post_trial_resp_nums"
"260031","img/object_images/clock02.jpg",NA,"img/object_images/chess_piece02.jpg","1",NA,"1","0",NA,"1","0.741885200026445",NA,"0.477467100019567","1",NA,"1","1",NA,"1","1",NA,"1"
"260031","img/object_images/chess_piece02.jpg","img/object_images/clock02.jpg","img/object_images/pitcher01.jpg","1","1","1","1","0","0","0.477467100019567","0.741885200026445","0.548136799945496","1","1","1","1","1","1","1","1","1"
"260031","img/object_images/pitcher01.jpg","img/object_images/chess_piece02.jpg","img/object_images/motorcycle01.jpg","1","1","1","0","1","1","0.548136799945496","0.477467100019567","0.545849999994971","1","1","1","1","1","1","1","1","1"
"260031","img/object_images/motorcycle01.jpg","img/object_images/pitcher01.jpg","img/object_images/Oven01.jpg","1","1","1","1","0","1","0.545849999994971","0.548136799945496","0.358808399992995","1","1","1","1","1","1","1","1","1"
"260031","img/object_images/Oven01.jpg","img/object_images/motorcycle01.jpg","img/object_images/wire02.jpg","1","1","1","1","1","1","0.358808399992995","0.545849999994971","0.41048810002394","1","1","1","1","1","1","1","1","1"
"260031","img/object_images/wire02.jpg","img/object_images/Oven01.jpg","img/object_images/lid01.jpg","1","1","1","1","1","1","0.41048810002394","0.358808399992995","0.468809900106862","1","1","1","1","1","1","1","1","1"
"260031","img/object_images/lid01.jpg","img/object_images/wire02.jpg","img/object_images/floppy_disk02.jpg","1","1","1","1","1","0","0.468809900106862","0.41048810002394","0.564725999953225","1","1","1","1","1","1","1","1","1"
"260031","img/object_images/floppy_disk02.jpg","img/object_images/lid01.jpg","img/object_images/Staples01.jpg","1","1","1","0","1","1","0.564725999953225","0.468809900106862","0.480532300076447","1","1","1","1","1","1","1","1","1"
"260031","img/object_images/Staples01.jpg","img/object_images/floppy_disk02.jpg","img/object_images/clip03.jpg","1","1","1","1","0","0","0.480532300076447","0.564725999953225","0.402312699938193","1","1","1","1","1","1","1","1","1"
"260031","img/object_images/clip03.jpg","img/object_images/Staples01.jpg","img/object_images/crutches02.jpg","1","1","1","0","1","0","0.402312699938193","0.480532300076447","0.536215399974026","1","1","1","1","1","1","1","1","1"
"260031","img/object_images/crutches02.jpg","img/object_images/clip03.jpg","img/object_images/hammer03.jpg","1","1","1","0","0","1","0.536215399974026","0.402312699938193","0.384438600041904","1","1","1","1","1","1","1","1","1"
"260031","img/object_images/hammer03.jpg","img/object_images/crutches02.jpg","img/object_images/tv02.jpg","1","1","1","1","0","0","0.384438600041904","0.536215399974026","0.485962000093423","1","1","1","1","1","1","1","1","1"
"260031","img/object_images/tv02.jpg","img/object_images/hammer03.jpg","img/object_images/ear_bud01.jpg","1","1","1","0","1","1","0.485962000093423","0.384438600041904","0.424585700035095","1","1","1","1","1","1","1","1","1"
"260031","img/object_images/ear_bud01.jpg","img/object_images/tv02.jpg","img/object_images/retainer01.jpg","1","1","1","1","0","0","0.424585700035095","0.485962000093423","0.458486600080505","1","1","1","1","1","1","1","1","1"
"260031","img/object_images/retainer01.jpg","img/object_images/ear_bud01.jpg","img/object_images/paint_brush04.jpg","1","1","0","0","1","0","0.458486600080505","0.424585700035095",NA,"1","1","0","1","1","0","1","1","0"
"260031","img/object_images/paint_brush04.jpg","img/object_images/retainer01.jpg","img/object_images/microscope01.jpg","0","1","1","0","0","0",NA,"0.458486600080505","0.455166899948381","0","1","1","0","1","1","0","1","1"
"260031","img/object_images/microscope01.jpg","img/object_images/paint_brush04.jpg","img/object_images/chair05.jpg","1","0","1","0","0","0","0.455166899948381",NA,"0.641624800045975","1","0","1","1","0","1","1","0","1"
"260031","img/object_images/chair05.jpg","img/object_images/microscope01.jpg","img/object_images/usb02.jpg","1","1","1","0","0","0","0.641624800045975","0.455166899948381","0.483692400041036","1","1","1","1","1","1","1","1","1"
"260031","img/object_images/usb02.jpg","img/object_images/chair05.jpg","img/object_images/tennis_racket02.jpg","1","1","1","0","0","1","0.483692400041036","0.641624800045975","0.436889500007965","1","1","1","1","1","1","1","1","1"
"260031","img/object_images/tennis_racket02.jpg","img/object_images/usb02.jpg","img/object_images/bottle01.jpg","1","1","1","1","0","0","0.436889500007965","0.483692400041036","0.446696900064126","1","1","1","1","1","1","1","1","1"
"260031","img/object_images/bottle01.jpg","img/object_images/tennis_racket02.jpg","img/object_images/bell02.jpg","1","1","1","0","1","0","0.446696900064126","0.436889500007965","0.481820000102744","1","1","1","1","1","1","1","1","1"
"260031","img/object_images/bell02.jpg","img/object_images/bottle01.jpg","img/object_images/knit05.jpg","1","1","1","0","0","1","0.481820000102744","0.446696900064126","0.391245899954811","1","1","1","1","1","1","1","1","1"
"260031","img/object_images/knit05.jpg","img/object_images/bell02.jpg","img/object_images/pillows01.jpg","1","1","1","1","0","1","0.391245899954811","0.481820000102744","0.423688500071876","1","1","1","1","1","1","1","1","1"
"260031","img/object_images/pillows01.jpg","img/object_images/knit05.jpg","img/object_images/Thermometer01.jpg","1","1","1","1","1","0","0.423688500071876","0.391245899954811","0.528309499961324","1","1","1","1","1","1","1","1","1"
"260031","img/object_images/Thermometer01.jpg","img/object_images/pillows01.jpg","img/object_images/floppy_disk03.jpg","1","1","1","0","1","1","0.528309499961324","0.423688500071876","0.408765300060622","1","1","1","1","1","1","1","1","1"
"260031","img/object_images/floppy_disk03.jpg","img/object_images/Thermometer01.jpg","img/object_images/compass01.jpg","1","1","1","1","0","1","0.408765300060622","0.528309499961324","0.438328000018373","1","1","1","1","1","1","1","1","1"
"260031","img/object_images/compass01.jpg","img/object_images/floppy_disk03.jpg","img/object_images/knife04.jpg","1","1","1","1","1","1","0.438328000018373","0.408765300060622","0.457887800061144","1","1","1","1","1","1","1","1","1"
"260031","img/object_images/knife04.jpg","img/object_images/compass01.jpg","img/object_images/note_book01.jpg","1","1","1","1","1","0","0.457887800061144","0.438328000018373","0.436316999956034","1","1","1","1","1","1","1","1","1"
"260031","img/object_images/note_book01.jpg","img/object_images/knife04.jpg","img/object_images/cellphone01.jpg","1","1","1","0","1","1","0.436316999956034","0.457887800061144","0.428693699999712","1","1","1","1","1","1","1","1","1"
"260031","img/object_images/cellphone01.jpg","img/object_images/note_book01.jpg","img/object_images/book03.jpg","1","1","1","1","0","1","0.428693699999712","0.436316999956034","0.408244500053115","1","1","1","1","1","1","1","1","1"
"260031","img/object_images/book03.jpg","img/object_images/cellphone01.jpg","img/object_images/pen03.jpg","1","1","1","1","1","0","0.408244500053115","0.428693699999712","0.468083100044168","1","1","1","1","1","1","1","1","1"
"260031","img/object_images/pen03.jpg","img/object_images/book03.jpg",NA,"1","1",NA,"0","1",NA,"0.468083100044168","0.408244500053115",NA,"1","1",NA,"1","1",NA,"1","1",NA
"260031","img/object_images/purse01.jpg",NA,"img/object_images/TrashCan02.jpg","1",NA,"1","1",NA,"1","0.441675800015219",NA,"0.352062599966303","1",NA,"1","1",NA,"1","1",NA,"1"
"260031","img/object_images/TrashCan02.jpg","img/object_images/purse01.jpg","img/object_images/glasses06.jpg","1","1","1","1","1","1","0.352062599966303","0.441675800015219","0.399798500002362","1","1","1","1","1","1","1","1","1"
"260031","img/object_images/glasses06.jpg","img/object_images/TrashCan02.jpg","img/object_images/tray01.jpg","1","1","1","1","1","1","0.399798500002362","0.352062599966303","0.344382099923678","1","1","1","1","1","1","1","1","1"
"260031","img/object_images/tray01.jpg","img/object_images/glasses06.jpg","img/object_images/Sprayer01.jpg","1","1","1","1","1","0","0.344382099923678","0.399798500002362","0.465220400015824","1","1","1","1","1","1","1","1","1"
"260031","img/object_images/Sprayer01.jpg","img/object_images/tray01.jpg","img/object_images/basket02.jpg","1","1","0","0","1","0","0.465220400015824","0.344382099923678","0.35056649998296","1","1","1","1","1","1","1","1","1"
"260031","img/object_images/basket02.jpg","img/object_images/Sprayer01.jpg","img/object_images/tool08.jpg","0","1","1","0","0","0","0.35056649998296","0.465220400015824","0.463012899970636","1","1","1","1","1","1","1","1","1"
"260031","img/object_images/tool08.jpg","img/object_images/basket02.jpg","img/object_images/exfoliater_brush01.jpg","1","0","1","0","0","0","0.463012899970636","0.35056649998296","0.453841999988072","1","1","1","1","1","1","1","1","1"
"260031","img/object_images/exfoliater_brush01.jpg","img/object_images/tool08.jpg","img/object_images/book01.jpg","1","1","1","0","0","1","0.453841999988072","0.463012899970636","0.370366899995133","1","1","1","1","1","1","1","1","1"
"260031","img/object_images/book01.jpg","img/object_images/exfoliater_brush01.jpg","img/object_images/handcuffs01.jpg","1","1","1","1","0","0","0.370366899995133","0.453841999988072","0.439246500027366","1","1","1","1","1","1","1","1","1"
"260031","img/object_images/handcuffs01.jpg","img/object_images/book01.jpg","img/object_images/Pottery01.jpg","1","1","1","0","1","0","0.439246500027366","0.370366899995133","0.565267400001176","1","1","1","1","1","1","1","1","1"
"260031","img/object_images/Pottery01.jpg","img/object_images/handcuffs01.jpg","img/object_images/colander01.jpg","1","1","1","0","0","0","0.565267400001176","0.439246500027366","0.494657700066455","1","1","1","1","1","1","1","1","1"
"260031","img/object_images/colander01.jpg","img/object_images/Pottery01.jpg","img/object_images/cellphone02.jpg","1","1","0","0","0","1","0.494657700066455","0.565267400001176","0.510836700093932","1","1","1","1","1","1","1","1","1"
"260031","img/object_images/cellphone02.jpg","img/object_images/colander01.jpg","img/object_images/Traffic Sign 01.jpg","0","1","1","1","0","0","0.510836700093932","0.494657700066455","0.503105500014499","1","1","1","1","1","1","1","1","1"
"260031","img/object_images/Traffic Sign 01.jpg","img/object_images/cellphone02.jpg","img/object_images/yo_yo01.jpg","1","0","1","0","1","0","0.503105500014499","0.510836700093932","0.412596400012262","1","1","1","1","1","1","1","1","1"
"260031","img/object_images/yo_yo01.jpg","img/object_images/Traffic Sign 01.jpg","img/object_images/pan01.jpg","1","1","1","0","0","1","0.412596400012262","0.503105500014499","0.468586799921468","1","1","1","1","1","1","1","1","1"
"260031","img/object_images/pan01.jpg","img/object_images/yo_yo01.jpg","img/object_images/lighter01.jpg","1","1","1","1","0","1","0.468586799921468","0.412596400012262","0.482731300056912","1","1","1","1","1","1","1","1","1"
"260031","img/object_images/lighter01.jpg","img/object_images/pan01.jpg","img/object_images/tool07.jpg","1","1","1","1","1","0","0.482731300056912","0.468586799921468","0.44017720001284","1","1","1","1","1","1","1","1","1"
"260031","img/object_images/tool07.jpg","img/object_images/lighter01.jpg","img/object_images/gift_box04.jpg","1","1","1","0","1","0","0.44017720001284","0.482731300056912","0.535828099935316","1","1","1","1","1","1","1","1","1"
"260031","img/object_images/gift_box04.jpg","img/object_images/tool07.jpg","img/object_images/bicycle_lock01.jpg","1","1","1","0","0","0","0.535828099935316","0.44017720001284","0.64220010000281","1","1","1","1","1","1","1","1","1"
"260031","img/object_images/bicycle_lock01.jpg","img/object_images/gift_box04.jpg","img/object_images/fire_extinguisher01.jpg","1","1","1","0","0","0","0.64220010000281","0.535828099935316","0.502729199943133","1","1","1","1","1","1","1","1","1"
"260031","img/object_images/fire_extinguisher01.jpg","img/object_images/bicycle_lock01.jpg","img/object_images/ring03.jpg","1","1","1","0","0","1","0.502729199943133","0.64220010000281","0.506702399929054","1","1","1","1","1","1","1","1","1"
"260031","img/object_images/ring03.jpg","img/object_images/fire_extinguisher01.jpg","img/object_images/hair_clips01.jpg","1","1","1","1","0","1","0.506702399929054","0.502729199943133","0.46258409996517","1","1","1","1","1","1","1","1","1"
"260031","img/object_images/hair_clips01.jpg","img/object_images/ring03.jpg","img/object_images/jewelry09.jpg","1","1","1","1","1","1","0.46258409996517","0.506702399929054","0.454716400010511","1","1","1","1","1","1","1","1","1"
"260031","img/object_images/jewelry09.jpg","img/object_images/hair_clips01.jpg","img/object_images/projector01.jpg","1","1","1","1","1","0","0.454716400010511","0.46258409996517","0.450904399971478","1","1","1","1","1","1","1","1","1"
"260031","img/object_images/projector01.jpg","img/object_images/jewelry09.jpg","img/object_images/glasses07.jpg","1","1","1","0","1","1","0.450904399971478","0.454716400010511","0.450969299999997","1","1","1","1","1","1","1","1","1"
"260031","img/object_images/glasses07.jpg","img/object_images/projector01.jpg","img/object_images/faucet01.jpg","1","1","1","1","0","0","0.450969299999997","0.450904399971478","0.447613399941474","1","1","1","1","1","1","1","1","1"
"260031","img/object_images/faucet01.jpg","img/object_images/glasses07.jpg","img/object_images/Kitchen_Towel.jpg","1","1","1","0","1","0","0.447613399941474","0.450969299999997","0.535916800028645","1","1","1","1","1","1","1","1","1"
"260031","img/object_images/Kitchen_Towel.jpg","img/object_images/faucet01.jpg","img/object_images/hole_puncher01.jpg","1","1","1","0","0","1","0.535916800028645","0.447613399941474","0.40117999992799","1","1","1","1","1","1","1","1","1"
"260031","img/object_images/hole_puncher01.jpg","img/object_images/Kitchen_Towel.jpg","img/object_images/blanket01.jpg","1","1","1","1","0","1","0.40117999992799","0.535916800028645","0.383078799932264","1","1","1","1","1","1","1","1","1"
"260031","img/object_images/blanket01.jpg","img/object_images/hole_puncher01.jpg","img/object_images/speaker01.jpg","1","1","1","1","1","1","0.383078799932264","0.40117999992799","0.405473299906589","1","1","1","1","1","1","1","1","1"
"260031","img/object_images/speaker01.jpg","img/object_images/blanket01.jpg","img/object_images/cup03.jpg","1","1","1","1","1","1","0.405473299906589","0.383078799932264","0.410959500004537","1","1","1","1","1","1","1","1","1"
"260031","img/object_images/cup03.jpg","img/object_images/speaker01.jpg",NA,"1","1",NA,"1","1",NA,"0.410959500004537","0.405473299906589",NA,"1","1",NA,"1","1",NA,"1","1",NA
"260031","img/object_images/tool19.jpg",NA,"img/object_images/toaster01.jpg","1",NA,"1","1",NA,"1","0.783293699962087",NA,"0.421503699966706","1",NA,"1","1",NA,"1","1",NA,"1"
"260031","img/object_images/toaster01.jpg","img/object_images/tool19.jpg","img/object_images/cellphone03.jpg","1","1","1","1","1","0","0.421503699966706","0.783293699962087","0.411991799948737","1","1","1","1","1","1","1","1","1"
"260031","img/object_images/cellphone03.jpg","img/object_images/toaster01.jpg","img/object_images/pen05.jpg","1","1","1","0","1","0","0.411991799948737","0.421503699966706","0.510198500007391","1","1","1","1","1","1","1","1","1"
"260031","img/object_images/pen05.jpg","img/object_images/cellphone03.jpg","img/object_images/fan02.jpg","1","1","1","0","0","0","0.510198500007391","0.411991799948737","0.428518699947745","1","1","1","1","1","1","1","1","1"
"260031","img/object_images/fan02.jpg","img/object_images/pen05.jpg","img/object_images/bottle02.jpg","1","1","1","0","0","1","0.428518699947745","0.510198500007391","0.356361899990588","1","1","1","1","1","1","1","1","1"
"260031","img/object_images/bottle02.jpg","img/object_images/fan02.jpg","img/object_images/coloring_pencil02.jpg","1","1","1","1","0","0","0.356361899990588","0.428518699947745","0.43772699998226","1","1","1","1","1","1","1","1","1"
"260031","img/object_images/coloring_pencil02.jpg","img/object_images/bottle02.jpg","img/object_images/shoes07.jpg","1","1","1","0","1","0","0.43772699998226","0.356361899990588","0.422024399973452","1","1","1","1","1","1","1","1","1"
"260031","img/object_images/shoes07.jpg","img/object_images/coloring_pencil02.jpg","img/object_images/camera_lens01.jpg","1","1","1","0","0","1","0.422024399973452","0.43772699998226","0.423430099966936","1","1","1","1","1","1","1","1","1"
"260031","img/object_images/camera_lens01.jpg","img/object_images/shoes07.jpg","img/object_images/WoodBox01.jpg","1","1","1","1","0","0","0.423430099966936","0.422024399973452","0.426836400059983","1","1","1","1","1","1","1","1","1"
"260031","img/object_images/WoodBox01.jpg","img/object_images/camera_lens01.jpg","img/object_images/perfume02.jpg","1","1","1","0","1","0","0.426836400059983","0.423430099966936","0.518959800014272","1","1","1","1","1","1","1","1","1"
"260031","img/object_images/perfume02.jpg","img/object_images/WoodBox01.jpg","img/object_images/helmet04.jpg","1","1","1","0","0","1","0.518959800014272","0.426836400059983","0.444134999997914","1","1","1","1","1","1","1","1","1"
"260031","img/object_images/helmet04.jpg","img/object_images/perfume02.jpg","img/object_images/chair03.jpg","1","1","1","1","0","0","0.444134999997914","0.518959800014272","0.448327000020072","1","1","1","1","1","1","1","1","1"
"260031","img/object_images/chair03.jpg","img/object_images/helmet04.jpg","img/object_images/wagon_cart03.jpg","1","1","1","0","1","1","0.448327000020072","0.444134999997914","0.424102599965408","1","1","1","1","1","1","1","1","1"
"260031","img/object_images/wagon_cart03.jpg","img/object_images/chair03.jpg","img/object_images/bottle09.jpg","1","1","1","1","0","0","0.424102599965408","0.448327000020072","0.534508000011556","1","1","1","1","1","1","1","1","1"
"260031","img/object_images/bottle09.jpg","img/object_images/wagon_cart03.jpg","img/object_images/toilet_paper_dispenser01.jpg","1","1","1","0","1","1","0.534508000011556","0.424102599965408","0.434473400004208","1","1","1","1","1","1","1","1","1"
"260031","img/object_images/toilet_paper_dispenser01.jpg","img/object_images/bottle09.jpg","img/object_images/knit01.jpg","1","1","1","1","0","0","0.434473400004208","0.534508000011556","0.417799800052308","1","1","1","1","1","1","1","1","1"
"260031","img/object_images/knit01.jpg","img/object_images/toilet_paper_dispenser01.jpg","img/object_images/audio_port01.jpg","1","1","1","0","1","1","0.417799800052308","0.434473400004208","0.389820400043391","1","1","1","1","1","1","1","1","1"
"260031","img/object_images/audio_port01.jpg","img/object_images/knit01.jpg","img/object_images/tie02.jpg","1","1","1","1","0","0","0.389820400043391","0.417799800052308","0.429389999946579","1","1","1","1","1","1","1","1","1"
"260031","img/object_images/tie02.jpg","img/object_images/audio_port01.jpg","img/object_images/water_scooter01.jpg","1","1","1","0","1","1","0.429389999946579","0.389820400043391","0.428199999965727","1","1","1","1","1","1","1","1","1"
"260031","img/object_images/water_scooter01.jpg","img/object_images/tie02.jpg","img/object_images/scoreboard01.jpg","1","1","1","1","0","1","0.428199999965727","0.429389999946579","0.440296899992973","1","1","1","1","1","1","1","1","1"
"260031","img/object_images/scoreboard01.jpg","img/object_images/water_scooter01.jpg","img/object_images/bicycle01.jpg","1","1","1","1","1","1","0.440296899992973","0.428199999965727","0.384119399939664","1","1","1","1","1","1","1","1","1"
"260031","img/object_images/bicycle01.jpg","img/object_images/scoreboard01.jpg","img/object_images/dog_leash01.jpg","1","1","0","1","1","0","0.384119399939664","0.440296899992973","0.385815699934028","1","1","1","1","1","1","1","1","1"
"260031","img/object_images/dog_leash01.jpg","img/object_images/bicycle01.jpg","img/object_images/hat06.jpg","0","1","1","0","1","0","0.385815699934028","0.384119399939664","0.506233699969016","1","1","1","1","1","1","1","1","1"
"260031","img/object_images/hat06.jpg","img/object_images/dog_leash01.jpg","img/object_images/purse04.jpg","1","0","1","0","0","1","0.506233699969016","0.385815699934028","0.541209800052457","1","1","1","1","1","1","1","1","1"
"260031","img/object_images/purse04.jpg","img/object_images/hat06.jpg","img/object_images/bottle10.jpg","1","1","1","1","0","1","0.541209800052457","0.506233699969016","0.45430139999371","1","1","1","1","1","1","1","1","1"
"260031","img/object_images/bottle10.jpg","img/object_images/purse04.jpg","img/object_images/piggy_bank01.jpg","1","1","1","1","1","1","0.45430139999371","0.541209800052457","0.518643700052053","1","1","1","1","1","1","1","1","1"
"260031","img/object_images/piggy_bank01.jpg","img/object_images/bottle10.jpg","img/object_images/bean_bag02.jpg","1","1","1","1","1","1","0.518643700052053","0.45430139999371","0.433759300038218","1","1","1","1","1","1","1","1","1"
"260031","img/object_images/bean_bag02.jpg","img/object_images/piggy_bank01.jpg","img/object_images/boat02.jpg","1","1","1","1","1","1","0.433759300038218","0.518643700052053","0.373270999989472","1","1","1","1","1","1","1","1","1"
"260031","img/object_images/boat02.jpg","img/object_images/bean_bag02.jpg","img/object_images/flask01.jpg","1","1","1","1","1","0","0.373270999989472","0.433759300038218","0.475485800066963","1","1","1","1","1","1","1","1","1"
"260031","img/object_images/flask01.jpg","img/object_images/boat02.jpg","img/object_images/hot_air_balloon02.jpg","1","1","1","0","1","0","0.475485800066963","0.373270999989472","0.398561499896459","1","1","1","1","1","1","1","1","1"
"260031","img/object_images/hot_air_balloon02.jpg","img/object_images/flask01.jpg","img/object_images/boat_toy10.jpg","1","1","1","0","0","0","0.398561499896459","0.475485800066963","0.509059499949217","1","1","1","1","1","1","1","1","1"
"260031","img/object_images/boat_toy10.jpg","img/object_images/hot_air_balloon02.jpg",NA,"1","1",NA,"0","0",NA,"0.509059499949217","0.398561499896459",NA,"1","1",NA,"1","1",NA,"1","1",NA
"260031","img/object_images/trash_can05.jpg",NA,"img/object_images/helmet02.jpg","1",NA,"1","1",NA,"0","0.650559899979271",NA,"0.535037300083786","1",NA,"1","1",NA,"1","1",NA,"1"
"260031","img/object_images/helmet02.jpg","img/object_images/trash_can05.jpg","img/object_images/trash_can03.jpg","1","1","1","0","1","1","0.535037300083786","0.650559899979271","0.397781100007705","1","1","1","1","1","1","1","1","1"
"260031","img/object_images/trash_can03.jpg","img/object_images/helmet02.jpg","img/object_images/chess_piece01.jpg","1","1","1","1","0","0","0.397781100007705","0.535037300083786","0.426129100029357","1","1","1","1","1","1","1","1","1"
"260031","img/object_images/chess_piece01.jpg","img/object_images/trash_can03.jpg","img/object_images/spatula02.jpg","1","1","1","0","1","1","0.426129100029357","0.397781100007705","0.379604600020684","1","1","1","1","1","1","1","1","1"
"260031","img/object_images/spatula02.jpg","img/object_images/chess_piece01.jpg","img/object_images/towels01.jpg","1","1","1","1","0","0","0.379604600020684","0.426129100029357","0.538059800048359","1","1","1","1","1","1","1","1","1"
"260031","img/object_images/towels01.jpg","img/object_images/spatula02.jpg","img/object_images/hair_dryer01.jpg","1","1","1","0","1","0","0.538059800048359","0.379604600020684","0.460178300039843","1","1","1","1","1","1","1","1","1"
"260031","img/object_images/hair_dryer01.jpg","img/object_images/towels01.jpg","img/object_images/chair02.jpg","1","1","1","0","0","1","0.460178300039843","0.538059800048359","0.453427999978885","1","1","1","1","1","1","1","1","1"
"260031","img/object_images/chair02.jpg","img/object_images/hair_dryer01.jpg","img/object_images/calculator01.jpg","1","1","1","1","0","1","0.453427999978885","0.460178300039843","0.436107699992135","1","1","1","1","1","1","1","1","1"
"260031","img/object_images/calculator01.jpg","img/object_images/chair02.jpg","img/object_images/Lint_Roller02.jpg","1","1","1","1","1","0","0.436107699992135","0.453427999978885","0.487303299945779","1","1","1","1","1","1","1","1","1"
"260031","img/object_images/Lint_Roller02.jpg","img/object_images/calculator01.jpg","img/object_images/vase01.jpg","1","1","1","0","1","0","0.487303299945779","0.436107699992135","0.456153000006452","1","1","1","1","1","1","1","1","1"
"260031","img/object_images/vase01.jpg","img/object_images/Lint_Roller02.jpg","img/object_images/umbrella01.jpg","1","1","1","0","0","0","0.456153000006452","0.487303299945779","0.533906499971636","1","1","1","1","1","1","1","1","1"
"260031","img/object_images/umbrella01.jpg","img/object_images/vase01.jpg","img/object_images/gift_box05.jpg","1","1","1","0","0","0","0.533906499971636","0.456153000006452","0.421199699980207","1","1","1","1","1","1","1","1","1"
"260031","img/object_images/gift_box05.jpg","img/object_images/umbrella01.jpg","img/object_images/bucket02.jpg","1","1","1","0","0","1","0.421199699980207","0.533906499971636","0.428277599974535","1","1","1","1","1","1","1","1","1"
"260031","img/object_images/bucket02.jpg","img/object_images/gift_box05.jpg","img/object_images/shoes08.jpg","1","1","1","1","0","1","0.428277599974535","0.421199699980207","0.413737699971534","1","1","1","1","1","1","1","1","1"
"260031","img/object_images/shoes08.jpg","img/object_images/bucket02.jpg","img/object_images/surf_board01.jpg","1","1","1","1","1","1","0.413737699971534","0.428277599974535","0.405982000054792","1","1","1","1","1","1","1","1","1"
"260031","img/object_images/surf_board01.jpg","img/object_images/shoes08.jpg","img/object_images/backpack03.jpg","1","1","1","1","1","1","0.405982000054792","0.413737699971534","0.424966800026596","1","1","1","1","1","1","1","1","1"
"260031","img/object_images/backpack03.jpg","img/object_images/surf_board01.jpg","img/object_images/laptop03.jpg","1","1","1","1","1","1","0.424966800026596","0.405982000054792","0.437766999937594","1","1","1","1","1","1","1","1","1"
"260031","img/object_images/laptop03.jpg","img/object_images/backpack03.jpg","img/object_images/combs01.jpg","1","1","1","1","1","1","0.437766999937594","0.424966800026596","0.411027099937201","1","1","1","1","1","1","1","1","1"
"260031","img/object_images/combs01.jpg","img/object_images/laptop03.jpg","img/object_images/Vest02.jpg","1","1","1","1","1","0","0.411027099937201","0.437766999937594","0.527925799950026","1","1","1","1","1","1","1","1","1"
"260031","img/object_images/Vest02.jpg","img/object_images/combs01.jpg","img/object_images/pitcher05.jpg","1","1","1","0","1","0","0.527925799950026","0.411027099937201","0.45187019999139","1","1","1","1","1","1","1","1","1"
"260031","img/object_images/pitcher05.jpg","img/object_images/Vest02.jpg","img/object_images/robe01.jpg","1","1","1","0","0","1","0.45187019999139","0.527925799950026","0.428984199999832","1","1","1","1","1","1","1","1","1"
"260031","img/object_images/robe01.jpg","img/object_images/pitcher05.jpg","img/object_images/ball02.jpg","1","1","1","1","0","1","0.428984199999832","0.45187019999139","0.412279200041667","1","1","1","1","1","1","1","1","1"
"260031","img/object_images/ball02.jpg","img/object_images/robe01.jpg","img/object_images/toy05.jpg","1","1","1","1","1","0","0.412279200041667","0.428984199999832","0.448083900031634","1","1","1","1","1","1","1","1","1"
"260031","img/object_images/toy05.jpg","img/object_images/ball02.jpg","img/object_images/microphone03.jpg","1","1","1","0","1","1","0.448083900031634","0.412279200041667","0.423858899972402","1","1","1","1","1","1","1","1","1"
"260031","img/object_images/microphone03.jpg","img/object_images/toy05.jpg","img/object_images/lock01.jpg","1","1","1","1","0","0","0.423858899972402","0.448083900031634","0.48528159991838","1","1","1","1","1","1","1","1","1"
"260031","img/object_images/lock01.jpg","img/object_images/microphone03.jpg","img/object_images/fan04.jpg","1","1","1","0","1","0","0.48528159991838","0.423858899972402","0.500420500058681","1","1","1","1","1","1","1","1","1"
"260031","img/object_images/fan04.jpg","img/object_images/lock01.jpg","img/object_images/stove01.jpg","1","1","1","0","0","0","0.500420500058681","0.48528159991838","0.481942999991588","1","1","1","1","1","1","1","1","1"
"260031","img/object_images/stove01.jpg","img/object_images/fan04.jpg","img/object_images/laptop01.jpg","1","1","1","0","0","0","0.481942999991588","0.500420500058681","0.452386799966916","1","1","1","1","1","1","1","1","1"
"260031","img/object_images/laptop01.jpg","img/object_images/stove01.jpg","img/object_images/jewel03.jpg","1","1","1","0","0","1","0.452386799966916","0.481942999991588","0.398462400073186","1","1","1","1","1","1","1","1","1"
"260031","img/object_images/jewel03.jpg","img/object_images/laptop01.jpg","img/object_images/accardion01.jpg","1","1","1","1","0","1","0.398462400073186","0.452386799966916","0.470782299991697","1","1","1","1","1","1","1","1","1"
"260031","img/object_images/accardion01.jpg","img/object_images/jewel03.jpg","img/object_images/hair_brush02.jpg","1","1","1","1","1","0","0.470782299991697","0.398462400073186","0.474688299931586","1","1","1","1","1","1","1","1","1"
"260031","img/object_images/hair_brush02.jpg","img/object_images/accardion01.jpg",NA,"1","1",NA,"0","1",NA,"0.474688299931586","0.470782299991697",NA,"1","1",NA,"1","1",NA,"1","1",NA
"260031","img/object_images/vga_port 01.jpg",NA,"img/object_images/fork03.jpg","0",NA,"1","0",NA,"1",NA,NA,"0.456594399991445","0",NA,"1","0",NA,"1","0",NA,"1"
"260031","img/object_images/fork03.jpg","img/object_images/vga_port 01.jpg","img/object_images/clip02.jpg","1","0","1","1","0","1","0.456594399991445",NA,"0.383450699970126","1","0","1","1","0","1","1","0","1"
"260031","img/object_images/clip02.jpg","img/object_images/fork03.jpg","img/object_images/handkerchief01.jpg","1","1","1","1","1","0","0.383450699970126","0.456594399991445","0.435930400039069","1","1","1","1","1","1","1","1","1"
"260031","img/object_images/handkerchief01.jpg","img/object_images/clip02.jpg","img/object_images/funnel01.jpg","1","1","1","0","1","0","0.435930400039069","0.383450699970126","0.474453700007871","1","1","1","1","1","1","1","1","1"
"260031","img/object_images/funnel01.jpg","img/object_images/handkerchief01.jpg","img/object_images/jewelry01.jpg","1","1","1","0","0","1","0.474453700007871","0.435930400039069","0.436560999951325","1","1","1","1","1","1","1","1","1"
"260031","img/object_images/jewelry01.jpg","img/object_images/funnel01.jpg","img/object_images/measuring_tape02.jpg","1","1","1","1","0","1","0.436560999951325","0.474453700007871","0.566870099981315","1","1","1","1","1","1","1","1","1"
"260031","img/object_images/measuring_tape02.jpg","img/object_images/jewelry01.jpg","img/object_images/hammer01.jpg","1","1","1","1","1","0","0.566870099981315","0.436560999951325","0.431798900011927","1","1","1","1","1","1","1","1","1"
"260031","img/object_images/hammer01.jpg","img/object_images/measuring_tape02.jpg","img/object_images/coloring_pencil01.jpg","1","1","1","0","1","1","0.431798900011927","0.566870099981315","0.461516599985771","1","1","1","1","1","1","1","1","1"
"260031","img/object_images/coloring_pencil01.jpg","img/object_images/hammer01.jpg","img/object_images/camera07.jpg","1","1","1","1","0","1","0.461516599985771","0.431798900011927","0.407677400042303","1","1","1","1","1","1","1","1","1"
"260031","img/object_images/camera07.jpg","img/object_images/coloring_pencil01.jpg","img/object_images/bow_tie01.jpg","1","1","1","1","1","0","0.407677400042303","0.461516599985771","0.46662700001616","1","1","1","1","1","1","1","1","1"
"260031","img/object_images/bow_tie01.jpg","img/object_images/camera07.jpg","img/object_images/ironing_table01.jpg","1","1","1","0","1","0","0.46662700001616","0.407677400042303","0.522862000041641","1","1","1","1","1","1","1","1","1"
"260031","img/object_images/ironing_table01.jpg","img/object_images/bow_tie01.jpg","img/object_images/lock04.jpg","1","1","1","0","0","1","0.522862000041641","0.46662700001616","0.428354999981821","1","1","1","1","1","1","1","1","1"
"260031","img/object_images/lock04.jpg","img/object_images/ironing_table01.jpg","img/object_images/jacket03.jpg","1","1","1","1","0","0","0.428354999981821","0.522862000041641","0.468458599993028","1","1","1","1","1","1","1","1","1"
"260031","img/object_images/jacket03.jpg","img/object_images/lock04.jpg","img/object_images/Screws01.jpg","1","1","1","0","1","1","0.468458599993028","0.428354999981821","0.503495700075291","1","1","1","1","1","1","1","1","1"
"260031","img/object_images/Screws01.jpg","img/object_images/jacket03.jpg","img/object_images/couch03.jpg","1","1","1","1","0","0","0.503495700075291","0.468458599993028","0.441170100006275","1","1","1","1","1","1","1","1","1"
"260031","img/object_images/couch03.jpg","img/object_images/Screws01.jpg","img/object_images/bath_tub01.jpg","1","1","1","0","1","0","0.441170100006275","0.503495700075291","0.409595199977048","1","1","1","1","1","1","1","1","1"
"260031","img/object_images/bath_tub01.jpg","img/object_images/couch03.jpg","img/object_images/pitcher02.jpg","1","1","1","0","0","1","0.409595199977048","0.441170100006275","0.4273983000312","1","1","1","1","1","1","1","1","1"
"260031","img/object_images/pitcher02.jpg","img/object_images/bath_tub01.jpg","img/object_images/golf_ball03.jpg","1","1","1","1","0","1","0.4273983000312","0.409595199977048","0.408539599971846","1","1","1","1","1","1","1","1","1"
"260031","img/object_images/golf_ball03.jpg","img/object_images/pitcher02.jpg","img/object_images/paper_cup01.jpg","1","1","1","1","1","0","0.408539599971846","0.4273983000312","0.462212100042962","1","1","1","1","1","1","1","1","1"
"260031","img/object_images/paper_cup01.jpg","img/object_images/golf_ball03.jpg","img/object_images/bow_tie02.jpg","1","1","1","0","1","0","0.462212100042962","0.408539599971846","0.469749699928798","1","1","1","1","1","1","1","1","1"
"260031","img/object_images/bow_tie02.jpg","img/object_images/paper_cup01.jpg","img/object_images/socks02.jpg","1","1","1","0","0","0","0.469749699928798","0.462212100042962","0.515626100008376","1","1","1","1","1","1","1","1","1"
"260031","img/object_images/socks02.jpg","img/object_images/bow_tie02.jpg","img/object_images/Witchhat01.jpg","1","1","1","0","0","1","0.515626100008376","0.469749699928798","0.478697199956514","1","1","1","1","1","1","1","1","1"
"260031","img/object_images/Witchhat01.jpg","img/object_images/socks02.jpg","img/object_images/balloon01.jpg","1","1","1","1","0","0","0.478697199956514","0.515626100008376","0.48394280008506","1","1","1","1","1","1","1","1","1"
"260031","img/object_images/balloon01.jpg","img/object_images/Witchhat01.jpg","img/object_images/gift_box02.jpg","1","1","1","0","1","1","0.48394280008506","0.478697199956514","0.496321999933571","1","1","1","1","1","1","1","1","1"
"260031","img/object_images/gift_box02.jpg","img/object_images/balloon01.jpg","img/object_images/dresser04.jpg","1","1","1","1","0","0","0.496321999933571","0.48394280008506","0.480831200024113","1","1","1","1","1","1","1","1","1"
"260031","img/object_images/dresser04.jpg","img/object_images/gift_box02.jpg","img/object_images/grater01.jpg","1","1","1","0","1","1","0.480831200024113","0.496321999933571","0.439200700027868","1","1","1","1","1","1","1","1","1"
"260031","img/object_images/grater01.jpg","img/object_images/dresser04.jpg","img/object_images/sleeping_bag01.jpg","1","1","1","1","0","0","0.439200700027868","0.480831200024113","0.571340600028634","1","1","1","1","1","1","1","1","1"
"260031","img/object_images/sleeping_bag01.jpg","img/object_images/grater01.jpg","img/object_images/gift_box03.jpg","1","1","1","0","1","0","0.571340600028634","0.439200700027868","0.44003519997932","1","1","1","1","1","1","1","1","1"
"260031","img/object_images/gift_box03.jpg","img/object_images/sleeping_bag01.jpg","img/object_images/wallet02.jpg","1","1","1","0","0","1","0.44003519997932","0.571340600028634","0.404524800018407","1","1","1","1","1","1","1","1","1"
"260031","img/object_images/wallet02.jpg","img/object_images/gift_box03.jpg","img/object_images/gift_box01.jpg","1","1","1","1","0","1","0.404524800018407","0.44003519997932","0.483293800032698","1","1","1","1","1","1","1","1","1"
"260031","img/object_images/gift_box01.jpg","img/object_images/wallet02.jpg","img/object_images/lawn_mower01.jpg","1","1","1","1","1","1","0.483293800032698","0.404524800018407","0.421148399938829","1","1","1","1","1","1","1","1","1"
"260031","img/object_images/lawn_mower01.jpg","img/object_images/gift_box01.jpg",NA,"1","1",NA,"1","1",NA,"0.421148399938829","0.483293800032698",NA,"1","1",NA,"1","1",NA,"1","1",NA
"260031","img/object_images/Candle_Holder01.jpg",NA,"img/object_images/clipboard01.jpg","1",NA,"1","0",NA,"1","0.555608000024222",NA,"0.40085380000528","1",NA,"1","1",NA,"1","1",NA,"1"
"260031","img/object_images/clipboard01.jpg","img/object_images/Candle_Holder01.jpg","img/object_images/duster01.jpg","1","1","1","1","0","0","0.40085380000528","0.555608000024222","0.498166700010188","1","1","1","1","1","1","1","1","1"
"260031","img/object_images/duster01.jpg","img/object_images/clipboard01.jpg","img/object_images/socks01.jpg","1","1","1","0","1","1","0.498166700010188","0.40085380000528","0.516893899999559","1","1","1","1","1","1","1","1","1"
"260031","img/object_images/socks01.jpg","img/object_images/duster01.jpg","img/object_images/Confetti 01.jpg","1","1","1","1","0","0","0.516893899999559","0.498166700010188","0.409277700004168","1","1","1","1","1","1","1","1","1"
"260031","img/object_images/Confetti 01.jpg","img/object_images/socks01.jpg","img/object_images/hat09.jpg","1","1","1","0","1","0","0.409277700004168","0.516893899999559","0.466205900069326","1","1","1","1","1","1","1","1","1"
"260031","img/object_images/hat09.jpg","img/object_images/Confetti 01.jpg","img/object_images/pan03.jpg","1","1","1","0","0","1","0.466205900069326","0.409277700004168","0.411044299951755","1","1","1","1","1","1","1","1","1"
"260031","img/object_images/pan03.jpg","img/object_images/hat09.jpg","img/object_images/candle02.jpg","1","1","1","1","0","0","0.411044299951755","0.466205900069326","0.488976499997079","1","1","1","1","1","1","1","1","1"
"260031","img/object_images/candle02.jpg","img/object_images/pan03.jpg","img/object_images/tool20.jpg","1","1","1","0","1","0","0.488976499997079","0.411044299951755","0.469964900054038","1","1","1","1","1","1","1","1","1"
"260031","img/object_images/tool20.jpg","img/object_images/candle02.jpg","img/object_images/board01.jpg","1","1","1","0","0","1","0.469964900054038","0.488976499997079","0.412898399983533","1","1","1","1","1","1","1","1","1"
"260031","img/object_images/board01.jpg","img/object_images/tool20.jpg","img/object_images/hat13.jpg","1","1","1","1","0","1","0.412898399983533","0.469964900054038","0.393292600056157","1","1","1","1","1","1","1","1","1"
"260031","img/object_images/hat13.jpg","img/object_images/board01.jpg","img/object_images/vase02.jpg","1","1","1","1","1","1","0.393292600056157","0.412898399983533","0.404345000046305","1","1","1","1","1","1","1","1","1"
"260031","img/object_images/vase02.jpg","img/object_images/hat13.jpg","img/object_images/glasses03.jpg","1","1","1","1","1","0","0.404345000046305","0.393292600056157","0.428193400031887","1","1","1","1","1","1","1","1","1"
"260031","img/object_images/glasses03.jpg","img/object_images/vase02.jpg","img/object_images/razor02.jpg","1","1","1","0","1","1","0.428193400031887","0.404345000046305","0.404384299996309","1","1","1","1","1","1","1","1","1"
"260031","img/object_images/razor02.jpg","img/object_images/glasses03.jpg","img/object_images/floss01.jpg","1","1","1","1","0","1","0.404384299996309","0.428193400031887","0.440379799925722","1","1","1","1","1","1","1","1","1"
"260031","img/object_images/floss01.jpg","img/object_images/razor02.jpg","img/object_images/sink_filter01 (1).jpg","1","1","1","1","1","0","0.440379799925722","0.404384299996309","0.659022000036202","1","1","1","1","1","1","1","1","1"
"260031","img/object_images/sink_filter01 (1).jpg","img/object_images/floss01.jpg","img/object_images/camera05.jpg","1","1","1","0","1","0","0.659022000036202","0.440379799925722","0.590589799918234","1","1","1","1","1","1","1","1","1"
"260031","img/object_images/camera05.jpg","img/object_images/sink_filter01 (1).jpg","img/object_images/office_supplies01.jpg","1","1","1","0","0","1","0.590589799918234","0.659022000036202","0.446445900015533","1","1","1","1","1","1","1","1","1"
"260031","img/object_images/office_supplies01.jpg","img/object_images/camera05.jpg","img/object_images/sign02.jpg","1","1","1","1","0","0","0.446445900015533","0.590589799918234","0.498165400000289","1","1","1","1","1","1","1","1","1"
"260031","img/object_images/sign02.jpg","img/object_images/office_supplies01.jpg","img/object_images/tool13.jpg","1","1","1","0","1","1","0.498165400000289","0.446445900015533","0.432625400018878","1","1","1","1","1","1","1","1","1"
"260031","img/object_images/tool13.jpg","img/object_images/sign02.jpg","img/object_images/dust_pan01.jpg","1","1","1","1","0","1","0.432625400018878","0.498165400000289","0.468859099899419","1","1","1","1","1","1","1","1","1"
"260031","img/object_images/dust_pan01.jpg","img/object_images/tool13.jpg","img/object_images/hammer02.jpg","1","1","1","1","1","0","0.468859099899419","0.432625400018878","0.43031800002791","1","1","1","1","1","1","1","1","1"
"260031","img/object_images/hammer02.jpg","img/object_images/dust_pan01.jpg","img/object_images/perfume01.jpg","1","1","1","0","1","0","0.43031800002791","0.468859099899419","0.519236800028011","1","1","1","1","1","1","1","1","1"
"260031","img/object_images/perfume01.jpg","img/object_images/hammer02.jpg","img/object_images/knife01.jpg","1","1","1","0","0","1","0.519236800028011","0.43031800002791","0.451360300066881","1","1","1","1","1","1","1","1","1"
"260031","img/object_images/knife01.jpg","img/object_images/perfume01.jpg","img/object_images/bag04.jpg","1","1","1","1","0","0","0.451360300066881","0.519236800028011","0.448383899987675","1","1","1","1","1","1","1","1","1"
"260031","img/object_images/bag04.jpg","img/object_images/knife01.jpg","img/object_images/cup01.jpg","1","1","1","0","1","0","0.448383899987675","0.451360300066881","0.395305300015025","1","1","1","1","1","1","1","1","1"
"260031","img/object_images/cup01.jpg","img/object_images/bag04.jpg","img/object_images/pen06.jpg","1","1","1","0","0","0","0.395305300015025","0.448383899987675","0.503491000039503","1","1","1","1","1","1","1","1","1"
"260031","img/object_images/pen06.jpg","img/object_images/cup01.jpg","img/object_images/lemon_squeezer01.jpg","1","1","1","0","0","1","0.503491000039503","0.395305300015025","0.417907499941066","1","1","1","1","1","1","1","1","1"
"260031","img/object_images/lemon_squeezer01.jpg","img/object_images/pen06.jpg","img/object_images/video_game02.jpg","1","1","1","1","0","1","0.417907499941066","0.503491000039503","0.384405700024217","1","1","1","1","1","1","1","1","1"
"260031","img/object_images/video_game02.jpg","img/object_images/lemon_squeezer01.jpg","img/object_images/bow_tie03.jpg","1","1","1","1","1","1","0.384405700024217","0.417907499941066","0.429421000066213","1","1","1","1","1","1","1","1","1"
"260031","img/object_images/bow_tie03.jpg","img/object_images/video_game02.jpg","img/object_images/ruler02.jpg","1","1","1","1","1","1","0.429421000066213","0.384405700024217","0.404200699995272","1","1","1","1","1","1","1","1","1"
"260031","img/object_images/ruler02.jpg","img/object_images/bow_tie03.jpg","img/object_images/spray_can01.jpg","1","1","1","1","1","0","0.404200699995272","0.429421000066213","0.569422400090843","1","1","1","1","1","1","1","1","1"
"260031","img/object_images/spray_can01.jpg","img/object_images/ruler02.jpg",NA,"1","1",NA,"0","1",NA,"0.569422400090843","0.404200699995272",NA,"1","1",NA,"1","1",NA,"1","1",NA
"260031","img/object_images/mail_box01.jpg",NA,"img/object_images/Statue01.jpg","1",NA,"1","0",NA,"1","0.9755910000531",NA,"0.48146290006116","1",NA,"1","1",NA,"1","1",NA,"1"
"260031","img/object_images/Statue01.jpg","img/object_images/mail_box01.jpg","img/object_images/video_game01.jpg","1","1","1","1","0","1","0.48146290006116","0.9755910000531","0.448084700037725","1","1","1","1","1","1","1","1","1"
"260031","img/object_images/video_game01.jpg","img/object_images/Statue01.jpg","img/object_images/matches02.jpg","1","1","1","1","1","0","0.448084700037725","0.48146290006116","0.470305099966936","1","1","1","1","1","1","1","1","1"
"260031","img/object_images/matches02.jpg","img/object_images/video_game01.jpg","img/object_images/car01.jpg","1","1","1","0","1","1","0.470305099966936","0.448084700037725","0.437648800085299","1","1","1","1","1","1","1","1","1"
"260031","img/object_images/car01.jpg","img/object_images/matches02.jpg","img/object_images/gloves02.jpg","1","1","1","1","0","0","0.437648800085299","0.470305099966936","0.43995020003058","1","1","1","1","1","1","1","1","1"
"260031","img/object_images/gloves02.jpg","img/object_images/car01.jpg","img/object_images/shower_head01.jpg","1","1","1","0","1","1","0.43995020003058","0.437648800085299","0.433989700046368","1","1","1","1","1","1","1","1","1"
"260031","img/object_images/shower_head01.jpg","img/object_images/gloves02.jpg","img/object_images/kite01.jpg","1","1","1","1","0","1","0.433989700046368","0.43995020003058","0.39096630003769","1","1","1","1","1","1","1","1","1"
"260031","img/object_images/kite01.jpg","img/object_images/shower_head01.jpg","img/object_images/backpack01.jpg","1","1","1","1","1","0","0.39096630003769","0.433989700046368","0.410368800046854","1","1","1","1","1","1","1","1","1"
"260031","img/object_images/backpack01.jpg","img/object_images/kite01.jpg","img/object_images/toy08.jpg","1","1","1","0","1","0","0.410368800046854","0.39096630003769","0.407902500010096","1","1","1","1","1","1","1","1","1"
"260031","img/object_images/toy08.jpg","img/object_images/backpack01.jpg","img/object_images/stereo02.jpg","1","1","1","0","0","0","0.407902500010096","0.410368800046854","0.423796099959873","1","1","1","1","1","1","1","1","1"
"260031","img/object_images/stereo02.jpg","img/object_images/toy08.jpg","img/object_images/tool18.jpg","1","1","1","0","0","0","0.423796099959873","0.407902500010096","0.622650400036946","1","1","1","1","1","1","1","1","1"
"260031","img/object_images/tool18.jpg","img/object_images/stereo02.jpg","img/object_images/basket04.jpg","1","1","1","0","0","1","0.622650400036946","0.423796099959873","0.466048700036481","1","1","1","1","1","1","1","1","1"
"260031","img/object_images/basket04.jpg","img/object_images/tool18.jpg","img/object_images/dresser03.jpg","1","1","1","1","0","0","0.466048700036481","0.622650400036946","0.478991999989375","1","1","1","1","1","1","1","1","1"
"260031","img/object_images/dresser03.jpg","img/object_images/basket04.jpg","img/object_images/hand_grip_exerciser01.jpg","1","1","1","0","1","0","0.478991999989375","0.466048700036481","0.440729000023566","1","1","1","1","1","1","1","1","1"
"260031","img/object_images/hand_grip_exerciser01.jpg","img/object_images/dresser03.jpg","img/object_images/camera03.jpg","1","1","1","0","0","0","0.440729000023566","0.478991999989375","0.45524490007665","1","1","1","1","1","1","1","1","1"
"260031","img/object_images/camera03.jpg","img/object_images/hand_grip_exerciser01.jpg","img/object_images/remover01.jpg","1","1","1","0","0","1","0.45524490007665","0.440729000023566","0.40066109993495","1","1","1","1","1","1","1","1","1"
"260031","img/object_images/remover01.jpg","img/object_images/camera03.jpg","img/object_images/bottle07.jpg","1","1","1","1","0","1","0.40066109993495","0.45524490007665","0.486876600072719","1","1","1","1","1","1","1","1","1"
"260031","img/object_images/bottle07.jpg","img/object_images/remover01.jpg","img/object_images/blender02.jpg","1","1","1","1","1","1","0.486876600072719","0.40066109993495","0.38408420002088","1","1","1","1","1","1","1","1","1"
"260031","img/object_images/blender02.jpg","img/object_images/bottle07.jpg","img/object_images/sponge03.jpg","1","1","1","1","1","1","0.38408420002088","0.486876600072719","0.447762100026011","1","1","1","1","1","1","1","1","1"
"260031","img/object_images/sponge03.jpg","img/object_images/blender02.jpg","img/object_images/boat04.jpg","1","1","1","1","1","0","0.447762100026011","0.38408420002088","0.493521000025794","1","1","1","1","1","1","1","1","1"
"260031","img/object_images/boat04.jpg","img/object_images/sponge03.jpg","img/object_images/hoverboard01.jpg","1","1","1","0","1","0","0.493521000025794","0.447762100026011","0.438513600034639","1","1","1","1","1","1","1","1","1"
"260031","img/object_images/hoverboard01.jpg","img/object_images/boat04.jpg","img/object_images/curtain02.jpg","1","1","1","0","0","0","0.438513600034639","0.493521000025794","0.506503499927931","1","1","1","1","1","1","1","1","1"
"260031","img/object_images/curtain02.jpg","img/object_images/hoverboard01.jpg","img/object_images/flashlight03.jpg","1","1","1","0","0","0","0.506503499927931","0.438513600034639","0.478858800022863","1","1","1","1","1","1","1","1","1"
"260031","img/object_images/flashlight03.jpg","img/object_images/curtain02.jpg","img/object_images/keyboard02.jpg","1","1","1","0","0","1","0.478858800022863","0.506503499927931","0.40380119998008","1","1","1","1","1","1","1","1","1"
"260031","img/object_images/keyboard02.jpg","img/object_images/flashlight03.jpg","img/object_images/knife02.jpg","1","1","1","1","0","0","0.40380119998008","0.478858800022863","0.458427099976689","1","1","1","1","1","1","1","1","1"
"260031","img/object_images/knife02.jpg","img/object_images/keyboard02.jpg","img/object_images/knit03.jpg","1","1","1","0","1","1","0.458427099976689","0.40380119998008","0.512849900056608","1","1","1","1","1","1","1","1","1"
"260031","img/object_images/knit03.jpg","img/object_images/knife02.jpg","img/object_images/phone02.jpg","1","1","1","1","0","1","0.512849900056608","0.458427099976689","0.41141709999647","1","1","1","1","1","1","1","1","1"
"260031","img/object_images/phone02.jpg","img/object_images/knit03.jpg","img/object_images/jacket04.jpg","1","1","1","1","1","0","0.41141709999647","0.512849900056608","0.566767300013453","1","1","1","1","1","1","1","1","1"
"260031","img/object_images/jacket04.jpg","img/object_images/phone02.jpg","img/object_images/remote_controller01.jpg","1","1","1","0","1","1","0.566767300013453","0.41141709999647","0.362442000070587","1","1","1","1","1","1","1","1","1"
"260031","img/object_images/remote_controller01.jpg","img/object_images/jacket04.jpg","img/object_images/knit04.jpg","1","1","1","1","0","1","0.362442000070587","0.566767300013453","0.440430099959485","1","1","1","1","1","1","1","1","1"
"260031","img/object_images/knit04.jpg","img/object_images/remote_controller01.jpg","img/object_images/paper_cup02.jpg","1","1","1","1","1","1","0.440430099959485","0.362442000070587","0.540281299967319","1","1","1","1","1","1","1","1","1"
"260031","img/object_images/paper_cup02.jpg","img/object_images/knit04.jpg",NA,"1","1",NA,"1","1",NA,"0.540281299967319","0.440430099959485",NA,"1","1",NA,"1","1",NA,"1","1",NA
"260031","img/object_images/scale02.jpg",NA,"img/object_images/Shoes05.jpg","1",NA,"1","0",NA,"0","0.82235670008231",NA,"0.445856899954379","1",NA,"1","1",NA,"1","1",NA,"1"
"260031","img/object_images/Shoes05.jpg","img/object_images/scale02.jpg","img/object_images/TreeSlice01.jpg","1","1","1","0","0","1","0.445856899954379","0.82235670008231","0.4218318000203","1","1","1","1","1","1","1","1","1"
"260031","img/object_images/TreeSlice01.jpg","img/object_images/Shoes05.jpg","img/object_images/bookmark01.jpg","1","1","1","1","0","0","0.4218318000203","0.445856899954379","0.459154900046997","1","1","1","1","1","1","1","1","1"
"260031","img/object_images/bookmark01.jpg","img/object_images/TreeSlice01.jpg","img/object_images/nut_cracker01.jpg","1","1","1","0","1","1","0.459154900046997","0.4218318000203","0.435947399935685","1","1","1","1","1","1","1","1","1"
"260031","img/object_images/nut_cracker01.jpg","img/object_images/bookmark01.jpg","img/object_images/pitcher07.jpg","1","1","1","1","0","1","0.435947399935685","0.459154900046997","0.458962799981236","1","1","1","1","1","1","1","1","1"
"260031","img/object_images/pitcher07.jpg","img/object_images/nut_cracker01.jpg","img/object_images/Safe01.jpg","1","1","1","1","1","1","0.458962799981236","0.435947399935685","0.405873600044288","1","1","1","1","1","1","1","1","1"
"260031","img/object_images/Safe01.jpg","img/object_images/pitcher07.jpg","img/object_images/bucket01.jpg","1","1","1","1","1","1","0.405873600044288","0.458962799981236","0.595694699906744","1","1","1","1","1","1","1","1","1"
"260031","img/object_images/bucket01.jpg","img/object_images/Safe01.jpg","img/object_images/badminton01.jpg","1","1","1","1","1","1","0.595694699906744","0.405873600044288","0.443786500021815","1","1","1","1","1","1","1","1","1"
"260031","img/object_images/badminton01.jpg","img/object_images/bucket01.jpg","img/object_images/headset02.jpg","1","1","1","1","1","0","0.443786500021815","0.595694699906744","0.533837200026028","1","1","1","1","1","1","1","1","1"
"260031","img/object_images/headset02.jpg","img/object_images/badminton01.jpg","img/object_images/yoga_mat01.jpg","1","1","1","0","1","0","0.533837200026028","0.443786500021815","0.417193000088446","1","1","1","1","1","1","1","1","1"
"260031","img/object_images/yoga_mat01.jpg","img/object_images/headset02.jpg","img/object_images/joystick03.jpg","1","1","1","0","0","1","0.417193000088446","0.533837200026028","0.404358900035731","1","1","1","1","1","1","1","1","1"
"260031","img/object_images/joystick03.jpg","img/object_images/yoga_mat01.jpg","img/object_images/egg_basket01.jpg","1","1","1","1","0","1","0.404358900035731","0.417193000088446","0.399922900018282","1","1","1","1","1","1","1","1","1"
"260031","img/object_images/egg_basket01.jpg","img/object_images/joystick03.jpg","img/object_images/jewel02.jpg","1","1","1","1","1","0","0.399922900018282","0.404358900035731","0.577410499914549","1","1","1","1","1","1","1","1","1"
"260031","img/object_images/jewel02.jpg","img/object_images/egg_basket01.jpg","img/object_images/shovel01.jpg","1","1","1","0","1","0","0.577410499914549","0.399922900018282","0.404012699960731","1","1","1","1","1","1","1","1","1"
"260031","img/object_images/shovel01.jpg","img/object_images/jewel02.jpg","img/object_images/Eyeliner01.jpg","1","1","1","0","0","1","0.404012699960731","0.577410499914549","0.569747200002894","1","1","1","1","1","1","1","1","1"
"260031","img/object_images/Eyeliner01.jpg","img/object_images/shovel01.jpg","img/object_images/fan01.jpg","1","1","1","1","0","0","0.569747200002894","0.404012699960731","0.439455799991265","1","1","1","1","1","1","1","1","1"
"260031","img/object_images/fan01.jpg","img/object_images/Eyeliner01.jpg","img/object_images/tennis_racket01.jpg","1","1","1","0","1","1","0.439455799991265","0.569747200002894","0.431744999950752","1","1","1","1","1","1","1","1","1"
"260031","img/object_images/tennis_racket01.jpg","img/object_images/fan01.jpg","img/object_images/piano03.jpg","1","1","1","1","0","0","0.431744999950752","0.439455799991265","0.462806700030342","1","1","1","1","1","1","1","1","1"
"260031","img/object_images/piano03.jpg","img/object_images/tennis_racket01.jpg","img/object_images/usb03.jpg","1","1","0","0","1","0","0.462806700030342","0.431744999950752","0.456934600020759","1","1","1","1","1","1","1","1","1"
"260031","img/object_images/usb03.jpg","img/object_images/piano03.jpg","img/object_images/water_gun01.jpg","0","1","1","0","0","1","0.456934600020759","0.462806700030342","0.43483040004503","1","1","1","1","1","1","1","1","1"
"260031","img/object_images/water_gun01.jpg","img/object_images/usb03.jpg","img/object_images/note_book02.jpg","1","0","1","1","0","0","0.43483040004503","0.456934600020759","0.583061299985275","1","1","1","1","1","1","1","1","1"
"260031","img/object_images/note_book02.jpg","img/object_images/water_gun01.jpg","img/object_images/belt03.jpg","1","1","1","0","1","0","0.583061299985275","0.43483040004503","0.492911999928765","1","1","1","1","1","1","1","1","1"
"260031","img/object_images/belt03.jpg","img/object_images/note_book02.jpg","img/object_images/frame01.jpg","1","1","1","0","0","1","0.492911999928765","0.583061299985275","0.46743509999942","1","1","1","1","1","1","1","1","1"
"260031","img/object_images/frame01.jpg","img/object_images/belt03.jpg","img/object_images/bottle06.jpg","1","1","1","1","0","0","0.46743509999942","0.492911999928765","0.507305299979635","1","1","1","1","1","1","1","1","1"
"260031","img/object_images/bottle06.jpg","img/object_images/frame01.jpg","img/object_images/ToolBag01.jpg","1","1","1","0","1","0","0.507305299979635","0.46743509999942","0.409884300082922","1","1","1","1","1","1","1","1","1"
"260031","img/object_images/ToolBag01.jpg","img/object_images/bottle06.jpg","img/object_images/lock03.jpg","1","1","1","0","0","1","0.409884300082922","0.507305299979635","0.570174499996938","1","1","1","1","1","1","1","1","1"
"260031","img/object_images/lock03.jpg","img/object_images/ToolBag01.jpg","img/object_images/origami01.jpg","1","1","1","1","0","1","0.570174499996938","0.409884300082922","0.459994000033475","1","1","1","1","1","1","1","1","1"
"260031","img/object_images/origami01.jpg","img/object_images/lock03.jpg","img/object_images/helmet03.jpg","1","1","1","1","1","1","0.459994000033475","0.570174499996938","0.470537799992599","1","1","1","1","1","1","1","1","1"
"260031","img/object_images/helmet03.jpg","img/object_images/origami01.jpg","img/object_images/phone04.jpg","1","1","1","1","1","1","0.470537799992599","0.459994000033475","0.456446800031699","1","1","1","1","1","1","1","1","1"
"260031","img/object_images/phone04.jpg","img/object_images/helmet03.jpg","img/object_images/trumpet01.jpg","1","1","1","1","1","0","0.456446800031699","0.470537799992599","0.430850800010376","1","1","1","1","1","1","1","1","1"
"260031","img/object_images/trumpet01.jpg","img/object_images/phone04.jpg","img/object_images/dice01.jpg","1","1","1","0","1","0","0.430850800010376","0.456446800031699","0.436887399991974","1","1","1","1","1","1","1","1","1"
"260031","img/object_images/dice01.jpg","img/object_images/trumpet01.jpg",NA,"1","1",NA,"0","0",NA,"0.436887399991974","0.430850800010376",NA,"1","1",NA,"1","1",NA,"1","1",NA
"260031","img/object_images/box03.jpg",NA,"img/object_images/fork02.jpg","0",NA,"1","0",NA,"0",NA,NA,"0.550716100027785","0",NA,"1","0",NA,"1","0",NA,"1"
"260031","img/object_images/fork02.jpg","img/object_images/box03.jpg","img/object_images/tool06.jpg","1","0","1","0","0","0","0.550716100027785",NA,"0.428336600074545","1","0","1","1","0","1","1","0","1"
"260031","img/object_images/tool06.jpg","img/object_images/fork02.jpg","img/object_images/chain01.jpg","1","1","1","0","0","0","0.428336600074545","0.550716100027785","0.453518399968743","1","1","1","1","1","1","1","1","1"
"260031","img/object_images/chain01.jpg","img/object_images/tool06.jpg","img/object_images/tripod01.jpg","1","1","1","0","0","1","0.453518399968743","0.428336600074545","0.478323899907991","1","1","1","1","1","1","1","1","1"
"260031","img/object_images/tripod01.jpg","img/object_images/chain01.jpg","img/object_images/mail_box02.jpg","1","1","1","1","0","1","0.478323899907991","0.453518399968743","0.508525899960659","1","1","1","1","1","1","1","1","1"
"260031","img/object_images/mail_box02.jpg","img/object_images/tripod01.jpg","img/object_images/scarf01.jpg","1","1","1","1","1","1","0.508525899960659","0.478323899907991","0.456794199999422","1","1","1","1","1","1","1","1","1"
"260031","img/object_images/scarf01.jpg","img/object_images/mail_box02.jpg","img/object_images/computer_mouse01.jpg","1","1","1","1","1","1","0.456794199999422","0.508525899960659","0.438813299988396","1","1","1","1","1","1","1","1","1"
"260031","img/object_images/computer_mouse01.jpg","img/object_images/scarf01.jpg","img/object_images/clip04.jpg","1","1","1","1","1","1","0.438813299988396","0.456794199999422","0.39776860002894","1","1","1","1","1","1","1","1","1"
"260031","img/object_images/clip04.jpg","img/object_images/computer_mouse01.jpg","img/object_images/couch01.jpg","1","1","1","1","1","0","0.39776860002894","0.438813299988396","0.552563200006261","1","1","1","1","1","1","1","1","1"
"260031","img/object_images/couch01.jpg","img/object_images/clip04.jpg","img/object_images/bell03.jpg","1","1","1","0","1","0","0.552563200006261","0.39776860002894","0.493296299944632","1","1","1","1","1","1","1","1","1"
"260031","img/object_images/bell03.jpg","img/object_images/couch01.jpg","img/object_images/pen01.jpg","1","1","1","0","0","0","0.493296299944632","0.552563200006261","0.614929500035942","1","1","1","1","1","1","1","1","1"
"260031","img/object_images/pen01.jpg","img/object_images/bell03.jpg","img/object_images/Trowel01.jpg","1","1","1","0","0","0","0.614929500035942","0.493296299944632","0.561801900039427","1","1","1","1","1","1","1","1","1"
"260031","img/object_images/Trowel01.jpg","img/object_images/pen01.jpg","img/object_images/soap03.jpg","1","1","1","0","0","0","0.561801900039427","0.614929500035942","0.539515599957667","1","1","1","1","1","1","1","1","1"
"260031","img/object_images/soap03.jpg","img/object_images/Trowel01.jpg","img/object_images/drone01.jpg","1","1","1","0","0","1","0.539515599957667","0.561801900039427","0.56194169993978","1","1","1","1","1","1","1","1","1"
"260031","img/object_images/drone01.jpg","img/object_images/soap03.jpg","img/object_images/toothbrush01.jpg","1","1","1","1","0","0","0.56194169993978","0.539515599957667","0.527034500031732","1","1","1","1","1","1","1","1","1"
"260031","img/object_images/toothbrush01.jpg","img/object_images/drone01.jpg","img/object_images/rock02.jpg","1","1","1","0","1","0","0.527034500031732","0.56194169993978","0.466239700093865","1","1","1","1","1","1","1","1","1"
"260031","img/object_images/rock02.jpg","img/object_images/toothbrush01.jpg","img/object_images/book02.jpg","1","1","1","0","0","1","0.466239700093865","0.527034500031732","0.40116680006031","1","1","1","1","1","1","1","1","1"
"260031","img/object_images/book02.jpg","img/object_images/rock02.jpg","img/object_images/video_game03.jpg","1","1","1","1","0","1","0.40116680006031","0.466239700093865","0.457348100026138","1","1","1","1","1","1","1","1","1"
"260031","img/object_images/video_game03.jpg","img/object_images/book02.jpg","img/object_images/floss02.jpg","1","1","1","1","1","1","0.457348100026138","0.40116680006031","0.376680999994278","1","1","1","1","1","1","1","1","1"
"260031","img/object_images/floss02.jpg","img/object_images/video_game03.jpg","img/object_images/bag_pipes01.jpg","1","1","1","1","1","1","0.376680999994278","0.457348100026138","0.519093199982308","1","1","1","1","1","1","1","1","1"
"260031","img/object_images/bag_pipes01.jpg","img/object_images/floss02.jpg","img/object_images/toy01.jpg","1","1","1","1","1","1","0.519093199982308","0.376680999994278","0.491427600034513","1","1","1","1","1","1","1","1","1"
"260031","img/object_images/toy01.jpg","img/object_images/bag_pipes01.jpg","img/object_images/Violin01.jpg","1","1","1","1","1","0","0.491427600034513","0.519093199982308","0.549315000069328","1","1","1","1","1","1","1","1","1"
"260031","img/object_images/Violin01.jpg","img/object_images/toy01.jpg","img/object_images/shoes12.jpg","1","1","1","0","1","1","0.549315000069328","0.491427600034513","0.453486899961717","1","1","1","1","1","1","1","1","1"
"260031","img/object_images/shoes12.jpg","img/object_images/Violin01.jpg","img/object_images/skate_board01.jpg","1","1","1","1","0","0","0.453486899961717","0.549315000069328","0.446505400002934","1","1","1","1","1","1","1","1","1"
"260031","img/object_images/skate_board01.jpg","img/object_images/shoes12.jpg","img/object_images/chair06.jpg","1","1","1","0","1","0","0.446505400002934","0.453486899961717","0.452460400061682","1","1","1","1","1","1","1","1","1"
"260031","img/object_images/chair06.jpg","img/object_images/skate_board01.jpg","img/object_images/computer_mouse02.jpg","1","1","1","0","0","0","0.452460400061682","0.446505400002934","0.441795199993066","1","1","1","1","1","1","1","1","1"
"260031","img/object_images/computer_mouse02.jpg","img/object_images/chair06.jpg","img/object_images/hair_brush01.jpg","1","1","1","0","0","1","0.441795199993066","0.452460400061682","0.683106199954636","1","1","1","1","1","1","1","1","1"
"260031","img/object_images/hair_brush01.jpg","img/object_images/computer_mouse02.jpg","img/object_images/airfryer02.jpg","1","1","1","1","0","1","0.683106199954636","0.441795199993066","0.441611999995075","1","1","1","1","1","1","1","1","1"
"260031","img/object_images/airfryer02.jpg","img/object_images/hair_brush01.jpg","img/object_images/blender01.jpg","1","1","1","1","1","0","0.441611999995075","0.683106199954636","0.455169699969702","1","1","1","1","1","1","1","1","1"
"260031","img/object_images/blender01.jpg","img/object_images/airfryer02.jpg","img/object_images/egg_slicer01.jpg","1","1","1","0","1","1","0.455169699969702","0.441611999995075","0.567214299924672","1","1","1","1","1","1","1","1","1"
"260031","img/object_images/egg_slicer01.jpg","img/object_images/blender01.jpg","img/object_images/pitcher09.jpg","1","1","1","1","0","1","0.567214299924672","0.455169699969702","1.08911559998523","1","1","1","1","1","1","1","1","1"
"260031","img/object_images/pitcher09.jpg","img/object_images/egg_slicer01.jpg",NA,"1","1",NA,"1","1",NA,"1.08911559998523","0.567214299924672",NA,"1","1",NA,"1","1",NA,"1","1",NA
"260031","img/object_images/Vacuum01.jpg",NA,"img/object_images/toy03.jpg","0",NA,"1","0",NA,"1",NA,NA,"0.502321899984963","0",NA,"1","0",NA,"1","0",NA,"1"
"260031","img/object_images/toy03.jpg","img/object_images/Vacuum01.jpg","img/object_images/shovel03.jpg","1","0","1","1","0","1","0.502321899984963",NA,"0.42682719998993","1","0","1","1","0","1","1","0","1"
"260031","img/object_images/shovel03.jpg","img/object_images/toy03.jpg","img/object_images/crown02.jpg","1","1","1","1","1","1","0.42682719998993","0.502321899984963","0.41808019997552","1","1","1","1","1","1","1","1","1"
"260031","img/object_images/crown02.jpg","img/object_images/shovel03.jpg","img/object_images/toy04.jpg","1","1","1","1","1","0","0.41808019997552","0.42682719998993","0.519173099892214","1","1","1","1","1","1","1","1","1"
"260031","img/object_images/toy04.jpg","img/object_images/crown02.jpg","img/object_images/dart01.jpg","1","1","1","0","1","0","0.519173099892214","0.41808019997552","0.455099700018764","1","1","1","1","1","1","1","1","1"
"260031","img/object_images/dart01.jpg","img/object_images/toy04.jpg","img/object_images/video_game07.jpg","1","1","1","0","0","1","0.455099700018764","0.519173099892214","0.578210900072008","1","1","1","1","1","1","1","1","1"
"260031","img/object_images/video_game07.jpg","img/object_images/dart01.jpg","img/object_images/tool09.jpg","1","1","1","1","0","1","0.578210900072008","0.455099700018764","0.428961000056006","1","1","1","1","1","1","1","1","1"
"260031","img/object_images/tool09.jpg","img/object_images/video_game07.jpg","img/object_images/Stool01.jpg","1","1","1","1","1","0","0.428961000056006","0.578210900072008","0.431671199970879","1","1","1","1","1","1","1","1","1"
"260031","img/object_images/Stool01.jpg","img/object_images/tool09.jpg","img/object_images/guitar02.jpg","1","1","1","0","1","0","0.431671199970879","0.428961000056006","0.613284100079909","1","1","1","1","1","1","1","1","1"
"260031","img/object_images/guitar02.jpg","img/object_images/Stool01.jpg","img/object_images/Ring02.jpg","1","1","1","0","0","0","0.613284100079909","0.431671199970879","0.408106700051576","1","1","1","1","1","1","1","1","1"
"260031","img/object_images/Ring02.jpg","img/object_images/guitar02.jpg","img/object_images/acoustic_capo01.jpg","1","1","1","0","0","1","0.408106700051576","0.613284100079909","0.538756299996749","1","1","1","1","1","1","1","1","1"
"260031","img/object_images/acoustic_capo01.jpg","img/object_images/Ring02.jpg","img/object_images/ornament01.jpg","1","1","1","1","0","1","0.538756299996749","0.408106700051576","0.463951100013219","1","1","1","1","1","1","1","1","1"
"260031","img/object_images/ornament01.jpg","img/object_images/acoustic_capo01.jpg","img/object_images/MetalWire01.jpg","1","1","1","1","1","0","0.463951100013219","0.538756299996749","0.494844099972397","1","1","1","1","1","1","1","1","1"
"260031","img/object_images/MetalWire01.jpg","img/object_images/ornament01.jpg","img/object_images/pot01 (1).jpg","1","1","1","0","1","0","0.494844099972397","0.463951100013219","0.397443199995905","1","1","1","1","1","1","1","1","1"
"260031","img/object_images/pot01 (1).jpg","img/object_images/MetalWire01.jpg","img/object_images/jewel04.jpg","1","1","1","0","0","0","0.397443199995905","0.494844099972397","0.462672600056976","1","1","1","1","1","1","1","1","1"
"260031","img/object_images/jewel04.jpg","img/object_images/pot01 (1).jpg","img/object_images/gauze01.jpg","1","1","1","0","0","0","0.462672600056976","0.397443199995905","0.511406400008127","1","1","1","1","1","1","1","1","1"
"260031","img/object_images/gauze01.jpg","img/object_images/jewel04.jpg","img/object_images/sink01.jpg","1","1","1","0","0","0","0.511406400008127","0.462672600056976","0.471517099998891","1","1","1","1","1","1","1","1","1"
"260031","img/object_images/sink01.jpg","img/object_images/gauze01.jpg","img/object_images/stapler.jpg","1","1","1","0","0","1","0.471517099998891","0.511406400008127","0.495520299999043","1","1","1","1","1","1","1","1","1"
"260031","img/object_images/stapler.jpg","img/object_images/sink01.jpg","img/object_images/fridge03.jpg","1","1","1","1","0","0","0.495520299999043","0.471517099998891","0.448484299937263","1","1","1","1","1","1","1","1","1"
"260031","img/object_images/fridge03.jpg","img/object_images/stapler.jpg","img/object_images/bow01.jpg","1","1","1","0","1","1","0.448484299937263","0.495520299999043","0.424252999946475","1","1","1","1","1","1","1","1","1"
"260031","img/object_images/bow01.jpg","img/object_images/fridge03.jpg","img/object_images/tool02.jpg","1","1","1","1","0","1","0.424252999946475","0.448484299937263","0.397374099935405","1","1","1","1","1","1","1","1","1"
"260031","img/object_images/tool02.jpg","img/object_images/bow01.jpg","img/object_images/watch01.jpg","1","1","1","1","1","0","0.397374099935405","0.424252999946475","0.487783999997191","1","1","1","1","1","1","1","1","1"
"260031","img/object_images/watch01.jpg","img/object_images/tool02.jpg","img/object_images/bottle05.jpg","1","1","1","0","1","0","0.487783999997191","0.397374099935405","0.726420599967241","1","1","1","1","1","1","1","1","1"
"260031","img/object_images/bottle05.jpg","img/object_images/watch01.jpg","img/object_images/mirror01.jpg","1","1","1","0","0","1","0.726420599967241","0.487783999997191","0.414483000058681","1","1","1","1","1","1","1","1","1"
"260031","img/object_images/mirror01.jpg","img/object_images/bottle05.jpg","img/object_images/helmet01.jpg","1","1","1","1","0","0","0.414483000058681","0.726420599967241","0.48233419994358","1","1","1","1","1","1","1","1","1"
"260031","img/object_images/helmet01.jpg","img/object_images/mirror01.jpg","img/object_images/Tin01.jpg","1","1","1","0","1","1","0.48233419994358","0.414483000058681","0.419991699978709","1","1","1","1","1","1","1","1","1"
"260031","img/object_images/Tin01.jpg","img/object_images/helmet01.jpg","img/object_images/outlet01.jpg","1","1","1","1","0","0","0.419991699978709","0.48233419994358","0.480245199985802","1","1","1","1","1","1","1","1","1"
"260031","img/object_images/outlet01.jpg","img/object_images/Tin01.jpg","img/object_images/frisbee01.jpg","1","1","1","0","1","1","0.480245199985802","0.419991699978709","0.513329799985513","1","1","1","1","1","1","1","1","1"
"260031","img/object_images/frisbee01.jpg","img/object_images/outlet01.jpg","img/object_images/judge_gavel01.jpg","1","1","1","1","0","1","0.513329799985513","0.480245199985802","0.451494500041008","1","1","1","1","1","1","1","1","1"
"260031","img/object_images/judge_gavel01.jpg","img/object_images/frisbee01.jpg","img/object_images/bird_house02.jpg","1","1","1","1","1","1","0.451494500041008","0.513329799985513","0.411108499974944","1","1","1","1","1","1","1","1","1"
"260031","img/object_images/bird_house02.jpg","img/object_images/judge_gavel01.jpg","img/object_images/towel02.jpg","1","1","1","1","1","1","0.411108499974944","0.451494500041008","0.474342399975285","1","1","1","1","1","1","1","1","1"
"260031","img/object_images/towel02.jpg","img/object_images/bird_house02.jpg",NA,"1","1",NA,"1","1",NA,"0.474342399975285","0.411108499974944",NA,"1","1",NA,"1","1",NA,"1","1",NA
"260031","img/object_images/bag06.jpg",NA,"img/object_images/cutting_board01.jpg","1",NA,"1","1",NA,"1","0.825287599931471",NA,"0.497063399991021","1",NA,"1","1",NA,"1","1",NA,"1"
"260031","img/object_images/cutting_board01.jpg","img/object_images/bag06.jpg","img/object_images/mask01.jpg","1","1","1","1","1","0","0.497063399991021","0.825287599931471","0.545056100003421","1","1","1","1","1","1","1","1","1"
"260031","img/object_images/mask01.jpg","img/object_images/cutting_board01.jpg","img/object_images/chair04.jpg","1","1","1","0","1","1","0.545056100003421","0.497063399991021","0.460566099965945","1","1","1","1","1","1","1","1","1"
"260031","img/object_images/chair04.jpg","img/object_images/mask01.jpg","img/object_images/yarn02.jpg","1","1","1","1","0","0","0.460566099965945","0.545056100003421","0.433413999970071","1","1","1","1","1","1","1","1","1"
"260031","img/object_images/yarn02.jpg","img/object_images/chair04.jpg","img/object_images/satellite01.jpg","1","1","1","0","1","0","0.433413999970071","0.460566099965945","0.50416450004559","1","1","1","1","1","1","1","1","1"
"260031","img/object_images/satellite01.jpg","img/object_images/yarn02.jpg","img/object_images/tool11.jpg","1","1","1","0","0","1","0.50416450004559","0.433413999970071","0.390038900077343","1","1","1","1","1","1","1","1","1"
"260031","img/object_images/tool11.jpg","img/object_images/satellite01.jpg","img/object_images/rock03.jpg","1","1","1","1","0","0","0.390038900077343","0.50416450004559","0.508575499989092","1","1","1","1","1","1","1","1","1"
"260031","img/object_images/rock03.jpg","img/object_images/tool11.jpg","img/object_images/shower_head03.jpg","1","1","1","0","1","1","0.508575499989092","0.390038900077343","0.427219399949536","1","1","1","1","1","1","1","1","1"
"260031","img/object_images/shower_head03.jpg","img/object_images/rock03.jpg","img/object_images/tv01.jpg","1","1","1","1","0","0","0.427219399949536","0.508575499989092","0.539010399952531","1","1","1","1","1","1","1","1","1"
"260031","img/object_images/tv01.jpg","img/object_images/shower_head03.jpg","img/object_images/jewel01.jpg","1","1","1","0","1","0","0.539010399952531","0.427219399949536","0.482190800015815","1","1","1","1","1","1","1","1","1"
"260031","img/object_images/jewel01.jpg","img/object_images/tv01.jpg","img/object_images/car03.jpg","1","1","1","0","0","0","0.482190800015815","0.539010399952531","0.491098399972543","1","1","1","1","1","1","1","1","1"
"260031","img/object_images/car03.jpg","img/object_images/jewel01.jpg","img/object_images/MeasuringCup01.jpg","1","1","1","0","0","1","0.491098399972543","0.482190800015815","0.491427300032228","1","1","1","1","1","1","1","1","1"
"260031","img/object_images/MeasuringCup01.jpg","img/object_images/car03.jpg","img/object_images/hair_brush05.jpg","1","1","1","1","0","1","0.491427300032228","0.491098399972543","0.835728500038385","1","1","1","1","1","1","1","1","1"
"260031","img/object_images/hair_brush05.jpg","img/object_images/MeasuringCup01.jpg","img/object_images/ribbon01.jpg","1","1","1","1","1","0","0.835728500038385","0.491427300032228","0.535884200013243","1","1","1","1","1","1","1","1","1"
"260031","img/object_images/ribbon01.jpg","img/object_images/hair_brush05.jpg","img/object_images/WitchHat02.jpg","1","1","1","0","1","1","0.535884200013243","0.835728500038385","0.566980100004002","1","1","1","1","1","1","1","1","1"
"260031","img/object_images/WitchHat02.jpg","img/object_images/ribbon01.jpg","img/object_images/ladle02.jpg","1","1","1","1","0","0","0.566980100004002","0.535884200013243","0.432924799970351","1","1","1","1","1","1","1","1","1"
"260031","img/object_images/ladle02.jpg","img/object_images/WitchHat02.jpg","img/object_images/belt01.jpg","1","1","1","0","1","0","0.432924799970351","0.566980100004002","0.710673399968073","1","1","1","1","1","1","1","1","1"
"260031","img/object_images/belt01.jpg","img/object_images/ladle02.jpg","img/object_images/binoculars03.jpg","1","1","1","0","0","1","0.710673399968073","0.432924799970351","0.416698099928908","1","1","1","1","1","1","1","1","1"
"260031","img/object_images/binoculars03.jpg","img/object_images/belt01.jpg","img/object_images/lemon_squeezer02.jpg","1","1","1","1","0","1","0.416698099928908","0.710673399968073","0.506800299976021","1","1","1","1","1","1","1","1","1"
"260031","img/object_images/lemon_squeezer02.jpg","img/object_images/binoculars03.jpg","img/object_images/fan05.jpg","1","1","1","1","1","0","0.506800299976021","0.416698099928908","0.474032300058752","1","1","1","1","1","1","1","1","1"
"260031","img/object_images/fan05.jpg","img/object_images/lemon_squeezer02.jpg","img/object_images/jewelry07.jpg","1","1","1","0","1","1","0.474032300058752","0.506800299976021","0.466179099981673","1","1","1","1","1","1","1","1","1"
"260031","img/object_images/jewelry07.jpg","img/object_images/fan05.jpg","img/object_images/key02.jpg","1","1","1","1","0","1","0.466179099981673","0.474032300058752","0.494981499970891","1","1","1","1","1","1","1","1","1"
"260031","img/object_images/key02.jpg","img/object_images/jewelry07.jpg","img/object_images/ice_tray03.jpg","1","1","1","1","1","1","0.494981499970891","0.466179099981673","0.451480200048536","1","1","1","1","1","1","1","1","1"
"260031","img/object_images/ice_tray03.jpg","img/object_images/key02.jpg","img/object_images/shoes10.jpg","1","1","1","1","1","0","0.451480200048536","0.494981499970891","0.53263509995304","1","1","1","1","1","1","1","1","1"
"260031","img/object_images/shoes10.jpg","img/object_images/ice_tray03.jpg","img/object_images/toaster02.jpg","1","1","1","0","1","1","0.53263509995304","0.451480200048536","0.490066500031389","1","1","1","1","1","1","1","1","1"
"260031","img/object_images/toaster02.jpg","img/object_images/shoes10.jpg","img/object_images/dress03.jpg","1","1","1","1","0","1","0.490066500031389","0.53263509995304","0.461379599990323","1","1","1","1","1","1","1","1","1"
"260031","img/object_images/dress03.jpg","img/object_images/toaster02.jpg","img/object_images/slinky_toy01.jpg","1","1","1","1","1","1","0.461379599990323","0.490066500031389","0.518040800001472","1","1","1","1","1","1","1","1","1"
"260031","img/object_images/slinky_toy01.jpg","img/object_images/dress03.jpg","img/object_images/razor01.jpg","1","1","1","1","1","0","0.518040800001472","0.461379599990323","0.458266600035131","1","1","1","1","1","1","1","1","1"
"260031","img/object_images/razor01.jpg","img/object_images/slinky_toy01.jpg","img/object_images/screwdriver01.jpg","1","1","1","0","1","0","0.458266600035131","0.518040800001472","0.592684100032784","1","1","1","1","1","1","1","1","1"
"260031","img/object_images/screwdriver01.jpg","img/object_images/razor01.jpg","img/object_images/cards01.jpg","1","1","1","0","0","0","0.592684100032784","0.458266600035131","0.516329900012352","1","1","1","1","1","1","1","1","1"
"260031","img/object_images/cards01.jpg","img/object_images/screwdriver01.jpg","img/object_images/car04.jpg","1","1","1","0","0","0","0.516329900012352","0.592684100032784","0.635289900004864","1","1","1","1","1","1","1","1","1"
"260031","img/object_images/car04.jpg","img/object_images/cards01.jpg",NA,"1","1",NA,"0","0",NA,"0.635289900004864","0.516329900012352",NA,"1","1",NA,"1","1",NA,"1","1",NA
"260031","img/object_images/car02.jpg",NA,"img/object_images/basketball_hoop02.jpg","1",NA,"1","0",NA,"0","0.540146599989384",NA,"0.504055600031279","1",NA,"1","1",NA,"1","1",NA,"1"
"260031","img/object_images/basketball_hoop02.jpg","img/object_images/car02.jpg","img/object_images/couch04.jpg","1","1","1","0","0","1","0.504055600031279","0.540146599989384","0.44326580001507","1","1","1","1","1","1","1","1","1"
"260031","img/object_images/couch04.jpg","img/object_images/basketball_hoop02.jpg","img/object_images/decorative02.jpg","1","1","1","1","0","0","0.44326580001507","0.504055600031279","0.417121500009671","1","1","1","1","1","1","1","1","1"
"260031","img/object_images/decorative02.jpg","img/object_images/couch04.jpg","img/object_images/video_game06.jpg","1","1","1","0","1","0","0.417121500009671","0.44326580001507","0.483772700070404","1","1","1","1","1","1","1","1","1"
"260031","img/object_images/video_game06.jpg","img/object_images/decorative02.jpg","img/object_images/brief_case02.jpg","1","1","1","0","0","1","0.483772700070404","0.417121500009671","0.430428499937989","1","1","1","1","1","1","1","1","1"
"260031","img/object_images/brief_case02.jpg","img/object_images/video_game06.jpg","img/object_images/guitar01.jpg","1","1","1","1","0","1","0.430428499937989","0.483772700070404","0.432499399990775","1","1","1","1","1","1","1","1","1"
"260031","img/object_images/guitar01.jpg","img/object_images/brief_case02.jpg","img/object_images/brief_case01.jpg","1","1","1","1","1","0","0.432499399990775","0.430428499937989","0.475586800021119","1","1","1","1","1","1","1","1","1"
"260031","img/object_images/brief_case01.jpg","img/object_images/guitar01.jpg","img/object_images/gloves05.jpg","1","1","1","0","1","1","0.475586800021119","0.432499399990775","0.50110729993321","1","1","1","1","1","1","1","1","1"
"260031","img/object_images/gloves05.jpg","img/object_images/brief_case01.jpg","img/object_images/ironing_table02.jpg","1","1","1","1","0","0","0.50110729993321","0.475586800021119","0.550663999980316","1","1","1","1","1","1","1","1","1"
"260031","img/object_images/ironing_table02.jpg","img/object_images/gloves05.jpg","img/object_images/Wisk01.jpg","1","1","1","0","1","1","0.550663999980316","0.50110729993321","0.432823000010103","1","1","1","1","1","1","1","1","1"
"260031","img/object_images/Wisk01.jpg","img/object_images/ironing_table02.jpg","img/object_images/toy_train02.jpg","1","1","1","1","0","1","0.432823000010103","0.550663999980316","0.426119600073434","1","1","1","1","1","1","1","1","1"
"260031","img/object_images/toy_train02.jpg","img/object_images/Wisk01.jpg","img/object_images/pitcher03.jpg","1","1","1","1","1","1","0.426119600073434","0.432823000010103","0.489072799915448","1","1","1","1","1","1","1","1","1"
"260031","img/object_images/pitcher03.jpg","img/object_images/toy_train02.jpg","img/object_images/soap01.jpg","1","1","1","1","1","0","0.489072799915448","0.426119600073434","0.487258299952373","1","1","1","1","1","1","1","1","1"
"260031","img/object_images/soap01.jpg","img/object_images/pitcher03.jpg","img/object_images/Woopie01.jpg","1","1","1","0","1","1","0.487258299952373","0.489072799915448","0.398357199970633","1","1","1","1","1","1","1","1","1"
"260031","img/object_images/Woopie01.jpg","img/object_images/soap01.jpg","img/object_images/airfryer01.jpg","1","1","1","1","0","0","0.398357199970633","0.487258299952373","0.562182399909943","1","1","1","1","1","1","1","1","1"
"260031","img/object_images/airfryer01.jpg","img/object_images/Woopie01.jpg","img/object_images/container01.jpg","1","1","1","0","1","0","0.562182399909943","0.398357199970633","0.570346999913454","1","1","1","1","1","1","1","1","1"
"260031","img/object_images/container01.jpg","img/object_images/airfryer01.jpg","img/object_images/pot01.jpg","1","1","1","0","0","0","0.570346999913454","0.562182399909943","0.539097300032154","1","1","1","1","1","1","1","1","1"
"260031","img/object_images/pot01.jpg","img/object_images/container01.jpg","img/object_images/Recycling01.jpg","1","1","1","0","0","1","0.539097300032154","0.570346999913454","0.736581799923442","1","1","1","1","1","1","1","1","1"
"260031","img/object_images/Recycling01.jpg","img/object_images/pot01.jpg","img/object_images/razor03.jpg","1","1","1","1","0","0","0.736581799923442","0.539097300032154","0.482327300007455","1","1","1","1","1","1","1","1","1"
"260031","img/object_images/razor03.jpg","img/object_images/Recycling01.jpg","img/object_images/chair01.jpg","1","1","1","0","1","0","0.482327300007455","0.736581799923442","0.643324400065467","1","1","1","1","1","1","1","1","1"
"260031","img/object_images/chair01.jpg","img/object_images/razor03.jpg","img/object_images/helmet05.jpg","1","1","1","0","0","1","0.643324400065467","0.482327300007455","0.648334300029092","1","1","1","1","1","1","1","1","1"
"260031","img/object_images/helmet05.jpg","img/object_images/chair01.jpg","img/object_images/hat02.jpg","1","1","1","1","0","0","0.648334300029092","0.643324400065467","0.501976200030185","1","1","1","1","1","1","1","1","1"
"260031","img/object_images/hat02.jpg","img/object_images/helmet05.jpg","img/object_images/drone02.jpg","1","1","1","0","1","0","0.501976200030185","0.648334300029092","0.625000800006092","1","1","1","1","1","1","1","1","1"
"260031","img/object_images/drone02.jpg","img/object_images/hat02.jpg","img/object_images/cochlear_implant01.jpg","1","1","1","0","0","0","0.625000800006092","0.501976200030185","0.541146300034598","1","1","1","1","1","1","1","1","1"
"260031","img/object_images/cochlear_implant01.jpg","img/object_images/drone02.jpg","img/object_images/ball01.jpg","1","1","1","0","0","1","0.541146300034598","0.625000800006092","0.463169499998912","1","1","1","1","1","1","1","1","1"
"260031","img/object_images/ball01.jpg","img/object_images/cochlear_implant01.jpg","img/object_images/lantern01.jpg","1","1","1","1","0","1","0.463169499998912","0.541146300034598","0.40182220004499","1","1","1","1","1","1","1","1","1"
"260031","img/object_images/lantern01.jpg","img/object_images/ball01.jpg","img/object_images/broom01.jpg","1","1","1","1","1","1","0.40182220004499","0.463169499998912","0.48304520000238","1","1","1","1","1","1","1","1","1"
"260031","img/object_images/broom01.jpg","img/object_images/lantern01.jpg","img/object_images/lamp01.jpg","1","1","1","1","1","1","0.48304520000238","0.40182220004499","0.576597600011155","1","1","1","1","1","1","1","1","1"
"260031","img/object_images/lamp01.jpg","img/object_images/broom01.jpg","img/object_images/bottle12.jpg","1","1","1","1","1","1","0.576597600011155","0.48304520000238","0.430029400042258","1","1","1","1","1","1","1","1","1"
"260031","img/object_images/bottle12.jpg","img/object_images/lamp01.jpg","img/object_images/tie01.jpg","1","1","1","1","1","0","0.430029400042258","0.576597600011155","0.474049799959175","1","1","1","1","1","1","1","1","1"
"260031","img/object_images/tie01.jpg","img/object_images/bottle12.jpg","img/object_images/toilet_paper01.jpg","1","1","1","0","1","1","0.474049799959175","0.430029400042258","0.73938280006405","1","1","1","1","1","1","1","1","1"
"260031","img/object_images/toilet_paper01.jpg","img/object_images/tie01.jpg",NA,"1","1",NA,"1","0",NA,"0.73938280006405","0.474049799959175",NA,"1","1",NA,"1","1",NA,"1","1",NA
