"participant_id","current_trial_object","pre_trial_object","post_trial_object","current_trial_accuracy","pre_trial_accuracy","post_trial_accuracy","current_trial_congruency","pre_trial_congruency","post_trial_congruency","current_trial_rt","pre_trial_rt","post_trial_rt","current_trial_responded","pre_trial_responded","post_trial_responded","current_trial_legitResponse","pre_trial_legitResponse","post_trial_legitResponse","current_trial_resp_nums","pre_trial_resp_nums","post_trial_resp_nums"
"260004","img/object_images/sleeping_bag01.jpg",NA,"img/object_images/jewelry01.jpg","1",NA,"1","0",NA,"1","0.945900100050494",NA,"0.609992200043052","1",NA,"1","1",NA,"1","1",NA,"1"
"260004","img/object_images/jewelry01.jpg","img/object_images/sleeping_bag01.jpg","img/object_images/socks02.jpg","1","1","1","1","0","0","0.609992200043052","0.945900100050494","0.99574359995313","1","1","1","1","1","1","1","1","1"
"260004","img/object_images/socks02.jpg","img/object_images/jewelry01.jpg","img/object_images/bow_tie02.jpg","1","1","1","0","1","0","0.99574359995313","0.609992200043052","0.655891300179064","1","1","1","1","1","1","1","1","1"
"260004","img/object_images/bow_tie02.jpg","img/object_images/socks02.jpg","img/object_images/lock04.jpg","1","1","1","0","0","1","0.655891300179064","0.99574359995313","0.502940600039437","1","1","1","1","1","1","1","1","1"
"260004","img/object_images/lock04.jpg","img/object_images/bow_tie02.jpg","img/object_images/measuring_tape02.jpg","1","1","1","1","0","1","0.502940600039437","0.655891300179064","0.53041320014745","1","1","1","1","1","1","1","1","1"
"260004","img/object_images/measuring_tape02.jpg","img/object_images/lock04.jpg","img/object_images/handkerchief01.jpg","1","1","1","1","1","0","0.53041320014745","0.502940600039437","0.590771899791434","1","1","1","1","1","1","1","1","1"
"260004","img/object_images/handkerchief01.jpg","img/object_images/measuring_tape02.jpg","img/object_images/gift_box01.jpg","1","1","1","0","1","1","0.590771899791434","0.53041320014745","0.533804799895734","1","1","1","1","1","1","1","1","1"
"260004","img/object_images/gift_box01.jpg","img/object_images/handkerchief01.jpg","img/object_images/fork03.jpg","1","1","1","1","0","1","0.533804799895734","0.590771899791434","0.603456999873742","1","1","1","1","1","1","1","1","1"
"260004","img/object_images/fork03.jpg","img/object_images/gift_box01.jpg","img/object_images/clip02.jpg","1","1","1","1","1","1","0.603456999873742","0.533804799895734","0.54005299997516","1","1","1","1","1","1","1","1","1"
"260004","img/object_images/clip02.jpg","img/object_images/fork03.jpg","img/object_images/jacket03.jpg","1","1","1","1","1","0","0.54005299997516","0.603456999873742","1.00906160008162","1","1","1","1","1","1","1","1","1"
"260004","img/object_images/jacket03.jpg","img/object_images/clip02.jpg","img/object_images/paper_cup01.jpg","1","1","1","0","1","0","1.00906160008162","0.54005299997516","0.626410499913618","1","1","1","1","1","1","1","1","1"
"260004","img/object_images/paper_cup01.jpg","img/object_images/jacket03.jpg","img/object_images/couch03.jpg","1","1","1","0","0","0","0.626410499913618","1.00906160008162","0.618558600079268","1","1","1","1","1","1","1","1","1"
"260004","img/object_images/couch03.jpg","img/object_images/paper_cup01.jpg","img/object_images/gift_box02.jpg","1","1","1","0","0","1","0.618558600079268","0.626410499913618","0.63367659994401","1","1","1","1","1","1","1","1","1"
"260004","img/object_images/gift_box02.jpg","img/object_images/couch03.jpg","img/object_images/hammer01.jpg","1","1","1","1","0","0","0.63367659994401","0.618558600079268","0.620871700113639","1","1","1","1","1","1","1","1","1"
"260004","img/object_images/hammer01.jpg","img/object_images/gift_box02.jpg","img/object_images/vga_port 01.jpg","1","1","1","0","1","0","0.620871700113639","0.63367659994401","1.00583479995839","1","1","1","1","1","1","1","1","1"
"260004","img/object_images/vga_port 01.jpg","img/object_images/hammer01.jpg","img/object_images/ironing_table01.jpg","1","1","1","0","0","0","1.00583479995839","0.620871700113639","0.620367099996656","1","1","1","1","1","1","1","1","1"
"260004","img/object_images/ironing_table01.jpg","img/object_images/vga_port 01.jpg","img/object_images/funnel01.jpg","1","1","1","0","0","0","0.620367099996656","1.00583479995839","0.68547819997184","1","1","1","1","1","1","1","1","1"
"260004","img/object_images/funnel01.jpg","img/object_images/ironing_table01.jpg","img/object_images/Screws01.jpg","1","1","1","0","0","1","0.68547819997184","0.620367099996656","0.69037409988232","1","1","1","1","1","1","1","1","1"
"260004","img/object_images/Screws01.jpg","img/object_images/funnel01.jpg","img/object_images/coloring_pencil01.jpg","1","1","1","1","0","1","0.69037409988232","0.68547819997184","0.558038900140673","1","1","1","1","1","1","1","1","1"
"260004","img/object_images/coloring_pencil01.jpg","img/object_images/Screws01.jpg","img/object_images/pitcher02.jpg","1","1","1","1","1","1","0.558038900140673","0.69037409988232","0.534669099841267","1","1","1","1","1","1","1","1","1"
"260004","img/object_images/pitcher02.jpg","img/object_images/coloring_pencil01.jpg","img/object_images/camera07.jpg","1","1","1","1","1","1","0.534669099841267","0.558038900140673","0.528722699964419","1","1","1","1","1","1","1","1","1"
"260004","img/object_images/camera07.jpg","img/object_images/pitcher02.jpg","img/object_images/bow_tie01.jpg","1","1","1","1","1","0","0.528722699964419","0.534669099841267","0.566048299893737","1","1","1","1","1","1","1","1","1"
"260004","img/object_images/bow_tie01.jpg","img/object_images/camera07.jpg","img/object_images/grater01.jpg","1","1","1","0","1","1","0.566048299893737","0.528722699964419","0.585965600097552","1","1","1","1","1","1","1","1","1"
"260004","img/object_images/grater01.jpg","img/object_images/bow_tie01.jpg","img/object_images/gift_box03.jpg","1","1","1","1","0","0","0.585965600097552","0.566048299893737","0.833988199941814","1","1","1","1","1","1","1","1","1"
"260004","img/object_images/gift_box03.jpg","img/object_images/grater01.jpg","img/object_images/wallet02.jpg","1","1","1","0","1","1","0.833988199941814","0.585965600097552","0.54926300002262","1","1","1","1","1","1","1","1","1"
"260004","img/object_images/wallet02.jpg","img/object_images/gift_box03.jpg","img/object_images/golf_ball03.jpg","1","1","1","1","0","1","0.54926300002262","0.833988199941814","0.514583899872378","1","1","1","1","1","1","1","1","1"
"260004","img/object_images/golf_ball03.jpg","img/object_images/wallet02.jpg","img/object_images/dresser04.jpg","1","1","1","1","1","0","0.514583899872378","0.54926300002262","0.671857599867508","1","1","1","1","1","1","1","1","1"
"260004","img/object_images/dresser04.jpg","img/object_images/golf_ball03.jpg","img/object_images/Witchhat01.jpg","1","1","1","0","1","1","0.671857599867508","0.514583899872378","0.554456899873912","1","1","1","1","1","1","1","1","1"
"260004","img/object_images/Witchhat01.jpg","img/object_images/dresser04.jpg","img/object_images/lawn_mower01.jpg","1","1","1","1","0","1","0.554456899873912","0.671857599867508","0.642442099982873","1","1","1","1","1","1","1","1","1"
"260004","img/object_images/lawn_mower01.jpg","img/object_images/Witchhat01.jpg","img/object_images/bath_tub01.jpg","1","1","1","1","1","0","0.642442099982873","0.554456899873912","0.647223299834877","1","1","1","1","1","1","1","1","1"
"260004","img/object_images/bath_tub01.jpg","img/object_images/lawn_mower01.jpg","img/object_images/balloon01.jpg","1","1","1","0","1","0","0.647223299834877","0.642442099982873","0.627193899825215","1","1","1","1","1","1","1","1","1"
"260004","img/object_images/balloon01.jpg","img/object_images/bath_tub01.jpg",NA,"1","1",NA,"0","0",NA,"0.627193899825215","0.647223299834877",NA,"1","1",NA,"1","1",NA,"1","1",NA
"260004","img/object_images/brief_case01.jpg",NA,"img/object_images/guitar01.jpg","1",NA,"1","0",NA,"1","0.521602799883112",NA,"0.509792899945751","1",NA,"1","1",NA,"1","1",NA,"1"
"260004","img/object_images/guitar01.jpg","img/object_images/brief_case01.jpg","img/object_images/tie01.jpg","1","1","1","1","0","0","0.509792899945751","0.521602799883112","0.531585299875587","1","1","1","1","1","1","1","1","1"
"260004","img/object_images/tie01.jpg","img/object_images/guitar01.jpg","img/object_images/Woopie01.jpg","1","1","1","0","1","1","0.531585299875587","0.509792899945751","0.474067599978298","1","1","1","1","1","1","1","1","1"
"260004","img/object_images/Woopie01.jpg","img/object_images/tie01.jpg","img/object_images/pot01.jpg","1","1","1","1","0","0","0.474067599978298","0.531585299875587","0.420586800202727","1","1","1","1","1","1","1","1","1"
"260004","img/object_images/pot01.jpg","img/object_images/Woopie01.jpg","img/object_images/basketball_hoop02.jpg","1","1","1","0","1","0","0.420586800202727","0.474067599978298","0.372265300014988","1","1","1","1","1","1","1","1","1"
"260004","img/object_images/basketball_hoop02.jpg","img/object_images/pot01.jpg","img/object_images/couch04.jpg","1","1","1","0","0","1","0.372265300014988","0.420586800202727","0.358442600117996","1","1","1","1","1","1","1","1","1"
"260004","img/object_images/couch04.jpg","img/object_images/basketball_hoop02.jpg","img/object_images/hat02.jpg","1","1","1","1","0","0","0.358442600117996","0.372265300014988","0.467642800183967","1","1","1","1","1","1","1","1","1"
"260004","img/object_images/hat02.jpg","img/object_images/couch04.jpg","img/object_images/drone02.jpg","1","1","1","0","1","0","0.467642800183967","0.358442600117996","0.549420499941334","1","1","1","1","1","1","1","1","1"
"260004","img/object_images/drone02.jpg","img/object_images/hat02.jpg","img/object_images/car02.jpg","1","1","0","0","0","0","0.549420499941334","0.467642800183967","0.357050199992955","1","1","1","1","1","1","1","1","1"
"260004","img/object_images/car02.jpg","img/object_images/drone02.jpg","img/object_images/razor03.jpg","0","1","1","0","0","0","0.357050199992955","0.549420499941334","0.554654400097206","1","1","1","1","1","1","1","1","1"
"260004","img/object_images/razor03.jpg","img/object_images/car02.jpg","img/object_images/soap01.jpg","1","0","1","0","0","0","0.554654400097206","0.357050199992955","0.525371799943969","1","1","1","1","1","1","1","1","1"
"260004","img/object_images/soap01.jpg","img/object_images/razor03.jpg","img/object_images/brief_case02.jpg","1","1","1","0","0","1","0.525371799943969","0.554654400097206","0.496469000121579","1","1","1","1","1","1","1","1","1"
"260004","img/object_images/brief_case02.jpg","img/object_images/soap01.jpg","img/object_images/decorative02.jpg","1","1","1","1","0","0","0.496469000121579","0.525371799943969","0.50767259998247","1","1","1","1","1","1","1","1","1"
"260004","img/object_images/decorative02.jpg","img/object_images/brief_case02.jpg","img/object_images/Recycling01.jpg","1","1","1","0","1","1","0.50767259998247","0.496469000121579","0.449750599917024","1","1","1","1","1","1","1","1","1"
"260004","img/object_images/Recycling01.jpg","img/object_images/decorative02.jpg","img/object_images/airfryer01.jpg","1","1","1","1","0","0","0.449750599917024","0.50767259998247","0.527787599945441","1","1","1","1","1","1","1","1","1"
"260004","img/object_images/airfryer01.jpg","img/object_images/Recycling01.jpg","img/object_images/bottle12.jpg","1","1","1","0","1","1","0.527787599945441","0.449750599917024","0.487856100080535","1","1","1","1","1","1","1","1","1"
"260004","img/object_images/bottle12.jpg","img/object_images/airfryer01.jpg","img/object_images/ball01.jpg","1","1","1","1","0","1","0.487856100080535","0.527787599945441","0.467619500122964","1","1","1","1","1","1","1","1","1"
"260004","img/object_images/ball01.jpg","img/object_images/bottle12.jpg","img/object_images/Wisk01.jpg","1","1","1","1","1","1","0.467619500122964","0.487856100080535","0.439162500202656","1","1","1","1","1","1","1","1","1"
"260004","img/object_images/Wisk01.jpg","img/object_images/ball01.jpg","img/object_images/lamp01.jpg","1","1","1","1","1","1","0.439162500202656","0.467619500122964","0.508180200122297","1","1","1","1","1","1","1","1","1"
"260004","img/object_images/lamp01.jpg","img/object_images/Wisk01.jpg","img/object_images/helmet05.jpg","1","1","1","1","1","1","0.508180200122297","0.439162500202656","0.444297600071877","1","1","1","1","1","1","1","1","1"
"260004","img/object_images/helmet05.jpg","img/object_images/lamp01.jpg","img/object_images/cochlear_implant01.jpg","1","1","0","1","1","0","0.444297600071877","0.508180200122297","0.945675200084224","1","1","1","1","1","1","1","1","1"
"260004","img/object_images/cochlear_implant01.jpg","img/object_images/helmet05.jpg","img/object_images/video_game06.jpg","0","1","1","0","1","0","0.945675200084224","0.444297600071877","0.624103900045156","1","1","1","1","1","1","1","1","1"
"260004","img/object_images/video_game06.jpg","img/object_images/cochlear_implant01.jpg","img/object_images/toy_train02.jpg","1","0","1","0","0","1","0.624103900045156","0.945675200084224","0.46831740019843","1","1","1","1","1","1","1","1","1"
"260004","img/object_images/toy_train02.jpg","img/object_images/video_game06.jpg","img/object_images/toilet_paper01.jpg","1","1","1","1","0","1","0.46831740019843","0.624103900045156","0.405966199934483","1","1","1","1","1","1","1","1","1"
"260004","img/object_images/toilet_paper01.jpg","img/object_images/toy_train02.jpg","img/object_images/chair01.jpg","1","1","1","1","1","0","0.405966199934483","0.46831740019843","0.530497999861836","1","1","1","1","1","1","1","1","1"
"260004","img/object_images/chair01.jpg","img/object_images/toilet_paper01.jpg","img/object_images/broom01.jpg","1","1","1","0","1","1","0.530497999861836","0.405966199934483","0.565276599954814","1","1","1","1","1","1","1","1","1"
"260004","img/object_images/broom01.jpg","img/object_images/chair01.jpg","img/object_images/container01.jpg","1","1","1","1","0","0","0.565276599954814","0.530497999861836","0.484226800035685","1","1","1","1","1","1","1","1","1"
"260004","img/object_images/container01.jpg","img/object_images/broom01.jpg","img/object_images/gloves05.jpg","1","1","1","0","1","1","0.484226800035685","0.565276599954814","0.530477799940854","1","1","1","1","1","1","1","1","1"
"260004","img/object_images/gloves05.jpg","img/object_images/container01.jpg","img/object_images/pitcher03.jpg","1","1","1","1","0","1","0.530477799940854","0.484226800035685","0.644995699869469","1","1","1","1","1","1","1","1","1"
"260004","img/object_images/pitcher03.jpg","img/object_images/gloves05.jpg","img/object_images/ironing_table02.jpg","1","1","1","1","1","0","0.644995699869469","0.530477799940854","0.587948699947447","1","1","1","1","1","1","1","1","1"
"260004","img/object_images/ironing_table02.jpg","img/object_images/pitcher03.jpg","img/object_images/lantern01.jpg","1","1","1","0","1","1","0.587948699947447","0.644995699869469","0.48478060006164","1","1","1","1","1","1","1","1","1"
"260004","img/object_images/lantern01.jpg","img/object_images/ironing_table02.jpg",NA,"1","1",NA,"1","0",NA,"0.48478060006164","0.587948699947447",NA,"1","1",NA,"1","1",NA,"1","1",NA
"260004","img/object_images/blanket01.jpg",NA,"img/object_images/exfoliater_brush01.jpg","1",NA,"1","1",NA,"0","0.510169500019401",NA,"0.437871899921447","1",NA,"1","1",NA,"1","1",NA,"1"
"260004","img/object_images/exfoliater_brush01.jpg","img/object_images/blanket01.jpg","img/object_images/cellphone02.jpg","1","1","1","0","1","1","0.437871899921447","0.510169500019401","0.421967700123787","1","1","1","1","1","1","1","1","1"
"260004","img/object_images/cellphone02.jpg","img/object_images/exfoliater_brush01.jpg","img/object_images/hole_puncher01.jpg","1","1","1","1","0","1","0.421967700123787","0.437871899921447","0.449907299829647","1","1","1","1","1","1","1","1","1"
"260004","img/object_images/hole_puncher01.jpg","img/object_images/cellphone02.jpg","img/object_images/tool08.jpg","1","1","1","1","1","0","0.449907299829647","0.421967700123787","0.494662199867889","1","1","1","1","1","1","1","1","1"
"260004","img/object_images/tool08.jpg","img/object_images/hole_puncher01.jpg","img/object_images/Sprayer01.jpg","1","1","1","0","1","0","0.494662199867889","0.449907299829647","0.45144940004684","1","1","1","1","1","1","1","1","1"
"260004","img/object_images/Sprayer01.jpg","img/object_images/tool08.jpg","img/object_images/cup03.jpg","1","1","1","0","0","1","0.45144940004684","0.494662199867889","0.41604939987883","1","1","1","1","1","1","1","1","1"
"260004","img/object_images/cup03.jpg","img/object_images/Sprayer01.jpg","img/object_images/tray01.jpg","1","1","1","1","0","1","0.41604939987883","0.45144940004684","0.383279699832201","1","1","1","1","1","1","1","1","1"
"260004","img/object_images/tray01.jpg","img/object_images/cup03.jpg","img/object_images/book01.jpg","1","1","1","1","1","1","0.383279699832201","0.41604939987883","0.517369200009853","1","1","1","1","1","1","1","1","1"
"260004","img/object_images/book01.jpg","img/object_images/tray01.jpg","img/object_images/ring03.jpg","1","1","1","1","1","1","0.517369200009853","0.383279699832201","0.44914979999885","1","1","1","1","1","1","1","1","1"
"260004","img/object_images/ring03.jpg","img/object_images/book01.jpg","img/object_images/pan01.jpg","1","1","1","1","1","1","0.44914979999885","0.517369200009853","0.473059699870646","1","1","1","1","1","1","1","1","1"
"260004","img/object_images/pan01.jpg","img/object_images/ring03.jpg","img/object_images/bicycle_lock01.jpg","1","1","1","1","1","0","0.473059699870646","0.44914979999885","0.570261399960145","1","1","1","1","1","1","1","1","1"
"260004","img/object_images/bicycle_lock01.jpg","img/object_images/pan01.jpg","img/object_images/Kitchen_Towel.jpg","1","1","1","0","1","0","0.570261399960145","0.473059699870646","0.573035799898207","1","1","1","1","1","1","1","1","1"
"260004","img/object_images/Kitchen_Towel.jpg","img/object_images/bicycle_lock01.jpg","img/object_images/speaker01.jpg","1","1","1","0","0","1","0.573035799898207","0.570261399960145","0.442775000119582","1","1","1","1","1","1","1","1","1"
"260004","img/object_images/speaker01.jpg","img/object_images/Kitchen_Towel.jpg","img/object_images/Traffic Sign 01.jpg","1","1","1","1","0","0","0.442775000119582","0.573035799898207","0.518277100054547","1","1","1","1","1","1","1","1","1"
"260004","img/object_images/Traffic Sign 01.jpg","img/object_images/speaker01.jpg","img/object_images/faucet01.jpg","1","1","1","0","1","0","0.518277100054547","0.442775000119582","0.589169099926949","1","1","1","1","1","1","1","1","1"
"260004","img/object_images/faucet01.jpg","img/object_images/Traffic Sign 01.jpg","img/object_images/glasses07.jpg","1","1","1","0","0","1","0.589169099926949","0.518277100054547","0.503727899864316","1","1","1","1","1","1","1","1","1"
"260004","img/object_images/glasses07.jpg","img/object_images/faucet01.jpg","img/object_images/colander01.jpg","1","1","1","1","0","0","0.503727899864316","0.589169099926949","0.647828799905255","1","1","1","1","1","1","1","1","1"
"260004","img/object_images/colander01.jpg","img/object_images/glasses07.jpg","img/object_images/purse01.jpg","1","1","1","0","1","1","0.647828799905255","0.503727899864316","0.487871999852359","1","1","1","1","1","1","1","1","1"
"260004","img/object_images/purse01.jpg","img/object_images/colander01.jpg","img/object_images/fire_extinguisher01.jpg","1","1","1","1","0","0","0.487871999852359","0.647828799905255","0.555192600004375","1","1","1","1","1","1","1","1","1"
"260004","img/object_images/fire_extinguisher01.jpg","img/object_images/purse01.jpg","img/object_images/Pottery01.jpg","1","1","1","0","1","0","0.555192600004375","0.487871999852359","0.553360000019893","1","1","1","1","1","1","1","1","1"
"260004","img/object_images/Pottery01.jpg","img/object_images/fire_extinguisher01.jpg","img/object_images/gift_box04.jpg","1","1","1","0","0","0","0.553360000019893","0.555192600004375","0.623463099822402","1","1","1","1","1","1","1","1","1"
"260004","img/object_images/gift_box04.jpg","img/object_images/Pottery01.jpg","img/object_images/basket02.jpg","1","1","1","0","0","0","0.623463099822402","0.553360000019893","0.575238900026307","1","1","1","1","1","1","1","1","1"
"260004","img/object_images/basket02.jpg","img/object_images/gift_box04.jpg","img/object_images/yo_yo01.jpg","1","1","1","0","0","0","0.575238900026307","0.623463099822402","0.491381499916315","1","1","1","1","1","1","1","1","1"
"260004","img/object_images/yo_yo01.jpg","img/object_images/basket02.jpg","img/object_images/glasses06.jpg","1","1","1","0","0","1","0.491381499916315","0.575238900026307","0.551006499910727","1","1","1","1","1","1","1","1","1"
"260004","img/object_images/glasses06.jpg","img/object_images/yo_yo01.jpg","img/object_images/jewelry09.jpg","1","1","1","1","0","1","0.551006499910727","0.491381499916315","0.543881399789825","1","1","1","1","1","1","1","1","1"
"260004","img/object_images/jewelry09.jpg","img/object_images/glasses06.jpg","img/object_images/hair_clips01.jpg","1","1","1","1","1","1","0.543881399789825","0.551006499910727","0.499531699810177","1","1","1","1","1","1","1","1","1"
"260004","img/object_images/hair_clips01.jpg","img/object_images/jewelry09.jpg","img/object_images/tool07.jpg","1","1","1","1","1","0","0.499531699810177","0.543881399789825","0.52512659993954","1","1","1","1","1","1","1","1","1"
"260004","img/object_images/tool07.jpg","img/object_images/hair_clips01.jpg","img/object_images/handcuffs01.jpg","1","1","1","0","1","0","0.52512659993954","0.499531699810177","0.533499199897051","1","1","1","1","1","1","1","1","1"
"260004","img/object_images/handcuffs01.jpg","img/object_images/tool07.jpg","img/object_images/projector01.jpg","1","1","0","0","0","0","0.533499199897051","0.52512659993954","0.288937800098211","1","1","1","1","1","1","1","1","1"
"260004","img/object_images/projector01.jpg","img/object_images/handcuffs01.jpg","img/object_images/lighter01.jpg","0","1","1","0","0","1","0.288937800098211","0.533499199897051","0.60946309985593","1","1","1","1","1","1","1","1","1"
"260004","img/object_images/lighter01.jpg","img/object_images/projector01.jpg","img/object_images/TrashCan02.jpg","1","0","1","1","0","1","0.60946309985593","0.288937800098211","0.478415199788287","1","1","1","1","1","1","1","1","1"
"260004","img/object_images/TrashCan02.jpg","img/object_images/lighter01.jpg",NA,"1","1",NA,"1","1",NA,"0.478415199788287","0.60946309985593",NA,"1","1",NA,"1","1",NA,"1","1",NA
"260004","img/object_images/tool11.jpg",NA,"img/object_images/bag06.jpg","1",NA,"1","1",NA,"1","0.616659200051799",NA,"0.485816099913791","1",NA,"1","1",NA,"1","1",NA,"1"
"260004","img/object_images/bag06.jpg","img/object_images/tool11.jpg","img/object_images/ribbon01.jpg","1","1","1","1","1","0","0.485816099913791","0.616659200051799","0.606015299912542","1","1","1","1","1","1","1","1","1"
"260004","img/object_images/ribbon01.jpg","img/object_images/bag06.jpg","img/object_images/ladle02.jpg","1","1","1","0","1","0","0.606015299912542","0.485816099913791","0.502600000007078","1","1","1","1","1","1","1","1","1"
"260004","img/object_images/ladle02.jpg","img/object_images/ribbon01.jpg","img/object_images/mask01.jpg","1","1","1","0","0","0","0.502600000007078","0.606015299912542","0.501872199820355","1","1","1","1","1","1","1","1","1"
"260004","img/object_images/mask01.jpg","img/object_images/ladle02.jpg","img/object_images/jewel01.jpg","1","1","1","0","0","0","0.501872199820355","0.502600000007078","0.513155699940398","1","1","1","1","1","1","1","1","1"
"260004","img/object_images/jewel01.jpg","img/object_images/mask01.jpg","img/object_images/cards01.jpg","1","1","1","0","0","0","0.513155699940398","0.501872199820355","0.53360449988395","1","1","1","1","1","1","1","1","1"
"260004","img/object_images/cards01.jpg","img/object_images/jewel01.jpg","img/object_images/lemon_squeezer02.jpg","1","1","1","0","0","1","0.53360449988395","0.513155699940398","0.424665100174025","1","1","1","1","1","1","1","1","1"
"260004","img/object_images/lemon_squeezer02.jpg","img/object_images/cards01.jpg","img/object_images/key02.jpg","1","1","1","1","0","1","0.424665100174025","0.53360449988395","0.416632100008428","1","1","1","1","1","1","1","1","1"
"260004","img/object_images/key02.jpg","img/object_images/lemon_squeezer02.jpg","img/object_images/belt01.jpg","1","1","1","1","1","0","0.416632100008428","0.424665100174025","0.6208635000512","1","1","1","1","1","1","1","1","1"
"260004","img/object_images/belt01.jpg","img/object_images/key02.jpg","img/object_images/screwdriver01.jpg","1","1","1","0","1","0","0.6208635000512","0.416632100008428","0.495235299924388","1","1","1","1","1","1","1","1","1"
"260004","img/object_images/screwdriver01.jpg","img/object_images/belt01.jpg","img/object_images/chair04.jpg","1","1","1","0","0","1","0.495235299924388","0.6208635000512","0.422569900052622","1","1","1","1","1","1","1","1","1"
"260004","img/object_images/chair04.jpg","img/object_images/screwdriver01.jpg","img/object_images/ice_tray03.jpg","1","1","1","1","0","1","0.422569900052622","0.495235299924388","0.403219499858096","1","1","1","1","1","1","1","1","1"
"260004","img/object_images/ice_tray03.jpg","img/object_images/chair04.jpg","img/object_images/dress03.jpg","1","1","1","1","1","1","0.403219499858096","0.422569900052622","0.488736999919638","1","1","1","1","1","1","1","1","1"
"260004","img/object_images/dress03.jpg","img/object_images/ice_tray03.jpg","img/object_images/WitchHat02.jpg","1","1","1","1","1","1","0.488736999919638","0.403219499858096","0.476547900121659","1","1","1","1","1","1","1","1","1"
"260004","img/object_images/WitchHat02.jpg","img/object_images/dress03.jpg","img/object_images/yarn02.jpg","1","1","1","1","1","0","0.476547900121659","0.488736999919638","0.495102799963206","1","1","1","1","1","1","1","1","1"
"260004","img/object_images/yarn02.jpg","img/object_images/WitchHat02.jpg","img/object_images/MeasuringCup01.jpg","1","1","1","0","1","1","0.495102799963206","0.476547900121659","0.879728800151497","1","1","1","1","1","1","1","1","1"
"260004","img/object_images/MeasuringCup01.jpg","img/object_images/yarn02.jpg","img/object_images/binoculars03.jpg","1","1","1","1","0","1","0.879728800151497","0.495102799963206","0.442277100170031","1","1","1","1","1","1","1","1","1"
"260004","img/object_images/binoculars03.jpg","img/object_images/MeasuringCup01.jpg","img/object_images/toaster02.jpg","1","1","1","1","1","1","0.442277100170031","0.879728800151497","0.499580400064588","1","1","1","1","1","1","1","1","1"
"260004","img/object_images/toaster02.jpg","img/object_images/binoculars03.jpg","img/object_images/car04.jpg","1","1","1","1","1","0","0.499580400064588","0.442277100170031","0.49567350000143","1","1","1","1","1","1","1","1","1"
"260004","img/object_images/car04.jpg","img/object_images/toaster02.jpg","img/object_images/cutting_board01.jpg","1","1","1","0","1","1","0.49567350000143","0.499580400064588","0.415560799883679","1","1","1","1","1","1","1","1","1"
"260004","img/object_images/cutting_board01.jpg","img/object_images/car04.jpg","img/object_images/slinky_toy01.jpg","1","1","1","1","0","1","0.415560799883679","0.49567350000143","0.483240499859676","1","1","1","1","1","1","1","1","1"
"260004","img/object_images/slinky_toy01.jpg","img/object_images/cutting_board01.jpg","img/object_images/hair_brush05.jpg","1","1","1","1","1","1","0.483240499859676","0.415560799883679","0.483759599970654","1","1","1","1","1","1","1","1","1"
"260004","img/object_images/hair_brush05.jpg","img/object_images/slinky_toy01.jpg","img/object_images/fan05.jpg","1","1","1","1","1","0","0.483759599970654","0.483240499859676","0.714502200018615","1","1","1","1","1","1","1","1","1"
"260004","img/object_images/fan05.jpg","img/object_images/hair_brush05.jpg","img/object_images/jewelry07.jpg","1","1","1","0","1","1","0.714502200018615","0.483759599970654","0.623497899854556","1","1","1","1","1","1","1","1","1"
"260004","img/object_images/jewelry07.jpg","img/object_images/fan05.jpg","img/object_images/shower_head03.jpg","1","1","1","1","0","1","0.623497899854556","0.714502200018615","0.535356499953195","1","1","1","1","1","1","1","1","1"
"260004","img/object_images/shower_head03.jpg","img/object_images/jewelry07.jpg","img/object_images/satellite01.jpg","1","1","1","1","1","0","0.535356499953195","0.623497899854556","0.557889099931344","1","1","1","1","1","1","1","1","1"
"260004","img/object_images/satellite01.jpg","img/object_images/shower_head03.jpg","img/object_images/tv01.jpg","1","1","1","0","1","0","0.557889099931344","0.535356499953195","0.528928200015798","1","1","1","1","1","1","1","1","1"
"260004","img/object_images/tv01.jpg","img/object_images/satellite01.jpg","img/object_images/car03.jpg","1","1","1","0","0","0","0.528928200015798","0.557889099931344","0.517337800003588","1","1","1","1","1","1","1","1","1"
"260004","img/object_images/car03.jpg","img/object_images/tv01.jpg","img/object_images/shoes10.jpg","1","1","1","0","0","0","0.517337800003588","0.528928200015798","0.448981299996376","1","1","1","1","1","1","1","1","1"
"260004","img/object_images/shoes10.jpg","img/object_images/car03.jpg","img/object_images/rock03.jpg","1","1","1","0","0","0","0.448981299996376","0.517337800003588","0.505240000085905","1","1","1","1","1","1","1","1","1"
"260004","img/object_images/rock03.jpg","img/object_images/shoes10.jpg","img/object_images/razor01.jpg","1","1","1","0","0","0","0.505240000085905","0.448981299996376","0.614002399845049","1","1","1","1","1","1","1","1","1"
"260004","img/object_images/razor01.jpg","img/object_images/rock03.jpg",NA,"1","1",NA,"0","0",NA,"0.614002399845049","0.505240000085905",NA,"1","1",NA,"1","1",NA,"1","1",NA
"260004","img/object_images/computer_mouse02.jpg",NA,"img/object_images/drone01.jpg","1",NA,"1","0",NA,"1","0.530043700011447",NA,"0.466437300201505","1",NA,"1","1",NA,"1","1",NA,"1"
"260004","img/object_images/drone01.jpg","img/object_images/computer_mouse02.jpg","img/object_images/video_game03.jpg","1","1","1","1","0","1","0.466437300201505","0.530043700011447","0.471794300014153","1","1","1","1","1","1","1","1","1"
"260004","img/object_images/video_game03.jpg","img/object_images/drone01.jpg","img/object_images/bag_pipes01.jpg","1","1","1","1","1","1","0.471794300014153","0.466437300201505","0.498943499987945","1","1","1","1","1","1","1","1","1"
"260004","img/object_images/bag_pipes01.jpg","img/object_images/video_game03.jpg","img/object_images/fork02.jpg","1","1","1","1","1","0","0.498943499987945","0.471794300014153","0.562932800035924","1","1","1","1","1","1","1","1","1"
"260004","img/object_images/fork02.jpg","img/object_images/bag_pipes01.jpg","img/object_images/airfryer02.jpg","1","1","1","0","1","1","0.562932800035924","0.498943499987945","0.445861899992451","1","1","1","1","1","1","1","1","1"
"260004","img/object_images/airfryer02.jpg","img/object_images/fork02.jpg","img/object_images/mail_box02.jpg","1","1","1","1","0","1","0.445861899992451","0.562932800035924","0.457399900071323","1","1","1","1","1","1","1","1","1"
"260004","img/object_images/mail_box02.jpg","img/object_images/airfryer02.jpg","img/object_images/book02.jpg","1","1","1","1","1","1","0.457399900071323","0.445861899992451","0.393628200050443","1","1","1","1","1","1","1","1","1"
"260004","img/object_images/book02.jpg","img/object_images/mail_box02.jpg","img/object_images/couch01.jpg","1","1","1","1","1","0","0.393628200050443","0.457399900071323","0.566915499977767","1","1","1","1","1","1","1","1","1"
"260004","img/object_images/couch01.jpg","img/object_images/book02.jpg","img/object_images/scarf01.jpg","1","1","1","0","1","1","0.566915499977767","0.393628200050443","0.435270299902186","1","1","1","1","1","1","1","1","1"
"260004","img/object_images/scarf01.jpg","img/object_images/couch01.jpg","img/object_images/toothbrush01.jpg","1","1","1","1","0","0","0.435270299902186","0.566915499977767","0.47171669988893","1","1","1","1","1","1","1","1","1"
"260004","img/object_images/toothbrush01.jpg","img/object_images/scarf01.jpg","img/object_images/pen01.jpg","1","1","1","0","1","0","0.47171669988893","0.435270299902186","0.538936000084504","1","1","1","1","1","1","1","1","1"
"260004","img/object_images/pen01.jpg","img/object_images/toothbrush01.jpg","img/object_images/tool06.jpg","1","1","1","0","0","0","0.538936000084504","0.47171669988893","0.802031599916518","1","1","1","1","1","1","1","1","1"
"260004","img/object_images/tool06.jpg","img/object_images/pen01.jpg","img/object_images/shoes12.jpg","1","1","1","0","0","1","0.802031599916518","0.538936000084504","0.457138000056148","1","1","1","1","1","1","1","1","1"
"260004","img/object_images/shoes12.jpg","img/object_images/tool06.jpg","img/object_images/soap03.jpg","1","1","1","1","0","0","0.457138000056148","0.802031599916518","0.575107499957085","1","1","1","1","1","1","1","1","1"
"260004","img/object_images/soap03.jpg","img/object_images/shoes12.jpg","img/object_images/Trowel01.jpg","1","1","1","0","1","0","0.575107499957085","0.457138000056148","0.513299499871209","1","1","1","1","1","1","1","1","1"
"260004","img/object_images/Trowel01.jpg","img/object_images/soap03.jpg","img/object_images/rock02.jpg","1","1","1","0","0","0","0.513299499871209","0.575107499957085","0.563527500024065","1","1","1","1","1","1","1","1","1"
"260004","img/object_images/rock02.jpg","img/object_images/Trowel01.jpg","img/object_images/chain01.jpg","1","1","0","0","0","0","0.563527500024065","0.513299499871209","0.422433100175112","1","1","1","1","1","1","1","1","1"
"260004","img/object_images/chain01.jpg","img/object_images/rock02.jpg","img/object_images/clip04.jpg","0","1","1","0","0","1","0.422433100175112","0.563527500024065","0.632985699921846","1","1","1","1","1","1","1","1","1"
"260004","img/object_images/clip04.jpg","img/object_images/chain01.jpg","img/object_images/hair_brush01.jpg","1","0","1","1","0","1","0.632985699921846","0.422433100175112","0.633354000048712","1","1","1","1","1","1","1","1","1"
"260004","img/object_images/hair_brush01.jpg","img/object_images/clip04.jpg","img/object_images/bell03.jpg","1","1","1","1","1","0","0.633354000048712","0.632985699921846","0.534707400016487","1","1","1","1","1","1","1","1","1"
"260004","img/object_images/bell03.jpg","img/object_images/hair_brush01.jpg","img/object_images/tripod01.jpg","1","1","1","0","1","1","0.534707400016487","0.633354000048712","0.543834300013259","1","1","1","1","1","1","1","1","1"
"260004","img/object_images/tripod01.jpg","img/object_images/bell03.jpg","img/object_images/box03.jpg","1","1","1","1","0","0","0.543834300013259","0.534707400016487","0.745463800150901","1","1","1","1","1","1","1","1","1"
"260004","img/object_images/box03.jpg","img/object_images/tripod01.jpg","img/object_images/Violin01.jpg","1","1","1","0","1","0","0.745463800150901","0.543834300013259","0.508709299843758","1","1","1","1","1","1","1","1","1"
"260004","img/object_images/Violin01.jpg","img/object_images/box03.jpg","img/object_images/skate_board01.jpg","1","1","1","0","0","0","0.508709299843758","0.745463800150901","0.581468499964103","1","1","1","1","1","1","1","1","1"
"260004","img/object_images/skate_board01.jpg","img/object_images/Violin01.jpg","img/object_images/toy01.jpg","1","1","1","0","0","1","0.581468499964103","0.508709299843758","0.51507500000298","1","1","1","1","1","1","1","1","1"
"260004","img/object_images/toy01.jpg","img/object_images/skate_board01.jpg","img/object_images/egg_slicer01.jpg","1","1","1","1","0","1","0.51507500000298","0.581468499964103","0.512106599984691","1","1","1","1","1","1","1","1","1"
"260004","img/object_images/egg_slicer01.jpg","img/object_images/toy01.jpg","img/object_images/pitcher09.jpg","1","1","1","1","1","1","0.512106599984691","0.51507500000298","0.472340499982238","1","1","1","1","1","1","1","1","1"
"260004","img/object_images/pitcher09.jpg","img/object_images/egg_slicer01.jpg","img/object_images/chair06.jpg","1","1","1","1","1","0","0.472340499982238","0.512106599984691","0.536147099919617","1","1","1","1","1","1","1","1","1"
"260004","img/object_images/chair06.jpg","img/object_images/pitcher09.jpg","img/object_images/computer_mouse01.jpg","1","1","1","0","1","1","0.536147099919617","0.472340499982238","0.451375599950552","1","1","1","1","1","1","1","1","1"
"260004","img/object_images/computer_mouse01.jpg","img/object_images/chair06.jpg","img/object_images/blender01.jpg","1","1","1","1","0","0","0.451375599950552","0.536147099919617","0.549701299984008","1","1","1","1","1","1","1","1","1"
"260004","img/object_images/blender01.jpg","img/object_images/computer_mouse01.jpg","img/object_images/floss02.jpg","1","1","1","0","1","1","0.549701299984008","0.451375599950552","0.480451700044796","1","1","1","1","1","1","1","1","1"
"260004","img/object_images/floss02.jpg","img/object_images/blender01.jpg",NA,"1","1",NA,"1","0",NA,"0.480451700044796","0.549701299984008",NA,"1","1",NA,"1","1",NA,"1","1",NA
"260004","img/object_images/bicycle01.jpg",NA,"img/object_images/tool19.jpg","1",NA,"1","1",NA,"1","0.590328600024804",NA,"0.442108699819073","1",NA,"1","1",NA,"1","1",NA,"1"
"260004","img/object_images/tool19.jpg","img/object_images/bicycle01.jpg","img/object_images/purse04.jpg","1","1","1","1","1","1","0.442108699819073","0.590328600024804","0.428597699850798","1","1","1","1","1","1","1","1","1"
"260004","img/object_images/purse04.jpg","img/object_images/tool19.jpg","img/object_images/chair03.jpg","1","1","1","1","1","0","0.428597699850798","0.442108699819073","0.497141600120813","1","1","1","1","1","1","1","1","1"
"260004","img/object_images/chair03.jpg","img/object_images/purse04.jpg","img/object_images/coloring_pencil02.jpg","1","1","1","0","1","0","0.497141600120813","0.428597699850798","0.466121000004932","1","1","1","1","1","1","1","1","1"
"260004","img/object_images/coloring_pencil02.jpg","img/object_images/chair03.jpg","img/object_images/hat06.jpg","1","1","1","0","0","0","0.466121000004932","0.497141600120813","0.475174700142816","1","1","1","1","1","1","1","1","1"
"260004","img/object_images/hat06.jpg","img/object_images/coloring_pencil02.jpg","img/object_images/bottle09.jpg","1","1","1","0","0","0","0.475174700142816","0.466121000004932","0.510368700139225","1","1","1","1","1","1","1","1","1"
"260004","img/object_images/bottle09.jpg","img/object_images/hat06.jpg","img/object_images/bottle02.jpg","1","1","1","0","0","1","0.510368700139225","0.475174700142816","0.438476199982688","1","1","1","1","1","1","1","1","1"
"260004","img/object_images/bottle02.jpg","img/object_images/bottle09.jpg","img/object_images/bean_bag02.jpg","1","1","1","1","0","1","0.438476199982688","0.510368700139225","0.491001599933952","1","1","1","1","1","1","1","1","1"
"260004","img/object_images/bean_bag02.jpg","img/object_images/bottle02.jpg","img/object_images/boat_toy10.jpg","1","1","1","1","1","0","0.491001599933952","0.438476199982688","0.502934099873528","1","1","1","1","1","1","1","1","1"
"260004","img/object_images/boat_toy10.jpg","img/object_images/bean_bag02.jpg","img/object_images/piggy_bank01.jpg","1","1","1","0","1","1","0.502934099873528","0.491001599933952","0.651582699967548","1","1","1","1","1","1","1","1","1"
"260004","img/object_images/piggy_bank01.jpg","img/object_images/boat_toy10.jpg","img/object_images/boat02.jpg","1","1","1","1","0","1","0.651582699967548","0.502934099873528","0.39768709987402","1","1","1","1","1","1","1","1","1"
"260004","img/object_images/boat02.jpg","img/object_images/piggy_bank01.jpg","img/object_images/cellphone03.jpg","1","1","1","1","1","0","0.39768709987402","0.651582699967548","0.58089890005067","1","1","1","1","1","1","1","1","1"
"260004","img/object_images/cellphone03.jpg","img/object_images/boat02.jpg","img/object_images/tie02.jpg","1","1","1","0","1","0","0.58089890005067","0.39768709987402","0.600596100091934","1","1","1","1","1","1","1","1","1"
"260004","img/object_images/tie02.jpg","img/object_images/cellphone03.jpg","img/object_images/fan02.jpg","1","1","1","0","0","0","0.600596100091934","0.58089890005067","0.605949599994346","1","1","1","1","1","1","1","1","1"
"260004","img/object_images/fan02.jpg","img/object_images/tie02.jpg","img/object_images/shoes07.jpg","1","1","1","0","0","0","0.605949599994346","0.600596100091934","0.606200600042939","1","1","1","1","1","1","1","1","1"
"260004","img/object_images/shoes07.jpg","img/object_images/fan02.jpg","img/object_images/scoreboard01.jpg","1","1","1","0","0","1","0.606200600042939","0.605949599994346","0.534518799977377","1","1","1","1","1","1","1","1","1"
"260004","img/object_images/scoreboard01.jpg","img/object_images/shoes07.jpg","img/object_images/wagon_cart03.jpg","1","1","1","1","0","1","0.534518799977377","0.606200600042939","0.490928900195286","1","1","1","1","1","1","1","1","1"
"260004","img/object_images/wagon_cart03.jpg","img/object_images/scoreboard01.jpg","img/object_images/perfume02.jpg","1","1","1","1","1","0","0.490928900195286","0.534518799977377","0.633614000165835","1","1","1","1","1","1","1","1","1"
"260004","img/object_images/perfume02.jpg","img/object_images/wagon_cart03.jpg","img/object_images/WoodBox01.jpg","1","1","1","0","1","0","0.633614000165835","0.490928900195286","0.521319599822164","1","1","1","1","1","1","1","1","1"
"260004","img/object_images/WoodBox01.jpg","img/object_images/perfume02.jpg","img/object_images/helmet04.jpg","1","1","1","0","0","1","0.521319599822164","0.633614000165835","0.470650499919429","1","1","1","1","1","1","1","1","1"
"260004","img/object_images/helmet04.jpg","img/object_images/WoodBox01.jpg","img/object_images/audio_port01.jpg","1","1","1","1","0","1","0.470650499919429","0.521319599822164","0.507320899982005","1","1","1","1","1","1","1","1","1"
"260004","img/object_images/audio_port01.jpg","img/object_images/helmet04.jpg","img/object_images/toilet_paper_dispenser01.jpg","1","1","1","1","1","1","0.507320899982005","0.470650499919429","0.451348499860615","1","1","1","1","1","1","1","1","1"
"260004","img/object_images/toilet_paper_dispenser01.jpg","img/object_images/audio_port01.jpg","img/object_images/bottle10.jpg","1","1","1","1","1","1","0.451348499860615","0.507320899982005","0.6595705000218","1","1","1","1","1","1","1","1","1"
"260004","img/object_images/bottle10.jpg","img/object_images/toilet_paper_dispenser01.jpg","img/object_images/hot_air_balloon02.jpg","1","1","1","1","1","0","0.6595705000218","0.451348499860615","0.697468200000003","1","1","1","1","1","1","1","1","1"
"260004","img/object_images/hot_air_balloon02.jpg","img/object_images/bottle10.jpg","img/object_images/knit01.jpg","1","1","1","0","1","0","0.697468200000003","0.6595705000218","0.611923499964178","1","1","1","1","1","1","1","1","1"
"260004","img/object_images/knit01.jpg","img/object_images/hot_air_balloon02.jpg","img/object_images/pen05.jpg","1","1","1","0","0","0","0.611923499964178","0.697468200000003","0.542565200012177","1","1","1","1","1","1","1","1","1"
"260004","img/object_images/pen05.jpg","img/object_images/knit01.jpg","img/object_images/camera_lens01.jpg","1","1","1","0","0","1","0.542565200012177","0.611923499964178","0.558839299948886","1","1","1","1","1","1","1","1","1"
"260004","img/object_images/camera_lens01.jpg","img/object_images/pen05.jpg","img/object_images/water_scooter01.jpg","1","1","1","1","0","1","0.558839299948886","0.542565200012177","0.701751099899411","1","1","1","1","1","1","1","1","1"
"260004","img/object_images/water_scooter01.jpg","img/object_images/camera_lens01.jpg","img/object_images/flask01.jpg","1","1","1","1","1","0","0.701751099899411","0.558839299948886","0.789765699999407","1","1","1","1","1","1","1","1","1"
"260004","img/object_images/flask01.jpg","img/object_images/water_scooter01.jpg","img/object_images/dog_leash01.jpg","1","1","0","0","1","0","0.789765699999407","0.701751099899411","0.440860100090504","1","1","1","1","1","1","1","1","1"
"260004","img/object_images/dog_leash01.jpg","img/object_images/flask01.jpg","img/object_images/toaster01.jpg","0","1","1","0","0","1","0.440860100090504","0.789765699999407","0.67688799998723","1","1","1","1","1","1","1","1","1"
"260004","img/object_images/toaster01.jpg","img/object_images/dog_leash01.jpg",NA,"1","0",NA,"1","0",NA,"0.67688799998723","0.440860100090504",NA,"1","1",NA,"1","1",NA,"1","1",NA
"260004","img/object_images/hair_brush02.jpg",NA,"img/object_images/chess_piece01.jpg","1",NA,"1","0",NA,"0","0.507209399947897",NA,"0.666145299794152","1",NA,"1","1",NA,"1","1",NA,"1"
"260004","img/object_images/chess_piece01.jpg","img/object_images/hair_brush02.jpg","img/object_images/ball02.jpg","1","1","1","0","0","1","0.666145299794152","0.507209399947897","0.45320829981938","1","1","1","1","1","1","1","1","1"
"260004","img/object_images/ball02.jpg","img/object_images/chess_piece01.jpg","img/object_images/gift_box05.jpg","1","1","1","1","0","0","0.45320829981938","0.666145299794152","0.448841700097546","1","1","1","1","1","1","1","1","1"
"260004","img/object_images/gift_box05.jpg","img/object_images/ball02.jpg","img/object_images/microphone03.jpg","1","1","1","0","1","1","0.448841700097546","0.45320829981938","0.486117799999192","1","1","1","1","1","1","1","1","1"
"260004","img/object_images/microphone03.jpg","img/object_images/gift_box05.jpg","img/object_images/backpack03.jpg","1","1","1","1","0","1","0.486117799999192","0.448841700097546","0.482274600071832","1","1","1","1","1","1","1","1","1"
"260004","img/object_images/backpack03.jpg","img/object_images/microphone03.jpg","img/object_images/bucket02.jpg","1","1","1","1","1","1","0.482274600071832","0.486117799999192","0.432770400075242","1","1","1","1","1","1","1","1","1"
"260004","img/object_images/bucket02.jpg","img/object_images/backpack03.jpg","img/object_images/laptop03.jpg","1","1","1","1","1","1","0.432770400075242","0.482274600071832","0.439446399919689","1","1","1","1","1","1","1","1","1"
"260004","img/object_images/laptop03.jpg","img/object_images/bucket02.jpg","img/object_images/umbrella01.jpg","1","1","1","1","1","0","0.439446399919689","0.432770400075242","0.477310499874875","1","1","1","1","1","1","1","1","1"
"260004","img/object_images/umbrella01.jpg","img/object_images/laptop03.jpg","img/object_images/surf_board01.jpg","1","1","1","0","1","1","0.477310499874875","0.439446399919689","0.438003600109369","1","1","1","1","1","1","1","1","1"
"260004","img/object_images/surf_board01.jpg","img/object_images/umbrella01.jpg","img/object_images/stove01.jpg","1","1","1","1","0","0","0.438003600109369","0.477310499874875","0.543362700147554","1","1","1","1","1","1","1","1","1"
"260004","img/object_images/stove01.jpg","img/object_images/surf_board01.jpg","img/object_images/trash_can03.jpg","1","1","1","0","1","1","0.543362700147554","0.438003600109369","0.565646599978209","1","1","1","1","1","1","1","1","1"
"260004","img/object_images/trash_can03.jpg","img/object_images/stove01.jpg","img/object_images/combs01.jpg","1","1","1","1","0","1","0.565646599978209","0.543362700147554","0.429677200037986","1","1","1","1","1","1","1","1","1"
"260004","img/object_images/combs01.jpg","img/object_images/trash_can03.jpg","img/object_images/laptop01.jpg","1","1","1","1","1","0","0.429677200037986","0.565646599978209","0.656894200015813","1","1","1","1","1","1","1","1","1"
"260004","img/object_images/laptop01.jpg","img/object_images/combs01.jpg","img/object_images/vase01.jpg","1","1","1","0","1","0","0.656894200015813","0.429677200037986","0.524728500051424","1","1","1","1","1","1","1","1","1"
"260004","img/object_images/vase01.jpg","img/object_images/laptop01.jpg","img/object_images/Vest02.jpg","1","1","1","0","0","0","0.524728500051424","0.656894200015813","0.513826299924403","1","1","1","1","1","1","1","1","1"
"260004","img/object_images/Vest02.jpg","img/object_images/vase01.jpg","img/object_images/calculator01.jpg","1","1","1","0","0","1","0.513826299924403","0.524728500051424","0.471839099889621","1","1","1","1","1","1","1","1","1"
"260004","img/object_images/calculator01.jpg","img/object_images/Vest02.jpg","img/object_images/lock01.jpg","1","1","1","1","0","0","0.471839099889621","0.513826299924403","0.581700399983674","1","1","1","1","1","1","1","1","1"
"260004","img/object_images/lock01.jpg","img/object_images/calculator01.jpg","img/object_images/trash_can05.jpg","1","1","1","0","1","1","0.581700399983674","0.471839099889621","0.460799599997699","1","1","1","1","1","1","1","1","1"
"260004","img/object_images/trash_can05.jpg","img/object_images/lock01.jpg","img/object_images/robe01.jpg","1","1","1","1","0","1","0.460799599997699","0.581700399983674","0.434179999865592","1","1","1","1","1","1","1","1","1"
"260004","img/object_images/robe01.jpg","img/object_images/trash_can05.jpg","img/object_images/Lint_Roller02.jpg","1","1","1","1","1","0","0.434179999865592","0.460799599997699","0.498476999811828","1","1","1","1","1","1","1","1","1"
"260004","img/object_images/Lint_Roller02.jpg","img/object_images/robe01.jpg","img/object_images/fan04.jpg","1","1","1","0","1","0","0.498476999811828","0.434179999865592","0.611749399919063","1","1","1","1","1","1","1","1","1"
"260004","img/object_images/fan04.jpg","img/object_images/Lint_Roller02.jpg","img/object_images/jewel03.jpg","1","1","1","0","0","1","0.611749399919063","0.498476999811828","0.458044999977574","1","1","1","1","1","1","1","1","1"
"260004","img/object_images/jewel03.jpg","img/object_images/fan04.jpg","img/object_images/toy05.jpg","1","1","1","1","0","0","0.458044999977574","0.611749399919063","0.530536799924448","1","1","1","1","1","1","1","1","1"
"260004","img/object_images/toy05.jpg","img/object_images/jewel03.jpg","img/object_images/spatula02.jpg","1","1","1","0","1","1","0.530536799924448","0.458044999977574","0.45959459990263","1","1","1","1","1","1","1","1","1"
"260004","img/object_images/spatula02.jpg","img/object_images/toy05.jpg","img/object_images/chair02.jpg","1","1","1","1","0","1","0.45959459990263","0.530536799924448","0.644171399995685","1","1","1","1","1","1","1","1","1"
"260004","img/object_images/chair02.jpg","img/object_images/spatula02.jpg","img/object_images/helmet02.jpg","1","1","0","1","1","0","0.644171399995685","0.45959459990263","0.704000300029293","1","1","1","1","1","1","1","1","1"
"260004","img/object_images/helmet02.jpg","img/object_images/chair02.jpg","img/object_images/towels01.jpg","0","1","1","0","1","0","0.704000300029293","0.644171399995685","0.489890799857676","1","1","1","1","1","1","1","1","1"
"260004","img/object_images/towels01.jpg","img/object_images/helmet02.jpg","img/object_images/shoes08.jpg","1","0","1","0","0","1","0.489890799857676","0.704000300029293","0.454810899915174","1","1","1","1","1","1","1","1","1"
"260004","img/object_images/shoes08.jpg","img/object_images/towels01.jpg","img/object_images/pitcher05.jpg","1","1","1","1","0","0","0.454810899915174","0.489890799857676","0.697494799969718","1","1","1","1","1","1","1","1","1"
"260004","img/object_images/pitcher05.jpg","img/object_images/shoes08.jpg","img/object_images/hair_dryer01.jpg","1","1","1","0","1","0","0.697494799969718","0.454810899915174","0.561090499861166","1","1","1","1","1","1","1","1","1"
"260004","img/object_images/hair_dryer01.jpg","img/object_images/pitcher05.jpg","img/object_images/accardion01.jpg","1","1","1","0","0","1","0.561090499861166","0.697494799969718","0.479651300003752","1","1","1","1","1","1","1","1","1"
"260004","img/object_images/accardion01.jpg","img/object_images/hair_dryer01.jpg",NA,"1","1",NA,"1","0",NA,"0.479651300003752","0.561090499861166",NA,"1","1",NA,"1","1",NA,"1","1",NA
"260004","img/object_images/toy08.jpg",NA,"img/object_images/paper_cup02.jpg","1",NA,"1","0",NA,"1","0.679627400124446",NA,"0.44571220013313","1",NA,"1","1",NA,"1","1",NA,"1"
"260004","img/object_images/paper_cup02.jpg","img/object_images/toy08.jpg","img/object_images/stereo02.jpg","1","1","1","1","0","0","0.44571220013313","0.679627400124446","0.492998400004581","1","1","1","1","1","1","1","1","1"
"260004","img/object_images/stereo02.jpg","img/object_images/paper_cup02.jpg","img/object_images/hand_grip_exerciser01.jpg","1","1","1","0","1","0","0.492998400004581","0.44571220013313","0.537279499927536","1","1","1","1","1","1","1","1","1"
"260004","img/object_images/hand_grip_exerciser01.jpg","img/object_images/stereo02.jpg","img/object_images/Statue01.jpg","1","1","1","0","0","1","0.537279499927536","0.492998400004581","0.477078599855304","1","1","1","1","1","1","1","1","1"
"260004","img/object_images/Statue01.jpg","img/object_images/hand_grip_exerciser01.jpg","img/object_images/car01.jpg","1","1","1","1","0","1","0.477078599855304","0.537279499927536","0.446301900083199","1","1","1","1","1","1","1","1","1"
"260004","img/object_images/car01.jpg","img/object_images/Statue01.jpg","img/object_images/boat04.jpg","1","1","0","1","1","0","0.446301900083199","0.477078599855304","0.382434300146997","1","1","1","1","1","1","1","1","1"
"260004","img/object_images/boat04.jpg","img/object_images/car01.jpg","img/object_images/jacket04.jpg","0","1","1","0","1","0","0.382434300146997","0.446301900083199","0.507952000014484","1","1","1","1","1","1","1","1","1"
"260004","img/object_images/jacket04.jpg","img/object_images/boat04.jpg","img/object_images/sponge03.jpg","1","0","1","0","0","1","0.507952000014484","0.382434300146997","0.480443999869749","1","1","1","1","1","1","1","1","1"
"260004","img/object_images/sponge03.jpg","img/object_images/jacket04.jpg","img/object_images/mail_box01.jpg","1","1","1","1","0","0","0.480443999869749","0.507952000014484","0.507631599903107","1","1","1","1","1","1","1","1","1"
"260004","img/object_images/mail_box01.jpg","img/object_images/sponge03.jpg","img/object_images/video_game01.jpg","1","1","1","0","1","1","0.507631599903107","0.480443999869749","0.65462759998627","1","1","1","1","1","1","1","1","1"
"260004","img/object_images/video_game01.jpg","img/object_images/mail_box01.jpg","img/object_images/camera03.jpg","1","1","1","1","0","0","0.65462759998627","0.507631599903107","0.607948999851942","1","1","1","1","1","1","1","1","1"
"260004","img/object_images/camera03.jpg","img/object_images/video_game01.jpg","img/object_images/basket04.jpg","1","1","1","0","1","1","0.607948999851942","0.65462759998627","0.566310900030658","1","1","1","1","1","1","1","1","1"
"260004","img/object_images/basket04.jpg","img/object_images/camera03.jpg","img/object_images/blender02.jpg","1","1","1","1","0","1","0.566310900030658","0.607948999851942","0.525477699935436","1","1","1","1","1","1","1","1","1"
"260004","img/object_images/blender02.jpg","img/object_images/basket04.jpg","img/object_images/curtain02.jpg","1","1","1","1","1","0","0.525477699935436","0.566310900030658","0.612687200075015","1","1","1","1","1","1","1","1","1"
"260004","img/object_images/curtain02.jpg","img/object_images/blender02.jpg","img/object_images/tool18.jpg","1","1","1","0","1","0","0.612687200075015","0.525477699935436","0.54302839981392","1","1","1","1","1","1","1","1","1"
"260004","img/object_images/tool18.jpg","img/object_images/curtain02.jpg","img/object_images/hoverboard01.jpg","1","1","1","0","0","0","0.54302839981392","0.612687200075015","0.489467500010505","1","1","1","1","1","1","1","1","1"
"260004","img/object_images/hoverboard01.jpg","img/object_images/tool18.jpg","img/object_images/remote_controller01.jpg","1","1","1","0","0","1","0.489467500010505","0.54302839981392","0.520116400206462","1","1","1","1","1","1","1","1","1"
"260004","img/object_images/remote_controller01.jpg","img/object_images/hoverboard01.jpg","img/object_images/knife02.jpg","1","1","1","1","0","0","0.520116400206462","0.489467500010505","0.576407999964431","1","1","1","1","1","1","1","1","1"
"260004","img/object_images/knife02.jpg","img/object_images/remote_controller01.jpg","img/object_images/dresser03.jpg","1","1","1","0","1","0","0.576407999964431","0.520116400206462","0.617903100093827","1","1","1","1","1","1","1","1","1"
"260004","img/object_images/dresser03.jpg","img/object_images/knife02.jpg","img/object_images/flashlight03.jpg","1","1","1","0","0","0","0.617903100093827","0.576407999964431","1.06472419993952","1","1","1","1","1","1","1","1","1"
"260004","img/object_images/flashlight03.jpg","img/object_images/dresser03.jpg","img/object_images/knit03.jpg","1","1","1","0","0","1","1.06472419993952","0.617903100093827","0.546188300009817","1","1","1","1","1","1","1","1","1"
"260004","img/object_images/knit03.jpg","img/object_images/flashlight03.jpg","img/object_images/remover01.jpg","1","1","1","1","0","1","0.546188300009817","1.06472419993952","0.509885800071061","1","1","1","1","1","1","1","1","1"
"260004","img/object_images/remover01.jpg","img/object_images/knit03.jpg","img/object_images/phone02.jpg","1","1","1","1","1","1","0.509885800071061","0.546188300009817","0.546867599943653","1","1","1","1","1","1","1","1","1"
"260004","img/object_images/phone02.jpg","img/object_images/remover01.jpg","img/object_images/knit04.jpg","1","1","1","1","1","1","0.546867599943653","0.509885800071061","0.585584399988875","1","1","1","1","1","1","1","1","1"
"260004","img/object_images/knit04.jpg","img/object_images/phone02.jpg","img/object_images/gloves02.jpg","1","1","1","1","1","0","0.585584399988875","0.546867599943653","0.695894500007853","1","1","1","1","1","1","1","1","1"
"260004","img/object_images/gloves02.jpg","img/object_images/knit04.jpg","img/object_images/shower_head01.jpg","1","1","1","0","1","1","0.695894500007853","0.585584399988875","0.476765299914405","1","1","1","1","1","1","1","1","1"
"260004","img/object_images/shower_head01.jpg","img/object_images/gloves02.jpg","img/object_images/matches02.jpg","1","1","1","1","0","0","0.476765299914405","0.695894500007853","0.612346699927002","1","1","1","1","1","1","1","1","1"
"260004","img/object_images/matches02.jpg","img/object_images/shower_head01.jpg","img/object_images/kite01.jpg","1","1","1","0","1","1","0.612346699927002","0.476765299914405","0.496368299936876","1","1","1","1","1","1","1","1","1"
"260004","img/object_images/kite01.jpg","img/object_images/matches02.jpg","img/object_images/bottle07.jpg","1","1","1","1","0","1","0.496368299936876","0.612346699927002","0.509980800095946","1","1","1","1","1","1","1","1","1"
"260004","img/object_images/bottle07.jpg","img/object_images/kite01.jpg","img/object_images/keyboard02.jpg","1","1","1","1","1","1","0.509980800095946","0.496368299936876","0.443322600098327","1","1","1","1","1","1","1","1","1"
"260004","img/object_images/keyboard02.jpg","img/object_images/bottle07.jpg","img/object_images/backpack01.jpg","1","1","1","1","1","0","0.443322600098327","0.509980800095946","0.601607900112867","1","1","1","1","1","1","1","1","1"
"260004","img/object_images/backpack01.jpg","img/object_images/keyboard02.jpg",NA,"1","1",NA,"0","1",NA,"0.601607900112867","0.443322600098327",NA,"1","1",NA,"1","1",NA,"1","1",NA
"260004","img/object_images/trumpet01.jpg",NA,"img/object_images/TreeSlice01.jpg","0",NA,"1","0",NA,"1","0.631810599938035",NA,"0.466073600109667","1",NA,"1","1",NA,"1","1",NA,"1"
"260004","img/object_images/TreeSlice01.jpg","img/object_images/trumpet01.jpg","img/object_images/badminton01.jpg","1","0","1","1","0","1","0.466073600109667","0.631810599938035","0.547878199955449","1","1","1","1","1","1","1","1","1"
"260004","img/object_images/badminton01.jpg","img/object_images/TreeSlice01.jpg","img/object_images/bottle06.jpg","1","1","1","1","1","0","0.547878199955449","0.466073600109667","0.43378289998509","1","1","1","1","1","1","1","1","1"
"260004","img/object_images/bottle06.jpg","img/object_images/badminton01.jpg","img/object_images/jewel02.jpg","1","1","0","0","1","0","0.43378289998509","0.547878199955449","0.371042199898511","1","1","1","1","1","1","1","1","1"
"260004","img/object_images/jewel02.jpg","img/object_images/bottle06.jpg","img/object_images/Shoes05.jpg","0","1","1","0","0","0","0.371042199898511","0.43378289998509","0.391974300146103","1","1","1","1","1","1","1","1","1"
"260004","img/object_images/Shoes05.jpg","img/object_images/jewel02.jpg","img/object_images/Eyeliner01.jpg","1","0","1","0","0","1","0.391974300146103","0.371042199898511","0.436639100080356","1","1","1","1","1","1","1","1","1"
"260004","img/object_images/Eyeliner01.jpg","img/object_images/Shoes05.jpg","img/object_images/shovel01.jpg","1","1","1","1","0","0","0.436639100080356","0.391974300146103","0.459205500083044","1","1","1","1","1","1","1","1","1"
"260004","img/object_images/shovel01.jpg","img/object_images/Eyeliner01.jpg","img/object_images/bookmark01.jpg","1","1","1","0","1","0","0.459205500083044","0.436639100080356","0.579428100027144","1","1","1","1","1","1","1","1","1"
"260004","img/object_images/bookmark01.jpg","img/object_images/shovel01.jpg","img/object_images/joystick03.jpg","1","1","1","0","0","1","0.579428100027144","0.459205500083044","0.435718399938196","1","1","1","1","1","1","1","1","1"
"260004","img/object_images/joystick03.jpg","img/object_images/bookmark01.jpg","img/object_images/frame01.jpg","1","1","1","1","0","1","0.435718399938196","0.579428100027144","0.339362300001085","1","1","1","1","1","1","1","1","1"
"260004","img/object_images/frame01.jpg","img/object_images/joystick03.jpg","img/object_images/pitcher07.jpg","1","1","1","1","1","1","0.339362300001085","0.435718399938196","0.468743900069967","1","1","1","1","1","1","1","1","1"
"260004","img/object_images/pitcher07.jpg","img/object_images/frame01.jpg","img/object_images/lock03.jpg","1","1","1","1","1","1","0.468743900069967","0.339362300001085","0.405886100139469","1","1","1","1","1","1","1","1","1"
"260004","img/object_images/lock03.jpg","img/object_images/pitcher07.jpg","img/object_images/dice01.jpg","1","1","1","1","1","0","0.405886100139469","0.468743900069967","0.602974999928847","1","1","1","1","1","1","1","1","1"
"260004","img/object_images/dice01.jpg","img/object_images/lock03.jpg","img/object_images/helmet03.jpg","1","1","1","0","1","1","0.602974999928847","0.405886100139469","0.54386410000734","1","1","1","1","1","1","1","1","1"
"260004","img/object_images/helmet03.jpg","img/object_images/dice01.jpg","img/object_images/Safe01.jpg","1","1","1","1","0","1","0.54386410000734","0.602974999928847","0.865220599807799","1","1","1","1","1","1","1","1","1"
"260004","img/object_images/Safe01.jpg","img/object_images/helmet03.jpg","img/object_images/belt03.jpg","1","1","1","1","1","0","0.865220599807799","0.54386410000734","0.946597600122914","1","1","1","1","1","1","1","1","1"
"260004","img/object_images/belt03.jpg","img/object_images/Safe01.jpg","img/object_images/tennis_racket01.jpg","1","1","1","0","1","1","0.946597600122914","0.865220599807799","0.491173000074923","1","1","1","1","1","1","1","1","1"
"260004","img/object_images/tennis_racket01.jpg","img/object_images/belt03.jpg","img/object_images/fan01.jpg","1","1","1","1","0","0","0.491173000074923","0.946597600122914","0.562604599865153","1","1","1","1","1","1","1","1","1"
"260004","img/object_images/fan01.jpg","img/object_images/tennis_racket01.jpg","img/object_images/scale02.jpg","1","1","1","0","1","0","0.562604599865153","0.491173000074923","0.504818600136787","1","1","1","1","1","1","1","1","1"
"260004","img/object_images/scale02.jpg","img/object_images/fan01.jpg","img/object_images/usb03.jpg","1","1","1","0","0","0","0.504818600136787","0.562604599865153","0.481638200115412","1","1","1","1","1","1","1","1","1"
"260004","img/object_images/usb03.jpg","img/object_images/scale02.jpg","img/object_images/nut_cracker01.jpg","1","1","1","0","0","1","0.481638200115412","0.504818600136787","0.527412600116804","1","1","1","1","1","1","1","1","1"
"260004","img/object_images/nut_cracker01.jpg","img/object_images/usb03.jpg","img/object_images/note_book02.jpg","1","1","1","1","0","0","0.527412600116804","0.481638200115412","0.656577100045979","1","1","1","1","1","1","1","1","1"
"260004","img/object_images/note_book02.jpg","img/object_images/nut_cracker01.jpg","img/object_images/water_gun01.jpg","1","1","1","0","1","1","0.656577100045979","0.527412600116804","0.595940100029111","1","1","1","1","1","1","1","1","1"
"260004","img/object_images/water_gun01.jpg","img/object_images/note_book02.jpg","img/object_images/origami01.jpg","1","1","1","1","0","1","0.595940100029111","0.656577100045979","0.527782799908891","1","1","1","1","1","1","1","1","1"
"260004","img/object_images/origami01.jpg","img/object_images/water_gun01.jpg","img/object_images/egg_basket01.jpg","1","1","1","1","1","1","0.527782799908891","0.595940100029111","0.506257599918172","1","1","1","1","1","1","1","1","1"
"260004","img/object_images/egg_basket01.jpg","img/object_images/origami01.jpg","img/object_images/piano03.jpg","1","1","1","1","1","0","0.506257599918172","0.527782799908891","0.51923600002192","1","1","1","1","1","1","1","1","1"
"260004","img/object_images/piano03.jpg","img/object_images/egg_basket01.jpg","img/object_images/headset02.jpg","1","1","1","0","1","0","0.51923600002192","0.506257599918172","0.639832600019872","1","1","1","1","1","1","1","1","1"
"260004","img/object_images/headset02.jpg","img/object_images/piano03.jpg","img/object_images/ToolBag01.jpg","1","1","1","0","0","0","0.639832600019872","0.51923600002192","0.466956899967045","1","1","1","1","1","1","1","1","1"
"260004","img/object_images/ToolBag01.jpg","img/object_images/headset02.jpg","img/object_images/yoga_mat01.jpg","1","1","1","0","0","0","0.466956899967045","0.639832600019872","0.456295799929649","1","1","1","1","1","1","1","1","1"
"260004","img/object_images/yoga_mat01.jpg","img/object_images/ToolBag01.jpg","img/object_images/phone04.jpg","1","1","1","0","0","1","0.456295799929649","0.466956899967045","0.544095599791035","1","1","1","1","1","1","1","1","1"
"260004","img/object_images/phone04.jpg","img/object_images/yoga_mat01.jpg","img/object_images/bucket01.jpg","1","1","1","1","0","1","0.544095599791035","0.456295799929649","0.513992100022733","1","1","1","1","1","1","1","1","1"
"260004","img/object_images/bucket01.jpg","img/object_images/phone04.jpg",NA,"1","1",NA,"1","1",NA,"0.513992100022733","0.544095599791035",NA,"1","1",NA,"1","1",NA,"1","1",NA
"260004","img/object_images/pen03.jpg",NA,"img/object_images/tv02.jpg","0",NA,"1","0",NA,"0","0.671390500152484",NA,"0.452678099973127","1",NA,"1","1",NA,"1","1",NA,"1"
"260004","img/object_images/tv02.jpg","img/object_images/pen03.jpg","img/object_images/Staples01.jpg","1","0","1","0","0","1","0.452678099973127","0.671390500152484","0.466286400100216","1","1","1","1","1","1","1","1","1"
"260004","img/object_images/Staples01.jpg","img/object_images/tv02.jpg","img/object_images/paint_brush04.jpg","1","1","1","1","0","0","0.466286400100216","0.452678099973127","0.434791400097311","1","1","1","1","1","1","1","1","1"
"260004","img/object_images/paint_brush04.jpg","img/object_images/Staples01.jpg","img/object_images/ear_bud01.jpg","1","1","1","0","1","1","0.434791400097311","0.466286400100216","0.399361699819565","1","1","1","1","1","1","1","1","1"
"260004","img/object_images/ear_bud01.jpg","img/object_images/paint_brush04.jpg","img/object_images/note_book01.jpg","1","1","1","1","0","0","0.399361699819565","0.434791400097311","0.42673010006547","1","1","1","1","1","1","1","1","1"
"260004","img/object_images/note_book01.jpg","img/object_images/ear_bud01.jpg","img/object_images/compass01.jpg","1","1","1","0","1","1","0.42673010006547","0.399361699819565","0.342328099999577","1","1","1","1","1","1","1","1","1"
"260004","img/object_images/compass01.jpg","img/object_images/note_book01.jpg","img/object_images/Oven01.jpg","1","1","1","1","0","1","0.342328099999577","0.42673010006547","0.376835099887103","1","1","1","1","1","1","1","1","1"
"260004","img/object_images/Oven01.jpg","img/object_images/compass01.jpg","img/object_images/pillows01.jpg","1","1","1","1","1","1","0.376835099887103","0.342328099999577","0.554757599951699","1","1","1","1","1","1","1","1","1"
"260004","img/object_images/pillows01.jpg","img/object_images/Oven01.jpg","img/object_images/knife04.jpg","1","1","1","1","1","1","0.554757599951699","0.376835099887103","0.42426440003328","1","1","1","1","1","1","1","1","1"
"260004","img/object_images/knife04.jpg","img/object_images/pillows01.jpg","img/object_images/lid01.jpg","1","1","1","1","1","1","0.42426440003328","0.554757599951699","0.35360679985024","1","1","1","1","1","1","1","1","1"
"260004","img/object_images/lid01.jpg","img/object_images/knife04.jpg","img/object_images/crutches02.jpg","1","1","1","1","1","0","0.35360679985024","0.42426440003328","0.59062199993059","1","1","1","1","1","1","1","1","1"
"260004","img/object_images/crutches02.jpg","img/object_images/lid01.jpg","img/object_images/motorcycle01.jpg","1","1","1","0","1","1","0.59062199993059","0.35360679985024","0.522730800090358","1","1","1","1","1","1","1","1","1"
"260004","img/object_images/motorcycle01.jpg","img/object_images/crutches02.jpg","img/object_images/floppy_disk03.jpg","1","1","1","1","0","1","0.522730800090358","0.59062199993059","0.486731500132009","1","1","1","1","1","1","1","1","1"
"260004","img/object_images/floppy_disk03.jpg","img/object_images/motorcycle01.jpg","img/object_images/usb02.jpg","1","1","1","1","1","0","0.486731500132009","0.522730800090358","0.429872300010175","1","1","1","1","1","1","1","1","1"
"260004","img/object_images/usb02.jpg","img/object_images/floppy_disk03.jpg","img/object_images/bottle01.jpg","1","1","1","0","1","0","0.429872300010175","0.486731500132009","0.388860000064596","1","1","1","1","1","1","1","1","1"
"260004","img/object_images/bottle01.jpg","img/object_images/usb02.jpg","img/object_images/chess_piece02.jpg","1","1","1","0","0","1","0.388860000064596","0.429872300010175","0.434454599861056","1","1","1","1","1","1","1","1","1"
"260004","img/object_images/chess_piece02.jpg","img/object_images/bottle01.jpg","img/object_images/microscope01.jpg","1","1","1","1","0","0","0.434454599861056","0.388860000064596","0.404609500197694","1","1","1","1","1","1","1","1","1"
"260004","img/object_images/microscope01.jpg","img/object_images/chess_piece02.jpg","img/object_images/tennis_racket02.jpg","1","1","1","0","1","1","0.404609500197694","0.434454599861056","0.4656630998943","1","1","1","1","1","1","1","1","1"
"260004","img/object_images/tennis_racket02.jpg","img/object_images/microscope01.jpg","img/object_images/chair05.jpg","1","1","1","1","0","0","0.4656630998943","0.404609500197694","0.553617599885911","1","1","1","1","1","1","1","1","1"
"260004","img/object_images/chair05.jpg","img/object_images/tennis_racket02.jpg","img/object_images/Thermometer01.jpg","1","1","1","0","1","0","0.553617599885911","0.4656630998943","0.623601800063625","1","1","1","1","1","1","1","1","1"
"260004","img/object_images/Thermometer01.jpg","img/object_images/chair05.jpg","img/object_images/clip03.jpg","1","1","0","0","0","0","0.623601800063625","0.553617599885911","0.662498799851164","1","1","1","1","1","1","1","1","1"
"260004","img/object_images/clip03.jpg","img/object_images/Thermometer01.jpg","img/object_images/clock02.jpg","0","1","1","0","0","0","0.662498799851164","0.623601800063625","0.74205209990032","1","1","1","1","1","1","1","1","1"
"260004","img/object_images/clock02.jpg","img/object_images/clip03.jpg","img/object_images/bell02.jpg","1","0","1","0","0","0","0.74205209990032","0.662498799851164","0.63108229986392","1","1","1","1","1","1","1","1","1"
"260004","img/object_images/bell02.jpg","img/object_images/clock02.jpg","img/object_images/cellphone01.jpg","1","1","1","0","0","1","0.63108229986392","0.74205209990032","0.479776300024241","1","1","1","1","1","1","1","1","1"
"260004","img/object_images/cellphone01.jpg","img/object_images/bell02.jpg","img/object_images/book03.jpg","1","1","1","1","0","1","0.479776300024241","0.63108229986392","0.606844099937007","1","1","1","1","1","1","1","1","1"
"260004","img/object_images/book03.jpg","img/object_images/cellphone01.jpg","img/object_images/pitcher01.jpg","1","1","1","1","1","0","0.606844099937007","0.479776300024241","0.600539700128138","1","1","1","1","1","1","1","1","1"
"260004","img/object_images/pitcher01.jpg","img/object_images/book03.jpg","img/object_images/floppy_disk02.jpg","1","1","1","0","1","0","0.600539700128138","0.606844099937007","0.537084999959916","1","1","1","1","1","1","1","1","1"
"260004","img/object_images/floppy_disk02.jpg","img/object_images/pitcher01.jpg","img/object_images/hammer03.jpg","1","1","1","0","0","1","0.537084999959916","0.600539700128138","0.471538800047711","1","1","1","1","1","1","1","1","1"
"260004","img/object_images/hammer03.jpg","img/object_images/floppy_disk02.jpg","img/object_images/retainer01.jpg","1","1","1","1","0","0","0.471538800047711","0.537084999959916","0.506568199954927","1","1","1","1","1","1","1","1","1"
"260004","img/object_images/retainer01.jpg","img/object_images/hammer03.jpg","img/object_images/wire02.jpg","1","1","1","0","1","1","0.506568199954927","0.471538800047711","0.453557999804616","1","1","1","1","1","1","1","1","1"
"260004","img/object_images/wire02.jpg","img/object_images/retainer01.jpg","img/object_images/knit05.jpg","1","1","1","1","0","1","0.453557999804616","0.506568199954927","0.589632699964568","1","1","1","1","1","1","1","1","1"
"260004","img/object_images/knit05.jpg","img/object_images/wire02.jpg",NA,"1","1",NA,"1","1",NA,"0.589632699964568","0.453557999804616",NA,"1","1",NA,"1","1",NA,"1","1",NA
"260004","img/object_images/bow01.jpg",NA,"img/object_images/video_game07.jpg","1",NA,"1","1",NA,"1","0.540222599869594",NA,"0.460573400137946","1",NA,"1","1",NA,"1","1",NA,"1"
"260004","img/object_images/video_game07.jpg","img/object_images/bow01.jpg","img/object_images/Ring02.jpg","1","1","0","1","1","0","0.460573400137946","0.540222599869594","0.4122497998178","1","1","1","1","1","1","1","1","1"
"260004","img/object_images/Ring02.jpg","img/object_images/video_game07.jpg","img/object_images/tool02.jpg","0","1","1","0","1","1","0.4122497998178","0.460573400137946","0.409129600040615","1","1","1","1","1","1","1","1","1"
"260004","img/object_images/tool02.jpg","img/object_images/Ring02.jpg","img/object_images/ornament01.jpg","1","0","1","1","0","1","0.409129600040615","0.4122497998178","0.405486800009385","1","1","1","1","1","1","1","1","1"
"260004","img/object_images/ornament01.jpg","img/object_images/tool02.jpg","img/object_images/jewel04.jpg","1","1","1","1","1","0","0.405486800009385","0.409129600040615","0.531727500027046","1","1","1","1","1","1","1","1","1"
"260004","img/object_images/jewel04.jpg","img/object_images/ornament01.jpg","img/object_images/crown02.jpg","1","1","1","0","1","1","0.531727500027046","0.405486800009385","0.38580959988758","1","1","1","1","1","1","1","1","1"
"260004","img/object_images/crown02.jpg","img/object_images/jewel04.jpg","img/object_images/judge_gavel01.jpg","1","1","1","1","0","1","0.38580959988758","0.531727500027046","0.497780699981376","1","1","1","1","1","1","1","1","1"
"260004","img/object_images/judge_gavel01.jpg","img/object_images/crown02.jpg","img/object_images/outlet01.jpg","1","1","1","1","1","0","0.497780699981376","0.38580959988758","0.623782800044864","1","1","1","1","1","1","1","1","1"
"260004","img/object_images/outlet01.jpg","img/object_images/judge_gavel01.jpg","img/object_images/stapler.jpg","1","1","1","0","1","1","0.623782800044864","0.497780699981376","0.551419200142846","1","1","1","1","1","1","1","1","1"
"260004","img/object_images/stapler.jpg","img/object_images/outlet01.jpg","img/object_images/mirror01.jpg","1","1","1","1","0","1","0.551419200142846","0.623782800044864","0.538996000075713","1","1","1","1","1","1","1","1","1"
"260004","img/object_images/mirror01.jpg","img/object_images/stapler.jpg","img/object_images/shovel03.jpg","1","1","1","1","1","1","0.538996000075713","0.551419200142846","0.473548399982974","1","1","1","1","1","1","1","1","1"
"260004","img/object_images/shovel03.jpg","img/object_images/mirror01.jpg","img/object_images/Tin01.jpg","1","1","1","1","1","1","0.473548399982974","0.538996000075713","0.432266699848697","1","1","1","1","1","1","1","1","1"
"260004","img/object_images/Tin01.jpg","img/object_images/shovel03.jpg","img/object_images/bird_house02.jpg","1","1","1","1","1","1","0.432266699848697","0.473548399982974","0.416536400094628","1","1","1","1","1","1","1","1","1"
"260004","img/object_images/bird_house02.jpg","img/object_images/Tin01.jpg","img/object_images/toy04.jpg","1","1","1","1","1","0","0.416536400094628","0.432266699848697","0.468575599836186","1","1","1","1","1","1","1","1","1"
"260004","img/object_images/toy04.jpg","img/object_images/bird_house02.jpg","img/object_images/bottle05.jpg","1","1","1","0","1","0","0.468575599836186","0.416536400094628","0.564669100102037","1","1","1","1","1","1","1","1","1"
"260004","img/object_images/bottle05.jpg","img/object_images/toy04.jpg","img/object_images/fridge03.jpg","1","1","1","0","0","0","0.564669100102037","0.468575599836186","0.653422100003809","1","1","1","1","1","1","1","1","1"
"260004","img/object_images/fridge03.jpg","img/object_images/bottle05.jpg","img/object_images/towel02.jpg","1","1","1","0","0","1","0.653422100003809","0.564669100102037","0.408725500106812","1","1","1","1","1","1","1","1","1"
"260004","img/object_images/towel02.jpg","img/object_images/fridge03.jpg","img/object_images/MetalWire01.jpg","1","1","1","1","0","0","0.408725500106812","0.653422100003809","0.66002790001221","1","1","1","1","1","1","1","1","1"
"260004","img/object_images/MetalWire01.jpg","img/object_images/towel02.jpg","img/object_images/pot01 (1).jpg","1","1","1","0","1","0","0.66002790001221","0.408725500106812","0.489465699996799","1","1","1","1","1","1","1","1","1"
"260004","img/object_images/pot01 (1).jpg","img/object_images/MetalWire01.jpg","img/object_images/helmet01.jpg","1","1","1","0","0","0","0.489465699996799","0.66002790001221","0.64588399999775","1","1","1","1","1","1","1","1","1"
"260004","img/object_images/helmet01.jpg","img/object_images/pot01 (1).jpg","img/object_images/Stool01.jpg","1","1","1","0","0","0","0.64588399999775","0.489465699996799","0.569331399863586","1","1","1","1","1","1","1","1","1"
"260004","img/object_images/Stool01.jpg","img/object_images/helmet01.jpg","img/object_images/sink01.jpg","1","1","1","0","0","0","0.569331399863586","0.64588399999775","0.990045599872246","1","1","1","1","1","1","1","1","1"
"260004","img/object_images/sink01.jpg","img/object_images/Stool01.jpg","img/object_images/guitar02.jpg","1","1","1","0","0","0","0.990045599872246","0.569331399863586","0.637225200189278","1","1","1","1","1","1","1","1","1"
"260004","img/object_images/guitar02.jpg","img/object_images/sink01.jpg","img/object_images/dart01.jpg","1","1","1","0","0","0","0.637225200189278","0.990045599872246","0.485642399871722","1","1","1","1","1","1","1","1","1"
"260004","img/object_images/dart01.jpg","img/object_images/guitar02.jpg","img/object_images/frisbee01.jpg","1","1","1","0","0","1","0.485642399871722","0.637225200189278","0.579814199823886","1","1","1","1","1","1","1","1","1"
"260004","img/object_images/frisbee01.jpg","img/object_images/dart01.jpg","img/object_images/gauze01.jpg","1","1","1","1","0","0","0.579814199823886","0.485642399871722","0.518697600113228","1","1","1","1","1","1","1","1","1"
"260004","img/object_images/gauze01.jpg","img/object_images/frisbee01.jpg","img/object_images/acoustic_capo01.jpg","1","1","1","0","1","1","0.518697600113228","0.579814199823886","0.555628499947488","1","1","1","1","1","1","1","1","1"
"260004","img/object_images/acoustic_capo01.jpg","img/object_images/gauze01.jpg","img/object_images/toy03.jpg","1","1","1","1","0","1","0.555628499947488","0.518697600113228","0.764487299835309","1","1","1","1","1","1","1","1","1"
"260004","img/object_images/toy03.jpg","img/object_images/acoustic_capo01.jpg","img/object_images/tool09.jpg","1","1","1","1","1","1","0.764487299835309","0.555628499947488","0.444119499996305","1","1","1","1","1","1","1","1","1"
"260004","img/object_images/tool09.jpg","img/object_images/toy03.jpg","img/object_images/Vacuum01.jpg","1","1","1","1","1","0","0.444119499996305","0.764487299835309","0.498128199949861","1","1","1","1","1","1","1","1","1"
"260004","img/object_images/Vacuum01.jpg","img/object_images/tool09.jpg","img/object_images/watch01.jpg","1","1","0","0","1","0","0.498128199949861","0.444119499996305","0.737424399936572","1","1","1","1","1","1","1","1","1"
"260004","img/object_images/watch01.jpg","img/object_images/Vacuum01.jpg",NA,"0","1",NA,"0","0",NA,"0.737424399936572","0.498128199949861",NA,"1","1",NA,"1","1",NA,"1","1",NA
"260004","img/object_images/board01.jpg",NA,"img/object_images/floss01.jpg","1",NA,"1","1",NA,"1","0.564879299839959",NA,"0.442416799953207","1",NA,"1","1",NA,"1","1",NA,"1"
"260004","img/object_images/floss01.jpg","img/object_images/board01.jpg","img/object_images/duster01.jpg","1","1","1","1","1","0","0.442416799953207","0.564879299839959","0.510626100003719","1","1","1","1","1","1","1","1","1"
"260004","img/object_images/duster01.jpg","img/object_images/floss01.jpg","img/object_images/knife01.jpg","1","1","1","0","1","1","0.510626100003719","0.442416799953207","0.452697200002149","1","1","1","1","1","1","1","1","1"
"260004","img/object_images/knife01.jpg","img/object_images/duster01.jpg","img/object_images/tool13.jpg","1","1","1","1","0","1","0.452697200002149","0.510626100003719","0.499455599812791","1","1","1","1","1","1","1","1","1"
"260004","img/object_images/tool13.jpg","img/object_images/knife01.jpg","img/object_images/Candle_Holder01.jpg","1","1","1","1","1","0","0.499455599812791","0.452697200002149","0.598299599951133","1","1","1","1","1","1","1","1","1"
"260004","img/object_images/Candle_Holder01.jpg","img/object_images/tool13.jpg","img/object_images/spray_can01.jpg","1","1","1","0","1","0","0.598299599951133","0.499455599812791","0.540301400003955","1","1","1","1","1","1","1","1","1"
"260004","img/object_images/spray_can01.jpg","img/object_images/Candle_Holder01.jpg","img/object_images/socks01.jpg","1","1","1","0","0","1","0.540301400003955","0.598299599951133","0.406174300005659","1","1","1","1","1","1","1","1","1"
"260004","img/object_images/socks01.jpg","img/object_images/spray_can01.jpg","img/object_images/tool20.jpg","1","1","1","1","0","0","0.406174300005659","0.540301400003955","0.6669929001946","1","1","1","1","1","1","1","1","1"
"260004","img/object_images/tool20.jpg","img/object_images/socks01.jpg","img/object_images/pen06.jpg","1","1","1","0","1","0","0.6669929001946","0.406174300005659","0.444845200050622","1","1","1","1","1","1","1","1","1"
"260004","img/object_images/pen06.jpg","img/object_images/tool20.jpg","img/object_images/candle02.jpg","1","1","1","0","0","0","0.444845200050622","0.6669929001946","0.475669699953869","1","1","1","1","1","1","1","1","1"
"260004","img/object_images/candle02.jpg","img/object_images/pen06.jpg","img/object_images/perfume01.jpg","1","1","1","0","0","0","0.475669699953869","0.444845200050622","0.452916700160131","1","1","1","1","1","1","1","1","1"
"260004","img/object_images/perfume01.jpg","img/object_images/candle02.jpg","img/object_images/hat09.jpg","1","1","1","0","0","0","0.452916700160131","0.475669699953869","0.611697999993339","1","1","1","1","1","1","1","1","1"
"260004","img/object_images/hat09.jpg","img/object_images/perfume01.jpg","img/object_images/clipboard01.jpg","1","1","1","0","0","1","0.611697999993339","0.452916700160131","0.461369100026786","1","1","1","1","1","1","1","1","1"
"260004","img/object_images/clipboard01.jpg","img/object_images/hat09.jpg","img/object_images/hat13.jpg","1","1","1","1","0","1","0.461369100026786","0.611697999993339","0.408852800028399","1","1","1","1","1","1","1","1","1"
"260004","img/object_images/hat13.jpg","img/object_images/clipboard01.jpg","img/object_images/office_supplies01.jpg","1","1","1","1","1","1","0.408852800028399","0.461369100026786","0.413125999970362","1","1","1","1","1","1","1","1","1"
"260004","img/object_images/office_supplies01.jpg","img/object_images/hat13.jpg","img/object_images/bow_tie03.jpg","1","1","1","1","1","1","0.413125999970362","0.408852800028399","0.41164269996807","1","1","1","1","1","1","1","1","1"
"260004","img/object_images/bow_tie03.jpg","img/object_images/office_supplies01.jpg","img/object_images/razor02.jpg","1","1","1","1","1","1","0.41164269996807","0.413125999970362","0.500875599915162","1","1","1","1","1","1","1","1","1"
"260004","img/object_images/razor02.jpg","img/object_images/bow_tie03.jpg","img/object_images/bag04.jpg","1","1","1","1","1","0","0.500875599915162","0.41164269996807","0.564390499843284","1","1","1","1","1","1","1","1","1"
"260004","img/object_images/bag04.jpg","img/object_images/razor02.jpg","img/object_images/pan03.jpg","1","1","1","0","1","1","0.564390499843284","0.500875599915162","0.525378099875525","1","1","1","1","1","1","1","1","1"
"260004","img/object_images/pan03.jpg","img/object_images/bag04.jpg","img/object_images/ruler02.jpg","1","1","1","1","0","1","0.525378099875525","0.564390499843284","0.609017299953848","1","1","1","1","1","1","1","1","1"
"260004","img/object_images/ruler02.jpg","img/object_images/pan03.jpg","img/object_images/sink_filter01 (1).jpg","1","1","1","1","1","0","0.609017299953848","0.525378099875525","0.477773200022057","1","1","1","1","1","1","1","1","1"
"260004","img/object_images/sink_filter01 (1).jpg","img/object_images/ruler02.jpg","img/object_images/cup01.jpg","1","1","1","0","1","0","0.477773200022057","0.609017299953848","0.514477199874818","1","1","1","1","1","1","1","1","1"
"260004","img/object_images/cup01.jpg","img/object_images/sink_filter01 (1).jpg","img/object_images/dust_pan01.jpg","1","1","1","0","0","1","0.514477199874818","0.477773200022057","0.447895700111985","1","1","1","1","1","1","1","1","1"
"260004","img/object_images/dust_pan01.jpg","img/object_images/cup01.jpg","img/object_images/vase02.jpg","1","1","1","1","0","1","0.447895700111985","0.514477199874818","0.454282999970019","1","1","1","1","1","1","1","1","1"
"260004","img/object_images/vase02.jpg","img/object_images/dust_pan01.jpg","img/object_images/Confetti 01.jpg","1","1","1","1","1","0","0.454282999970019","0.447895700111985","0.671620900044218","1","1","1","1","1","1","1","1","1"
"260004","img/object_images/Confetti 01.jpg","img/object_images/vase02.jpg","img/object_images/camera05.jpg","1","1","1","0","1","0","0.671620900044218","0.454282999970019","0.488824100000784","1","1","1","1","1","1","1","1","1"
"260004","img/object_images/camera05.jpg","img/object_images/Confetti 01.jpg","img/object_images/sign02.jpg","1","1","1","0","0","0","0.488824100000784","0.671620900044218","0.489553200080991","1","1","1","1","1","1","1","1","1"
"260004","img/object_images/sign02.jpg","img/object_images/camera05.jpg","img/object_images/hammer02.jpg","1","1","0","0","0","0","0.489553200080991","0.488824100000784","0.818869800074026","1","1","1","1","1","1","1","1","1"
"260004","img/object_images/hammer02.jpg","img/object_images/sign02.jpg","img/object_images/glasses03.jpg","0","1","1","0","0","0","0.818869800074026","0.489553200080991","0.668367999838665","1","1","1","1","1","1","1","1","1"
"260004","img/object_images/glasses03.jpg","img/object_images/hammer02.jpg","img/object_images/lemon_squeezer01.jpg","1","0","1","0","0","1","0.668367999838665","0.818869800074026","0.423739599995315","1","1","1","1","1","1","1","1","1"
"260004","img/object_images/lemon_squeezer01.jpg","img/object_images/glasses03.jpg","img/object_images/video_game02.jpg","1","1","1","1","0","1","0.423739599995315","0.668367999838665","0.456944999983534","1","1","1","1","1","1","1","1","1"
"260004","img/object_images/video_game02.jpg","img/object_images/lemon_squeezer01.jpg",NA,"1","1",NA,"1","1",NA,"0.456944999983534","0.423739599995315",NA,"1","1",NA,"1","1",NA,"1","1",NA
