"participant_id","current_trial_object","pre_trial_object","post_trial_object","current_trial_accuracy","pre_trial_accuracy","post_trial_accuracy","current_trial_congruency","pre_trial_congruency","post_trial_congruency","current_trial_rt","pre_trial_rt","post_trial_rt","current_trial_responded","pre_trial_responded","post_trial_responded","current_trial_legitResponse","pre_trial_legitResponse","post_trial_legitResponse","current_trial_resp_nums","pre_trial_resp_nums","post_trial_resp_nums"
"260051","img/object_images/clip03.jpg",NA,"img/object_images/floppy_disk02.jpg","1",NA,"0","0",NA,"0","0.730153500000597",NA,"1.29158029999235","1",NA,"1","1",NA,"1","1",NA,"1"
"260051","img/object_images/floppy_disk02.jpg","img/object_images/clip03.jpg","img/object_images/bell02.jpg","0","1","1","0","0","0","1.29158029999235","0.730153500000597","0.4216296000086","1","1","1","1","1","1","1","1","1"
"260051","img/object_images/bell02.jpg","img/object_images/floppy_disk02.jpg","img/object_images/clock02.jpg","1","0","1","0","0","0","0.4216296000086","1.29158029999235","0.450150300006499","1","1","1","1","1","1","1","1","1"
"260051","img/object_images/clock02.jpg","img/object_images/bell02.jpg","img/object_images/hammer03.jpg","1","1","1","0","0","1","0.450150300006499","0.4216296000086","0.53774689999409","1","1","1","1","1","1","1","1","1"
"260051","img/object_images/hammer03.jpg","img/object_images/clock02.jpg","img/object_images/Oven01.jpg","1","1","1","1","0","1","0.53774689999409","0.450150300006499","0.628317900002003","1","1","1","1","1","1","1","1","1"
"260051","img/object_images/Oven01.jpg","img/object_images/hammer03.jpg","img/object_images/tennis_racket02.jpg","1","1","1","1","1","1","0.628317900002003","0.53774689999409","0.514018600006239","1","1","1","1","1","1","1","1","1"
"260051","img/object_images/tennis_racket02.jpg","img/object_images/Oven01.jpg","img/object_images/wire02.jpg","1","1","1","1","1","1","0.514018600006239","0.628317900002003","0.347318300002371","1","1","1","1","1","1","1","1","1"
"260051","img/object_images/wire02.jpg","img/object_images/tennis_racket02.jpg","img/object_images/chair05.jpg","1","1","1","1","1","0","0.347318300002371","0.514018600006239","0.502813400002196","1","1","1","1","1","1","1","1","1"
"260051","img/object_images/chair05.jpg","img/object_images/wire02.jpg","img/object_images/motorcycle01.jpg","1","1","1","0","1","1","0.502813400002196","0.347318300002371","0.40099029999692","1","1","1","1","1","1","1","1","1"
"260051","img/object_images/motorcycle01.jpg","img/object_images/chair05.jpg","img/object_images/ear_bud01.jpg","1","1","1","1","0","1","0.40099029999692","0.502813400002196","0.404586300006486","1","1","1","1","1","1","1","1","1"
"260051","img/object_images/ear_bud01.jpg","img/object_images/motorcycle01.jpg","img/object_images/crutches02.jpg","1","1","1","1","1","0","0.404586300006486","0.40099029999692","0.424210700002732","1","1","1","1","1","1","1","1","1"
"260051","img/object_images/crutches02.jpg","img/object_images/ear_bud01.jpg","img/object_images/Thermometer01.jpg","1","1","0","0","1","0","0.424210700002732","0.404586300006486","0.482406900002388","1","1","1","1","1","1","1","1","1"
"260051","img/object_images/Thermometer01.jpg","img/object_images/crutches02.jpg","img/object_images/pillows01.jpg","0","1","1","0","0","1","0.482406900002388","0.424210700002732","0.7208091999928","1","1","1","1","1","1","1","1","1"
"260051","img/object_images/pillows01.jpg","img/object_images/Thermometer01.jpg","img/object_images/compass01.jpg","1","0","1","1","0","1","0.7208091999928","0.482406900002388","0.514366799994605","1","1","1","1","1","1","1","1","1"
"260051","img/object_images/compass01.jpg","img/object_images/pillows01.jpg","img/object_images/bottle01.jpg","1","1","1","1","1","0","0.514366799994605","0.7208091999928","0.538043399996241","1","1","1","1","1","1","1","1","1"
"260051","img/object_images/bottle01.jpg","img/object_images/compass01.jpg","img/object_images/microscope01.jpg","1","1","1","0","1","0","0.538043399996241","0.514366799994605","0.438044499998796","1","1","1","1","1","1","1","1","1"
"260051","img/object_images/microscope01.jpg","img/object_images/bottle01.jpg","img/object_images/chess_piece02.jpg","1","1","1","0","0","1","0.438044499998796","0.538043399996241","0.384186199997202","1","1","1","1","1","1","1","1","1"
"260051","img/object_images/chess_piece02.jpg","img/object_images/microscope01.jpg","img/object_images/note_book01.jpg","1","1","1","1","0","0","0.384186199997202","0.438044499998796","0.412584200006677","1","1","1","1","1","1","1","1","1"
"260051","img/object_images/note_book01.jpg","img/object_images/chess_piece02.jpg","img/object_images/pen03.jpg","1","1","1","0","1","0","0.412584200006677","0.384186199997202","0.476449900001171","1","1","1","1","1","1","1","1","1"
"260051","img/object_images/pen03.jpg","img/object_images/note_book01.jpg","img/object_images/usb02.jpg","1","1","1","0","0","0","0.476449900001171","0.412584200006677","0.488612799992552","1","1","1","1","1","1","1","1","1"
"260051","img/object_images/usb02.jpg","img/object_images/pen03.jpg","img/object_images/cellphone01.jpg","1","1","1","0","0","1","0.488612799992552","0.476449900001171","0.503262700003688","1","1","1","1","1","1","1","1","1"
"260051","img/object_images/cellphone01.jpg","img/object_images/usb02.jpg","img/object_images/knife04.jpg","1","1","1","1","0","1","0.503262700003688","0.488612799992552","0.448773199997959","1","1","1","1","1","1","1","1","1"
"260051","img/object_images/knife04.jpg","img/object_images/cellphone01.jpg","img/object_images/pitcher01.jpg","1","1","1","1","1","0","0.448773199997959","0.503262700003688","0.581464800008689","1","1","1","1","1","1","1","1","1"
"260051","img/object_images/pitcher01.jpg","img/object_images/knife04.jpg","img/object_images/lid01.jpg","1","1","1","0","1","1","0.581464800008689","0.448773199997959","0.44111499999417","1","1","1","1","1","1","1","1","1"
"260051","img/object_images/lid01.jpg","img/object_images/pitcher01.jpg","img/object_images/book03.jpg","1","1","1","1","0","1","0.44111499999417","0.581464800008689","0.459569099999499","1","1","1","1","1","1","1","1","1"
"260051","img/object_images/book03.jpg","img/object_images/lid01.jpg","img/object_images/knit05.jpg","1","1","1","1","1","1","0.459569099999499","0.44111499999417","0.530998400005046","1","1","1","1","1","1","1","1","1"
"260051","img/object_images/knit05.jpg","img/object_images/book03.jpg","img/object_images/floppy_disk03.jpg","1","1","1","1","1","1","0.530998400005046","0.459569099999499","0.455777899987879","1","1","1","1","1","1","1","1","1"
"260051","img/object_images/floppy_disk03.jpg","img/object_images/knit05.jpg","img/object_images/tv02.jpg","1","1","1","1","1","0","0.455777899987879","0.530998400005046","0.550365999995847","1","1","1","1","1","1","1","1","1"
"260051","img/object_images/tv02.jpg","img/object_images/floppy_disk03.jpg","img/object_images/Staples01.jpg","1","1","1","0","1","1","0.550365999995847","0.455777899987879","0.401112400009879","1","1","1","1","1","1","1","1","1"
"260051","img/object_images/Staples01.jpg","img/object_images/tv02.jpg","img/object_images/retainer01.jpg","1","1","1","1","0","0","0.401112400009879","0.550365999995847","1.32992360000208","1","1","1","1","1","1","1","1","1"
"260051","img/object_images/retainer01.jpg","img/object_images/Staples01.jpg","img/object_images/paint_brush04.jpg","1","1","1","0","1","0","1.32992360000208","0.401112400009879","0.473267800000031","1","1","1","1","1","1","1","1","1"
"260051","img/object_images/paint_brush04.jpg","img/object_images/retainer01.jpg",NA,"1","1",NA,"0","0",NA,"0.473267800000031","1.32992360000208",NA,"1","1",NA,"1","1",NA,"1","1",NA
"260051","img/object_images/candle02.jpg",NA,"img/object_images/sign02.jpg","1",NA,"1","0",NA,"0","0.540625499997986",NA,"0.544375099998433","1",NA,"1","1",NA,"1","1",NA,"1"
"260051","img/object_images/sign02.jpg","img/object_images/candle02.jpg","img/object_images/razor02.jpg","1","1","1","0","0","1","0.544375099998433","0.540625499997986","0.481618900012108","1","1","1","1","1","1","1","1","1"
"260051","img/object_images/razor02.jpg","img/object_images/sign02.jpg","img/object_images/pan03.jpg","1","1","1","1","0","1","0.481618900012108","0.544375099998433","0.665186500002164","1","1","1","1","1","1","1","1","1"
"260051","img/object_images/pan03.jpg","img/object_images/razor02.jpg","img/object_images/spray_can01.jpg","1","1","1","1","1","0","0.665186500002164","0.481618900012108","0.785065999996732","1","1","1","1","1","1","1","1","1"
"260051","img/object_images/spray_can01.jpg","img/object_images/pan03.jpg","img/object_images/office_supplies01.jpg","1","1","1","0","1","1","0.785065999996732","0.665186500002164","0.404747199994745","1","1","1","1","1","1","1","1","1"
"260051","img/object_images/office_supplies01.jpg","img/object_images/spray_can01.jpg","img/object_images/tool13.jpg","1","1","1","1","0","1","0.404747199994745","0.785065999996732","0.391549299994949","1","1","1","1","1","1","1","1","1"
"260051","img/object_images/tool13.jpg","img/object_images/office_supplies01.jpg","img/object_images/clipboard01.jpg","1","1","1","1","1","1","0.391549299994949","0.404747199994745","0.393002299999352","1","1","1","1","1","1","1","1","1"
"260051","img/object_images/clipboard01.jpg","img/object_images/tool13.jpg","img/object_images/bow_tie03.jpg","1","1","1","1","1","1","0.393002299999352","0.391549299994949","0.444650000004913","1","1","1","1","1","1","1","1","1"
"260051","img/object_images/bow_tie03.jpg","img/object_images/clipboard01.jpg","img/object_images/hammer02.jpg","1","1","1","1","1","0","0.444650000004913","0.393002299999352","0.543533200005186","1","1","1","1","1","1","1","1","1"
"260051","img/object_images/hammer02.jpg","img/object_images/bow_tie03.jpg","img/object_images/video_game02.jpg","1","1","1","0","1","1","0.543533200005186","0.444650000004913","0.64452520001214","1","1","1","1","1","1","1","1","1"
"260051","img/object_images/video_game02.jpg","img/object_images/hammer02.jpg","img/object_images/glasses03.jpg","1","1","1","1","0","0","0.64452520001214","0.543533200005186","0.591495799992117","1","1","1","1","1","1","1","1","1"
"260051","img/object_images/glasses03.jpg","img/object_images/video_game02.jpg","img/object_images/tool20.jpg","1","1","1","0","1","0","0.591495799992117","0.64452520001214","0.479585599998245","1","1","1","1","1","1","1","1","1"
"260051","img/object_images/tool20.jpg","img/object_images/glasses03.jpg","img/object_images/perfume01.jpg","1","1","1","0","0","0","0.479585599998245","0.591495799992117","0.576367999994545","1","1","1","1","1","1","1","1","1"
"260051","img/object_images/perfume01.jpg","img/object_images/tool20.jpg","img/object_images/cup01.jpg","1","1","1","0","0","0","0.576367999994545","0.479585599998245","0.46546569999191","1","1","1","1","1","1","1","1","1"
"260051","img/object_images/cup01.jpg","img/object_images/perfume01.jpg","img/object_images/bag04.jpg","1","1","0","0","0","0","0.46546569999191","0.576367999994545","0.482901400013361","1","1","1","1","1","1","1","1","1"
"260051","img/object_images/bag04.jpg","img/object_images/cup01.jpg","img/object_images/duster01.jpg","0","1","1","0","0","0","0.482901400013361","0.46546569999191","0.482391099998495","1","1","1","1","1","1","1","1","1"
"260051","img/object_images/duster01.jpg","img/object_images/bag04.jpg","img/object_images/dust_pan01.jpg","1","0","1","0","0","1","0.482391099998495","0.482901400013361","0.49854279999272","1","1","1","1","1","1","1","1","1"
"260051","img/object_images/dust_pan01.jpg","img/object_images/duster01.jpg","img/object_images/vase02.jpg","1","1","1","1","0","1","0.49854279999272","0.482391099998495","0.397228600006201","1","1","1","1","1","1","1","1","1"
"260051","img/object_images/vase02.jpg","img/object_images/dust_pan01.jpg","img/object_images/Confetti 01.jpg","1","1","1","1","1","0","0.397228600006201","0.49854279999272","0.524458800005959","1","1","1","1","1","1","1","1","1"
"260051","img/object_images/Confetti 01.jpg","img/object_images/vase02.jpg","img/object_images/hat13.jpg","1","1","1","0","1","1","0.524458800005959","0.397228600006201","0.442463800005498","1","1","1","1","1","1","1","1","1"
"260051","img/object_images/hat13.jpg","img/object_images/Confetti 01.jpg","img/object_images/lemon_squeezer01.jpg","1","1","1","1","0","1","0.442463800005498","0.524458800005959","0.373131200001808","1","1","1","1","1","1","1","1","1"
"260051","img/object_images/lemon_squeezer01.jpg","img/object_images/hat13.jpg","img/object_images/pen06.jpg","1","1","1","1","1","0","0.373131200001808","0.442463800005498","0.409920399994007","1","1","1","1","1","1","1","1","1"
"260051","img/object_images/pen06.jpg","img/object_images/lemon_squeezer01.jpg","img/object_images/knife01.jpg","1","1","1","0","1","1","0.409920399994007","0.373131200001808","0.378083599993261","1","1","1","1","1","1","1","1","1"
"260051","img/object_images/knife01.jpg","img/object_images/pen06.jpg","img/object_images/Candle_Holder01.jpg","1","1","0","1","0","0","0.378083599993261","0.409920399994007","0.425586400000611","1","1","1","1","1","1","1","1","1"
"260051","img/object_images/Candle_Holder01.jpg","img/object_images/knife01.jpg","img/object_images/hat09.jpg","0","1","1","0","1","0","0.425586400000611","0.378083599993261","0.485712200010312","1","1","1","1","1","1","1","1","1"
"260051","img/object_images/hat09.jpg","img/object_images/Candle_Holder01.jpg","img/object_images/socks01.jpg","1","0","1","0","0","1","0.485712200010312","0.425586400000611","0.386947499995586","1","1","1","1","1","1","1","1","1"
"260051","img/object_images/socks01.jpg","img/object_images/hat09.jpg","img/object_images/sink_filter01 (1).jpg","1","1","1","1","0","0","0.386947499995586","0.485712200010312","0.602231900003972","1","1","1","1","1","1","1","1","1"
"260051","img/object_images/sink_filter01 (1).jpg","img/object_images/socks01.jpg","img/object_images/floss01.jpg","1","1","1","0","1","1","0.602231900003972","0.386947499995586","0.332425100001274","1","1","1","1","1","1","1","1","1"
"260051","img/object_images/floss01.jpg","img/object_images/sink_filter01 (1).jpg","img/object_images/ruler02.jpg","1","1","1","1","0","1","0.332425100001274","0.602231900003972","0.419512499996927","1","1","1","1","1","1","1","1","1"
"260051","img/object_images/ruler02.jpg","img/object_images/floss01.jpg","img/object_images/camera05.jpg","1","1","1","1","1","0","0.419512499996927","0.332425100001274","0.757374299995718","1","1","1","1","1","1","1","1","1"
"260051","img/object_images/camera05.jpg","img/object_images/ruler02.jpg","img/object_images/board01.jpg","1","1","1","0","1","1","0.757374299995718","0.419512499996927","0.45826610000222","1","1","1","1","1","1","1","1","1"
"260051","img/object_images/board01.jpg","img/object_images/camera05.jpg",NA,"1","1",NA,"1","0",NA,"0.45826610000222","0.757374299995718",NA,"1","1",NA,"1","1",NA,"1","1",NA
"260051","img/object_images/lamp01.jpg",NA,"img/object_images/brief_case02.jpg","1",NA,"1","1",NA,"1","0.431788400004734",NA,"0.445893200012506","1",NA,"1","1",NA,"1","1",NA,"1"
"260051","img/object_images/brief_case02.jpg","img/object_images/lamp01.jpg","img/object_images/Recycling01.jpg","1","1","1","1","1","1","0.445893200012506","0.431788400004734","0.416529699999955","1","1","1","1","1","1","1","1","1"
"260051","img/object_images/Recycling01.jpg","img/object_images/brief_case02.jpg","img/object_images/helmet05.jpg","1","1","1","1","1","1","0.416529699999955","0.445893200012506","0.414293199995882","1","1","1","1","1","1","1","1","1"
"260051","img/object_images/helmet05.jpg","img/object_images/Recycling01.jpg","img/object_images/airfryer01.jpg","1","1","1","1","1","0","0.414293199995882","0.416529699999955","0.60671320000256","1","1","1","1","1","1","1","1","1"
"260051","img/object_images/airfryer01.jpg","img/object_images/helmet05.jpg","img/object_images/hat02.jpg","1","1","1","0","1","0","0.60671320000256","0.414293199995882","0.572888300011982","1","1","1","1","1","1","1","1","1"
"260051","img/object_images/hat02.jpg","img/object_images/airfryer01.jpg","img/object_images/pitcher03.jpg","1","1","1","0","0","1","0.572888300011982","0.60671320000256","0.481042100000195","1","1","1","1","1","1","1","1","1"
"260051","img/object_images/pitcher03.jpg","img/object_images/hat02.jpg","img/object_images/razor03.jpg","1","1","0","1","0","0","0.481042100000195","0.572888300011982","0.348231700001634","1","1","1","1","1","1","1","1","1"
"260051","img/object_images/razor03.jpg","img/object_images/pitcher03.jpg","img/object_images/tie01.jpg","0","1","1","0","1","0","0.348231700001634","0.481042100000195","0.436236699999426","1","1","1","1","1","1","1","1","1"
"260051","img/object_images/tie01.jpg","img/object_images/razor03.jpg","img/object_images/car02.jpg","1","0","0","0","0","0","0.436236699999426","0.348231700001634","0.50272849999601","1","1","1","1","1","1","1","1","1"
"260051","img/object_images/car02.jpg","img/object_images/tie01.jpg","img/object_images/video_game06.jpg","0","1","1","0","0","0","0.50272849999601","0.436236699999426","0.673348500000429","1","1","1","1","1","1","1","1","1"
"260051","img/object_images/video_game06.jpg","img/object_images/car02.jpg","img/object_images/gloves05.jpg","1","0","1","0","0","1","0.673348500000429","0.50272849999601","0.535401999994065","1","1","1","1","1","1","1","1","1"
"260051","img/object_images/gloves05.jpg","img/object_images/video_game06.jpg","img/object_images/basketball_hoop02.jpg","1","1","1","1","0","0","0.535401999994065","0.673348500000429","0.352899200006505","1","1","1","1","1","1","1","1","1"
"260051","img/object_images/basketball_hoop02.jpg","img/object_images/gloves05.jpg","img/object_images/cochlear_implant01.jpg","1","1","1","0","1","0","0.352899200006505","0.535401999994065","0.492070500011323","1","1","1","1","1","1","1","1","1"
"260051","img/object_images/cochlear_implant01.jpg","img/object_images/basketball_hoop02.jpg","img/object_images/brief_case01.jpg","1","1","1","0","0","0","0.492070500011323","0.352899200006505","0.474416700002621","1","1","1","1","1","1","1","1","1"
"260051","img/object_images/brief_case01.jpg","img/object_images/cochlear_implant01.jpg","img/object_images/pot01.jpg","1","1","0","0","0","0","0.474416700002621","0.492070500011323","0.440459599994938","1","1","1","1","1","1","1","1","1"
"260051","img/object_images/pot01.jpg","img/object_images/brief_case01.jpg","img/object_images/toy_train02.jpg","0","1","1","0","0","1","0.440459599994938","0.474416700002621","0.54733970000234","1","1","1","1","1","1","1","1","1"
"260051","img/object_images/toy_train02.jpg","img/object_images/pot01.jpg","img/object_images/Woopie01.jpg","1","0","1","1","0","1","0.54733970000234","0.440459599994938","0.387348499993095","1","1","1","1","1","1","1","1","1"
"260051","img/object_images/Woopie01.jpg","img/object_images/toy_train02.jpg","img/object_images/bottle12.jpg","1","1","1","1","1","1","0.387348499993095","0.54733970000234","0.38857779999671","1","1","1","1","1","1","1","1","1"
"260051","img/object_images/bottle12.jpg","img/object_images/Woopie01.jpg","img/object_images/decorative02.jpg","1","1","0","1","1","0","0.38857779999671","0.387348499993095","0.303261799999746","1","1","1","1","1","1","1","1","1"
"260051","img/object_images/decorative02.jpg","img/object_images/bottle12.jpg","img/object_images/guitar01.jpg","0","1","1","0","1","1","0.303261799999746","0.38857779999671","0.42979410001135","1","1","1","1","1","1","1","1","1"
"260051","img/object_images/guitar01.jpg","img/object_images/decorative02.jpg","img/object_images/chair01.jpg","1","0","1","1","0","0","0.42979410001135","0.303261799999746","0.471416000000318","1","1","1","1","1","1","1","1","1"
"260051","img/object_images/chair01.jpg","img/object_images/guitar01.jpg","img/object_images/drone02.jpg","1","1","1","0","1","0","0.471416000000318","0.42979410001135","0.511503100002301","1","1","1","1","1","1","1","1","1"
"260051","img/object_images/drone02.jpg","img/object_images/chair01.jpg","img/object_images/container01.jpg","1","1","1","0","0","0","0.511503100002301","0.471416000000318","0.50705790000211","1","1","1","1","1","1","1","1","1"
"260051","img/object_images/container01.jpg","img/object_images/drone02.jpg","img/object_images/ball01.jpg","1","1","1","0","0","1","0.50705790000211","0.511503100002301","0.474152100010542","1","1","1","1","1","1","1","1","1"
"260051","img/object_images/ball01.jpg","img/object_images/container01.jpg","img/object_images/Wisk01.jpg","1","1","1","1","0","1","0.474152100010542","0.50705790000211","0.397568100001081","1","1","1","1","1","1","1","1","1"
"260051","img/object_images/Wisk01.jpg","img/object_images/ball01.jpg","img/object_images/toilet_paper01.jpg","1","1","1","1","1","1","0.397568100001081","0.474152100010542","0.418969699996524","1","1","1","1","1","1","1","1","1"
"260051","img/object_images/toilet_paper01.jpg","img/object_images/Wisk01.jpg","img/object_images/lantern01.jpg","1","1","1","1","1","1","0.418969699996524","0.397568100001081","0.443569800001569","1","1","1","1","1","1","1","1","1"
"260051","img/object_images/lantern01.jpg","img/object_images/toilet_paper01.jpg","img/object_images/couch04.jpg","1","1","1","1","1","1","0.443569800001569","0.418969699996524","0.403445699994336","1","1","1","1","1","1","1","1","1"
"260051","img/object_images/couch04.jpg","img/object_images/lantern01.jpg","img/object_images/broom01.jpg","1","1","1","1","1","1","0.403445699994336","0.443569800001569","0.443394600006286","1","1","1","1","1","1","1","1","1"
"260051","img/object_images/broom01.jpg","img/object_images/couch04.jpg","img/object_images/soap01.jpg","1","1","1","1","1","0","0.443394600006286","0.403445699994336","0.504478500006371","1","1","1","1","1","1","1","1","1"
"260051","img/object_images/soap01.jpg","img/object_images/broom01.jpg","img/object_images/ironing_table02.jpg","1","1","1","0","1","0","0.504478500006371","0.443394600006286","0.528061300006812","1","1","1","1","1","1","1","1","1"
"260051","img/object_images/ironing_table02.jpg","img/object_images/soap01.jpg",NA,"1","1",NA,"0","0",NA,"0.528061300006812","0.504478500006371",NA,"1","1",NA,"1","1",NA,"1","1",NA
"260051","img/object_images/judge_gavel01.jpg",NA,"img/object_images/bird_house02.jpg","1",NA,"1","1",NA,"1","0.476307900011307",NA,"0.472855300002266","1",NA,"1","1",NA,"1","1",NA,"1"
"260051","img/object_images/bird_house02.jpg","img/object_images/judge_gavel01.jpg","img/object_images/towel02.jpg","1","1","1","1","1","1","0.472855300002266","0.476307900011307","0.335988000006182","1","1","1","1","1","1","1","1","1"
"260051","img/object_images/towel02.jpg","img/object_images/bird_house02.jpg","img/object_images/Ring02.jpg","1","1","1","1","1","0","0.335988000006182","0.472855300002266","0.43993789999513","1","1","1","1","1","1","1","1","1"
"260051","img/object_images/Ring02.jpg","img/object_images/towel02.jpg","img/object_images/fridge03.jpg","1","1","1","0","1","0","0.43993789999513","0.335988000006182","0.554099300003145","1","1","1","1","1","1","1","1","1"
"260051","img/object_images/fridge03.jpg","img/object_images/Ring02.jpg","img/object_images/Vacuum01.jpg","1","1","1","0","0","0","0.554099300003145","0.43993789999513","0.437717699998757","1","1","1","1","1","1","1","1","1"
"260051","img/object_images/Vacuum01.jpg","img/object_images/fridge03.jpg","img/object_images/outlet01.jpg","1","1","1","0","0","0","0.437717699998757","0.554099300003145","0.434126199994353","1","1","1","1","1","1","1","1","1"
"260051","img/object_images/outlet01.jpg","img/object_images/Vacuum01.jpg","img/object_images/video_game07.jpg","1","1","1","0","0","1","0.434126199994353","0.437717699998757","0.377373500014073","1","1","1","1","1","1","1","1","1"
"260051","img/object_images/video_game07.jpg","img/object_images/outlet01.jpg","img/object_images/watch01.jpg","1","1","1","1","0","0","0.377373500014073","0.434126199994353","0.502562800000305","1","1","1","1","1","1","1","1","1"
"260051","img/object_images/watch01.jpg","img/object_images/video_game07.jpg","img/object_images/toy04.jpg","1","1","1","0","1","0","0.502562800000305","0.377373500014073","0.512956000005943","1","1","1","1","1","1","1","1","1"
"260051","img/object_images/toy04.jpg","img/object_images/watch01.jpg","img/object_images/Stool01.jpg","1","1","1","0","0","0","0.512956000005943","0.502562800000305","0.583236300008139","1","1","1","1","1","1","1","1","1"
"260051","img/object_images/Stool01.jpg","img/object_images/toy04.jpg","img/object_images/acoustic_capo01.jpg","1","1","1","0","0","1","0.583236300008139","0.512956000005943","0.362392900002305","1","1","1","1","1","1","1","1","1"
"260051","img/object_images/acoustic_capo01.jpg","img/object_images/Stool01.jpg","img/object_images/crown02.jpg","1","1","1","1","0","1","0.362392900002305","0.583236300008139","0.372336899992661","1","1","1","1","1","1","1","1","1"
"260051","img/object_images/crown02.jpg","img/object_images/acoustic_capo01.jpg","img/object_images/mirror01.jpg","1","1","1","1","1","1","0.372336899992661","0.362392900002305","0.43682699999772","1","1","1","1","1","1","1","1","1"
"260051","img/object_images/mirror01.jpg","img/object_images/crown02.jpg","img/object_images/toy03.jpg","1","1","1","1","1","1","0.43682699999772","0.372336899992661","0.41823110000405","1","1","1","1","1","1","1","1","1"
"260051","img/object_images/toy03.jpg","img/object_images/mirror01.jpg","img/object_images/shovel03.jpg","1","1","1","1","1","1","0.41823110000405","0.43682699999772","0.412582300006761","1","1","1","1","1","1","1","1","1"
"260051","img/object_images/shovel03.jpg","img/object_images/toy03.jpg","img/object_images/tool09.jpg","1","1","1","1","1","1","0.412582300006761","0.41823110000405","0.444243000005372","1","1","1","1","1","1","1","1","1"
"260051","img/object_images/tool09.jpg","img/object_images/shovel03.jpg","img/object_images/MetalWire01.jpg","1","1","1","1","1","0","0.444243000005372","0.412582300006761","0.526390900005936","1","1","1","1","1","1","1","1","1"
"260051","img/object_images/MetalWire01.jpg","img/object_images/tool09.jpg","img/object_images/guitar02.jpg","1","1","1","0","1","0","0.526390900005936","0.444243000005372","0.398457400006009","1","1","1","1","1","1","1","1","1"
"260051","img/object_images/guitar02.jpg","img/object_images/MetalWire01.jpg","img/object_images/bottle05.jpg","1","1","1","0","0","0","0.398457400006009","0.526390900005936","0.527276199994958","1","1","1","1","1","1","1","1","1"
"260051","img/object_images/bottle05.jpg","img/object_images/guitar02.jpg","img/object_images/jewel04.jpg","1","1","1","0","0","0","0.527276199994958","0.398457400006009","0.456724200004828","1","1","1","1","1","1","1","1","1"
"260051","img/object_images/jewel04.jpg","img/object_images/bottle05.jpg","img/object_images/sink01.jpg","1","1","1","0","0","0","0.456724200004828","0.527276199994958","0.542183499987004","1","1","1","1","1","1","1","1","1"
"260051","img/object_images/sink01.jpg","img/object_images/jewel04.jpg","img/object_images/Tin01.jpg","1","1","1","0","0","1","0.542183499987004","0.456724200004828","0.407883499996387","1","1","1","1","1","1","1","1","1"
"260051","img/object_images/Tin01.jpg","img/object_images/sink01.jpg","img/object_images/frisbee01.jpg","1","1","1","1","0","1","0.407883499996387","0.542183499987004","0.355840799995349","1","1","1","1","1","1","1","1","1"
"260051","img/object_images/frisbee01.jpg","img/object_images/Tin01.jpg","img/object_images/stapler.jpg","1","1","1","1","1","1","0.355840799995349","0.407883499996387","0.3991401999956","1","1","1","1","1","1","1","1","1"
"260051","img/object_images/stapler.jpg","img/object_images/frisbee01.jpg","img/object_images/ornament01.jpg","1","1","1","1","1","1","0.3991401999956","0.355840799995349","0.450424800001201","1","1","1","1","1","1","1","1","1"
"260051","img/object_images/ornament01.jpg","img/object_images/stapler.jpg","img/object_images/tool02.jpg","1","1","1","1","1","1","0.450424800001201","0.3991401999956","0.418569199988269","1","1","1","1","1","1","1","1","1"
"260051","img/object_images/tool02.jpg","img/object_images/ornament01.jpg","img/object_images/gauze01.jpg","1","1","0","1","1","0","0.418569199988269","0.450424800001201","0.30367940000724","1","1","1","1","1","1","1","1","1"
"260051","img/object_images/gauze01.jpg","img/object_images/tool02.jpg","img/object_images/bow01.jpg","0","1","1","0","1","1","0.30367940000724","0.418569199988269","0.470202900003642","1","1","1","1","1","1","1","1","1"
"260051","img/object_images/bow01.jpg","img/object_images/gauze01.jpg","img/object_images/helmet01.jpg","1","0","1","1","0","0","0.470202900003642","0.30367940000724","0.718098799989093","1","1","1","1","1","1","1","1","1"
"260051","img/object_images/helmet01.jpg","img/object_images/bow01.jpg","img/object_images/pot01 (1).jpg","1","1","1","0","1","0","0.718098799989093","0.470202900003642","0.565517099996214","1","1","1","1","1","1","1","1","1"
"260051","img/object_images/pot01 (1).jpg","img/object_images/helmet01.jpg","img/object_images/dart01.jpg","1","1","1","0","0","0","0.565517099996214","0.718098799989093","0.533760099991923","1","1","1","1","1","1","1","1","1"
"260051","img/object_images/dart01.jpg","img/object_images/pot01 (1).jpg",NA,"1","1",NA,"0","0",NA,"0.533760099991923","0.565517099996214",NA,"1","1",NA,"1","1",NA,"1","1",NA
"260051","img/object_images/bath_tub01.jpg",NA,"img/object_images/fork03.jpg","1",NA,"1","0",NA,"1","0.501348000005237",NA,"0.468781599993235","1",NA,"1","1",NA,"1","1",NA,"1"
"260051","img/object_images/fork03.jpg","img/object_images/bath_tub01.jpg","img/object_images/handkerchief01.jpg","1","1","1","1","0","0","0.468781599993235","0.501348000005237","0.520721299995785","1","1","1","1","1","1","1","1","1"
"260051","img/object_images/handkerchief01.jpg","img/object_images/fork03.jpg","img/object_images/lawn_mower01.jpg","1","1","1","0","1","1","0.520721299995785","0.468781599993235","0.384039299999131","1","1","1","1","1","1","1","1","1"
"260051","img/object_images/lawn_mower01.jpg","img/object_images/handkerchief01.jpg","img/object_images/ironing_table01.jpg","1","1","1","1","0","0","0.384039299999131","0.520721299995785","0.497866400008206","1","1","1","1","1","1","1","1","1"
"260051","img/object_images/ironing_table01.jpg","img/object_images/lawn_mower01.jpg","img/object_images/bow_tie01.jpg","1","1","1","0","1","0","0.497866400008206","0.384039299999131","0.432440699994913","1","1","1","1","1","1","1","1","1"
"260051","img/object_images/bow_tie01.jpg","img/object_images/ironing_table01.jpg","img/object_images/golf_ball03.jpg","1","1","1","0","0","1","0.432440699994913","0.497866400008206","0.426525000002584","1","1","1","1","1","1","1","1","1"
"260051","img/object_images/golf_ball03.jpg","img/object_images/bow_tie01.jpg","img/object_images/Witchhat01.jpg","1","1","1","1","0","1","0.426525000002584","0.432440699994913","0.419874900006107","1","1","1","1","1","1","1","1","1"
"260051","img/object_images/Witchhat01.jpg","img/object_images/golf_ball03.jpg","img/object_images/socks02.jpg","1","1","1","1","1","0","0.419874900006107","0.426525000002584","0.481186100005289","1","1","1","1","1","1","1","1","1"
"260051","img/object_images/socks02.jpg","img/object_images/Witchhat01.jpg","img/object_images/paper_cup01.jpg","1","1","1","0","1","0","0.481186100005289","0.419874900006107","0.563063800000236","1","1","1","1","1","1","1","1","1"
"260051","img/object_images/paper_cup01.jpg","img/object_images/socks02.jpg","img/object_images/jacket03.jpg","1","1","0","0","0","0","0.563063800000236","0.481186100005289","0.376497199991718","1","1","1","1","1","1","1","1","1"
"260051","img/object_images/jacket03.jpg","img/object_images/paper_cup01.jpg","img/object_images/coloring_pencil01.jpg","0","1","1","0","0","1","0.376497199991718","0.563063800000236","0.388437400004477","1","1","1","1","1","1","1","1","1"
"260051","img/object_images/coloring_pencil01.jpg","img/object_images/jacket03.jpg","img/object_images/grater01.jpg","1","0","1","1","0","1","0.388437400004477","0.376497199991718","0.372359999993932","1","1","1","1","1","1","1","1","1"
"260051","img/object_images/grater01.jpg","img/object_images/coloring_pencil01.jpg","img/object_images/gift_box03.jpg","1","1","1","1","1","0","0.372359999993932","0.388437400004477","0.36852689999796","1","1","1","1","1","1","1","1","1"
"260051","img/object_images/gift_box03.jpg","img/object_images/grater01.jpg","img/object_images/gift_box01.jpg","1","1","1","0","1","1","0.36852689999796","0.372359999993932","0.406371700009913","1","1","1","1","1","1","1","1","1"
"260051","img/object_images/gift_box01.jpg","img/object_images/gift_box03.jpg","img/object_images/dresser04.jpg","1","1","1","1","0","0","0.406371700009913","0.36852689999796","0.448787200002698","1","1","1","1","1","1","1","1","1"
"260051","img/object_images/dresser04.jpg","img/object_images/gift_box01.jpg","img/object_images/camera07.jpg","1","1","1","0","1","1","0.448787200002698","0.406371700009913","0.454747100011446","1","1","1","1","1","1","1","1","1"
"260051","img/object_images/camera07.jpg","img/object_images/dresser04.jpg","img/object_images/vga_port 01.jpg","1","1","1","1","0","0","0.454747100011446","0.448787200002698","0.454591300003813","1","1","1","1","1","1","1","1","1"
"260051","img/object_images/vga_port 01.jpg","img/object_images/camera07.jpg","img/object_images/balloon01.jpg","1","1","1","0","1","0","0.454591300003813","0.454747100011446","0.543843399995239","1","1","1","1","1","1","1","1","1"
"260051","img/object_images/balloon01.jpg","img/object_images/vga_port 01.jpg","img/object_images/pitcher02.jpg","1","1","1","0","0","1","0.543843399995239","0.454591300003813","0.399146399999154","1","1","1","1","1","1","1","1","1"
"260051","img/object_images/pitcher02.jpg","img/object_images/balloon01.jpg","img/object_images/sleeping_bag01.jpg","1","1","1","1","0","0","0.399146399999154","0.543843399995239","0.567756699994789","1","1","1","1","1","1","1","1","1"
"260051","img/object_images/sleeping_bag01.jpg","img/object_images/pitcher02.jpg","img/object_images/funnel01.jpg","1","1","1","0","1","0","0.567756699994789","0.399146399999154","0.710686000005808","1","1","1","1","1","1","1","1","1"
"260051","img/object_images/funnel01.jpg","img/object_images/sleeping_bag01.jpg","img/object_images/bow_tie02.jpg","1","1","1","0","0","0","0.710686000005808","0.567756699994789","0.510428399997181","1","1","1","1","1","1","1","1","1"
"260051","img/object_images/bow_tie02.jpg","img/object_images/funnel01.jpg","img/object_images/lock04.jpg","1","1","1","0","0","1","0.510428399997181","0.710686000005808","0.434155399998417","1","1","1","1","1","1","1","1","1"
"260051","img/object_images/lock04.jpg","img/object_images/bow_tie02.jpg","img/object_images/clip02.jpg","1","1","1","1","0","1","0.434155399998417","0.510428399997181","0.433820999998716","1","1","1","1","1","1","1","1","1"
"260051","img/object_images/clip02.jpg","img/object_images/lock04.jpg","img/object_images/measuring_tape02.jpg","1","1","1","1","1","1","0.433820999998716","0.434155399998417","0.418187599992962","1","1","1","1","1","1","1","1","1"
"260051","img/object_images/measuring_tape02.jpg","img/object_images/clip02.jpg","img/object_images/Screws01.jpg","1","1","1","1","1","1","0.418187599992962","0.433820999998716","0.417161199991824","1","1","1","1","1","1","1","1","1"
"260051","img/object_images/Screws01.jpg","img/object_images/measuring_tape02.jpg","img/object_images/gift_box02.jpg","1","1","1","1","1","1","0.417161199991824","0.418187599992962","0.401658600007067","1","1","1","1","1","1","1","1","1"
"260051","img/object_images/gift_box02.jpg","img/object_images/Screws01.jpg","img/object_images/jewelry01.jpg","1","1","1","1","1","1","0.401658600007067","0.417161199991824","0.352230000004056","1","1","1","1","1","1","1","1","1"
"260051","img/object_images/jewelry01.jpg","img/object_images/gift_box02.jpg","img/object_images/hammer01.jpg","1","1","0","1","1","0","0.352230000004056","0.401658600007067","0.371355099996435","1","1","1","1","1","1","1","1","1"
"260051","img/object_images/hammer01.jpg","img/object_images/jewelry01.jpg","img/object_images/wallet02.jpg","0","1","1","0","1","1","0.371355099996435","0.352230000004056","0.504670399997849","1","1","1","1","1","1","1","1","1"
"260051","img/object_images/wallet02.jpg","img/object_images/hammer01.jpg","img/object_images/couch03.jpg","1","0","1","1","0","0","0.504670399997849","0.371355099996435","0.565294100000756","1","1","1","1","1","1","1","1","1"
"260051","img/object_images/couch03.jpg","img/object_images/wallet02.jpg",NA,"1","1",NA,"0","1",NA,"0.565294100000756","0.504670399997849",NA,"1","1",NA,"1","1",NA,"1","1",NA
"260051","img/object_images/knife02.jpg",NA,"img/object_images/mail_box01.jpg","1",NA,"0","0",NA,"0","0.474741400001221",NA,"0.412816900003236","1",NA,"1","1",NA,"1","1",NA,"1"
"260051","img/object_images/mail_box01.jpg","img/object_images/knife02.jpg","img/object_images/dresser03.jpg","0","1","1","0","0","0","0.412816900003236","0.474741400001221","0.559929800001555","1","1","1","1","1","1","1","1","1"
"260051","img/object_images/dresser03.jpg","img/object_images/mail_box01.jpg","img/object_images/matches02.jpg","1","0","1","0","0","0","0.559929800001555","0.412816900003236","0.49911200000497","1","1","1","1","1","1","1","1","1"
"260051","img/object_images/matches02.jpg","img/object_images/dresser03.jpg","img/object_images/camera03.jpg","1","1","1","0","0","0","0.49911200000497","0.559929800001555","0.405854500000714","1","1","1","1","1","1","1","1","1"
"260051","img/object_images/camera03.jpg","img/object_images/matches02.jpg","img/object_images/kite01.jpg","1","1","1","0","0","1","0.405854500000714","0.49911200000497","0.431659000008949","1","1","1","1","1","1","1","1","1"
"260051","img/object_images/kite01.jpg","img/object_images/camera03.jpg","img/object_images/car01.jpg","1","1","1","1","0","1","0.431659000008949","0.405854500000714","0.311566899996251","1","1","1","1","1","1","1","1","1"
"260051","img/object_images/car01.jpg","img/object_images/kite01.jpg","img/object_images/backpack01.jpg","1","1","1","1","1","0","0.311566899996251","0.431659000008949","0.467341299998225","1","1","1","1","1","1","1","1","1"
"260051","img/object_images/backpack01.jpg","img/object_images/car01.jpg","img/object_images/paper_cup02.jpg","1","1","1","0","1","1","0.467341299998225","0.311566899996251","0.374190100003034","1","1","1","1","1","1","1","1","1"
"260051","img/object_images/paper_cup02.jpg","img/object_images/backpack01.jpg","img/object_images/remover01.jpg","1","1","1","1","0","1","0.374190100003034","0.467341299998225","0.374804300008691","1","1","1","1","1","1","1","1","1"
"260051","img/object_images/remover01.jpg","img/object_images/paper_cup02.jpg","img/object_images/video_game01.jpg","1","1","0","1","1","1","0.374804300008691","0.374190100003034","0.344159699990996","1","1","1","1","1","1","1","1","1"
"260051","img/object_images/video_game01.jpg","img/object_images/remover01.jpg","img/object_images/knit03.jpg","0","1","1","1","1","1","0.344159699990996","0.374804300008691","0.327462799992645","1","1","1","1","1","1","1","1","1"
"260051","img/object_images/knit03.jpg","img/object_images/video_game01.jpg","img/object_images/toy08.jpg","1","0","0","1","1","0","0.327462799992645","0.344159699990996","0.456627899999148","1","1","1","1","1","1","1","1","2"
"260051","img/object_images/toy08.jpg","img/object_images/knit03.jpg","img/object_images/blender02.jpg","0","1","1","0","1","1","0.456627899999148","0.327462799992645","0.448945900003309","1","1","1","1","1","1","2","1","1"
"260051","img/object_images/blender02.jpg","img/object_images/toy08.jpg","img/object_images/flashlight03.jpg","1","0","1","1","0","0","0.448945900003309","0.456627899999148","0.390698499992141","1","1","1","1","1","1","1","2","1"
"260051","img/object_images/flashlight03.jpg","img/object_images/blender02.jpg","img/object_images/bottle07.jpg","1","1","1","0","1","1","0.390698499992141","0.448945900003309","0.384727700002259","1","1","1","1","1","1","1","1","1"
"260051","img/object_images/bottle07.jpg","img/object_images/flashlight03.jpg","img/object_images/hoverboard01.jpg","1","1","1","1","0","0","0.384727700002259","0.390698499992141","0.500435399997514","1","1","1","1","1","1","1","1","1"
"260051","img/object_images/hoverboard01.jpg","img/object_images/bottle07.jpg","img/object_images/jacket04.jpg","1","1","1","0","1","0","0.500435399997514","0.384727700002259","0.575287500003469","1","1","1","1","1","1","1","1","1"
"260051","img/object_images/jacket04.jpg","img/object_images/hoverboard01.jpg","img/object_images/boat04.jpg","1","1","1","0","0","0","0.575287500003469","0.500435399997514","0.399565200001234","1","1","1","1","1","1","1","1","1"
"260051","img/object_images/boat04.jpg","img/object_images/jacket04.jpg","img/object_images/gloves02.jpg","1","1","1","0","0","0","0.399565200001234","0.575287500003469","0.369430100006866","1","1","1","1","1","1","1","1","1"
"260051","img/object_images/gloves02.jpg","img/object_images/boat04.jpg","img/object_images/remote_controller01.jpg","1","1","1","0","0","1","0.369430100006866","0.399565200001234","0.41537370000151","1","1","1","1","1","1","1","1","1"
"260051","img/object_images/remote_controller01.jpg","img/object_images/gloves02.jpg","img/object_images/knit04.jpg","1","1","1","1","0","1","0.41537370000151","0.369430100006866","0.433808699992369","1","1","1","1","1","1","1","1","1"
"260051","img/object_images/knit04.jpg","img/object_images/remote_controller01.jpg","img/object_images/Statue01.jpg","1","1","1","1","1","1","0.433808699992369","0.41537370000151","0.448823800004902","1","1","1","1","1","1","1","1","1"
"260051","img/object_images/Statue01.jpg","img/object_images/knit04.jpg","img/object_images/tool18.jpg","1","1","1","1","1","0","0.448823800004902","0.433808699992369","0.42749719999847","1","1","1","1","1","1","1","1","1"
"260051","img/object_images/tool18.jpg","img/object_images/Statue01.jpg","img/object_images/stereo02.jpg","1","1","1","0","1","0","0.42749719999847","0.448823800004902","0.48871639999561","1","1","1","1","1","1","1","1","1"
"260051","img/object_images/stereo02.jpg","img/object_images/tool18.jpg","img/object_images/phone02.jpg","1","1","1","0","0","1","0.48871639999561","0.42749719999847","0.465584000005038","1","1","1","1","1","1","1","1","1"
"260051","img/object_images/phone02.jpg","img/object_images/stereo02.jpg","img/object_images/curtain02.jpg","1","1","1","1","0","0","0.465584000005038","0.48871639999561","0.471739699991303","1","1","1","1","1","1","1","1","1"
"260051","img/object_images/curtain02.jpg","img/object_images/phone02.jpg","img/object_images/keyboard02.jpg","1","1","1","0","1","1","0.471739699991303","0.465584000005038","0.396891900003538","1","1","1","1","1","1","1","1","1"
"260051","img/object_images/keyboard02.jpg","img/object_images/curtain02.jpg","img/object_images/sponge03.jpg","1","1","1","1","0","1","0.396891900003538","0.471739699991303","0.375734900007956","1","1","1","1","1","1","1","1","1"
"260051","img/object_images/sponge03.jpg","img/object_images/keyboard02.jpg","img/object_images/basket04.jpg","1","1","1","1","1","1","0.375734900007956","0.396891900003538","0.536905400003889","1","1","1","1","1","1","1","1","1"
"260051","img/object_images/basket04.jpg","img/object_images/sponge03.jpg","img/object_images/hand_grip_exerciser01.jpg","1","1","1","1","1","0","0.536905400003889","0.375734900007956","0.46722310000041","1","1","1","1","1","1","1","1","1"
"260051","img/object_images/hand_grip_exerciser01.jpg","img/object_images/basket04.jpg","img/object_images/shower_head01.jpg","1","1","1","0","1","1","0.46722310000041","0.536905400003889","0.406979499995941","1","1","1","1","1","1","1","1","1"
"260051","img/object_images/shower_head01.jpg","img/object_images/hand_grip_exerciser01.jpg",NA,"1","1",NA,"1","0",NA,"0.406979499995941","0.46722310000041",NA,"1","1",NA,"1","1",NA,"1","1",NA
"260051","img/object_images/purse04.jpg",NA,"img/object_images/chair03.jpg","1",NA,"1","1",NA,"0","0.363032599998405",NA,"0.521375600001193","1",NA,"1","1",NA,"1","1",NA,"1"
"260051","img/object_images/chair03.jpg","img/object_images/purse04.jpg","img/object_images/scoreboard01.jpg","1","1","1","0","1","1","0.521375600001193","0.363032599998405","0.367189000011422","1","1","1","1","1","1","1","1","1"
"260051","img/object_images/scoreboard01.jpg","img/object_images/chair03.jpg","img/object_images/perfume02.jpg","1","1","0","1","0","0","0.367189000011422","0.521375600001193","0.472285300013027","1","1","1","1","1","1","1","1","1"
"260051","img/object_images/perfume02.jpg","img/object_images/scoreboard01.jpg","img/object_images/bicycle01.jpg","0","1","1","0","1","1","0.472285300013027","0.367189000011422","0.583246800000779","1","1","1","1","1","1","1","1","1"
"260051","img/object_images/bicycle01.jpg","img/object_images/perfume02.jpg","img/object_images/pen05.jpg","1","0","1","1","0","0","0.583246800000779","0.472285300013027","0.483696199997212","1","1","1","1","1","1","1","1","1"
"260051","img/object_images/pen05.jpg","img/object_images/bicycle01.jpg","img/object_images/bottle09.jpg","1","1","1","0","1","0","0.483696199997212","0.583246800000779","0.42337810000754","1","1","1","1","1","1","1","1","1"
"260051","img/object_images/bottle09.jpg","img/object_images/pen05.jpg","img/object_images/cellphone03.jpg","1","1","1","0","0","0","0.42337810000754","0.483696199997212","0.437772599994787","1","1","1","1","1","1","1","1","1"
"260051","img/object_images/cellphone03.jpg","img/object_images/bottle09.jpg","img/object_images/boat02.jpg","1","1","1","0","0","1","0.437772599994787","0.42337810000754","0.372231100001954","1","1","1","1","1","1","1","1","1"
"260051","img/object_images/boat02.jpg","img/object_images/cellphone03.jpg","img/object_images/flask01.jpg","1","1","1","1","0","0","0.372231100001954","0.437772599994787","0.308116600004723","1","1","1","1","1","1","1","1","1"
"260051","img/object_images/flask01.jpg","img/object_images/boat02.jpg","img/object_images/shoes07.jpg","1","1","1","0","1","0","0.308116600004723","0.372231100001954","0.485730800006422","1","1","1","1","1","1","1","1","1"
"260051","img/object_images/shoes07.jpg","img/object_images/flask01.jpg","img/object_images/bottle02.jpg","1","1","1","0","0","1","0.485730800006422","0.308116600004723","0.478275500005111","1","1","1","1","1","1","1","1","1"
"260051","img/object_images/bottle02.jpg","img/object_images/shoes07.jpg","img/object_images/tie02.jpg","1","1","1","1","0","0","0.478275500005111","0.485730800006422","0.515096999995876","1","1","1","1","1","1","1","1","1"
"260051","img/object_images/tie02.jpg","img/object_images/bottle02.jpg","img/object_images/tool19.jpg","1","1","1","0","1","1","0.515096999995876","0.478275500005111","0.306606199999806","1","1","1","1","1","1","1","1","1"
"260051","img/object_images/tool19.jpg","img/object_images/tie02.jpg","img/object_images/coloring_pencil02.jpg","1","1","1","1","0","0","0.306606199999806","0.515096999995876","0.440695899989805","1","1","1","1","1","1","1","1","1"
"260051","img/object_images/coloring_pencil02.jpg","img/object_images/tool19.jpg","img/object_images/hot_air_balloon02.jpg","1","1","1","0","1","0","0.440695899989805","0.306606199999806","0.562574099996709","1","1","1","1","1","1","1","1","1"
"260051","img/object_images/hot_air_balloon02.jpg","img/object_images/coloring_pencil02.jpg","img/object_images/knit01.jpg","1","1","1","0","0","0","0.562574099996709","0.440695899989805","0.497487000000547","1","1","1","1","1","1","1","1","1"
"260051","img/object_images/knit01.jpg","img/object_images/hot_air_balloon02.jpg","img/object_images/piggy_bank01.jpg","1","1","1","0","0","1","0.497487000000547","0.562574099996709","0.411722500008182","1","1","1","1","1","1","1","1","1"
"260051","img/object_images/piggy_bank01.jpg","img/object_images/knit01.jpg","img/object_images/fan02.jpg","1","1","1","1","0","0","0.411722500008182","0.497487000000547","0.486274399998365","1","1","1","1","1","1","1","1","1"
"260051","img/object_images/fan02.jpg","img/object_images/piggy_bank01.jpg","img/object_images/helmet04.jpg","1","1","1","0","1","1","0.486274399998365","0.411722500008182","0.462943000005907","1","1","1","1","1","1","1","1","1"
"260051","img/object_images/helmet04.jpg","img/object_images/fan02.jpg","img/object_images/bean_bag02.jpg","1","1","1","1","0","1","0.462943000005907","0.486274399998365","0.321605500008445","1","1","1","1","1","1","1","1","1"
"260051","img/object_images/bean_bag02.jpg","img/object_images/helmet04.jpg","img/object_images/dog_leash01.jpg","1","1","1","1","1","0","0.321605500008445","0.462943000005907","0.433057799993548","1","1","1","1","1","1","1","1","1"
"260051","img/object_images/dog_leash01.jpg","img/object_images/bean_bag02.jpg","img/object_images/water_scooter01.jpg","1","1","1","0","1","1","0.433057799993548","0.321605500008445","0.357915100001264","1","1","1","1","1","1","1","1","1"
"260051","img/object_images/water_scooter01.jpg","img/object_images/dog_leash01.jpg","img/object_images/toilet_paper_dispenser01.jpg","1","1","1","1","0","1","0.357915100001264","0.433057799993548","0.35984119999921","1","1","1","1","1","1","1","1","1"
"260051","img/object_images/toilet_paper_dispenser01.jpg","img/object_images/water_scooter01.jpg","img/object_images/wagon_cart03.jpg","1","1","1","1","1","1","0.35984119999921","0.357915100001264","0.404611499994644","1","1","1","1","1","1","1","1","1"
"260051","img/object_images/wagon_cart03.jpg","img/object_images/toilet_paper_dispenser01.jpg","img/object_images/WoodBox01.jpg","1","1","1","1","1","0","0.404611499994644","0.35984119999921","0.429634700005408","1","1","1","1","1","1","1","1","1"
"260051","img/object_images/WoodBox01.jpg","img/object_images/wagon_cart03.jpg","img/object_images/bottle10.jpg","1","1","1","0","1","1","0.429634700005408","0.404611499994644","0.344494099990698","1","1","1","1","1","1","1","1","1"
"260051","img/object_images/bottle10.jpg","img/object_images/WoodBox01.jpg","img/object_images/boat_toy10.jpg","1","1","1","1","0","0","0.344494099990698","0.429634700005408","0.398218400005135","1","1","1","1","1","1","1","1","1"
"260051","img/object_images/boat_toy10.jpg","img/object_images/bottle10.jpg","img/object_images/audio_port01.jpg","1","1","1","0","1","1","0.398218400005135","0.344494099990698","0.407068600005005","1","1","1","1","1","1","1","1","1"
"260051","img/object_images/audio_port01.jpg","img/object_images/boat_toy10.jpg","img/object_images/toaster01.jpg","1","1","1","1","0","1","0.407068600005005","0.398218400005135","0.398620799998753","1","1","1","1","1","1","1","1","1"
"260051","img/object_images/toaster01.jpg","img/object_images/audio_port01.jpg","img/object_images/camera_lens01.jpg","1","1","1","1","1","1","0.398620799998753","0.407068600005005","0.3142996999959","1","1","1","1","1","1","1","1","1"
"260051","img/object_images/camera_lens01.jpg","img/object_images/toaster01.jpg","img/object_images/hat06.jpg","1","1","0","1","1","0","0.3142996999959","0.398620799998753","0.458131300008972","1","1","1","1","1","1","1","1","1"
"260051","img/object_images/hat06.jpg","img/object_images/camera_lens01.jpg",NA,"0","1",NA,"0","1",NA,"0.458131300008972","0.3142996999959",NA,"1","1",NA,"1","1",NA,"1","1",NA
"260051","img/object_images/mail_box02.jpg",NA,"img/object_images/toothbrush01.jpg","1",NA,"1","1",NA,"0","0.384118600006332",NA,"0.429956099993433","1",NA,"1","1",NA,"1","1",NA,"1"
"260051","img/object_images/toothbrush01.jpg","img/object_images/mail_box02.jpg","img/object_images/hair_brush01.jpg","1","1","1","0","1","1","0.429956099993433","0.384118600006332","0.311913400000776","1","1","1","1","1","1","1","1","1"
"260051","img/object_images/hair_brush01.jpg","img/object_images/toothbrush01.jpg","img/object_images/scarf01.jpg","1","1","1","1","0","1","0.311913400000776","0.429956099993433","0.257740299988654","1","1","1","1","1","1","1","1","1"
"260051","img/object_images/scarf01.jpg","img/object_images/hair_brush01.jpg","img/object_images/pitcher09.jpg","1","1","1","1","1","1","0.257740299988654","0.311913400000776","0.335378100004164","1","1","1","1","1","1","1","1","1"
"260051","img/object_images/pitcher09.jpg","img/object_images/scarf01.jpg","img/object_images/computer_mouse02.jpg","1","1","0","1","1","0","0.335378100004164","0.257740299988654","0.288967200001935","1","1","1","1","1","1","1","1","1"
"260051","img/object_images/computer_mouse02.jpg","img/object_images/pitcher09.jpg","img/object_images/bell03.jpg","0","1","1","0","1","0","0.288967200001935","0.335378100004164","0.553031099989312","1","1","1","1","1","1","1","1","1"
"260051","img/object_images/bell03.jpg","img/object_images/computer_mouse02.jpg","img/object_images/skate_board01.jpg","1","0","1","0","0","0","0.553031099989312","0.288967200001935","0.417645700013964","1","1","1","1","1","1","1","1","1"
"260051","img/object_images/skate_board01.jpg","img/object_images/bell03.jpg","img/object_images/book02.jpg","1","1","1","0","0","1","0.417645700013964","0.553031099989312","0.356388700005482","1","1","1","1","1","1","1","1","1"
"260051","img/object_images/book02.jpg","img/object_images/skate_board01.jpg","img/object_images/computer_mouse01.jpg","1","1","1","1","0","1","0.356388700005482","0.417645700013964","0.322073499992257","1","1","1","1","1","1","1","1","1"
"260051","img/object_images/computer_mouse01.jpg","img/object_images/book02.jpg","img/object_images/couch01.jpg","1","1","1","1","1","0","0.322073499992257","0.356388700005482","0.444107100003748","1","1","1","1","1","1","1","1","1"
"260051","img/object_images/couch01.jpg","img/object_images/computer_mouse01.jpg","img/object_images/toy01.jpg","1","1","1","0","1","1","0.444107100003748","0.322073499992257","0.314628899999661","1","1","1","1","1","1","1","1","1"
"260051","img/object_images/toy01.jpg","img/object_images/couch01.jpg","img/object_images/floss02.jpg","1","1","1","1","0","1","0.314628899999661","0.444107100003748","0.41241039999295","1","1","1","1","1","1","1","1","1"
"260051","img/object_images/floss02.jpg","img/object_images/toy01.jpg","img/object_images/soap03.jpg","1","1","1","1","1","0","0.41241039999295","0.314628899999661","0.48939080000855","1","1","1","1","1","1","1","1","1"
"260051","img/object_images/soap03.jpg","img/object_images/floss02.jpg","img/object_images/airfryer02.jpg","1","1","1","0","1","1","0.48939080000855","0.41241039999295","0.375323700005538","1","1","1","1","1","1","1","1","1"
"260051","img/object_images/airfryer02.jpg","img/object_images/soap03.jpg","img/object_images/rock02.jpg","1","1","0","1","0","0","0.375323700005538","0.48939080000855","0.264373900005012","1","1","1","1","1","1","1","1","1"
"260051","img/object_images/rock02.jpg","img/object_images/airfryer02.jpg","img/object_images/tool06.jpg","0","1","0","0","1","0","0.264373900005012","0.375323700005538","0.414878299998236","1","1","1","1","1","1","1","1","1"
"260051","img/object_images/tool06.jpg","img/object_images/rock02.jpg","img/object_images/pen01.jpg","0","0","1","0","0","0","0.414878299998236","0.264373900005012","0.598245899993344","1","1","1","1","1","1","1","1","1"
"260051","img/object_images/pen01.jpg","img/object_images/tool06.jpg","img/object_images/bag_pipes01.jpg","1","0","1","0","0","1","0.598245899993344","0.414878299998236","0.398153000001912","1","1","1","1","1","1","1","1","1"
"260051","img/object_images/bag_pipes01.jpg","img/object_images/pen01.jpg","img/object_images/drone01.jpg","1","1","1","1","0","1","0.398153000001912","0.598245899993344","0.46222420000413","1","1","1","1","1","1","1","1","1"
"260051","img/object_images/drone01.jpg","img/object_images/bag_pipes01.jpg","img/object_images/shoes12.jpg","1","1","1","1","1","1","0.46222420000413","0.398153000001912","0.518498499994166","1","1","1","1","1","1","1","1","1"
"260051","img/object_images/shoes12.jpg","img/object_images/drone01.jpg","img/object_images/egg_slicer01.jpg","1","1","1","1","1","1","0.518498499994166","0.46222420000413","0.364444700011518","1","1","1","1","1","1","1","1","1"
"260051","img/object_images/egg_slicer01.jpg","img/object_images/shoes12.jpg","img/object_images/Violin01.jpg","1","1","1","1","1","0","0.364444700011518","0.518498499994166","0.531383299996378","1","1","1","1","1","1","1","1","1"
"260051","img/object_images/Violin01.jpg","img/object_images/egg_slicer01.jpg","img/object_images/fork02.jpg","1","1","1","0","1","0","0.531383299996378","0.364444700011518","0.473415000000386","1","1","1","1","1","1","1","1","1"
"260051","img/object_images/fork02.jpg","img/object_images/Violin01.jpg","img/object_images/blender01.jpg","1","1","0","0","0","0","0.473415000000386","0.531383299996378","0.495108999995864","1","1","1","1","1","1","1","1","2"
"260051","img/object_images/blender01.jpg","img/object_images/fork02.jpg","img/object_images/clip04.jpg","0","1","1","0","0","1","0.495108999995864","0.473415000000386","0.412725699992734","1","1","1","1","1","1","2","1","1"
"260051","img/object_images/clip04.jpg","img/object_images/blender01.jpg","img/object_images/chair06.jpg","1","0","1","1","0","0","0.412725699992734","0.495108999995864","0.479389700005413","1","1","1","1","1","1","1","2","1"
"260051","img/object_images/chair06.jpg","img/object_images/clip04.jpg","img/object_images/tripod01.jpg","1","1","1","0","1","1","0.479389700005413","0.412725699992734","0.463468600006308","1","1","1","1","1","1","1","1","1"
"260051","img/object_images/tripod01.jpg","img/object_images/chair06.jpg","img/object_images/video_game03.jpg","1","1","1","1","0","1","0.463468600006308","0.479389700005413","0.547846100002062","1","1","1","1","1","1","1","1","1"
"260051","img/object_images/video_game03.jpg","img/object_images/tripod01.jpg","img/object_images/Trowel01.jpg","1","1","1","1","1","0","0.547846100002062","0.463468600006308","0.493165000007139","1","1","1","1","1","1","1","1","1"
"260051","img/object_images/Trowel01.jpg","img/object_images/video_game03.jpg","img/object_images/chain01.jpg","1","1","1","0","1","0","0.493165000007139","0.547846100002062","0.465227500011679","1","1","1","1","1","1","1","1","1"
"260051","img/object_images/chain01.jpg","img/object_images/Trowel01.jpg","img/object_images/box03.jpg","1","1","1","0","0","0","0.465227500011679","0.493165000007139","0.576316299993778","1","1","1","1","1","1","1","1","1"
"260051","img/object_images/box03.jpg","img/object_images/chain01.jpg",NA,"1","1",NA,"0","0",NA,"0.576316299993778","0.465227500011679",NA,"1","1",NA,"1","1",NA,"1","1",NA
"260051","img/object_images/ring03.jpg",NA,"img/object_images/cup03.jpg","1",NA,"1","1",NA,"1","0.342882400000235",NA,"0.370240999996895","1",NA,"1","1",NA,"1","1",NA,"1"
"260051","img/object_images/cup03.jpg","img/object_images/ring03.jpg","img/object_images/gift_box04.jpg","1","1","1","1","1","0","0.370240999996895","0.342882400000235","0.493331699995906","1","1","1","1","1","1","1","1","1"
"260051","img/object_images/gift_box04.jpg","img/object_images/cup03.jpg","img/object_images/projector01.jpg","1","1","0","0","1","0","0.493331699995906","0.370240999996895","0.375295500009088","1","1","1","1","1","1","1","1","1"
"260051","img/object_images/projector01.jpg","img/object_images/gift_box04.jpg","img/object_images/tool08.jpg","0","1","1","0","0","0","0.375295500009088","0.493331699995906","0.468010699987644","1","1","1","1","1","1","1","1","1"
"260051","img/object_images/tool08.jpg","img/object_images/projector01.jpg","img/object_images/Sprayer01.jpg","1","0","1","0","0","0","0.468010699987644","0.375295500009088","0.464028200003668","1","1","1","1","1","1","1","1","1"
"260051","img/object_images/Sprayer01.jpg","img/object_images/tool08.jpg","img/object_images/exfoliater_brush01.jpg","1","1","1","0","0","0","0.464028200003668","0.468010699987644","0.518120900000213","1","1","1","1","1","1","1","1","1"
"260051","img/object_images/exfoliater_brush01.jpg","img/object_images/Sprayer01.jpg","img/object_images/Pottery01.jpg","1","1","1","0","0","0","0.518120900000213","0.464028200003668","0.369016299999203","1","1","1","1","1","1","1","1","1"
"260051","img/object_images/Pottery01.jpg","img/object_images/exfoliater_brush01.jpg","img/object_images/faucet01.jpg","1","1","0","0","0","0","0.369016299999203","0.518120900000213","0.338566599995829","1","1","1","1","1","1","1","1","1"
"260051","img/object_images/faucet01.jpg","img/object_images/Pottery01.jpg","img/object_images/yo_yo01.jpg","0","1","1","0","0","0","0.338566599995829","0.369016299999203","0.565366400012863","1","1","1","1","1","1","1","1","1"
"260051","img/object_images/yo_yo01.jpg","img/object_images/faucet01.jpg","img/object_images/glasses07.jpg","1","0","1","0","0","1","0.565366400012863","0.338566599995829","0.419613999998546","1","1","1","1","1","1","1","1","1"
"260051","img/object_images/glasses07.jpg","img/object_images/yo_yo01.jpg","img/object_images/tool07.jpg","1","1","1","1","0","0","0.419613999998546","0.565366400012863","0.523279000000912","1","1","1","1","1","1","1","1","1"
"260051","img/object_images/tool07.jpg","img/object_images/glasses07.jpg","img/object_images/speaker01.jpg","1","1","1","0","1","1","0.523279000000912","0.419613999998546","0.447936800002935","1","1","1","1","1","1","1","1","1"
"260051","img/object_images/speaker01.jpg","img/object_images/tool07.jpg","img/object_images/blanket01.jpg","1","1","1","1","0","1","0.447936800002935","0.523279000000912","0.399305800005095","1","1","1","1","1","1","1","1","1"
"260051","img/object_images/blanket01.jpg","img/object_images/speaker01.jpg","img/object_images/hole_puncher01.jpg","1","1","1","1","1","1","0.399305800005095","0.447936800002935","0.34374700000626","1","1","1","1","1","1","1","1","1"
"260051","img/object_images/hole_puncher01.jpg","img/object_images/blanket01.jpg","img/object_images/glasses06.jpg","1","1","1","1","1","1","0.34374700000626","0.399305800005095","0.41776710000704","1","1","1","1","1","1","1","1","1"
"260051","img/object_images/glasses06.jpg","img/object_images/hole_puncher01.jpg","img/object_images/tray01.jpg","1","1","1","1","1","1","0.41776710000704","0.34374700000626","0.380762500004494","1","1","1","1","1","1","1","1","1"
"260051","img/object_images/tray01.jpg","img/object_images/glasses06.jpg","img/object_images/book01.jpg","1","1","1","1","1","1","0.380762500004494","0.41776710000704","0.366935800004285","1","1","1","1","1","1","1","1","1"
"260051","img/object_images/book01.jpg","img/object_images/tray01.jpg","img/object_images/pan01.jpg","1","1","0","1","1","1","0.366935800004285","0.380762500004494","0.369906099993386","1","1","1","1","1","1","1","1","1"
"260051","img/object_images/pan01.jpg","img/object_images/book01.jpg","img/object_images/Traffic Sign 01.jpg","0","1","1","1","1","0","0.369906099993386","0.366935800004285","0.687816699995892","1","1","1","1","1","1","1","1","1"
"260051","img/object_images/Traffic Sign 01.jpg","img/object_images/pan01.jpg","img/object_images/bicycle_lock01.jpg","1","0","1","0","1","0","0.687816699995892","0.369906099993386","0.50989670000854","1","1","1","1","1","1","1","1","1"
"260051","img/object_images/bicycle_lock01.jpg","img/object_images/Traffic Sign 01.jpg","img/object_images/Kitchen_Towel.jpg","1","1","1","0","0","0","0.50989670000854","0.687816699995892","0.483296199992765","1","1","1","1","1","1","1","1","1"
"260051","img/object_images/Kitchen_Towel.jpg","img/object_images/bicycle_lock01.jpg","img/object_images/basket02.jpg","1","1","1","0","0","0","0.483296199992765","0.50989670000854","0.496021700004348","1","1","1","1","1","1","1","1","1"
"260051","img/object_images/basket02.jpg","img/object_images/Kitchen_Towel.jpg","img/object_images/cellphone02.jpg","1","1","1","0","0","1","0.496021700004348","0.483296199992765","0.331482100009452","1","1","1","1","1","1","1","1","1"
"260051","img/object_images/cellphone02.jpg","img/object_images/basket02.jpg","img/object_images/fire_extinguisher01.jpg","1","1","1","1","0","0","0.331482100009452","0.496021700004348","0.401467500007129","1","1","1","1","1","1","1","1","1"
"260051","img/object_images/fire_extinguisher01.jpg","img/object_images/cellphone02.jpg","img/object_images/purse01.jpg","1","1","1","0","1","1","0.401467500007129","0.331482100009452","0.318199500004994","1","1","1","1","1","1","1","1","1"
"260051","img/object_images/purse01.jpg","img/object_images/fire_extinguisher01.jpg","img/object_images/jewelry09.jpg","1","1","1","1","0","1","0.318199500004994","0.401467500007129","0.430373399998643","1","1","1","1","1","1","1","1","1"
"260051","img/object_images/jewelry09.jpg","img/object_images/purse01.jpg","img/object_images/TrashCan02.jpg","1","1","1","1","1","1","0.430373399998643","0.318199500004994","0.375675000002957","1","1","1","1","1","1","1","1","1"
"260051","img/object_images/TrashCan02.jpg","img/object_images/jewelry09.jpg","img/object_images/colander01.jpg","1","1","0","1","1","0","0.375675000002957","0.430373399998643","0.327026499988278","1","1","1","1","1","1","1","1","1"
"260051","img/object_images/colander01.jpg","img/object_images/TrashCan02.jpg","img/object_images/lighter01.jpg","0","1","1","0","1","1","0.327026499988278","0.375675000002957","0.316708800004562","1","1","1","1","1","1","1","1","1"
"260051","img/object_images/lighter01.jpg","img/object_images/colander01.jpg","img/object_images/handcuffs01.jpg","1","0","1","1","0","0","0.316708800004562","0.327026499988278","0.392308400012553","1","1","1","1","1","1","1","1","1"
"260051","img/object_images/handcuffs01.jpg","img/object_images/lighter01.jpg","img/object_images/hair_clips01.jpg","1","1","1","0","1","1","0.392308400012553","0.316708800004562","0.382344400000875","1","1","1","1","1","1","1","1","1"
"260051","img/object_images/hair_clips01.jpg","img/object_images/handcuffs01.jpg",NA,"1","1",NA,"1","0",NA,"0.382344400000875","0.392308400012553",NA,"1","1",NA,"1","1",NA,"1","1",NA
"260051","img/object_images/satellite01.jpg",NA,"img/object_images/hair_brush05.jpg","1",NA,"1","0",NA,"1","0.449425099999644",NA,"0.379158899988397","1",NA,"1","1",NA,"1","1",NA,"1"
"260051","img/object_images/hair_brush05.jpg","img/object_images/satellite01.jpg","img/object_images/WitchHat02.jpg","1","1","1","1","0","1","0.379158899988397","0.449425099999644","0.391263500001514","1","1","1","1","1","1","1","1","1"
"260051","img/object_images/WitchHat02.jpg","img/object_images/hair_brush05.jpg","img/object_images/ladle02.jpg","1","1","1","1","1","0","0.391263500001514","0.379158899988397","0.378824300001725","1","1","1","1","1","1","1","1","1"
"260051","img/object_images/ladle02.jpg","img/object_images/WitchHat02.jpg","img/object_images/yarn02.jpg","1","1","1","0","1","0","0.378824300001725","0.391263500001514","0.381512699997984","1","1","1","1","1","1","1","1","1"
"260051","img/object_images/yarn02.jpg","img/object_images/ladle02.jpg","img/object_images/toaster02.jpg","1","1","1","0","0","1","0.381512699997984","0.378824300001725","0.390702600008808","1","1","1","1","1","1","1","1","1"
"260051","img/object_images/toaster02.jpg","img/object_images/yarn02.jpg","img/object_images/car03.jpg","1","1","1","1","0","0","0.390702600008808","0.381512699997984","0.4578487000108","1","1","1","1","1","1","1","1","1"
"260051","img/object_images/car03.jpg","img/object_images/toaster02.jpg","img/object_images/tool11.jpg","1","1","0","0","1","1","0.4578487000108","0.390702600008808","0.477690399988205","1","1","1","1","1","1","1","1","1"
"260051","img/object_images/tool11.jpg","img/object_images/car03.jpg","img/object_images/shower_head03.jpg","0","1","1","1","0","1","0.477690399988205","0.4578487000108","0.447141700002248","1","1","1","1","1","1","1","1","1"
"260051","img/object_images/shower_head03.jpg","img/object_images/tool11.jpg","img/object_images/screwdriver01.jpg","1","0","1","1","1","0","0.447141700002248","0.477690399988205","0.444453200005228","1","1","1","1","1","1","1","1","1"
"260051","img/object_images/screwdriver01.jpg","img/object_images/shower_head03.jpg","img/object_images/chair04.jpg","1","1","1","0","1","1","0.444453200005228","0.447141700002248","0.382717100001173","1","1","1","1","1","1","1","1","1"
"260051","img/object_images/chair04.jpg","img/object_images/screwdriver01.jpg","img/object_images/rock03.jpg","1","1","1","1","0","0","0.382717100001173","0.444453200005228","0.447529000011855","1","1","1","1","1","1","1","1","1"
"260051","img/object_images/rock03.jpg","img/object_images/chair04.jpg","img/object_images/jewelry07.jpg","1","1","1","0","1","1","0.447529000011855","0.382717100001173","0.379409899993334","1","1","1","1","1","1","1","1","1"
"260051","img/object_images/jewelry07.jpg","img/object_images/rock03.jpg","img/object_images/dress03.jpg","1","1","1","1","0","1","0.379409899993334","0.447529000011855","0.326288900003419","1","1","1","1","1","1","1","1","1"
"260051","img/object_images/dress03.jpg","img/object_images/jewelry07.jpg","img/object_images/slinky_toy01.jpg","1","1","1","1","1","1","0.326288900003419","0.379409899993334","0.342004699996323","1","1","1","1","1","1","1","1","1"
"260051","img/object_images/slinky_toy01.jpg","img/object_images/dress03.jpg","img/object_images/key02.jpg","1","1","1","1","1","1","0.342004699996323","0.326288900003419","0.409301099993172","1","1","1","1","1","1","1","1","1"
"260051","img/object_images/key02.jpg","img/object_images/slinky_toy01.jpg","img/object_images/fan05.jpg","1","1","1","1","1","0","0.409301099993172","0.342004699996323","0.536751200008439","1","1","1","1","1","1","1","1","1"
"260051","img/object_images/fan05.jpg","img/object_images/key02.jpg","img/object_images/razor01.jpg","1","1","1","0","1","0","0.536751200008439","0.409301099993172","0.359509599991725","1","1","1","1","1","1","1","1","1"
"260051","img/object_images/razor01.jpg","img/object_images/fan05.jpg","img/object_images/cutting_board01.jpg","1","1","1","0","0","1","0.359509599991725","0.536751200008439","0.573193200005335","1","1","1","1","1","1","1","1","1"
"260051","img/object_images/cutting_board01.jpg","img/object_images/razor01.jpg","img/object_images/ice_tray03.jpg","1","1","1","1","0","1","0.573193200005335","0.359509599991725","0.466495400003623","1","1","1","1","1","1","1","1","1"
"260051","img/object_images/ice_tray03.jpg","img/object_images/cutting_board01.jpg","img/object_images/MeasuringCup01.jpg","1","1","1","1","1","1","0.466495400003623","0.573193200005335","0.326179399999091","1","1","1","1","1","1","1","1","1"
"260051","img/object_images/MeasuringCup01.jpg","img/object_images/ice_tray03.jpg","img/object_images/bag06.jpg","1","1","0","1","1","1","0.326179399999091","0.466495400003623","0.303873899989412","1","1","1","1","1","1","1","1","1"
"260051","img/object_images/bag06.jpg","img/object_images/MeasuringCup01.jpg","img/object_images/cards01.jpg","0","1","0","1","1","0","0.303873899989412","0.326179399999091","0.258697800003574","1","1","1","1","1","1","1","1","1"
"260051","img/object_images/cards01.jpg","img/object_images/bag06.jpg","img/object_images/binoculars03.jpg","0","0","1","0","1","1","0.258697800003574","0.303873899989412","0.370002299998305","1","1","1","1","1","1","1","1","1"
"260051","img/object_images/binoculars03.jpg","img/object_images/cards01.jpg","img/object_images/mask01.jpg","1","0","1","1","0","0","0.370002299998305","0.258697800003574","0.499024000004283","1","1","1","1","1","1","1","1","1"
"260051","img/object_images/mask01.jpg","img/object_images/binoculars03.jpg","img/object_images/tv01.jpg","1","1","1","0","1","0","0.499024000004283","0.370002299998305","0.639509999993606","1","1","1","1","1","1","1","1","1"
"260051","img/object_images/tv01.jpg","img/object_images/mask01.jpg","img/object_images/belt01.jpg","1","1","1","0","0","0","0.639509999993606","0.499024000004283","0.425847599995905","1","1","1","1","1","1","1","1","1"
"260051","img/object_images/belt01.jpg","img/object_images/tv01.jpg","img/object_images/jewel01.jpg","1","1","1","0","0","0","0.425847599995905","0.639509999993606","0.41405880000093","1","1","1","1","1","1","1","1","1"
"260051","img/object_images/jewel01.jpg","img/object_images/belt01.jpg","img/object_images/ribbon01.jpg","1","1","1","0","0","0","0.41405880000093","0.425847599995905","0.447657099997741","1","1","1","1","1","1","1","1","1"
"260051","img/object_images/ribbon01.jpg","img/object_images/jewel01.jpg","img/object_images/lemon_squeezer02.jpg","1","1","1","0","0","1","0.447657099997741","0.41405880000093","0.443011099996511","1","1","1","1","1","1","1","1","1"
"260051","img/object_images/lemon_squeezer02.jpg","img/object_images/ribbon01.jpg","img/object_images/car04.jpg","1","1","1","1","0","0","0.443011099996511","0.447657099997741","0.454224400004023","1","1","1","1","1","1","1","1","1"
"260051","img/object_images/car04.jpg","img/object_images/lemon_squeezer02.jpg","img/object_images/shoes10.jpg","1","1","1","0","1","0","0.454224400004023","0.443011099996511","0.533558800001629","1","1","1","1","1","1","1","1","1"
"260051","img/object_images/shoes10.jpg","img/object_images/car04.jpg",NA,"1","1",NA,"0","0",NA,"0.533558800001629","0.454224400004023",NA,"1","1",NA,"1","1",NA,"1","1",NA
"260051","img/object_images/Vest02.jpg",NA,"img/object_images/laptop01.jpg","0",NA,"1","0",NA,"0","0.451954700009082",NA,"0.549774800005252","1",NA,"1","1",NA,"1","2",NA,"1"
"260051","img/object_images/laptop01.jpg","img/object_images/Vest02.jpg","img/object_images/hair_dryer01.jpg","1","0","1","0","0","0","0.549774800005252","0.451954700009082","0.509259500002372","1","1","1","1","1","1","1","2","1"
"260051","img/object_images/hair_dryer01.jpg","img/object_images/laptop01.jpg","img/object_images/chair02.jpg","1","1","1","0","0","1","0.509259500002372","0.549774800005252","0.376913500003866","1","1","1","1","1","1","1","1","1"
"260051","img/object_images/chair02.jpg","img/object_images/hair_dryer01.jpg","img/object_images/gift_box05.jpg","1","1","1","1","0","0","0.376913500003866","0.509259500002372","0.41946530000132","1","1","1","1","1","1","1","1","1"
"260051","img/object_images/gift_box05.jpg","img/object_images/chair02.jpg","img/object_images/toy05.jpg","1","1","1","0","1","0","0.41946530000132","0.376913500003866","0.341728900006274","1","1","1","1","1","1","1","1","1"
"260051","img/object_images/toy05.jpg","img/object_images/gift_box05.jpg","img/object_images/pitcher05.jpg","1","1","1","0","0","0","0.341728900006274","0.41946530000132","0.394976199997473","1","1","1","1","1","1","1","1","1"
"260051","img/object_images/pitcher05.jpg","img/object_images/toy05.jpg","img/object_images/microphone03.jpg","1","1","1","0","0","1","0.394976199997473","0.341728900006274","0.341677699994761","1","1","1","1","1","1","1","1","1"
"260051","img/object_images/microphone03.jpg","img/object_images/pitcher05.jpg","img/object_images/ball02.jpg","1","1","1","1","0","1","0.341677699994761","0.394976199997473","0.352104599995073","1","1","1","1","1","1","1","1","1"
"260051","img/object_images/ball02.jpg","img/object_images/microphone03.jpg","img/object_images/hair_brush02.jpg","1","1","1","1","1","0","0.352104599995073","0.341677699994761","0.302666000003228","1","1","1","1","1","1","1","1","1"
"260051","img/object_images/hair_brush02.jpg","img/object_images/ball02.jpg","img/object_images/helmet02.jpg","1","1","1","0","1","0","0.302666000003228","0.352104599995073","0.384978899994167","1","1","1","1","1","1","1","1","1"
"260051","img/object_images/helmet02.jpg","img/object_images/hair_brush02.jpg","img/object_images/trash_can03.jpg","1","1","1","0","0","1","0.384978899994167","0.302666000003228","0.419439800010878","1","1","1","1","1","1","1","1","1"
"260051","img/object_images/trash_can03.jpg","img/object_images/helmet02.jpg","img/object_images/combs01.jpg","1","1","1","1","0","1","0.419439800010878","0.384978899994167","0.369981000010739","1","1","1","1","1","1","1","1","1"
"260051","img/object_images/combs01.jpg","img/object_images/trash_can03.jpg","img/object_images/shoes08.jpg","1","1","1","1","1","1","0.369981000010739","0.419439800010878","0.398557099993923","1","1","1","1","1","1","1","1","1"
"260051","img/object_images/shoes08.jpg","img/object_images/combs01.jpg","img/object_images/laptop03.jpg","1","1","1","1","1","1","0.398557099993923","0.369981000010739","0.341071500006365","1","1","1","1","1","1","1","1","1"
"260051","img/object_images/laptop03.jpg","img/object_images/shoes08.jpg","img/object_images/robe01.jpg","1","1","1","1","1","1","0.341071500006365","0.398557099993923","0.34845979999227","1","1","1","1","1","1","1","1","1"
"260051","img/object_images/robe01.jpg","img/object_images/laptop03.jpg","img/object_images/surf_board01.jpg","1","1","0","1","1","1","0.34845979999227","0.341071500006365","0.348988999990979","1","1","1","1","1","1","1","1","1"
"260051","img/object_images/surf_board01.jpg","img/object_images/robe01.jpg","img/object_images/lock01.jpg","0","1","1","1","1","0","0.348988999990979","0.34845979999227","0.468348599999445","1","1","1","1","1","1","1","1","1"
"260051","img/object_images/lock01.jpg","img/object_images/surf_board01.jpg","img/object_images/accardion01.jpg","1","0","1","0","1","1","0.468348599999445","0.348988999990979","0.373571799995261","1","1","1","1","1","1","1","1","1"
"260051","img/object_images/accardion01.jpg","img/object_images/lock01.jpg","img/object_images/vase01.jpg","1","1","1","1","0","0","0.373571799995261","0.468348599999445","0.452240099999472","1","1","1","1","1","1","1","1","1"
"260051","img/object_images/vase01.jpg","img/object_images/accardion01.jpg","img/object_images/towels01.jpg","1","1","1","0","1","0","0.452240099999472","0.373571799995261","0.404017799999565","1","1","1","1","1","1","1","1","1"
"260051","img/object_images/towels01.jpg","img/object_images/vase01.jpg","img/object_images/trash_can05.jpg","1","1","1","0","0","1","0.404017799999565","0.452240099999472","0.474208600004204","1","1","1","1","1","1","1","1","1"
"260051","img/object_images/trash_can05.jpg","img/object_images/towels01.jpg","img/object_images/umbrella01.jpg","1","1","1","1","0","0","0.474208600004204","0.404017799999565","0.509820999999647","1","1","1","1","1","1","1","1","1"
"260051","img/object_images/umbrella01.jpg","img/object_images/trash_can05.jpg","img/object_images/fan04.jpg","1","1","1","0","1","0","0.509820999999647","0.474208600004204","0.55005639999581","1","1","1","1","1","1","1","1","1"
"260051","img/object_images/fan04.jpg","img/object_images/umbrella01.jpg","img/object_images/calculator01.jpg","1","1","1","0","0","1","0.55005639999581","0.509820999999647","0.456617299991194","1","1","1","1","1","1","1","1","1"
"260051","img/object_images/calculator01.jpg","img/object_images/fan04.jpg","img/object_images/jewel03.jpg","1","1","1","1","0","1","0.456617299991194","0.55005639999581","0.434472299995832","1","1","1","1","1","1","1","1","1"
"260051","img/object_images/jewel03.jpg","img/object_images/calculator01.jpg","img/object_images/spatula02.jpg","1","1","1","1","1","1","0.434472299995832","0.456617299991194","0.3665389999951","1","1","1","1","1","1","1","1","1"
"260051","img/object_images/spatula02.jpg","img/object_images/jewel03.jpg","img/object_images/backpack03.jpg","1","1","1","1","1","1","0.3665389999951","0.434472299995832","0.431527099994128","1","1","1","1","1","1","1","1","1"
"260051","img/object_images/backpack03.jpg","img/object_images/spatula02.jpg","img/object_images/bucket02.jpg","1","1","1","1","1","1","0.431527099994128","0.3665389999951","0.397172400000272","1","1","1","1","1","1","1","1","1"
"260051","img/object_images/bucket02.jpg","img/object_images/backpack03.jpg","img/object_images/stove01.jpg","1","1","0","1","1","0","0.397172400000272","0.431527099994128","0.412498099991353","1","1","1","1","1","1","1","1","1"
"260051","img/object_images/stove01.jpg","img/object_images/bucket02.jpg","img/object_images/Lint_Roller02.jpg","0","1","1","0","1","0","0.412498099991353","0.397172400000272","0.406355200000689","1","1","1","1","1","1","1","1","1"
"260051","img/object_images/Lint_Roller02.jpg","img/object_images/stove01.jpg","img/object_images/chess_piece01.jpg","1","0","1","0","0","0","0.406355200000689","0.412498099991353","0.388446099997964","1","1","1","1","1","1","1","1","1"
"260051","img/object_images/chess_piece01.jpg","img/object_images/Lint_Roller02.jpg",NA,"1","1",NA,"0","0",NA,"0.388446099997964","0.406355200000689",NA,"1","1",NA,"1","1",NA,"1","1",NA
"260051","img/object_images/egg_basket01.jpg",NA,"img/object_images/scale02.jpg","1",NA,"1","1",NA,"0","0.409941899997648",NA,"0.526626899998519","1",NA,"1","1",NA,"1","1",NA,"1"
"260051","img/object_images/scale02.jpg","img/object_images/egg_basket01.jpg","img/object_images/note_book02.jpg","1","1","0","0","1","0","0.526626899998519","0.409941899997648","0.352951900000335","1","1","1","1","1","1","1","1","1"
"260051","img/object_images/note_book02.jpg","img/object_images/scale02.jpg","img/object_images/Eyeliner01.jpg","0","1","1","0","0","1","0.352951900000335","0.526626899998519","0.324977700001909","1","1","1","1","1","1","1","1","1"
"260051","img/object_images/Eyeliner01.jpg","img/object_images/note_book02.jpg","img/object_images/belt03.jpg","1","0","0","1","0","0","0.324977700001909","0.352951900000335","0.315942000001087","1","1","1","1","1","1","1","1","1"
"260051","img/object_images/belt03.jpg","img/object_images/Eyeliner01.jpg","img/object_images/badminton01.jpg","0","1","1","0","1","1","0.315942000001087","0.324977700001909","0.472599799992167","1","1","1","1","1","1","1","1","1"
"260051","img/object_images/badminton01.jpg","img/object_images/belt03.jpg","img/object_images/lock03.jpg","1","0","1","1","0","1","0.472599799992167","0.315942000001087","0.406950200005667","1","1","1","1","1","1","1","1","1"
"260051","img/object_images/lock03.jpg","img/object_images/badminton01.jpg","img/object_images/jewel02.jpg","1","1","1","1","1","0","0.406950200005667","0.472599799992167","0.437157899999875","1","1","1","1","1","1","1","1","1"
"260051","img/object_images/jewel02.jpg","img/object_images/lock03.jpg","img/object_images/tennis_racket01.jpg","1","1","1","0","1","1","0.437157899999875","0.406950200005667","0.313951700009056","1","1","1","1","1","1","1","1","1"
"260051","img/object_images/tennis_racket01.jpg","img/object_images/jewel02.jpg","img/object_images/dice01.jpg","1","1","1","1","0","0","0.313951700009056","0.437157899999875","0.401999400011846","1","1","1","1","1","1","1","1","2"
"260051","img/object_images/dice01.jpg","img/object_images/tennis_racket01.jpg","img/object_images/phone04.jpg","1","1","1","0","1","1","0.401999400011846","0.313951700009056","0.371599100006279","1","1","1","1","1","1","2","1","1"
"260051","img/object_images/phone04.jpg","img/object_images/dice01.jpg","img/object_images/piano03.jpg","1","1","1","1","0","0","0.371599100006279","0.401999400011846","0.595214800006943","1","1","1","1","1","1","1","2","1"
"260051","img/object_images/piano03.jpg","img/object_images/phone04.jpg","img/object_images/shovel01.jpg","1","1","1","0","1","0","0.595214800006943","0.371599100006279","0.54347490001237","1","1","1","1","1","1","1","1","1"
"260051","img/object_images/shovel01.jpg","img/object_images/piano03.jpg","img/object_images/trumpet01.jpg","1","1","0","0","0","0","0.54347490001237","0.595214800006943","0.320948699998553","1","1","1","1","1","1","1","1","1"
"260051","img/object_images/trumpet01.jpg","img/object_images/shovel01.jpg","img/object_images/fan01.jpg","0","1","1","0","0","0","0.320948699998553","0.54347490001237","0.537821399993845","1","1","1","1","1","1","1","1","1"
"260051","img/object_images/fan01.jpg","img/object_images/trumpet01.jpg","img/object_images/ToolBag01.jpg","1","0","1","0","0","0","0.537821399993845","0.320948699998553","0.441527000002679","1","1","1","1","1","1","1","1","1"
"260051","img/object_images/ToolBag01.jpg","img/object_images/fan01.jpg","img/object_images/joystick03.jpg","1","1","1","0","0","1","0.441527000002679","0.537821399993845","0.368856899993261","1","1","1","1","1","1","1","1","1"
"260051","img/object_images/joystick03.jpg","img/object_images/ToolBag01.jpg","img/object_images/Safe01.jpg","1","1","1","1","0","1","0.368856899993261","0.441527000002679","0.285671899997396","1","1","1","1","1","1","1","1","1"
"260051","img/object_images/Safe01.jpg","img/object_images/joystick03.jpg","img/object_images/Shoes05.jpg","1","1","1","1","1","0","0.285671899997396","0.368856899993261","0.528954599998542","1","1","1","1","1","1","1","1","1"
"260051","img/object_images/Shoes05.jpg","img/object_images/Safe01.jpg","img/object_images/bottle06.jpg","1","1","1","0","1","0","0.528954599998542","0.285671899997396","0.41632240000763","1","1","1","1","1","1","1","1","1"
"260051","img/object_images/bottle06.jpg","img/object_images/Shoes05.jpg","img/object_images/pitcher07.jpg","1","1","1","0","0","1","0.41632240000763","0.528954599998542","0.327462400004151","1","1","1","1","1","1","1","1","1"
"260051","img/object_images/pitcher07.jpg","img/object_images/bottle06.jpg","img/object_images/headset02.jpg","1","1","0","1","0","0","0.327462400004151","0.41632240000763","0.295001000005868","1","1","1","1","1","1","1","1","1"
"260051","img/object_images/headset02.jpg","img/object_images/pitcher07.jpg","img/object_images/TreeSlice01.jpg","0","1","1","0","1","1","0.295001000005868","0.327462400004151","0.340615800014348","1","1","1","1","1","1","1","1","1"
"260051","img/object_images/TreeSlice01.jpg","img/object_images/headset02.jpg","img/object_images/bookmark01.jpg","1","0","1","1","0","0","0.340615800014348","0.295001000005868","0.33237079999526","1","1","1","1","1","1","1","1","1"
"260051","img/object_images/bookmark01.jpg","img/object_images/TreeSlice01.jpg","img/object_images/bucket01.jpg","1","1","1","0","1","1","0.33237079999526","0.340615800014348","0.449750300002052","1","1","1","1","1","1","1","1","1"
"260051","img/object_images/bucket01.jpg","img/object_images/bookmark01.jpg","img/object_images/frame01.jpg","1","1","0","1","0","1","0.449750300002052","0.33237079999526","0.247845899997628","1","1","1","1","1","1","1","1","1"
"260051","img/object_images/frame01.jpg","img/object_images/bucket01.jpg","img/object_images/nut_cracker01.jpg","0","1","1","1","1","1","0.247845899997628","0.449750300002052","0.348009400011506","1","1","1","1","1","1","1","1","1"
"260051","img/object_images/nut_cracker01.jpg","img/object_images/frame01.jpg","img/object_images/helmet03.jpg","1","0","1","1","1","1","0.348009400011506","0.247845899997628","0.501442100008717","1","1","1","1","1","1","1","1","1"
"260051","img/object_images/helmet03.jpg","img/object_images/nut_cracker01.jpg","img/object_images/yoga_mat01.jpg","1","1","0","1","1","0","0.501442100008717","0.348009400011506","0.388274800003273","1","1","1","1","1","1","1","1","1"
"260051","img/object_images/yoga_mat01.jpg","img/object_images/helmet03.jpg","img/object_images/origami01.jpg","0","1","1","0","1","1","0.388274800003273","0.501442100008717","0.402102299995022","1","1","1","1","1","1","1","1","1"
"260051","img/object_images/origami01.jpg","img/object_images/yoga_mat01.jpg","img/object_images/usb03.jpg","1","0","1","1","0","0","0.402102299995022","0.388274800003273","0.491737300006207","1","1","1","1","1","1","1","1","1"
"260051","img/object_images/usb03.jpg","img/object_images/origami01.jpg","img/object_images/water_gun01.jpg","1","1","1","0","1","1","0.491737300006207","0.402102299995022","0.373596699995687","1","1","1","1","1","1","1","1","1"
"260051","img/object_images/water_gun01.jpg","img/object_images/usb03.jpg",NA,"1","1",NA,"1","0",NA,"0.373596699995687","0.491737300006207",NA,"1","1",NA,"1","1",NA,"1","1",NA
