"participant_id","current_trial_object","pre_trial_object","post_trial_object","current_trial_accuracy","pre_trial_accuracy","post_trial_accuracy","current_trial_congruency","pre_trial_congruency","post_trial_congruency","current_trial_rt","pre_trial_rt","post_trial_rt","current_trial_responded","pre_trial_responded","post_trial_responded","current_trial_legitResponse","pre_trial_legitResponse","post_trial_legitResponse","current_trial_resp_nums","pre_trial_resp_nums","post_trial_resp_nums"
"260063","img/object_images/lock01.jpg",NA,"img/object_images/robe01.jpg","1",NA,"1","0",NA,"1","0.58302260000346",NA,"0.484975899998972","1",NA,"1","1",NA,"1","1",NA,"1"
"260063","img/object_images/robe01.jpg","img/object_images/lock01.jpg","img/object_images/backpack03.jpg","1","1","1","1","0","1","0.484975899998972","0.58302260000346","0.39299289999326","1","1","1","1","1","1","1","1","1"
"260063","img/object_images/backpack03.jpg","img/object_images/robe01.jpg","img/object_images/laptop03.jpg","1","1","1","1","1","1","0.39299289999326","0.484975899998972","0.460943899997801","1","1","1","1","1","1","1","1","1"
"260063","img/object_images/laptop03.jpg","img/object_images/backpack03.jpg","img/object_images/vase01.jpg","1","1","1","1","1","0","0.460943899997801","0.39299289999326","0.543538099998841","1","1","1","1","1","1","1","1","1"
"260063","img/object_images/vase01.jpg","img/object_images/laptop03.jpg","img/object_images/ball02.jpg","1","1","1","0","1","1","0.543538099998841","0.460943899997801","0.454156300002069","1","1","1","1","1","1","1","1","1"
"260063","img/object_images/ball02.jpg","img/object_images/vase01.jpg","img/object_images/towels01.jpg","1","1","1","1","0","0","0.454156300002069","0.543538099998841","0.539751399992383","1","1","1","1","1","1","1","1","1"
"260063","img/object_images/towels01.jpg","img/object_images/ball02.jpg","img/object_images/umbrella01.jpg","1","1","1","0","1","0","0.539751399992383","0.454156300002069","0.56894459999603","1","1","1","1","1","1","1","1","1"
"260063","img/object_images/umbrella01.jpg","img/object_images/towels01.jpg","img/object_images/gift_box05.jpg","1","1","1","0","0","0","0.56894459999603","0.539751399992383","0.504281000001356","1","1","1","1","1","1","1","1","1"
"260063","img/object_images/gift_box05.jpg","img/object_images/umbrella01.jpg","img/object_images/jewel03.jpg","1","1","1","0","0","1","0.504281000001356","0.56894459999603","0.426132899992808","1","1","1","1","1","1","1","1","1"
"260063","img/object_images/jewel03.jpg","img/object_images/gift_box05.jpg","img/object_images/microphone03.jpg","1","1","1","1","0","1","0.426132899992808","0.504281000001356","0.384744299997692","1","1","1","1","1","1","1","1","1"
"260063","img/object_images/microphone03.jpg","img/object_images/jewel03.jpg","img/object_images/fan04.jpg","1","1","1","1","1","0","0.384744299997692","0.426132899992808","0.410993400000734","1","1","1","1","1","1","1","1","1"
"260063","img/object_images/fan04.jpg","img/object_images/microphone03.jpg","img/object_images/chess_piece01.jpg","1","1","1","0","1","0","0.410993400000734","0.384744299997692","0.516920900001423","1","1","1","1","1","1","1","1","1"
"260063","img/object_images/chess_piece01.jpg","img/object_images/fan04.jpg","img/object_images/shoes08.jpg","1","1","1","0","0","1","0.516920900001423","0.410993400000734","0.40962259999651","1","1","1","1","1","1","1","1","1"
"260063","img/object_images/shoes08.jpg","img/object_images/chess_piece01.jpg","img/object_images/trash_can03.jpg","1","1","1","1","0","1","0.40962259999651","0.516920900001423","0.446801300000516","1","1","1","1","1","1","1","1","1"
"260063","img/object_images/trash_can03.jpg","img/object_images/shoes08.jpg","img/object_images/combs01.jpg","1","1","1","1","1","1","0.446801300000516","0.40962259999651","0.481129699997837","1","1","1","1","1","1","1","1","1"
"260063","img/object_images/combs01.jpg","img/object_images/trash_can03.jpg","img/object_images/surf_board01.jpg","1","1","1","1","1","1","0.481129699997837","0.446801300000516","0.434666799999832","1","1","1","1","1","1","1","1","1"
"260063","img/object_images/surf_board01.jpg","img/object_images/combs01.jpg","img/object_images/hair_brush02.jpg","1","1","1","1","1","0","0.434666799999832","0.481129699997837","0.46455949999654","1","1","1","1","1","1","1","1","1"
"260063","img/object_images/hair_brush02.jpg","img/object_images/surf_board01.jpg","img/object_images/bucket02.jpg","1","1","1","0","1","1","0.46455949999654","0.434666799999832","0.384810700001253","1","1","1","1","1","1","1","1","1"
"260063","img/object_images/bucket02.jpg","img/object_images/hair_brush02.jpg","img/object_images/hair_dryer01.jpg","1","1","1","1","0","0","0.384810700001253","0.46455949999654","0.475066199993307","1","1","1","1","1","1","1","1","1"
"260063","img/object_images/hair_dryer01.jpg","img/object_images/bucket02.jpg","img/object_images/trash_can05.jpg","1","1","1","0","1","1","0.475066199993307","0.384810700001253","0.480902700001025","1","1","1","1","1","1","1","1","1"
"260063","img/object_images/trash_can05.jpg","img/object_images/hair_dryer01.jpg","img/object_images/Lint_Roller02.jpg","1","1","1","1","0","0","0.480902700001025","0.475066199993307","0.37794710000162","1","1","1","1","1","1","1","1","1"
"260063","img/object_images/Lint_Roller02.jpg","img/object_images/trash_can05.jpg","img/object_images/accardion01.jpg","1","1","1","0","1","1","0.37794710000162","0.480902700001025","0.419274499996391","1","1","1","1","1","1","1","1","1"
"260063","img/object_images/accardion01.jpg","img/object_images/Lint_Roller02.jpg","img/object_images/spatula02.jpg","1","1","1","1","0","1","0.419274499996391","0.37794710000162","0.3755214000048","1","1","1","1","1","1","1","1","1"
"260063","img/object_images/spatula02.jpg","img/object_images/accardion01.jpg","img/object_images/Vest02.jpg","1","1","1","1","1","0","0.3755214000048","0.419274499996391","0.442692099997657","1","1","1","1","1","1","1","1","1"
"260063","img/object_images/Vest02.jpg","img/object_images/spatula02.jpg","img/object_images/toy05.jpg","1","1","1","0","1","0","0.442692099997657","0.3755214000048","0.551769499994407","1","1","1","1","1","1","1","1","1"
"260063","img/object_images/toy05.jpg","img/object_images/Vest02.jpg","img/object_images/chair02.jpg","1","1","1","0","0","1","0.551769499994407","0.442692099997657","0.424712999993062","1","1","1","1","1","1","1","1","1"
"260063","img/object_images/chair02.jpg","img/object_images/toy05.jpg","img/object_images/calculator01.jpg","1","1","1","1","0","1","0.424712999993062","0.551769499994407","0.415174299996579","1","1","1","1","1","1","1","1","1"
"260063","img/object_images/calculator01.jpg","img/object_images/chair02.jpg","img/object_images/laptop01.jpg","1","1","1","1","1","0","0.415174299996579","0.424712999993062","0.52217749999545","1","1","1","1","1","1","1","1","1"
"260063","img/object_images/laptop01.jpg","img/object_images/calculator01.jpg","img/object_images/stove01.jpg","1","1","0","0","1","0","0.52217749999545","0.415174299996579","0.424964300000283","1","1","1","1","1","1","1","1","2"
"260063","img/object_images/stove01.jpg","img/object_images/laptop01.jpg","img/object_images/helmet02.jpg","0","1","1","0","0","0","0.424964300000283","0.52217749999545","0.637106499998481","1","1","1","1","1","1","2","1","1"
"260063","img/object_images/helmet02.jpg","img/object_images/stove01.jpg","img/object_images/pitcher05.jpg","1","0","1","0","0","0","0.637106499998481","0.424964300000283","0.497594200001913","1","1","1","1","1","1","1","2","1"
"260063","img/object_images/pitcher05.jpg","img/object_images/helmet02.jpg",NA,"1","1",NA,"0","0",NA,"0.497594200001913","0.637106499998481",NA,"1","1",NA,"1","1",NA,"1","1",NA
"260063","img/object_images/tool11.jpg",NA,"img/object_images/car03.jpg","1",NA,"1","1",NA,"0","0.696397299994715",NA,"0.512446999993699","1",NA,"1","1",NA,"1","1",NA,"1"
"260063","img/object_images/car03.jpg","img/object_images/tool11.jpg","img/object_images/MeasuringCup01.jpg","1","1","1","0","1","1","0.512446999993699","0.696397299994715","0.433031499997014","1","1","1","1","1","1","1","1","1"
"260063","img/object_images/MeasuringCup01.jpg","img/object_images/car03.jpg","img/object_images/razor01.jpg","1","1","1","1","0","0","0.433031499997014","0.512446999993699","0.49215269999695","1","1","1","1","1","1","1","1","1"
"260063","img/object_images/razor01.jpg","img/object_images/MeasuringCup01.jpg","img/object_images/cards01.jpg","1","1","1","0","1","0","0.49215269999695","0.433031499997014","0.48209389999829","1","1","1","1","1","1","1","1","1"
"260063","img/object_images/cards01.jpg","img/object_images/razor01.jpg","img/object_images/dress03.jpg","1","1","1","0","0","1","0.48209389999829","0.49215269999695","0.511265900000581","1","1","1","1","1","1","1","1","1"
"260063","img/object_images/dress03.jpg","img/object_images/cards01.jpg","img/object_images/car04.jpg","1","1","1","1","0","0","0.511265900000581","0.48209389999829","0.519096800002444","1","1","1","1","1","1","1","1","1"
"260063","img/object_images/car04.jpg","img/object_images/dress03.jpg","img/object_images/ribbon01.jpg","1","1","1","0","1","0","0.519096800002444","0.511265900000581","0.546249199993326","1","1","1","1","1","1","1","1","1"
"260063","img/object_images/ribbon01.jpg","img/object_images/car04.jpg","img/object_images/shower_head03.jpg","1","1","1","0","0","1","0.546249199993326","0.519096800002444","0.438693899995997","1","1","1","1","1","1","1","1","1"
"260063","img/object_images/shower_head03.jpg","img/object_images/ribbon01.jpg","img/object_images/screwdriver01.jpg","1","1","1","1","0","0","0.438693899995997","0.546249199993326","0.459624600000097","1","1","1","1","1","1","1","1","1"
"260063","img/object_images/screwdriver01.jpg","img/object_images/shower_head03.jpg","img/object_images/hair_brush05.jpg","1","1","1","0","1","1","0.459624600000097","0.438693899995997","0.428464799995709","1","1","1","1","1","1","1","1","1"
"260063","img/object_images/hair_brush05.jpg","img/object_images/screwdriver01.jpg","img/object_images/ice_tray03.jpg","1","1","1","1","0","1","0.428464799995709","0.459624600000097","0.414732600002026","1","1","1","1","1","1","1","1","1"
"260063","img/object_images/ice_tray03.jpg","img/object_images/hair_brush05.jpg","img/object_images/mask01.jpg","1","1","1","1","1","0","0.414732600002026","0.428464799995709","0.48084050000034","1","1","1","1","1","1","1","1","1"
"260063","img/object_images/mask01.jpg","img/object_images/ice_tray03.jpg","img/object_images/chair04.jpg","1","1","1","0","1","1","0.48084050000034","0.414732600002026","0.433780799998203","1","1","1","1","1","1","1","1","1"
"260063","img/object_images/chair04.jpg","img/object_images/mask01.jpg","img/object_images/fan05.jpg","1","1","1","1","0","0","0.433780799998203","0.48084050000034","0.474750900000799","1","1","1","1","1","1","1","1","1"
"260063","img/object_images/fan05.jpg","img/object_images/chair04.jpg","img/object_images/binoculars03.jpg","1","1","1","0","1","1","0.474750900000799","0.433780799998203","0.388999399998283","1","1","1","1","1","1","1","1","1"
"260063","img/object_images/binoculars03.jpg","img/object_images/fan05.jpg","img/object_images/belt01.jpg","1","1","1","1","0","0","0.388999399998283","0.474750900000799","0.402767400002631","1","1","1","1","1","1","1","1","1"
"260063","img/object_images/belt01.jpg","img/object_images/binoculars03.jpg","img/object_images/ladle02.jpg","1","1","1","0","1","0","0.402767400002631","0.388999399998283","0.434395699994639","1","1","1","1","1","1","1","1","1"
"260063","img/object_images/ladle02.jpg","img/object_images/belt01.jpg","img/object_images/tv01.jpg","1","1","1","0","0","0","0.434395699994639","0.402767400002631","0.462211999998544","1","1","1","1","1","1","1","1","1"
"260063","img/object_images/tv01.jpg","img/object_images/ladle02.jpg","img/object_images/slinky_toy01.jpg","1","1","1","0","0","1","0.462211999998544","0.434395699994639","0.40202099999442","1","1","1","1","1","1","1","1","1"
"260063","img/object_images/slinky_toy01.jpg","img/object_images/tv01.jpg","img/object_images/cutting_board01.jpg","1","1","1","1","0","1","0.40202099999442","0.462211999998544","0.40238970000064","1","1","1","1","1","1","1","1","1"
"260063","img/object_images/cutting_board01.jpg","img/object_images/slinky_toy01.jpg","img/object_images/WitchHat02.jpg","1","1","1","1","1","1","0.40238970000064","0.40202099999442","0.409971299995959","1","1","1","1","1","1","1","1","1"
"260063","img/object_images/WitchHat02.jpg","img/object_images/cutting_board01.jpg","img/object_images/toaster02.jpg","1","1","1","1","1","1","0.409971299995959","0.40238970000064","0.378041500000108","1","1","1","1","1","1","1","1","1"
"260063","img/object_images/toaster02.jpg","img/object_images/WitchHat02.jpg","img/object_images/rock03.jpg","1","1","1","1","1","0","0.378041500000108","0.409971299995959","0.461802199999511","1","1","1","1","1","1","1","1","1"
"260063","img/object_images/rock03.jpg","img/object_images/toaster02.jpg","img/object_images/satellite01.jpg","1","1","0","0","1","0","0.461802199999511","0.378041500000108","0.449066799999855","1","1","1","1","1","1","1","1","1"
"260063","img/object_images/satellite01.jpg","img/object_images/rock03.jpg","img/object_images/yarn02.jpg","0","1","1","0","0","0","0.449066799999855","0.461802199999511","0.532291299998178","1","1","1","1","1","1","1","1","1"
"260063","img/object_images/yarn02.jpg","img/object_images/satellite01.jpg","img/object_images/shoes10.jpg","1","0","1","0","0","0","0.532291299998178","0.449066799999855","0.444578599999659","1","1","1","1","1","1","1","1","1"
"260063","img/object_images/shoes10.jpg","img/object_images/yarn02.jpg","img/object_images/jewel01.jpg","1","1","0","0","0","0","0.444578599999659","0.532291299998178","0.408031899998605","1","1","1","1","1","1","1","1","2"
"260063","img/object_images/jewel01.jpg","img/object_images/shoes10.jpg","img/object_images/bag06.jpg","0","1","1","0","0","1","0.408031899998605","0.444578599999659","0.434499999995751","1","1","1","1","1","1","2","1","1"
"260063","img/object_images/bag06.jpg","img/object_images/jewel01.jpg","img/object_images/jewelry07.jpg","1","0","1","1","0","1","0.434499999995751","0.408031899998605","0.434836399996129","1","1","1","1","1","1","1","2","1"
"260063","img/object_images/jewelry07.jpg","img/object_images/bag06.jpg","img/object_images/lemon_squeezer02.jpg","1","1","1","1","1","1","0.434836399996129","0.434499999995751","0.421894300001441","1","1","1","1","1","1","1","1","1"
"260063","img/object_images/lemon_squeezer02.jpg","img/object_images/jewelry07.jpg","img/object_images/key02.jpg","1","1","1","1","1","1","0.421894300001441","0.434836399996129","0.51018699999986","1","1","1","1","1","1","1","1","1"
"260063","img/object_images/key02.jpg","img/object_images/lemon_squeezer02.jpg",NA,"1","1",NA,"1","1",NA,"0.51018699999986","0.421894300001441",NA,"1","1",NA,"1","1",NA,"1","1",NA
"260063","img/object_images/shovel01.jpg",NA,"img/object_images/lock03.jpg","1",NA,"1","0",NA,"1","0.457089099996665",NA,"0.378285399994638","1",NA,"1","1",NA,"1","1",NA,"1"
"260063","img/object_images/lock03.jpg","img/object_images/shovel01.jpg","img/object_images/Shoes05.jpg","1","1","1","1","0","0","0.378285399994638","0.457089099996665","0.391964599999483","1","1","1","1","1","1","1","1","1"
"260063","img/object_images/Shoes05.jpg","img/object_images/lock03.jpg","img/object_images/phone04.jpg","1","1","1","0","1","1","0.391964599999483","0.378285399994638","0.398061199994117","1","1","1","1","1","1","1","1","1"
"260063","img/object_images/phone04.jpg","img/object_images/Shoes05.jpg","img/object_images/fan01.jpg","1","1","1","1","0","0","0.398061199994117","0.391964599999483","0.473927599996387","1","1","1","1","1","1","1","1","1"
"260063","img/object_images/fan01.jpg","img/object_images/phone04.jpg","img/object_images/headset02.jpg","1","1","0","0","1","0","0.473927599996387","0.398061199994117","0.410282999997435","1","1","1","1","1","1","1","1","1"
"260063","img/object_images/headset02.jpg","img/object_images/fan01.jpg","img/object_images/nut_cracker01.jpg","0","1","1","0","0","1","0.410282999997435","0.473927599996387","0.452300500001002","1","1","1","1","1","1","1","1","1"
"260063","img/object_images/nut_cracker01.jpg","img/object_images/headset02.jpg","img/object_images/belt03.jpg","1","0","1","1","0","0","0.452300500001002","0.410282999997435","0.527016399995773","1","1","1","1","1","1","1","1","1"
"260063","img/object_images/belt03.jpg","img/object_images/nut_cracker01.jpg","img/object_images/bottle06.jpg","1","1","1","0","1","0","0.527016399995773","0.452300500001002","0.565693800002919","1","1","1","1","1","1","1","1","1"
"260063","img/object_images/bottle06.jpg","img/object_images/belt03.jpg","img/object_images/note_book02.jpg","1","1","1","0","0","0","0.565693800002919","0.527016399995773","0.54218750000291","1","1","1","1","1","1","1","1","1"
"260063","img/object_images/note_book02.jpg","img/object_images/bottle06.jpg","img/object_images/joystick03.jpg","1","1","1","0","0","1","0.54218750000291","0.565693800002919","0.411563599998772","1","1","1","1","1","1","1","1","1"
"260063","img/object_images/joystick03.jpg","img/object_images/note_book02.jpg","img/object_images/tennis_racket01.jpg","1","1","1","1","0","1","0.411563599998772","0.54218750000291","0.462404099998821","1","1","1","1","1","1","1","1","1"
"260063","img/object_images/tennis_racket01.jpg","img/object_images/joystick03.jpg","img/object_images/pitcher07.jpg","1","1","1","1","1","1","0.462404099998821","0.411563599998772","0.51917809999577","1","1","1","1","1","1","1","1","1"
"260063","img/object_images/pitcher07.jpg","img/object_images/tennis_racket01.jpg","img/object_images/frame01.jpg","1","1","1","1","1","1","0.51917809999577","0.462404099998821","0.465662699993118","1","1","1","1","1","1","1","1","1"
"260063","img/object_images/frame01.jpg","img/object_images/pitcher07.jpg","img/object_images/helmet03.jpg","1","1","1","1","1","1","0.465662699993118","0.51917809999577","0.472427899992908","1","1","1","1","1","1","1","1","1"
"260063","img/object_images/helmet03.jpg","img/object_images/frame01.jpg","img/object_images/scale02.jpg","1","1","1","1","1","0","0.472427899992908","0.465662699993118","0.497981799999252","1","1","1","1","1","1","1","1","1"
"260063","img/object_images/scale02.jpg","img/object_images/helmet03.jpg","img/object_images/usb03.jpg","1","1","1","0","1","0","0.497981799999252","0.472427899992908","0.515980600001058","1","1","1","1","1","1","1","1","1"
"260063","img/object_images/usb03.jpg","img/object_images/scale02.jpg","img/object_images/jewel02.jpg","1","1","1","0","0","0","0.515980600001058","0.497981799999252","0.549927499996556","1","1","1","1","1","1","1","1","1"
"260063","img/object_images/jewel02.jpg","img/object_images/usb03.jpg","img/object_images/Eyeliner01.jpg","1","1","1","0","0","1","0.549927499996556","0.515980600001058","0.410938000000897","1","1","1","1","1","1","1","1","1"
"260063","img/object_images/Eyeliner01.jpg","img/object_images/jewel02.jpg","img/object_images/TreeSlice01.jpg","1","1","1","1","0","1","0.410938000000897","0.549927499996556","0.416022899997188","1","1","1","1","1","1","1","1","1"
"260063","img/object_images/TreeSlice01.jpg","img/object_images/Eyeliner01.jpg","img/object_images/trumpet01.jpg","1","1","1","1","1","0","0.416022899997188","0.410938000000897","0.518795599993609","1","1","1","1","1","1","1","1","1"
"260063","img/object_images/trumpet01.jpg","img/object_images/TreeSlice01.jpg","img/object_images/yoga_mat01.jpg","1","1","1","0","1","0","0.518795599993609","0.416022899997188","0.505786199995782","1","1","1","1","1","1","1","1","1"
"260063","img/object_images/yoga_mat01.jpg","img/object_images/trumpet01.jpg","img/object_images/bucket01.jpg","1","1","1","0","0","1","0.505786199995782","0.518795599993609","0.457197800002177","1","1","1","1","1","1","1","1","1"
"260063","img/object_images/bucket01.jpg","img/object_images/yoga_mat01.jpg","img/object_images/Safe01.jpg","1","1","1","1","0","1","0.457197800002177","0.505786199995782","0.443110099993646","1","1","1","1","1","1","1","1","1"
"260063","img/object_images/Safe01.jpg","img/object_images/bucket01.jpg","img/object_images/dice01.jpg","1","1","0","1","1","0","0.443110099993646","0.457197800002177","0.373056800002814","1","1","1","1","1","1","1","1","1"
"260063","img/object_images/dice01.jpg","img/object_images/Safe01.jpg","img/object_images/bookmark01.jpg","0","1","1","0","1","0","0.373056800002814","0.443110099993646","0.46802690000186","1","1","1","1","1","1","1","1","1"
"260063","img/object_images/bookmark01.jpg","img/object_images/dice01.jpg","img/object_images/water_gun01.jpg","1","0","1","0","0","1","0.46802690000186","0.373056800002814","0.359660499998427","1","1","1","1","1","1","1","1","1"
"260063","img/object_images/water_gun01.jpg","img/object_images/bookmark01.jpg","img/object_images/egg_basket01.jpg","1","1","1","1","0","1","0.359660499998427","0.46802690000186","0.459524699996109","1","1","1","1","1","1","1","1","1"
"260063","img/object_images/egg_basket01.jpg","img/object_images/water_gun01.jpg","img/object_images/badminton01.jpg","1","1","1","1","1","1","0.459524699996109","0.359660499998427","0.392668699998467","1","1","1","1","1","1","1","1","1"
"260063","img/object_images/badminton01.jpg","img/object_images/egg_basket01.jpg","img/object_images/piano03.jpg","1","1","1","1","1","0","0.392668699998467","0.459524699996109","0.468769199993403","1","1","1","1","1","1","1","1","1"
"260063","img/object_images/piano03.jpg","img/object_images/badminton01.jpg","img/object_images/ToolBag01.jpg","1","1","1","0","1","0","0.468769199993403","0.392668699998467","0.504814400002942","1","1","1","1","1","1","1","1","1"
"260063","img/object_images/ToolBag01.jpg","img/object_images/piano03.jpg","img/object_images/origami01.jpg","1","1","1","0","0","1","0.504814400002942","0.468769199993403","0.389722300002177","1","1","1","1","1","1","1","1","1"
"260063","img/object_images/origami01.jpg","img/object_images/ToolBag01.jpg",NA,"1","1",NA,"1","0",NA,"0.389722300002177","0.504814400002942",NA,"1","1",NA,"1","1",NA,"1","1",NA
"260063","img/object_images/knit01.jpg",NA,"img/object_images/boat02.jpg","1",NA,"1","0",NA,"1","0.530819799998426",NA,"0.530225499998778","1",NA,"1","1",NA,"1","1",NA,"1"
"260063","img/object_images/boat02.jpg","img/object_images/knit01.jpg","img/object_images/hat06.jpg","1","1","1","1","0","0","0.530225499998778","0.530819799998426","0.507927999999083","1","1","1","1","1","1","1","1","1"
"260063","img/object_images/hat06.jpg","img/object_images/boat02.jpg","img/object_images/boat_toy10.jpg","1","1","1","0","1","0","0.507927999999083","0.530225499998778","0.462603599997237","1","1","1","1","1","1","1","1","1"
"260063","img/object_images/boat_toy10.jpg","img/object_images/hat06.jpg","img/object_images/flask01.jpg","1","1","1","0","0","0","0.462603599997237","0.507927999999083","0.596919299998262","1","1","1","1","1","1","1","1","1"
"260063","img/object_images/flask01.jpg","img/object_images/boat_toy10.jpg","img/object_images/tool19.jpg","1","1","1","0","0","1","0.596919299998262","0.462603599997237","0.423192099995504","1","1","1","1","1","1","1","1","1"
"260063","img/object_images/tool19.jpg","img/object_images/flask01.jpg","img/object_images/bean_bag02.jpg","1","1","1","1","0","1","0.423192099995504","0.596919299998262","0.439099600000191","1","1","1","1","1","1","1","1","1"
"260063","img/object_images/bean_bag02.jpg","img/object_images/tool19.jpg","img/object_images/fan02.jpg","1","1","1","1","1","0","0.439099600000191","0.423192099995504","0.538898300001165","1","1","1","1","1","1","1","1","1"
"260063","img/object_images/fan02.jpg","img/object_images/bean_bag02.jpg","img/object_images/audio_port01.jpg","1","1","1","0","1","1","0.538898300001165","0.439099600000191","0.453973199997563","1","1","1","1","1","1","1","1","1"
"260063","img/object_images/audio_port01.jpg","img/object_images/fan02.jpg","img/object_images/water_scooter01.jpg","1","1","1","1","0","1","0.453973199997563","0.538898300001165","0.38278879999416","1","1","1","1","1","1","1","1","1"
"260063","img/object_images/water_scooter01.jpg","img/object_images/audio_port01.jpg","img/object_images/coloring_pencil02.jpg","1","1","1","1","1","0","0.38278879999416","0.453973199997563","0.557333899996593","1","1","1","1","1","1","1","1","1"
"260063","img/object_images/coloring_pencil02.jpg","img/object_images/water_scooter01.jpg","img/object_images/bottle10.jpg","1","1","1","0","1","1","0.557333899996593","0.38278879999416","0.404300800000783","1","1","1","1","1","1","1","1","1"
"260063","img/object_images/bottle10.jpg","img/object_images/coloring_pencil02.jpg","img/object_images/piggy_bank01.jpg","1","1","1","1","0","1","0.404300800000783","0.557333899996593","0.421995999997307","1","1","1","1","1","1","1","1","1"
"260063","img/object_images/piggy_bank01.jpg","img/object_images/bottle10.jpg","img/object_images/shoes07.jpg","1","1","1","1","1","0","0.421995999997307","0.404300800000783","0.470961200000602","1","1","1","1","1","1","1","1","1"
"260063","img/object_images/shoes07.jpg","img/object_images/piggy_bank01.jpg","img/object_images/toaster01.jpg","1","1","1","0","1","1","0.470961200000602","0.421995999997307","0.48169549999875","1","1","1","1","1","1","1","1","1"
"260063","img/object_images/toaster01.jpg","img/object_images/shoes07.jpg","img/object_images/purse04.jpg","1","1","1","1","0","1","0.48169549999875","0.470961200000602","0.382184899994172","1","1","1","1","1","1","1","1","1"
"260063","img/object_images/purse04.jpg","img/object_images/toaster01.jpg","img/object_images/pen05.jpg","1","1","1","1","1","0","0.382184899994172","0.48169549999875","0.452883199999633","1","1","1","1","1","1","1","1","1"
"260063","img/object_images/pen05.jpg","img/object_images/purse04.jpg","img/object_images/helmet04.jpg","1","1","1","0","1","1","0.452883199999633","0.382184899994172","0.365860299993074","1","1","1","1","1","1","1","1","1"
"260063","img/object_images/helmet04.jpg","img/object_images/pen05.jpg","img/object_images/dog_leash01.jpg","1","1","1","1","0","0","0.365860299993074","0.452883199999633","0.433113400002185","1","1","1","1","1","1","1","1","1"
"260063","img/object_images/dog_leash01.jpg","img/object_images/helmet04.jpg","img/object_images/camera_lens01.jpg","1","1","1","0","1","1","0.433113400002185","0.365860299993074","0.626756799996656","1","1","1","1","1","1","1","1","1"
"260063","img/object_images/camera_lens01.jpg","img/object_images/dog_leash01.jpg","img/object_images/bottle02.jpg","1","1","1","1","0","1","0.626756799996656","0.433113400002185","0.396405499996035","1","1","1","1","1","1","1","1","1"
"260063","img/object_images/bottle02.jpg","img/object_images/camera_lens01.jpg","img/object_images/bicycle01.jpg","1","1","1","1","1","1","0.396405499996035","0.626756799996656","0.342390500001784","1","1","1","1","1","1","1","1","1"
"260063","img/object_images/bicycle01.jpg","img/object_images/bottle02.jpg","img/object_images/bottle09.jpg","1","1","1","1","1","0","0.342390500001784","0.396405499996035","0.455655399993702","1","1","1","1","1","1","1","1","1"
"260063","img/object_images/bottle09.jpg","img/object_images/bicycle01.jpg","img/object_images/perfume02.jpg","1","1","1","0","1","0","0.455655399993702","0.342390500001784","0.490531399998872","1","1","1","1","1","1","1","1","1"
"260063","img/object_images/perfume02.jpg","img/object_images/bottle09.jpg","img/object_images/hot_air_balloon02.jpg","1","1","1","0","0","0","0.490531399998872","0.455655399993702","0.36521619999985","1","1","1","1","1","1","1","1","1"
"260063","img/object_images/hot_air_balloon02.jpg","img/object_images/perfume02.jpg","img/object_images/toilet_paper_dispenser01.jpg","1","1","1","0","0","1","0.36521619999985","0.490531399998872","0.385014799998317","1","1","1","1","1","1","1","1","1"
"260063","img/object_images/toilet_paper_dispenser01.jpg","img/object_images/hot_air_balloon02.jpg","img/object_images/chair03.jpg","1","1","1","1","0","0","0.385014799998317","0.36521619999985","0.399754700003541","1","1","1","1","1","1","1","1","1"
"260063","img/object_images/chair03.jpg","img/object_images/toilet_paper_dispenser01.jpg","img/object_images/tie02.jpg","1","1","1","0","1","0","0.399754700003541","0.385014799998317","0.687037399999099","1","1","1","1","1","1","1","1","1"
"260063","img/object_images/tie02.jpg","img/object_images/chair03.jpg","img/object_images/scoreboard01.jpg","1","1","1","0","0","1","0.687037399999099","0.399754700003541","0.429094799997984","1","1","1","1","1","1","1","1","1"
"260063","img/object_images/scoreboard01.jpg","img/object_images/tie02.jpg","img/object_images/wagon_cart03.jpg","1","1","1","1","0","1","0.429094799997984","0.687037399999099","0.397710999997798","1","1","1","1","1","1","1","1","1"
"260063","img/object_images/wagon_cart03.jpg","img/object_images/scoreboard01.jpg","img/object_images/WoodBox01.jpg","1","1","1","1","1","0","0.397710999997798","0.429094799997984","0.525835200001893","1","1","1","1","1","1","1","1","1"
"260063","img/object_images/WoodBox01.jpg","img/object_images/wagon_cart03.jpg","img/object_images/cellphone03.jpg","1","1","1","0","1","0","0.525835200001893","0.397710999997798","0.470368100002815","1","1","1","1","1","1","1","1","1"
"260063","img/object_images/cellphone03.jpg","img/object_images/WoodBox01.jpg",NA,"1","1",NA,"0","0",NA,"0.470368100002815","0.525835200001893",NA,"1","1",NA,"1","1",NA,"1","1",NA
"260063","img/object_images/acoustic_capo01.jpg",NA,"img/object_images/fridge03.jpg","1",NA,"1","1",NA,"0","0.501180999999633",NA,"0.469754999998258","1",NA,"1","1",NA,"1","1",NA,"1"
"260063","img/object_images/fridge03.jpg","img/object_images/acoustic_capo01.jpg","img/object_images/tool09.jpg","1","1","1","0","1","1","0.469754999998258","0.501180999999633","0.477579999998852","1","1","1","1","1","1","1","1","1"
"260063","img/object_images/tool09.jpg","img/object_images/fridge03.jpg","img/object_images/judge_gavel01.jpg","1","1","1","1","0","1","0.477579999998852","0.469754999998258","0.4525472000023","1","1","1","1","1","1","1","1","1"
"260063","img/object_images/judge_gavel01.jpg","img/object_images/tool09.jpg","img/object_images/Stool01.jpg","1","1","1","1","1","0","0.4525472000023","0.477579999998852","0.508752499998081","1","1","1","1","1","1","1","1","1"
"260063","img/object_images/Stool01.jpg","img/object_images/judge_gavel01.jpg","img/object_images/ornament01.jpg","1","1","1","0","1","1","0.508752499998081","0.4525472000023","0.383759099997405","1","1","1","1","1","1","1","1","1"
"260063","img/object_images/ornament01.jpg","img/object_images/Stool01.jpg","img/object_images/outlet01.jpg","1","1","0","1","0","0","0.383759099997405","0.508752499998081","0.344011000001046","1","1","1","1","1","1","1","1","1"
"260063","img/object_images/outlet01.jpg","img/object_images/ornament01.jpg","img/object_images/sink01.jpg","0","1","1","0","1","0","0.344011000001046","0.383759099997405","0.458552899995993","1","1","1","1","1","1","1","1","1"
"260063","img/object_images/sink01.jpg","img/object_images/outlet01.jpg","img/object_images/Vacuum01.jpg","1","0","1","0","0","0","0.458552899995993","0.344011000001046","0.516568099999859","1","1","1","1","1","1","1","1","1"
"260063","img/object_images/Vacuum01.jpg","img/object_images/sink01.jpg","img/object_images/crown02.jpg","1","1","1","0","0","1","0.516568099999859","0.458552899995993","0.454360399999132","1","1","1","1","1","1","1","1","1"
"260063","img/object_images/crown02.jpg","img/object_images/Vacuum01.jpg","img/object_images/tool02.jpg","1","1","1","1","0","1","0.454360399999132","0.516568099999859","0.44063649999589","1","1","1","1","1","1","1","1","1"
"260063","img/object_images/tool02.jpg","img/object_images/crown02.jpg","img/object_images/guitar02.jpg","1","1","1","1","1","0","0.44063649999589","0.454360399999132","0.456780799999251","1","1","1","1","1","1","1","1","1"
"260063","img/object_images/guitar02.jpg","img/object_images/tool02.jpg","img/object_images/watch01.jpg","1","1","1","0","1","0","0.456780799999251","0.44063649999589","0.433488299997407","1","1","1","1","1","1","1","1","1"
"260063","img/object_images/watch01.jpg","img/object_images/guitar02.jpg","img/object_images/toy03.jpg","1","1","1","0","0","1","0.433488299997407","0.456780799999251","0.415332399992622","1","1","1","1","1","1","1","1","1"
"260063","img/object_images/toy03.jpg","img/object_images/watch01.jpg","img/object_images/helmet01.jpg","1","1","1","1","0","0","0.415332399992622","0.433488299997407","0.515884899999946","1","1","1","1","1","1","1","1","1"
"260063","img/object_images/helmet01.jpg","img/object_images/toy03.jpg","img/object_images/frisbee01.jpg","1","1","1","0","1","1","0.515884899999946","0.415332399992622","0.433805199994822","1","1","1","1","1","1","1","1","1"
"260063","img/object_images/frisbee01.jpg","img/object_images/helmet01.jpg","img/object_images/jewel04.jpg","1","1","1","1","0","0","0.433805199994822","0.515884899999946","0.502705599996261","1","1","1","1","1","1","1","1","1"
"260063","img/object_images/jewel04.jpg","img/object_images/frisbee01.jpg","img/object_images/gauze01.jpg","1","1","1","0","1","0","0.502705599996261","0.433805199994822","0.502809599995089","1","1","1","1","1","1","1","1","1"
"260063","img/object_images/gauze01.jpg","img/object_images/jewel04.jpg","img/object_images/MetalWire01.jpg","1","1","1","0","0","0","0.502809599995089","0.502705599996261","0.470908999996027","1","1","1","1","1","1","1","1","1"
"260063","img/object_images/MetalWire01.jpg","img/object_images/gauze01.jpg","img/object_images/toy04.jpg","1","1","1","0","0","0","0.470908999996027","0.502809599995089","0.438741999998456","1","1","1","1","1","1","1","1","1"
"260063","img/object_images/toy04.jpg","img/object_images/MetalWire01.jpg","img/object_images/mirror01.jpg","1","1","1","0","0","1","0.438741999998456","0.470908999996027","0.472043800000392","1","1","1","1","1","1","1","1","1"
"260063","img/object_images/mirror01.jpg","img/object_images/toy04.jpg","img/object_images/shovel03.jpg","1","1","1","1","0","1","0.472043800000392","0.438741999998456","0.434868799995456","1","1","1","1","1","1","1","1","1"
"260063","img/object_images/shovel03.jpg","img/object_images/mirror01.jpg","img/object_images/towel02.jpg","1","1","1","1","1","1","0.434868799995456","0.472043800000392","0.375952700000198","1","1","1","1","1","1","1","1","1"
"260063","img/object_images/towel02.jpg","img/object_images/shovel03.jpg","img/object_images/video_game07.jpg","1","1","1","1","1","1","0.375952700000198","0.434868799995456","0.439442499999132","1","1","1","1","1","1","1","1","1"
"260063","img/object_images/video_game07.jpg","img/object_images/towel02.jpg","img/object_images/bird_house02.jpg","1","1","1","1","1","1","0.439442499999132","0.375952700000198","0.390410100000736","1","1","1","1","1","1","1","1","1"
"260063","img/object_images/bird_house02.jpg","img/object_images/video_game07.jpg","img/object_images/stapler.jpg","1","1","1","1","1","1","0.390410100000736","0.439442499999132","0.342755199999374","1","1","1","1","1","1","1","1","1"
"260063","img/object_images/stapler.jpg","img/object_images/bird_house02.jpg","img/object_images/Ring02.jpg","1","1","0","1","1","0","0.342755199999374","0.390410100000736",NA,"1","1","0","1","1","0","1","1","0"
"260063","img/object_images/Ring02.jpg","img/object_images/stapler.jpg","img/object_images/pot01 (1).jpg","0","1","1","0","1","0",NA,"0.342755199999374","0.504148099993472","0","1","1","0","1","1","0","1","1"
"260063","img/object_images/pot01 (1).jpg","img/object_images/Ring02.jpg","img/object_images/bow01.jpg","1","0","1","0","0","1","0.504148099993472",NA,"0.389246099999582","1","0","1","1","0","1","1","0","1"
"260063","img/object_images/bow01.jpg","img/object_images/pot01 (1).jpg","img/object_images/dart01.jpg","1","1","1","1","0","0","0.389246099999582","0.504148099993472","0.585210899997037","1","1","1","1","1","1","1","1","1"
"260063","img/object_images/dart01.jpg","img/object_images/bow01.jpg","img/object_images/Tin01.jpg","1","1","1","0","1","1","0.585210899997037","0.389246099999582","0.399910499996622","1","1","1","1","1","1","1","1","1"
"260063","img/object_images/Tin01.jpg","img/object_images/dart01.jpg","img/object_images/bottle05.jpg","1","1","1","1","0","0","0.399910499996622","0.585210899997037","0.418337600000086","1","1","1","1","1","1","1","1","1"
"260063","img/object_images/bottle05.jpg","img/object_images/Tin01.jpg",NA,"1","1",NA,"0","1",NA,"0.418337600000086","0.399910499996622",NA,"1","1",NA,"1","1",NA,"1","1",NA
"260063","img/object_images/couch01.jpg",NA,"img/object_images/video_game03.jpg","0",NA,"1","0",NA,"1","0.695360999998229",NA,"0.342017700000724","1",NA,"1","1",NA,"1","1",NA,"1"
"260063","img/object_images/video_game03.jpg","img/object_images/couch01.jpg","img/object_images/chair06.jpg","1","0","1","1","0","0","0.342017700000724","0.695360999998229","0.435461499997473","1","1","1","1","1","1","1","1","1"
"260063","img/object_images/chair06.jpg","img/object_images/video_game03.jpg","img/object_images/pen01.jpg","1","1","1","0","1","0","0.435461499997473","0.342017700000724","0.384835299999395","1","1","1","1","1","1","1","1","1"
"260063","img/object_images/pen01.jpg","img/object_images/chair06.jpg","img/object_images/shoes12.jpg","1","1","1","0","0","1","0.384835299999395","0.435461499997473","0.37685529999726","1","1","1","1","1","1","1","1","1"
"260063","img/object_images/shoes12.jpg","img/object_images/pen01.jpg","img/object_images/computer_mouse01.jpg","1","1","1","1","0","1","0.37685529999726","0.384835299999395","0.359497799996461","1","1","1","1","1","1","1","1","1"
"260063","img/object_images/computer_mouse01.jpg","img/object_images/shoes12.jpg","img/object_images/bell03.jpg","1","1","1","1","1","0","0.359497799996461","0.37685529999726","0.445092299996759","1","1","1","1","1","1","1","1","1"
"260063","img/object_images/bell03.jpg","img/object_images/computer_mouse01.jpg","img/object_images/hair_brush01.jpg","1","1","1","0","1","1","0.445092299996759","0.359497799996461","0.34635619999608","1","1","1","1","1","1","1","1","1"
"260063","img/object_images/hair_brush01.jpg","img/object_images/bell03.jpg","img/object_images/chain01.jpg","1","1","1","1","0","0","0.34635619999608","0.445092299996759","0.360355400000117","1","1","1","1","1","1","1","1","1"
"260063","img/object_images/chain01.jpg","img/object_images/hair_brush01.jpg","img/object_images/blender01.jpg","1","1","1","0","1","0","0.360355400000117","0.34635619999608","0.446954599996388","1","1","1","1","1","1","1","1","1"
"260063","img/object_images/blender01.jpg","img/object_images/chain01.jpg","img/object_images/soap03.jpg","1","1","1","0","0","0","0.446954599996388","0.360355400000117","0.508063099994615","1","1","1","1","1","1","1","1","1"
"260063","img/object_images/soap03.jpg","img/object_images/blender01.jpg","img/object_images/floss02.jpg","1","1","1","0","0","1","0.508063099994615","0.446954599996388","0.397290099994279","1","1","1","1","1","1","1","1","1"
"260063","img/object_images/floss02.jpg","img/object_images/soap03.jpg","img/object_images/computer_mouse02.jpg","1","1","1","1","0","0","0.397290099994279","0.508063099994615","0.436422999999195","1","1","1","1","1","1","1","1","1"
"260063","img/object_images/computer_mouse02.jpg","img/object_images/floss02.jpg","img/object_images/toothbrush01.jpg","1","1","1","0","1","0","0.436422999999195","0.397290099994279","0.469440299995767","1","1","1","1","1","1","1","1","1"
"260063","img/object_images/toothbrush01.jpg","img/object_images/computer_mouse02.jpg","img/object_images/skate_board01.jpg","1","1","0","0","0","0","0.469440299995767","0.436422999999195","0.376384399998642","1","1","1","1","1","1","1","1","1"
"260063","img/object_images/skate_board01.jpg","img/object_images/toothbrush01.jpg","img/object_images/scarf01.jpg","0","1","1","0","0","1","0.376384399998642","0.469440299995767","0.457642000001215","1","1","1","1","1","1","1","1","1"
"260063","img/object_images/scarf01.jpg","img/object_images/skate_board01.jpg","img/object_images/toy01.jpg","1","0","1","1","0","1","0.457642000001215","0.376384399998642","0.440613399994618","1","1","1","1","1","1","1","1","1"
"260063","img/object_images/toy01.jpg","img/object_images/scarf01.jpg","img/object_images/box03.jpg","1","1","1","1","1","0","0.440613399994618","0.457642000001215","0.48885049999808","1","1","1","1","1","1","1","1","1"
"260063","img/object_images/box03.jpg","img/object_images/toy01.jpg","img/object_images/mail_box02.jpg","1","1","1","0","1","1","0.48885049999808","0.440613399994618","0.448973200000182","1","1","1","1","1","1","1","1","1"
"260063","img/object_images/mail_box02.jpg","img/object_images/box03.jpg","img/object_images/drone01.jpg","1","1","1","1","0","1","0.448973200000182","0.48885049999808","0.451179399999091","1","1","1","1","1","1","1","1","1"
"260063","img/object_images/drone01.jpg","img/object_images/mail_box02.jpg","img/object_images/clip04.jpg","1","1","1","1","1","1","0.451179399999091","0.448973200000182","0.430949200002942","1","1","1","1","1","1","1","1","1"
"260063","img/object_images/clip04.jpg","img/object_images/drone01.jpg","img/object_images/airfryer02.jpg","1","1","1","1","1","1","0.430949200002942","0.451179399999091","0.424405999998271","1","1","1","1","1","1","1","1","1"
"260063","img/object_images/airfryer02.jpg","img/object_images/clip04.jpg","img/object_images/Trowel01.jpg","1","1","1","1","1","0","0.424405999998271","0.430949200002942","0.58400580000307","1","1","1","1","1","1","1","1","1"
"260063","img/object_images/Trowel01.jpg","img/object_images/airfryer02.jpg","img/object_images/Violin01.jpg","1","1","1","0","1","0","0.58400580000307","0.424405999998271","0.524967699995614","1","1","1","1","1","1","1","1","1"
"260063","img/object_images/Violin01.jpg","img/object_images/Trowel01.jpg","img/object_images/tripod01.jpg","1","1","1","0","0","1","0.524967699995614","0.58400580000307","0.398912799995742","1","1","1","1","1","1","1","1","1"
"260063","img/object_images/tripod01.jpg","img/object_images/Violin01.jpg","img/object_images/fork02.jpg","1","1","1","1","0","0","0.398912799995742","0.524967699995614","0.43832349999866","1","1","1","1","1","1","1","1","1"
"260063","img/object_images/fork02.jpg","img/object_images/tripod01.jpg","img/object_images/bag_pipes01.jpg","1","1","1","0","1","1","0.43832349999866","0.398912799995742","0.350811700001941","1","1","1","1","1","1","1","1","1"
"260063","img/object_images/bag_pipes01.jpg","img/object_images/fork02.jpg","img/object_images/rock02.jpg","1","1","0","1","0","0","0.350811700001941","0.43832349999866","0.343574099999387","1","1","1","1","1","1","1","1","1"
"260063","img/object_images/rock02.jpg","img/object_images/bag_pipes01.jpg","img/object_images/tool06.jpg","0","1","1","0","1","0","0.343574099999387","0.350811700001941","0.452364600001602","1","1","1","1","1","1","1","1","1"
"260063","img/object_images/tool06.jpg","img/object_images/rock02.jpg","img/object_images/pitcher09.jpg","1","0","1","0","0","1","0.452364600001602","0.343574099999387","0.478324299998349","1","1","1","1","1","1","1","1","1"
"260063","img/object_images/pitcher09.jpg","img/object_images/tool06.jpg","img/object_images/book02.jpg","1","1","1","1","0","1","0.478324299998349","0.452364600001602","0.353405900001235","1","1","1","1","1","1","1","1","1"
"260063","img/object_images/book02.jpg","img/object_images/pitcher09.jpg","img/object_images/egg_slicer01.jpg","1","1","1","1","1","1","0.353405900001235","0.478324299998349","0.342014599998947","1","1","1","1","1","1","1","1","1"
"260063","img/object_images/egg_slicer01.jpg","img/object_images/book02.jpg",NA,"1","1",NA,"1","1",NA,"0.342014599998947","0.353405900001235",NA,"1","1",NA,"1","1",NA,"1","1",NA
"260063","img/object_images/vase02.jpg",NA,"img/object_images/camera05.jpg","1",NA,"1","1",NA,"0","0.404177500000515",NA,"0.487722400001076","1",NA,"1","1",NA,"1","1",NA,"1"
"260063","img/object_images/camera05.jpg","img/object_images/vase02.jpg","img/object_images/lemon_squeezer01.jpg","1","1","1","0","1","1","0.487722400001076","0.404177500000515","0.441241200001968","1","1","1","1","1","1","1","1","1"
"260063","img/object_images/lemon_squeezer01.jpg","img/object_images/camera05.jpg","img/object_images/board01.jpg","1","1","1","1","0","1","0.441241200001968","0.487722400001076","0.35888540000451","1","1","1","1","1","1","1","1","1"
"260063","img/object_images/board01.jpg","img/object_images/lemon_squeezer01.jpg","img/object_images/Confetti 01.jpg","1","1","0","1","1","0","0.35888540000451","0.441241200001968","0.350932900000771","1","1","1","1","1","1","1","1","1"
"260063","img/object_images/Confetti 01.jpg","img/object_images/board01.jpg","img/object_images/floss01.jpg","0","1","1","0","1","1","0.350932900000771","0.35888540000451","0.45981380000012","1","1","1","1","1","1","1","1","1"
"260063","img/object_images/floss01.jpg","img/object_images/Confetti 01.jpg","img/object_images/clipboard01.jpg","1","0","1","1","0","1","0.45981380000012","0.350932900000771","0.400689699992654","1","1","1","1","1","1","1","1","1"
"260063","img/object_images/clipboard01.jpg","img/object_images/floss01.jpg","img/object_images/tool13.jpg","1","1","1","1","1","1","0.400689699992654","0.45981380000012","0.37606510000478","1","1","1","1","1","1","1","1","1"
"260063","img/object_images/tool13.jpg","img/object_images/clipboard01.jpg","img/object_images/razor02.jpg","1","1","1","1","1","1","0.37606510000478","0.400689699992654","0.433633000000555","1","1","1","1","1","1","1","1","1"
"260063","img/object_images/razor02.jpg","img/object_images/tool13.jpg","img/object_images/candle02.jpg","1","1","0","1","1","0","0.433633000000555","0.37606510000478","0.417259200003173","1","1","1","1","1","1","1","1","1"
"260063","img/object_images/candle02.jpg","img/object_images/razor02.jpg","img/object_images/hammer02.jpg","0","1","1","0","1","0","0.417259200003173","0.433633000000555","0.546941799992055","1","1","1","1","1","1","1","1","1"
"260063","img/object_images/hammer02.jpg","img/object_images/candle02.jpg","img/object_images/dust_pan01.jpg","1","0","1","0","0","1","0.546941799992055","0.417259200003173","0.480177999997977","1","1","1","1","1","1","1","1","1"
"260063","img/object_images/dust_pan01.jpg","img/object_images/hammer02.jpg","img/object_images/bow_tie03.jpg","1","1","1","1","0","1","0.480177999997977","0.546941799992055","0.451390399997763","1","1","1","1","1","1","1","1","1"
"260063","img/object_images/bow_tie03.jpg","img/object_images/dust_pan01.jpg","img/object_images/pen06.jpg","1","1","1","1","1","0","0.451390399997763","0.480177999997977","0.49759069999709","1","1","1","1","1","1","1","1","1"
"260063","img/object_images/pen06.jpg","img/object_images/bow_tie03.jpg","img/object_images/perfume01.jpg","1","1","1","0","1","0","0.49759069999709","0.451390399997763","0.476878599998599","1","1","1","1","1","1","1","1","1"
"260063","img/object_images/perfume01.jpg","img/object_images/pen06.jpg","img/object_images/ruler02.jpg","1","1","1","0","0","1","0.476878599998599","0.49759069999709","0.38292409999849","1","1","1","1","1","1","1","1","1"
"260063","img/object_images/ruler02.jpg","img/object_images/perfume01.jpg","img/object_images/pan03.jpg","1","1","1","1","0","1","0.38292409999849","0.476878599998599","0.43616949999705","1","1","1","1","1","1","1","1","1"
"260063","img/object_images/pan03.jpg","img/object_images/ruler02.jpg","img/object_images/hat09.jpg","1","1","1","1","1","0","0.43616949999705","0.38292409999849","0.524327600003744","1","1","1","1","1","1","1","1","1"
"260063","img/object_images/hat09.jpg","img/object_images/pan03.jpg","img/object_images/sign02.jpg","1","1","1","0","1","0","0.524327600003744","0.43616949999705","0.530707500001881","1","1","1","1","1","1","1","1","2"
"260063","img/object_images/sign02.jpg","img/object_images/hat09.jpg","img/object_images/video_game02.jpg","1","1","1","0","0","1","0.530707500001881","0.524327600003744","0.440156899996509","1","1","1","1","1","1","2","1","1"
"260063","img/object_images/video_game02.jpg","img/object_images/sign02.jpg","img/object_images/glasses03.jpg","1","1","1","1","0","0","0.440156899996509","0.530707500001881","0.543642500000715","1","1","1","1","1","1","1","2","1"
"260063","img/object_images/glasses03.jpg","img/object_images/video_game02.jpg","img/object_images/office_supplies01.jpg","1","1","1","0","1","1","0.543642500000715","0.440156899996509","0.433445700000448","1","1","1","1","1","1","1","1","1"
"260063","img/object_images/office_supplies01.jpg","img/object_images/glasses03.jpg","img/object_images/Candle_Holder01.jpg","1","1","1","1","0","0","0.433445700000448","0.543642500000715","0.611019999996643","1","1","1","1","1","1","1","1","1"
"260063","img/object_images/Candle_Holder01.jpg","img/object_images/office_supplies01.jpg","img/object_images/sink_filter01 (1).jpg","1","1","1","0","1","0","0.611019999996643","0.433445700000448","0.546595899999375","1","1","1","1","1","1","1","1","1"
"260063","img/object_images/sink_filter01 (1).jpg","img/object_images/Candle_Holder01.jpg","img/object_images/duster01.jpg","1","1","1","0","0","0","0.546595899999375","0.611019999996643","0.472302999995009","1","1","1","1","1","1","1","1","1"
"260063","img/object_images/duster01.jpg","img/object_images/sink_filter01 (1).jpg","img/object_images/bag04.jpg","1","1","1","0","0","0","0.472302999995009","0.546595899999375","0.4916693999985","1","1","1","1","1","1","1","1","1"
"260063","img/object_images/bag04.jpg","img/object_images/duster01.jpg","img/object_images/hat13.jpg","1","1","1","0","0","1","0.4916693999985","0.472302999995009","0.395559599994158","1","1","1","1","1","1","1","1","1"
"260063","img/object_images/hat13.jpg","img/object_images/bag04.jpg","img/object_images/tool20.jpg","1","1","1","1","0","0","0.395559599994158","0.4916693999985","0.408586799996556","1","1","1","1","1","1","1","1","1"
"260063","img/object_images/tool20.jpg","img/object_images/hat13.jpg","img/object_images/knife01.jpg","1","1","1","0","1","1","0.408586799996556","0.395559599994158","0.517401500001142","1","1","1","1","1","1","1","1","1"
"260063","img/object_images/knife01.jpg","img/object_images/tool20.jpg","img/object_images/spray_can01.jpg","1","1","1","1","0","0","0.517401500001142","0.408586799996556","0.504813399995328","1","1","1","1","1","1","1","1","1"
"260063","img/object_images/spray_can01.jpg","img/object_images/knife01.jpg","img/object_images/cup01.jpg","1","1","1","0","1","0","0.504813399995328","0.517401500001142","0.48157689999789","1","1","1","1","1","1","1","1","1"
"260063","img/object_images/cup01.jpg","img/object_images/spray_can01.jpg","img/object_images/socks01.jpg","1","1","1","0","0","1","0.48157689999789","0.504813399995328","0.425368099997286","1","1","1","1","1","1","1","1","1"
"260063","img/object_images/socks01.jpg","img/object_images/cup01.jpg",NA,"1","1",NA,"1","0",NA,"0.425368099997286","0.48157689999789",NA,"1","1",NA,"1","1",NA,"1","1",NA
"260063","img/object_images/knit03.jpg",NA,"img/object_images/curtain02.jpg","1",NA,"1","1",NA,"0","0.659695899994404",NA,"0.600818699997035","1",NA,"1","1",NA,"1","1",NA,"1"
"260063","img/object_images/curtain02.jpg","img/object_images/knit03.jpg","img/object_images/mail_box01.jpg","1","1","1","0","1","0","0.600818699997035","0.659695899994404","0.452646199999435","1","1","1","1","1","1","1","1","1"
"260063","img/object_images/mail_box01.jpg","img/object_images/curtain02.jpg","img/object_images/bottle07.jpg","1","1","1","0","0","1","0.452646199999435","0.600818699997035","0.398875499995484","1","1","1","1","1","1","1","1","1"
"260063","img/object_images/bottle07.jpg","img/object_images/mail_box01.jpg","img/object_images/hoverboard01.jpg","1","1","0","1","0","0","0.398875499995484","0.452646199999435","0.361366600001929","1","1","1","1","1","1","1","1","1"
"260063","img/object_images/hoverboard01.jpg","img/object_images/bottle07.jpg","img/object_images/shower_head01.jpg","0","1","1","0","1","1","0.361366600001929","0.398875499995484","0.475699899994652","1","1","1","1","1","1","1","1","1"
"260063","img/object_images/shower_head01.jpg","img/object_images/hoverboard01.jpg","img/object_images/phone02.jpg","1","0","1","1","0","1","0.475699899994652","0.361366600001929","0.405977800000983","1","1","1","1","1","1","1","1","1"
"260063","img/object_images/phone02.jpg","img/object_images/shower_head01.jpg","img/object_images/camera03.jpg","1","1","1","1","1","0","0.405977800000983","0.475699899994652","0.526326700004574","1","1","1","1","1","1","1","1","1"
"260063","img/object_images/camera03.jpg","img/object_images/phone02.jpg","img/object_images/blender02.jpg","1","1","1","0","1","1","0.526326700004574","0.405977800000983","0.459717799996724","1","1","1","1","1","1","1","1","1"
"260063","img/object_images/blender02.jpg","img/object_images/camera03.jpg","img/object_images/backpack01.jpg","1","1","0","1","0","0","0.459717799996724","0.526326700004574","0.474185600003693","1","1","1","1","1","1","1","1","2"
"260063","img/object_images/backpack01.jpg","img/object_images/blender02.jpg","img/object_images/Statue01.jpg","0","1","1","0","1","1","0.474185600003693","0.459717799996724","0.530948500003433","1","1","1","1","1","1","2","1","1"
"260063","img/object_images/Statue01.jpg","img/object_images/backpack01.jpg","img/object_images/gloves02.jpg","1","0","1","1","0","0","0.530948500003433","0.474185600003693","0.508202299999539","1","1","1","1","1","1","1","2","1"
"260063","img/object_images/gloves02.jpg","img/object_images/Statue01.jpg","img/object_images/stereo02.jpg","1","1","1","0","1","0","0.508202299999539","0.530948500003433","0.521318200000678","1","1","1","1","1","1","1","1","1"
"260063","img/object_images/stereo02.jpg","img/object_images/gloves02.jpg","img/object_images/video_game01.jpg","1","1","1","0","0","1","0.521318200000678","0.508202299999539","0.632066399994073","1","1","1","1","1","1","1","1","1"
"260063","img/object_images/video_game01.jpg","img/object_images/stereo02.jpg","img/object_images/knife02.jpg","1","1","1","1","0","0","0.632066399994073","0.521318200000678","0.45160549999855","1","1","1","1","1","1","1","1","1"
"260063","img/object_images/knife02.jpg","img/object_images/video_game01.jpg","img/object_images/matches02.jpg","1","1","1","0","1","0","0.45160549999855","0.632066399994073","0.54280380000273","1","1","1","1","1","1","1","1","1"
"260063","img/object_images/matches02.jpg","img/object_images/knife02.jpg","img/object_images/knit04.jpg","1","1","1","0","0","1","0.54280380000273","0.45160549999855","0.338880100003735","1","1","1","1","1","1","1","1","1"
"260063","img/object_images/knit04.jpg","img/object_images/matches02.jpg","img/object_images/hand_grip_exerciser01.jpg","1","1","1","1","0","0","0.338880100003735","0.54280380000273","0.431836200004909","1","1","1","1","1","1","1","1","1"
"260063","img/object_images/hand_grip_exerciser01.jpg","img/object_images/knit04.jpg","img/object_images/paper_cup02.jpg","1","1","1","0","1","1","0.431836200004909","0.338880100003735","0.46223469999677","1","1","1","1","1","1","1","1","1"
"260063","img/object_images/paper_cup02.jpg","img/object_images/hand_grip_exerciser01.jpg","img/object_images/dresser03.jpg","1","1","1","1","0","0","0.46223469999677","0.431836200004909","0.509590099994966","1","1","1","1","1","1","1","1","1"
"260063","img/object_images/dresser03.jpg","img/object_images/paper_cup02.jpg","img/object_images/sponge03.jpg","1","1","1","0","1","1","0.509590099994966","0.46223469999677","0.459405300003709","1","1","1","1","1","1","1","1","1"
"260063","img/object_images/sponge03.jpg","img/object_images/dresser03.jpg","img/object_images/keyboard02.jpg","1","1","1","1","0","1","0.459405300003709","0.509590099994966","0.39788750000298","1","1","1","1","1","1","1","1","1"
"260063","img/object_images/keyboard02.jpg","img/object_images/sponge03.jpg","img/object_images/kite01.jpg","1","1","1","1","1","1","0.39788750000298","0.459405300003709","0.485601400003361","1","1","1","1","1","1","1","1","1"
"260063","img/object_images/kite01.jpg","img/object_images/keyboard02.jpg","img/object_images/tool18.jpg","1","1","1","1","1","0","0.485601400003361","0.39788750000298","0.496754399995552","1","1","1","1","1","1","1","1","1"
"260063","img/object_images/tool18.jpg","img/object_images/kite01.jpg","img/object_images/boat04.jpg","1","1","1","0","1","0","0.496754399995552","0.485601400003361","0.58834460000071","1","1","1","1","1","1","1","1","1"
"260063","img/object_images/boat04.jpg","img/object_images/tool18.jpg","img/object_images/remover01.jpg","1","1","1","0","0","1","0.58834460000071","0.496754399995552","0.408482899998489","1","1","1","1","1","1","1","1","1"
"260063","img/object_images/remover01.jpg","img/object_images/boat04.jpg","img/object_images/toy08.jpg","1","1","1","1","0","0","0.408482899998489","0.58834460000071","0.455669599999965","1","1","1","1","1","1","1","1","1"
"260063","img/object_images/toy08.jpg","img/object_images/remover01.jpg","img/object_images/jacket04.jpg","1","1","1","0","1","0","0.455669599999965","0.408482899998489","0.599757700001646","1","1","1","1","1","1","1","1","1"
"260063","img/object_images/jacket04.jpg","img/object_images/toy08.jpg","img/object_images/basket04.jpg","1","1","1","0","0","1","0.599757700001646","0.455669599999965","0.433341399999335","1","1","1","1","1","1","1","1","1"
"260063","img/object_images/basket04.jpg","img/object_images/jacket04.jpg","img/object_images/flashlight03.jpg","1","1","1","1","0","0","0.433341399999335","0.599757700001646","0.451678099998389","1","1","1","1","1","1","1","1","1"
"260063","img/object_images/flashlight03.jpg","img/object_images/basket04.jpg","img/object_images/car01.jpg","1","1","0","0","1","1","0.451678099998389","0.433341399999335","0.475434799998766","1","1","1","1","1","1","1","1","1"
"260063","img/object_images/car01.jpg","img/object_images/flashlight03.jpg","img/object_images/remote_controller01.jpg","0","1","1","1","0","1","0.475434799998766","0.451678099998389","0.603436400000646","1","1","1","1","1","1","1","1","1"
"260063","img/object_images/remote_controller01.jpg","img/object_images/car01.jpg",NA,"1","0",NA,"1","1",NA,"0.603436400000646","0.475434799998766",NA,"1","1",NA,"1","1",NA,"1","1",NA
"260063","img/object_images/cellphone01.jpg",NA,"img/object_images/chair05.jpg","1",NA,"1","1",NA,"0","0.601332199999888",NA,"0.462370200002624","1",NA,"1","1",NA,"1","1",NA,"1"
"260063","img/object_images/chair05.jpg","img/object_images/cellphone01.jpg","img/object_images/pitcher01.jpg","1","1","1","0","1","0","0.462370200002624","0.601332199999888","0.565132600000652","1","1","1","1","1","1","1","1","1"
"260063","img/object_images/pitcher01.jpg","img/object_images/chair05.jpg","img/object_images/chess_piece02.jpg","1","1","1","0","0","1","0.565132600000652","0.462370200002624","0.446689999997034","1","1","1","1","1","1","1","1","1"
"260063","img/object_images/chess_piece02.jpg","img/object_images/pitcher01.jpg","img/object_images/book03.jpg","1","1","1","1","0","1","0.446689999997034","0.565132600000652","0.460207499992975","1","1","1","1","1","1","1","1","1"
"260063","img/object_images/book03.jpg","img/object_images/chess_piece02.jpg","img/object_images/clip03.jpg","1","1","1","1","1","0","0.460207499992975","0.446689999997034","0.501062899995304","1","1","1","1","1","1","1","1","1"
"260063","img/object_images/clip03.jpg","img/object_images/book03.jpg","img/object_images/floppy_disk02.jpg","1","1","1","0","1","0","0.501062899995304","0.460207499992975","0.759432700004254","1","1","1","1","1","1","1","1","1"
"260063","img/object_images/floppy_disk02.jpg","img/object_images/clip03.jpg","img/object_images/bell02.jpg","1","1","1","0","0","0","0.759432700004254","0.501062899995304","0.531850399995164","1","1","1","1","1","1","1","1","1"
"260063","img/object_images/bell02.jpg","img/object_images/floppy_disk02.jpg","img/object_images/floppy_disk03.jpg","1","1","1","0","0","1","0.531850399995164","0.759432700004254","0.513563200001954","1","1","1","1","1","1","1","1","1"
"260063","img/object_images/floppy_disk03.jpg","img/object_images/bell02.jpg","img/object_images/note_book01.jpg","1","1","1","1","0","0","0.513563200001954","0.531850399995164","0.377238799999759","1","1","1","1","1","1","1","1","1"
"260063","img/object_images/note_book01.jpg","img/object_images/floppy_disk03.jpg","img/object_images/Staples01.jpg","1","1","1","0","1","1","0.377238799999759","0.513563200001954","0.461940200002573","1","1","1","1","1","1","1","1","1"
"260063","img/object_images/Staples01.jpg","img/object_images/note_book01.jpg","img/object_images/clock02.jpg","1","1","1","1","0","0","0.461940200002573","0.377238799999759","0.542057099992235","1","1","1","1","1","1","1","1","1"
"260063","img/object_images/clock02.jpg","img/object_images/Staples01.jpg","img/object_images/Oven01.jpg","1","1","1","0","1","1","0.542057099992235","0.461940200002573","0.496036100004858","1","1","1","1","1","1","1","1","1"
"260063","img/object_images/Oven01.jpg","img/object_images/clock02.jpg","img/object_images/wire02.jpg","1","1","1","1","0","1","0.496036100004858","0.542057099992235","0.494767299998784","1","1","1","1","1","1","1","1","1"
"260063","img/object_images/wire02.jpg","img/object_images/Oven01.jpg","img/object_images/hammer03.jpg","1","1","1","1","1","1","0.494767299998784","0.496036100004858","0.414563699996506","1","1","1","1","1","1","1","1","1"
"260063","img/object_images/hammer03.jpg","img/object_images/wire02.jpg","img/object_images/usb02.jpg","1","1","1","1","1","0","0.414563699996506","0.494767299998784","0.644155799993314","1","1","1","1","1","1","1","1","1"
"260063","img/object_images/usb02.jpg","img/object_images/hammer03.jpg","img/object_images/tennis_racket02.jpg","1","1","1","0","1","1","0.644155799993314","0.414563699996506","0.446369400000549","1","1","1","1","1","1","1","1","1"
"260063","img/object_images/tennis_racket02.jpg","img/object_images/usb02.jpg","img/object_images/knit05.jpg","1","1","1","1","0","1","0.446369400000549","0.644155799993314","0.376253900001757","1","1","1","1","1","1","1","1","1"
"260063","img/object_images/knit05.jpg","img/object_images/tennis_racket02.jpg","img/object_images/pen03.jpg","1","1","1","1","1","0","0.376253900001757","0.446369400000549","0.459736299999349","1","1","1","1","1","1","1","1","1"
"260063","img/object_images/pen03.jpg","img/object_images/knit05.jpg","img/object_images/paint_brush04.jpg","1","1","1","0","1","0","0.459736299999349","0.376253900001757","0.572629499998584","1","1","1","1","1","1","1","1","1"
"260063","img/object_images/paint_brush04.jpg","img/object_images/pen03.jpg","img/object_images/crutches02.jpg","1","1","1","0","0","0","0.572629499998584","0.459736299999349","0.538806999997178","1","1","1","1","1","1","1","1","1"
"260063","img/object_images/crutches02.jpg","img/object_images/paint_brush04.jpg","img/object_images/microscope01.jpg","1","1","1","0","0","0","0.538806999997178","0.572629499998584","0.642702299992379","1","1","1","1","1","1","1","1","1"
"260063","img/object_images/microscope01.jpg","img/object_images/crutches02.jpg","img/object_images/lid01.jpg","1","1","1","0","0","1","0.642702299992379","0.538806999997178","0.53411369999958","1","1","1","1","1","1","1","1","1"
"260063","img/object_images/lid01.jpg","img/object_images/microscope01.jpg","img/object_images/Thermometer01.jpg","1","1","1","1","0","0","0.53411369999958","0.642702299992379","0.529232000000775","1","1","1","1","1","1","1","1","1"
"260063","img/object_images/Thermometer01.jpg","img/object_images/lid01.jpg","img/object_images/tv02.jpg","1","1","1","0","1","0","0.529232000000775","0.53411369999958","0.583922700003313","1","1","1","1","1","1","1","1","1"
"260063","img/object_images/tv02.jpg","img/object_images/Thermometer01.jpg","img/object_images/ear_bud01.jpg","1","1","1","0","0","1","0.583922700003313","0.529232000000775","1.04272099999798","1","1","1","1","1","1","1","1","1"
"260063","img/object_images/ear_bud01.jpg","img/object_images/tv02.jpg","img/object_images/knife04.jpg","1","1","1","1","0","1","1.04272099999798","0.583922700003313","0.446148600000015","1","1","1","1","1","1","1","1","1"
"260063","img/object_images/knife04.jpg","img/object_images/ear_bud01.jpg","img/object_images/compass01.jpg","1","1","1","1","1","1","0.446148600000015","1.04272099999798","0.481485099997371","1","1","1","1","1","1","1","1","1"
"260063","img/object_images/compass01.jpg","img/object_images/knife04.jpg","img/object_images/retainer01.jpg","1","1","1","1","1","0","0.481485099997371","0.446148600000015","0.506541599999764","1","1","1","1","1","1","1","1","1"
"260063","img/object_images/retainer01.jpg","img/object_images/compass01.jpg","img/object_images/bottle01.jpg","1","1","1","0","1","0","0.506541599999764","0.481485099997371","0.597517399997741","1","1","1","1","1","1","1","1","1"
"260063","img/object_images/bottle01.jpg","img/object_images/retainer01.jpg","img/object_images/pillows01.jpg","1","1","1","0","0","1","0.597517399997741","0.506541599999764","0.462810099998023","1","1","1","1","1","1","1","1","1"
"260063","img/object_images/pillows01.jpg","img/object_images/bottle01.jpg","img/object_images/motorcycle01.jpg","1","1","1","1","0","1","0.462810099998023","0.597517399997741","0.508956099998613","1","1","1","1","1","1","1","1","1"
"260063","img/object_images/motorcycle01.jpg","img/object_images/pillows01.jpg",NA,"1","1",NA,"1","1",NA,"0.508956099998613","0.462810099998023",NA,"1","1",NA,"1","1",NA,"1","1",NA
"260063","img/object_images/golf_ball03.jpg",NA,"img/object_images/Witchhat01.jpg","1",NA,"1","1",NA,"1","0.59687500000291",NA,"0.390854400000535","1",NA,"1","1",NA,"1","1",NA,"1"
"260063","img/object_images/Witchhat01.jpg","img/object_images/golf_ball03.jpg","img/object_images/lawn_mower01.jpg","1","1","1","1","1","1","0.390854400000535","0.59687500000291","0.483796699998493","1","1","1","1","1","1","1","1","1"
"260063","img/object_images/lawn_mower01.jpg","img/object_images/Witchhat01.jpg","img/object_images/wallet02.jpg","1","1","1","1","1","1","0.483796699998493","0.390854400000535","0.486210099996242","1","1","1","1","1","1","1","1","1"
"260063","img/object_images/wallet02.jpg","img/object_images/lawn_mower01.jpg","img/object_images/couch03.jpg","1","1","0","1","1","0","0.486210099996242","0.483796699998493","0.434563700000581","1","1","1","1","1","1","1","1","1"
"260063","img/object_images/couch03.jpg","img/object_images/wallet02.jpg","img/object_images/jacket03.jpg","0","1","1","0","1","0","0.434563700000581","0.486210099996242","0.605760399994324","1","1","1","1","1","1","1","1","1"
"260063","img/object_images/jacket03.jpg","img/object_images/couch03.jpg","img/object_images/coloring_pencil01.jpg","1","0","1","0","0","1","0.605760399994324","0.434563700000581","0.460720499999297","1","1","1","1","1","1","1","1","1"
"260063","img/object_images/coloring_pencil01.jpg","img/object_images/jacket03.jpg","img/object_images/jewelry01.jpg","1","1","1","1","0","1","0.460720499999297","0.605760399994324","0.381093199997849","1","1","1","1","1","1","1","1","1"
"260063","img/object_images/jewelry01.jpg","img/object_images/coloring_pencil01.jpg","img/object_images/socks02.jpg","1","1","1","1","1","0","0.381093199997849","0.460720499999297","0.56866810000065","1","1","1","1","1","1","1","1","1"
"260063","img/object_images/socks02.jpg","img/object_images/jewelry01.jpg","img/object_images/lock04.jpg","1","1","1","0","1","1","0.56866810000065","0.381093199997849","0.48480749999726","1","1","1","1","1","1","1","1","1"
"260063","img/object_images/lock04.jpg","img/object_images/socks02.jpg","img/object_images/bow_tie02.jpg","1","1","1","1","0","0","0.48480749999726","0.56866810000065","0.510706499997468","1","1","1","1","1","1","1","1","1"
"260063","img/object_images/bow_tie02.jpg","img/object_images/lock04.jpg","img/object_images/fork03.jpg","1","1","1","0","1","1","0.510706499997468","0.48480749999726","0.369691699997929","1","1","1","1","1","1","1","1","1"
"260063","img/object_images/fork03.jpg","img/object_images/bow_tie02.jpg","img/object_images/paper_cup01.jpg","1","1","1","1","0","0","0.369691699997929","0.510706499997468","0.487176700000418","1","1","1","1","1","1","1","1","1"
"260063","img/object_images/paper_cup01.jpg","img/object_images/fork03.jpg","img/object_images/camera07.jpg","1","1","1","0","1","1","0.487176700000418","0.369691699997929","0.325508599991736","1","1","1","1","1","1","1","1","1"
"260063","img/object_images/camera07.jpg","img/object_images/paper_cup01.jpg","img/object_images/balloon01.jpg","1","1","0","1","0","0","0.325508599991736","0.487176700000418","0.325996799998393","1","1","1","1","1","1","1","1","1"
"260063","img/object_images/balloon01.jpg","img/object_images/camera07.jpg","img/object_images/sleeping_bag01.jpg","0","1","1","0","1","0","0.325996799998393","0.325508599991736","0.79679380000016","1","1","1","1","1","1","1","1","1"
"260063","img/object_images/sleeping_bag01.jpg","img/object_images/balloon01.jpg","img/object_images/hammer01.jpg","1","0","1","0","0","0","0.79679380000016","0.325996799998393","0.524766799993813","1","1","1","1","1","1","1","1","1"
"260063","img/object_images/hammer01.jpg","img/object_images/sleeping_bag01.jpg","img/object_images/Screws01.jpg","1","1","1","0","0","1","0.524766799993813","0.79679380000016","0.454797700003837","1","1","1","1","1","1","1","1","1"
"260063","img/object_images/Screws01.jpg","img/object_images/hammer01.jpg","img/object_images/gift_box02.jpg","1","1","1","1","0","1","0.454797700003837","0.524766799993813","0.587222800000745","1","1","1","1","1","1","1","1","1"
"260063","img/object_images/gift_box02.jpg","img/object_images/Screws01.jpg","img/object_images/vga_port 01.jpg","1","1","1","1","1","0","0.587222800000745","0.454797700003837","0.507486800001061","1","1","1","1","1","1","1","1","1"
"260063","img/object_images/vga_port 01.jpg","img/object_images/gift_box02.jpg","img/object_images/funnel01.jpg","1","1","1","0","1","0","0.507486800001061","0.587222800000745","0.512471399997594","1","1","1","1","1","1","1","1","1"
"260063","img/object_images/funnel01.jpg","img/object_images/vga_port 01.jpg","img/object_images/gift_box01.jpg","1","1","1","0","0","1","0.512471399997594","0.507486800001061","0.390225199997076","1","1","1","1","1","1","1","1","1"
"260063","img/object_images/gift_box01.jpg","img/object_images/funnel01.jpg","img/object_images/gift_box03.jpg","1","1","1","1","0","0","0.390225199997076","0.512471399997594","0.532590199996775","1","1","1","1","1","1","1","1","1"
"260063","img/object_images/gift_box03.jpg","img/object_images/gift_box01.jpg","img/object_images/clip02.jpg","1","1","1","0","1","1","0.532590199996775","0.390225199997076","0.40968040000007","1","1","1","1","1","1","1","1","1"
"260063","img/object_images/clip02.jpg","img/object_images/gift_box03.jpg","img/object_images/grater01.jpg","1","1","1","1","0","1","0.40968040000007","0.532590199996775","0.388260799998534","1","1","1","1","1","1","1","1","1"
"260063","img/object_images/grater01.jpg","img/object_images/clip02.jpg","img/object_images/bow_tie01.jpg","1","1","1","1","1","0","0.388260799998534","0.40968040000007","0.489558499997656","1","1","1","1","1","1","1","1","1"
"260063","img/object_images/bow_tie01.jpg","img/object_images/grater01.jpg","img/object_images/measuring_tape02.jpg","1","1","1","0","1","1","0.489558499997656","0.388260799998534","0.396835999999894","1","1","1","1","1","1","1","1","1"
"260063","img/object_images/measuring_tape02.jpg","img/object_images/bow_tie01.jpg","img/object_images/bath_tub01.jpg","1","1","1","1","0","0","0.396835999999894","0.489558499997656","0.471925999998348","1","1","1","1","1","1","1","1","1"
"260063","img/object_images/bath_tub01.jpg","img/object_images/measuring_tape02.jpg","img/object_images/dresser04.jpg","1","1","1","0","1","0","0.471925999998348","0.396835999999894","0.492813500000921","1","1","1","1","1","1","1","1","1"
"260063","img/object_images/dresser04.jpg","img/object_images/bath_tub01.jpg","img/object_images/ironing_table01.jpg","1","1","1","0","0","0","0.492813500000921","0.471925999998348","0.487410800000362","1","1","1","1","1","1","1","1","1"
"260063","img/object_images/ironing_table01.jpg","img/object_images/dresser04.jpg","img/object_images/pitcher02.jpg","1","1","1","0","0","1","0.487410800000362","0.492813500000921","0.493353799996839","1","1","1","1","1","1","1","1","1"
"260063","img/object_images/pitcher02.jpg","img/object_images/ironing_table01.jpg","img/object_images/handkerchief01.jpg","1","1","1","1","0","0","0.493353799996839","0.487410800000362","0.48547939999844","1","1","1","1","1","1","1","1","1"
"260063","img/object_images/handkerchief01.jpg","img/object_images/pitcher02.jpg",NA,"1","1",NA,"0","1",NA,"0.48547939999844","0.493353799996839",NA,"1","1",NA,"1","1",NA,"1","1",NA
"260063","img/object_images/Woopie01.jpg",NA,"img/object_images/drone02.jpg","1",NA,"1","1",NA,"0","1.89089799999783",NA,"0.603844799996295","1",NA,"1","1",NA,"1","1",NA,"1"
"260063","img/object_images/drone02.jpg","img/object_images/Woopie01.jpg","img/object_images/ironing_table02.jpg","1","1","1","0","1","0","0.603844799996295","1.89089799999783","0.518691599994781","1","1","1","1","1","1","1","1","1"
"260063","img/object_images/ironing_table02.jpg","img/object_images/drone02.jpg","img/object_images/decorative02.jpg","1","1","1","0","0","0","0.518691599994781","0.603844799996295","0.66798650000419","1","1","1","1","1","1","1","1","1"
"260063","img/object_images/decorative02.jpg","img/object_images/ironing_table02.jpg","img/object_images/soap01.jpg","1","1","1","0","0","0","0.66798650000419","0.518691599994781","0.427089199998591","1","1","1","1","1","1","1","1","1"
"260063","img/object_images/soap01.jpg","img/object_images/decorative02.jpg","img/object_images/chair01.jpg","1","1","1","0","0","0","0.427089199998591","0.66798650000419","0.424429800004873","1","1","1","1","1","1","1","1","1"
"260063","img/object_images/chair01.jpg","img/object_images/soap01.jpg","img/object_images/broom01.jpg","1","1","1","0","0","1","0.424429800004873","0.427089199998591","0.473836199998914","1","1","1","1","1","1","1","1","1"
"260063","img/object_images/broom01.jpg","img/object_images/chair01.jpg","img/object_images/bottle12.jpg","1","1","1","1","0","1","0.473836199998914","0.424429800004873","0.453403399995295","1","1","1","1","1","1","1","1","1"
"260063","img/object_images/bottle12.jpg","img/object_images/broom01.jpg","img/object_images/lantern01.jpg","1","1","1","1","1","1","0.453403399995295","0.473836199998914","0.40664509999624","1","1","1","1","1","1","1","1","1"
"260063","img/object_images/lantern01.jpg","img/object_images/bottle12.jpg","img/object_images/toilet_paper01.jpg","1","1","1","1","1","1","0.40664509999624","0.453403399995295","0.389354599996295","1","1","1","1","1","1","1","1","1"
"260063","img/object_images/toilet_paper01.jpg","img/object_images/lantern01.jpg","img/object_images/Wisk01.jpg","1","1","1","1","1","1","0.389354599996295","0.40664509999624","0.335079099997529","1","1","1","1","1","1","1","1","1"
"260063","img/object_images/Wisk01.jpg","img/object_images/toilet_paper01.jpg","img/object_images/brief_case02.jpg","1","1","1","1","1","1","0.335079099997529","0.389354599996295","0.383898899999622","1","1","1","1","1","1","1","1","1"
"260063","img/object_images/brief_case02.jpg","img/object_images/Wisk01.jpg","img/object_images/brief_case01.jpg","1","1","1","1","1","0","0.383898899999622","0.335079099997529","0.462252500001341","1","1","1","1","1","1","1","1","1"
"260063","img/object_images/brief_case01.jpg","img/object_images/brief_case02.jpg","img/object_images/tie01.jpg","1","1","1","0","1","0","0.462252500001341","0.383898899999622","0.476205600003595","1","1","1","1","1","1","1","1","1"
"260063","img/object_images/tie01.jpg","img/object_images/brief_case01.jpg","img/object_images/video_game06.jpg","1","1","1","0","0","0","0.476205600003595","0.462252500001341","0.409022100000584","1","1","1","1","1","1","1","1","1"
"260063","img/object_images/video_game06.jpg","img/object_images/tie01.jpg","img/object_images/toy_train02.jpg","1","1","1","0","0","1","0.409022100000584","0.476205600003595","0.376275399998121","1","1","1","1","1","1","1","1","1"
"260063","img/object_images/toy_train02.jpg","img/object_images/video_game06.jpg","img/object_images/helmet05.jpg","1","1","1","1","0","1","0.376275399998121","0.409022100000584","0.419805199999246","1","1","1","1","1","1","1","1","1"
"260063","img/object_images/helmet05.jpg","img/object_images/toy_train02.jpg","img/object_images/couch04.jpg","1","1","1","1","1","1","0.419805199999246","0.376275399998121","0.399310799999512","1","1","1","1","1","1","1","1","1"
"260063","img/object_images/couch04.jpg","img/object_images/helmet05.jpg","img/object_images/guitar01.jpg","1","1","1","1","1","1","0.399310799999512","0.419805199999246","0.35335070000292","1","1","1","1","1","1","1","1","1"
"260063","img/object_images/guitar01.jpg","img/object_images/couch04.jpg","img/object_images/airfryer01.jpg","1","1","0","1","1","0","0.35335070000292","0.399310799999512","0.391235299997788","1","1","1","1","1","1","1","1","1"
"260063","img/object_images/airfryer01.jpg","img/object_images/guitar01.jpg","img/object_images/pitcher03.jpg","0","1","1","0","1","1","0.391235299997788","0.35335070000292","0.352030499998364","1","1","1","1","1","1","1","1","1"
"260063","img/object_images/pitcher03.jpg","img/object_images/airfryer01.jpg","img/object_images/pot01.jpg","1","0","1","1","0","0","0.352030499998364","0.391235299997788","0.461775999996462","1","1","1","1","1","1","1","1","1"
"260063","img/object_images/pot01.jpg","img/object_images/pitcher03.jpg","img/object_images/gloves05.jpg","1","1","1","0","1","1","0.461775999996462","0.352030499998364","0.411178400005156","1","1","1","1","1","1","1","1","1"
"260063","img/object_images/gloves05.jpg","img/object_images/pot01.jpg","img/object_images/car02.jpg","1","1","1","1","0","0","0.411178400005156","0.461775999996462","0.53837239999848","1","1","1","1","1","1","1","1","1"
"260063","img/object_images/car02.jpg","img/object_images/gloves05.jpg","img/object_images/hat02.jpg","1","1","0","0","1","0","0.53837239999848","0.411178400005156","0.349070299998857","1","1","1","1","1","1","1","1","1"
"260063","img/object_images/hat02.jpg","img/object_images/car02.jpg","img/object_images/container01.jpg","0","1","0","0","0","0","0.349070299998857","0.53837239999848","0.801165000004403","1","1","1","1","1","1","1","1","1"
"260063","img/object_images/container01.jpg","img/object_images/hat02.jpg","img/object_images/cochlear_implant01.jpg","0","0","1","0","0","0","0.801165000004403","0.349070299998857","0.561149299996032","1","1","1","1","1","1","1","1","1"
"260063","img/object_images/cochlear_implant01.jpg","img/object_images/container01.jpg","img/object_images/basketball_hoop02.jpg","1","0","0","0","0","0","0.561149299996032","0.801165000004403","0.402764599995862","1","1","1","1","1","1","1","1","1"
"260063","img/object_images/basketball_hoop02.jpg","img/object_images/cochlear_implant01.jpg","img/object_images/ball01.jpg","0","1","1","0","0","1","0.402764599995862","0.561149299996032","0.458405700002913","1","1","1","1","1","1","1","1","1"
"260063","img/object_images/ball01.jpg","img/object_images/basketball_hoop02.jpg","img/object_images/lamp01.jpg","1","0","1","1","0","1","0.458405700002913","0.402764599995862","0.424874899996212","1","1","1","1","1","1","1","1","1"
"260063","img/object_images/lamp01.jpg","img/object_images/ball01.jpg","img/object_images/Recycling01.jpg","1","1","1","1","1","1","0.424874899996212","0.458405700002913","0.464429599996947","1","1","1","1","1","1","1","1","1"
"260063","img/object_images/Recycling01.jpg","img/object_images/lamp01.jpg","img/object_images/razor03.jpg","1","1","1","1","1","0","0.464429599996947","0.424874899996212","0.540849400000297","1","1","1","1","1","1","1","1","1"
"260063","img/object_images/razor03.jpg","img/object_images/Recycling01.jpg",NA,"1","1",NA,"0","1",NA,"0.540849400000297","0.464429599996947",NA,"1","1",NA,"1","1",NA,"1","1",NA
"260063","img/object_images/purse01.jpg",NA,"img/object_images/handcuffs01.jpg","1",NA,"1","1",NA,"0","0.435481499996968",NA,"0.356004300003406","1",NA,"1","1",NA,"1","1",NA,"1"
"260063","img/object_images/handcuffs01.jpg","img/object_images/purse01.jpg","img/object_images/speaker01.jpg","1","1","1","0","1","1","0.356004300003406","0.435481499996968","0.434083699998155","1","1","1","1","1","1","1","1","1"
"260063","img/object_images/speaker01.jpg","img/object_images/handcuffs01.jpg","img/object_images/glasses06.jpg","1","1","1","1","0","1","0.434083699998155","0.356004300003406","0.392278399995121","1","1","1","1","1","1","1","1","1"
"260063","img/object_images/glasses06.jpg","img/object_images/speaker01.jpg","img/object_images/tool07.jpg","1","1","1","1","1","0","0.392278399995121","0.434083699998155","0.424656600000162","1","1","1","1","1","1","1","1","1"
"260063","img/object_images/tool07.jpg","img/object_images/glasses06.jpg","img/object_images/tool08.jpg","1","1","1","0","1","0","0.424656600000162","0.392278399995121","0.47227749999729","1","1","1","1","1","1","1","1","1"
"260063","img/object_images/tool08.jpg","img/object_images/tool07.jpg","img/object_images/cellphone02.jpg","1","1","1","0","0","1","0.47227749999729","0.424656600000162","0.397337599999446","1","1","1","1","1","1","1","1","1"
"260063","img/object_images/cellphone02.jpg","img/object_images/tool08.jpg","img/object_images/Kitchen_Towel.jpg","1","1","1","1","0","0","0.397337599999446","0.47227749999729","0.410778099998424","1","1","1","1","1","1","1","1","1"
"260063","img/object_images/Kitchen_Towel.jpg","img/object_images/cellphone02.jpg","img/object_images/book01.jpg","1","1","1","0","1","1","0.410778099998424","0.397337599999446","0.472015699997428","1","1","1","1","1","1","1","1","1"
"260063","img/object_images/book01.jpg","img/object_images/Kitchen_Towel.jpg","img/object_images/TrashCan02.jpg","1","1","1","1","0","1","0.472015699997428","0.410778099998424","0.390054399998917","1","1","1","1","1","1","1","1","1"
"260063","img/object_images/TrashCan02.jpg","img/object_images/book01.jpg","img/object_images/jewelry09.jpg","1","1","1","1","1","1","0.390054399998917","0.472015699997428","0.381288099997619","1","1","1","1","1","1","1","1","1"
"260063","img/object_images/jewelry09.jpg","img/object_images/TrashCan02.jpg","img/object_images/pan01.jpg","1","1","1","1","1","1","0.381288099997619","0.390054399998917","0.461003299998993","1","1","1","1","1","1","1","1","1"
"260063","img/object_images/pan01.jpg","img/object_images/jewelry09.jpg","img/object_images/lighter01.jpg","1","1","1","1","1","1","0.461003299998993","0.381288099997619","0.436281599999347","1","1","1","1","1","1","1","1","1"
"260063","img/object_images/lighter01.jpg","img/object_images/pan01.jpg","img/object_images/hair_clips01.jpg","1","1","1","1","1","1","0.436281599999347","0.461003299998993","0.385174399998505","1","1","1","1","1","1","1","1","1"
"260063","img/object_images/hair_clips01.jpg","img/object_images/lighter01.jpg","img/object_images/blanket01.jpg","1","1","1","1","1","1","0.385174399998505","0.436281599999347","0.422982299998694","1","1","1","1","1","1","1","1","1"
"260063","img/object_images/blanket01.jpg","img/object_images/hair_clips01.jpg","img/object_images/Sprayer01.jpg","1","1","1","1","1","0","0.422982299998694","0.385174399998505","0.52085619999707","1","1","1","1","1","1","1","1","1"
"260063","img/object_images/Sprayer01.jpg","img/object_images/blanket01.jpg","img/object_images/tray01.jpg","1","1","1","0","1","1","0.52085619999707","0.422982299998694","0.459965299996838","1","1","1","1","1","1","1","1","1"
"260063","img/object_images/tray01.jpg","img/object_images/Sprayer01.jpg","img/object_images/yo_yo01.jpg","1","1","1","1","0","0","0.459965299996838","0.52085619999707","0.54915909999545","1","1","1","1","1","1","1","1","1"
"260063","img/object_images/yo_yo01.jpg","img/object_images/tray01.jpg","img/object_images/exfoliater_brush01.jpg","1","1","0","0","1","0","0.54915909999545","0.459965299996838","0.450231200004055","1","1","1","1","1","1","1","1","1"
"260063","img/object_images/exfoliater_brush01.jpg","img/object_images/yo_yo01.jpg","img/object_images/Pottery01.jpg","0","1","1","0","0","0","0.450231200004055","0.54915909999545","0.632276699994691","1","1","1","1","1","1","1","1","1"
"260063","img/object_images/Pottery01.jpg","img/object_images/exfoliater_brush01.jpg","img/object_images/glasses07.jpg","1","0","1","0","0","1","0.632276699994691","0.450231200004055","0.478635799998301","1","1","1","1","1","1","1","1","1"
"260063","img/object_images/glasses07.jpg","img/object_images/Pottery01.jpg","img/object_images/basket02.jpg","1","1","1","1","0","0","0.478635799998301","0.632276699994691","0.480118699997547","1","1","1","1","1","1","1","1","1"
"260063","img/object_images/basket02.jpg","img/object_images/glasses07.jpg","img/object_images/ring03.jpg","1","1","1","0","1","1","0.480118699997547","0.478635799998301","0.366233799999463","1","1","1","1","1","1","1","1","1"
"260063","img/object_images/ring03.jpg","img/object_images/basket02.jpg","img/object_images/gift_box04.jpg","1","1","1","1","0","0","0.366233799999463","0.480118699997547","0.47893699999986","1","1","1","1","1","1","1","1","1"
"260063","img/object_images/gift_box04.jpg","img/object_images/ring03.jpg","img/object_images/hole_puncher01.jpg","1","1","1","0","1","1","0.47893699999986","0.366233799999463","0.467495600001712","1","1","1","1","1","1","1","1","1"
"260063","img/object_images/hole_puncher01.jpg","img/object_images/gift_box04.jpg","img/object_images/Traffic Sign 01.jpg","1","1","1","1","0","0","0.467495600001712","0.47893699999986","0.53067149999697","1","1","1","1","1","1","1","1","1"
"260063","img/object_images/Traffic Sign 01.jpg","img/object_images/hole_puncher01.jpg","img/object_images/colander01.jpg","1","1","1","0","1","0","0.53067149999697","0.467495600001712","0.514885500000673","1","1","1","1","1","1","1","1","1"
"260063","img/object_images/colander01.jpg","img/object_images/Traffic Sign 01.jpg","img/object_images/bicycle_lock01.jpg","1","1","1","0","0","0","0.514885500000673","0.53067149999697","0.518590599996969","1","1","1","1","1","1","1","1","1"
"260063","img/object_images/bicycle_lock01.jpg","img/object_images/colander01.jpg","img/object_images/projector01.jpg","1","1","1","0","0","0","0.518590599996969","0.514885500000673","0.506408199995349","1","1","1","1","1","1","1","1","1"
"260063","img/object_images/projector01.jpg","img/object_images/bicycle_lock01.jpg","img/object_images/faucet01.jpg","1","1","1","0","0","0","0.506408199995349","0.518590599996969","0.642230299999937","1","1","1","1","1","1","1","1","1"
"260063","img/object_images/faucet01.jpg","img/object_images/projector01.jpg","img/object_images/fire_extinguisher01.jpg","1","1","1","0","0","0","0.642230299999937","0.506408199995349","0.390124300000025","1","1","1","1","1","1","1","1","1"
"260063","img/object_images/fire_extinguisher01.jpg","img/object_images/faucet01.jpg","img/object_images/cup03.jpg","1","1","1","0","0","1","0.390124300000025","0.642230299999937","0.475718499998038","1","1","1","1","1","1","1","1","1"
"260063","img/object_images/cup03.jpg","img/object_images/fire_extinguisher01.jpg",NA,"1","1",NA,"1","0",NA,"0.475718499998038","0.390124300000025",NA,"1","1",NA,"1","1",NA,"1","1",NA
