"participant_id","object","surpAcc","memory_surp_responses","memory_surp_rt","keep_surp_memory_trial_based_on_rt","surp_block_num","exclude_block","number_of_surp_resp_items_used","num_blocks_excluded"
"260029","img/object_images/video_game02.jpg","1","k","11.1643258000258",1,1,0,2,0
"260029","img/object_images/sink01.jpg","1","s","2.63467460009269",1,1,0,2,0
"260029","img/object_images/guitar02.jpg","1","k","2.95672040001955",1,1,0,2,0
"260029","img/object_images/boat04.jpg","0","k","6.92552679998334",1,1,0,2,0
"260029","img/object_images/bow_tie03.jpg","1","k","5.5215351000661",1,1,0,2,0
"260029","img/object_images/fan01.jpg","1","k","4.85117499995977",1,1,0,2,0
"260029","img/object_images/scarf01.jpg","1","s","1.56357410002965",1,1,0,2,0
"260029","img/object_images/WoodBox01.jpg","1","k","6.24000079999678",1,1,0,2,0
"260029","img/object_images/knife04.jpg","1","k","1.43024270003662",1,1,0,2,0
"260029","img/object_images/Vest02.jpg","1","k","2.01652099995408",1,1,0,2,0
"260029","img/object_images/tv01.jpg","1","s","2.94258819997776",1,1,0,2,0
"260029","img/object_images/broom01.jpg","1","k","2.65864699997474",1,1,0,2,0
"260029","img/object_images/toaster01.jpg","1","k","1.69240029994398",1,1,0,2,0
"260029","img/object_images/ornament01.jpg","1","s","4.35786260000896",1,1,0,2,0
"260029","img/object_images/knit05.jpg","1","s","2.36307939991821",1,1,0,2,0
"260029","img/object_images/bird_house02.jpg","1","s","4.3419661000371",1,1,0,2,0
"260029","img/object_images/knife01.jpg","1","k","1.06057279999368",1,1,0,2,0
"260029","img/object_images/flashlight03.jpg","1","k","6.87476130004507",1,1,0,2,0
"260029","img/object_images/Traffic Sign 01.jpg","1","s","1.65852059994359",1,1,0,2,0
"260029","img/object_images/knife02.jpg","1","k","2.77290980005637",1,1,0,2,0
"260029","img/object_images/perfume02.jpg","1","s","1.31036300002597",1,1,0,2,0
"260029","img/object_images/pot01.jpg","1","k","3.09665950003546",1,1,0,2,0
"260029","img/object_images/matches02.jpg","1","s","2.55008369998541",1,1,0,2,0
"260029","img/object_images/purse04.jpg","1","s","0.977304700063542",1,1,0,2,0
"260029","img/object_images/ToolBag01.jpg","1","s","2.03520010004286",1,1,0,2,0
"260029","img/object_images/dress03.jpg","1","s","1.88195730000734",1,1,0,2,0
"260029","img/object_images/Thermometer01.jpg","1","s","4.49146010004915",1,1,0,2,0
"260029","img/object_images/jewel04.jpg","1","s","1.69009070005268",1,1,0,2,0
"260029","img/object_images/cellphone03.jpg","0","s","5.25073109997902",1,1,0,2,0
"260029","img/object_images/pitcher02.jpg","1","k","2.70098219998181",1,1,0,2,0
"260029","img/object_images/Lint_Roller02.jpg","0","s","9.42814089998137",1,1,0,2,0
"260029","img/object_images/razor01.jpg","1","s","3.08542189991567",1,1,0,2,0
"260029","img/object_images/brief_case02.jpg","1","s","3.27405819995329",1,1,0,2,0
"260029","img/object_images/book03.jpg","1","k","1.59244330006186",1,1,0,2,0
"260029","img/object_images/bow_tie01.jpg","1","k","3.92530820006505",1,1,0,2,0
"260029","img/object_images/crown02.jpg","1","k","4.64608699991368",1,1,0,2,0
"260029","img/object_images/accardion01.jpg","0","s","3.26339049998205",1,1,0,2,0
"260029","img/object_images/hair_brush02.jpg","1","s","2.01559319999069",1,1,0,2,0
"260029","img/object_images/vase01.jpg","1","s","5.81124599999748",1,1,0,2,0
"260029","img/object_images/shower_head01.jpg","0","k","4.85114290006459",1,1,0,2,0
"260029","img/object_images/bottle05.jpg","1","k","1.69541629997548",1,1,0,2,0
"260029","img/object_images/key02.jpg","1","k","6.27562390000094",1,1,0,2,0
"260029","img/object_images/clip02.jpg","0","k","5.84269950003363",1,1,0,2,0
"260029","img/object_images/pen03.jpg","1","k","7.11884469992947",1,1,0,2,0
"260029","img/object_images/microphone03.jpg","1","k","3.72063330002129",1,1,0,2,0
"260029","img/object_images/ruler02.jpg","1","s","0.870348300086334",1,1,0,2,0
"260029","img/object_images/mask01.jpg","1","s","2.52568409999367",1,1,0,2,0
"260029","img/object_images/MetalWire01.jpg","0","s","5.61475870001595",1,1,0,2,0
"260029","img/object_images/vase02.jpg","1","k","2.77049260004424",1,2,0,2,0
"260029","img/object_images/WitchHat02.jpg","1","k","5.39233639999293",1,2,0,2,0
"260029","img/object_images/TreeSlice01.jpg","1","k","3.97257650003303",1,2,0,2,0
"260029","img/object_images/lemon_squeezer02.jpg","1","s","9.00145280000288",1,2,0,2,0
"260029","img/object_images/microscope01.jpg","1","k","1.85239480005112",1,2,0,2,0
"260029","img/object_images/soap01.jpg","0","k","8.43978920008522",1,2,0,2,0
"260029","img/object_images/note_book02.jpg","1","s","1.8274782000808",1,2,0,2,0
"260029","img/object_images/ear_bud01.jpg","1","s","1.67510089999996",1,2,0,2,0
"260029","img/object_images/knit01.jpg","1","s","2.74297370004933",1,2,0,2,0
"260029","img/object_images/bath_tub01.jpg","1","s","1.64056099997833",1,2,0,2,0
"260029","img/object_images/backpack01.jpg","0","k","3.09126629994716",1,2,0,2,0
"260029","img/object_images/slinky_toy01.jpg","0","k","2.8573920999188",1,2,0,2,0
"260029","img/object_images/hole_puncher01.jpg","0","k","7.84205169999041",1,2,0,2,0
"260029","img/object_images/glasses03.jpg","1","k","1.53441730001941",1,2,0,2,0
"260029","img/object_images/acoustic_capo01.jpg","1","s","6.16627749998588",1,2,0,2,0
"260029","img/object_images/airfryer01.jpg","1","k","1.95462969993241",1,2,0,2,0
"260029","img/object_images/crutches02.jpg","1","s","2.90401640010532",1,2,0,2,0
"260029","img/object_images/trash_can05.jpg","1","s","1.75938910001423",1,2,0,2,0
"260029","img/object_images/lemon_squeezer01.jpg","0","s","3.49494540004525",1,2,0,2,0
"260029","img/object_images/retainer01.jpg","1","s","1.28703630005475",1,2,0,2,0
"260029","img/object_images/helmet01.jpg","1","s","4.58874489995651",1,2,0,2,0
"260029","img/object_images/tie02.jpg","0","k","4.22682410001289",1,2,0,2,0
"260029","img/object_images/tool07.jpg","1","k","3.53831289999653",1,2,0,2,0
"260029","img/object_images/surf_board01.jpg","0","s","6.685665099998",1,2,0,2,0
"260029","img/object_images/pen05.jpg","1","s","4.47321109997574",1,2,0,2,0
"260029","img/object_images/ball02.jpg","1","s","10.1001513999654",1,2,0,2,0
"260029","img/object_images/wallet02.jpg","1","k","3.31798440008424",1,2,0,2,0
"260029","img/object_images/pan01.jpg","1","s","1.51764680002816",1,2,0,2,0
"260029","img/object_images/Witchhat01.jpg","1","k","4.27305610000622",1,2,0,2,0
"260029","img/object_images/hat13.jpg","1","k","2.07111169991549",1,2,0,2,0
"260029","img/object_images/projector01.jpg","1","s","4.30944810004439",1,2,0,2,0
"260029","img/object_images/tripod01.jpg","1","k","4.10690240003169",1,2,0,2,0
"260029","img/object_images/robe01.jpg","1","k","7.19522260001395",1,2,0,2,0
"260029","img/object_images/pitcher01.jpg","1","s","3.7706980999792",1,2,0,2,0
"260029","img/object_images/board01.jpg","1","s","1.11683119996451",1,2,0,2,0
"260029","img/object_images/gift_box02.jpg","1","s","4.19156979990657",1,2,0,2,0
"260029","img/object_images/gauze01.jpg","1","s","4.33625359996222",1,2,0,2,0
"260029","img/object_images/curtain02.jpg","0","s","4.02001129998825",1,2,0,2,0
"260029","img/object_images/ice_tray03.jpg","1","s","2.46068169991486",1,2,0,2,0
"260029","img/object_images/tool11.jpg","1","k","10.0022308999905",1,2,0,2,0
"260029","img/object_images/boat_toy10.jpg","0","k","8.84241769998334",1,2,0,2,0
"260029","img/object_images/pen01.jpg","0","s","2.77756199997384",1,2,0,2,0
"260029","img/object_images/dice01.jpg","1","s","2.15932119998615",1,2,0,2,0
"260029","img/object_images/hammer03.jpg","1","s","2.53860700002406",1,2,0,2,0
"260029","img/object_images/clip04.jpg","1","k","2.44987270003185",1,2,0,2,0
"260029","img/object_images/toothbrush01.jpg","1","s","7.95899740001187",1,2,0,2,0
"260029","img/object_images/mail_box02.jpg","0","s","3.44002429989632",1,2,0,2,0
"260029","img/object_images/ironing_table01.jpg","1","s","2.79678949993104",1,2,0,2,0
"260029","img/object_images/bottle12.jpg","0","k","8.53676779998932",1,3,0,2,0
"260029","img/object_images/lock03.jpg","1","k","4.89044400001876",1,3,0,2,0
"260029","img/object_images/video_game06.jpg","1","k","6.14142900006846",1,3,0,2,0
"260029","img/object_images/yarn02.jpg","1","s","2.22856419999152",1,3,0,2,0
"260029","img/object_images/floppy_disk02.jpg","1","s","3.0745925999945",1,3,0,2,0
"260029","img/object_images/toy03.jpg","0","k","3.93730049999431",1,3,0,2,0
"260029","img/object_images/TrashCan02.jpg","1","s","3.76974809996318",1,3,0,2,0
"260029","img/object_images/toy01.jpg","1","s","6.37331069994252",1,3,0,2,0
"260029","img/object_images/MeasuringCup01.jpg","0","s","2.78417340002488",1,3,0,2,0
"260029","img/object_images/Candle_Holder01.jpg","0","s","4.14706449990626",1,3,0,2,0
"260029","img/object_images/dog_leash01.jpg","1","s","5.56071910005994",1,3,0,2,0
"260029","img/object_images/trumpet01.jpg","0","k","16.8288291000063",1,3,0,2,0
"260029","img/object_images/audio_port01.jpg","1","s","8.2338639999507",1,3,0,2,0
"260029","img/object_images/sink_filter01 (1).jpg","1","k","1.67528309999034",1,3,0,2,0
"260029","img/object_images/book02.jpg","1","s","5.33105989999603",1,3,0,2,0
"260029","img/object_images/fan04.jpg","1","s","6.71925810002722",1,3,0,2,0
"260029","img/object_images/sleeping_bag01.jpg","0","s","4.75384589994792",1,3,0,2,0
"260029","img/object_images/jewelry01.jpg","1","k","5.24261149996892",1,3,0,2,0
"260029","img/object_images/origami01.jpg","1","s","1.9043119000271",1,3,0,2,0
"260029","img/object_images/spatula02.jpg","1","k","1.89208089991007",1,3,0,2,0
"260029","img/object_images/bookmark01.jpg","1","k","1.25688210001681",1,3,0,2,0
"260029","img/object_images/camera05.jpg","1","k","1.43465840001591",1,3,0,2,0
"260029","img/object_images/bottle02.jpg","1","s","2.85996739997063",1,3,0,2,0
"260029","img/object_images/basket02.jpg","0","k","4.10643100005109",1,3,0,2,0
"260029","img/object_images/computer_mouse01.jpg","1","s","1.00204080005642",1,3,0,2,0
"260029","img/object_images/Tin01.jpg","1","k","10.8719006999163",1,3,0,2,0
"260029","img/object_images/kite01.jpg","1","s","2.93445870000869",1,3,0,2,0
"260029","img/object_images/candle02.jpg","0","s","4.75669139996171",1,3,0,2,0
"260029","img/object_images/book01.jpg","0","s","3.05049599998165",1,3,0,2,0
"260029","img/object_images/exfoliater_brush01.jpg","1","s","2.10483269998804",1,3,0,2,0
"260029","img/object_images/Ring02.jpg","1","s","1.84708070009947",1,3,0,2,0
"260029","img/object_images/water_gun01.jpg","1","k","9.4208559000399",1,3,0,2,0
"260029","img/object_images/clock02.jpg","1","s","0.914157600025646",1,3,0,2,0
"260029","img/object_images/note_book01.jpg","0","k","4.20449009991717",1,3,0,2,0
"260029","img/object_images/backpack03.jpg","1","s","5.51980380003806",1,3,0,2,0
"260029","img/object_images/hoverboard01.jpg","1","s","5.42268449999392",1,3,0,2,0
"260029","img/object_images/tool08.jpg","1","s","4.14240240002982",1,3,0,2,0
"260029","img/object_images/blender01.jpg","1","k","6.09098819992505",1,3,0,2,0
"260029","img/object_images/bucket02.jpg","0","s","17.396644399967",1,3,0,2,0
"260029","img/object_images/stereo02.jpg","0","k","3.47594909998588",1,3,0,2,0
"260029","img/object_images/gloves05.jpg","1","k","3.60305769997649",1,3,0,2,0
"260029","img/object_images/shovel01.jpg","0","s","9.39565510000102",1,3,0,2,0
"260029","img/object_images/Violin01.jpg","1","s","0.833973800064996",1,3,0,2,0
"260029","img/object_images/tool02.jpg","1","k","6.14864080003463",1,3,0,2,0
"260029","img/object_images/toy_train02.jpg","0","k","3.19413600000553",1,3,0,2,0
"260029","img/object_images/combs01.jpg","1","s","3.30761579994578",1,3,0,2,0
"260029","img/object_images/bag04.jpg","1","s","1.6352624000283",1,3,0,2,0
"260029","img/object_images/toy08.jpg","0","s","1.7322043000022",1,3,0,2,0
"260029","img/object_images/hammer01.jpg","0","s","9.64591949991882",1,4,0,2,0
"260029","img/object_images/chess_piece02.jpg","1","s","3.93924410000909",1,4,0,2,0
"260029","img/object_images/motorcycle01.jpg","0","k","6.44593149994034",1,4,0,2,0
"260029","img/object_images/bean_bag02.jpg","1","s","1.38044759992044",1,4,0,2,0
"260029","img/object_images/pitcher05.jpg","1","s","1.7167621999979",1,4,0,2,0
"260029","img/object_images/egg_slicer01.jpg","1","s","1.79306939989328",1,4,0,2,0
"260029","img/object_images/piggy_bank01.jpg","1","s","2.90138070005924",1,4,0,2,0
"260029","img/object_images/mirror01.jpg","1","s","3.599315200001",1,4,0,2,0
"260029","img/object_images/hair_brush05.jpg","1","k","2.60774540004786",1,4,0,2,0
"260029","img/object_images/water_scooter01.jpg","0","k","1.6666556999553",1,4,0,2,0
"260029","img/object_images/golf_ball03.jpg","1","k","7.80307109991554",1,4,0,2,0
"260029","img/object_images/bottle01.jpg","1","k","2.72177409997676",1,4,0,2,0
"260029","img/object_images/guitar01.jpg","1","s","3.16210239997599",1,4,0,2,0
"260029","img/object_images/speaker01.jpg","0","k","1.73551969998516",1,4,0,2,0
"260029","img/object_images/tool18.jpg","1","s","2.88564949994907",1,4,0,2,0
"260029","img/object_images/Trowel01.jpg","0","k","2.86677009996492",1,4,0,2,0
"260029","img/object_images/Wisk01.jpg","0","s","2.06349930004217",1,4,0,2,0
"260029","img/object_images/jacket04.jpg","1","k","4.51314189995173",1,4,0,2,0
"260029","img/object_images/Pottery01.jpg","1","s","3.29930950002745",1,4,0,2,0
"260029","img/object_images/brief_case01.jpg","1","k","3.83234970003832",1,4,0,2,0
"260029","img/object_images/bag_pipes01.jpg","1","s","2.11348749999888",1,4,0,2,0
"260029","img/object_images/hat02.jpg","0","s","4.28822809993289",1,4,0,2,0
"260029","img/object_images/bow01.jpg","1","s","8.60310980002396",1,4,0,2,0
"260029","img/object_images/jewel02.jpg","1","s","3.2065358000109",1,4,0,2,0
"260029","img/object_images/knit03.jpg","1","s","3.85039630008396",1,4,0,2,0
"260029","img/object_images/ball01.jpg","1","k","4.40961870003957",1,4,0,2,0
"260029","img/object_images/Woopie01.jpg","1","s","0.891900000046007",1,4,0,2,0
"260029","img/object_images/colander01.jpg","1","s","3.24266659992281",1,4,0,2,0
"260029","img/object_images/lighter01.jpg","1","s","2.71276669995859",1,4,0,2,0
"260029","img/object_images/yo_yo01.jpg","1","k","3.48474540002644",1,4,0,2,0
"260029","img/object_images/container01.jpg","0","s","9.11148760002106",1,4,0,2,0
"260029","img/object_images/cards01.jpg","1","s","5.84854910010472",1,4,0,2,0
"260029","img/object_images/Statue01.jpg","1","s","5.84413059998769",1,4,0,2,0
"260029","img/object_images/judge_gavel01.jpg","1","k","7.46619239996653",1,4,0,2,0
"260029","img/object_images/handcuffs01.jpg","1","k","2.28327450004872",1,4,0,2,0
"260029","img/object_images/lamp01.jpg","1","s","7.34317039989401",1,4,0,2,0
"260029","img/object_images/couch03.jpg","0","s","2.53828630002681",1,4,0,2,0
"260029","img/object_images/joystick03.jpg","0","k","3.04292000003625",1,4,0,2,0
"260029","img/object_images/chain01.jpg","0","s","1.34964209992904",1,4,0,2,0
"260029","img/object_images/Staples01.jpg","1","k","1.44192730006762",1,4,0,2,0
"260029","img/object_images/bottle09.jpg","1","k","5.02081190003082",1,4,0,2,0
"260029","img/object_images/chair05.jpg","1","k","2.69262040010653",1,4,0,2,0
"260029","img/object_images/bicycle_lock01.jpg","0","s","9.02271209994797",1,4,0,2,0
"260029","img/object_images/flask01.jpg","0","k","2.0326232999796",1,4,0,2,0
"260029","img/object_images/video_game07.jpg","1","k","4.08179620001465",1,4,0,2,0
"260029","img/object_images/usb03.jpg","0","s","3.5227987000253",1,4,0,2,0
"260029","img/object_images/chair02.jpg","1","k","7.26974260003772",1,4,0,2,0
"260029","img/object_images/basket04.jpg","1","k","3.97379079996608",1,4,0,2,0
"260029","img/object_images/badminton01.jpg","1","k","7.54741320002358",1,5,0,2,0
"260029","img/object_images/video_game01.jpg","1","s","3.0630833999021",1,5,0,2,0
"260029","img/object_images/socks02.jpg","1","s","3.04863759991713",1,5,0,2,0
"260029","img/object_images/balloon01.jpg","1","k","3.10846240003593",1,5,0,2,0
"260029","img/object_images/binoculars03.jpg","0","s","6.66858789999969",1,5,0,2,0
"260029","img/object_images/tool13.jpg","1","k","2.75624969997443",1,5,0,2,0
"260029","img/object_images/pitcher09.jpg","1","s","2.41340189997572",1,5,0,2,0
"260029","img/object_images/dresser03.jpg","1","k","9.1026277000783",1,5,0,2,0
"260029","img/object_images/office_supplies01.jpg","1","k","3.96229080006015",1,5,0,2,0
"260029","img/object_images/hammer02.jpg","1","s","6.26429770002142",1,5,0,2,0
"260029","img/object_images/shoes10.jpg","0","s","8.20298199995887",1,5,0,2,0
"260029","img/object_images/sign02.jpg","1","s","5.4723326000385",1,5,0,2,0
"260029","img/object_images/helmet05.jpg","0","s","8.22353780001868",1,5,0,2,0
"260029","img/object_images/phone02.jpg","0","k","2.76031110004988",1,5,0,2,0
"260029","img/object_images/faucet01.jpg","0","k","7.16708849999122",1,5,0,2,0
"260029","img/object_images/tennis_racket01.jpg","0","k","5.26225420006085",1,5,0,2,0
"260029","img/object_images/jewel01.jpg","1","s","6.38583210005891",1,5,0,2,0
"260029","img/object_images/lock01.jpg","0","s","8.70189330005087",1,5,0,2,0
"260029","img/object_images/headset02.jpg","1","s","3.98071710008662",1,5,0,2,0
"260029","img/object_images/coloring_pencil02.jpg","1","s","1.54647569998633",1,5,0,2,0
"260029","img/object_images/bow_tie02.jpg","1","k","3.69646480004303",1,5,0,2,0
"260029","img/object_images/camera07.jpg","0","s","6.55891729996074",1,5,0,2,0
"260029","img/object_images/coloring_pencil01.jpg","1","k","2.59492740000132",1,5,0,2,0
"260029","img/object_images/bell03.jpg","0","s","4.34686950000469",1,5,0,2,0
"260029","img/object_images/lock04.jpg","1","s","4.66710489999969",1,5,0,2,0
"260029","img/object_images/paint_brush04.jpg","0","k","3.77625610004179",1,5,0,2,0
"260029","img/object_images/socks01.jpg","1","k","3.44401269999798",1,5,0,2,0
"260029","img/object_images/Kitchen_Towel.jpg","1","s","2.77221540000755",1,5,0,2,0
"260029","img/object_images/car04.jpg","0","s","4.70869180001318",1,5,0,2,0
"260029","img/object_images/fan05.jpg","1","k","3.72554850007873",1,5,0,2,0
"260029","img/object_images/jewelry09.jpg","0","k","7.16843950003386",1,5,0,2,0
"260029","img/object_images/tie01.jpg","1","s","2.68146290001459",1,5,0,2,0
"260029","img/object_images/shoes08.jpg","0","k","8.76601139991544",1,5,0,2,0
"260029","img/object_images/lawn_mower01.jpg","0","k","7.39087649993598",1,5,0,2,0
"260029","img/object_images/lid01.jpg","1","s","4.29428160004318",1,5,0,2,0
"260029","img/object_images/bottle10.jpg","0","s","2.67965740000363",1,5,0,2,0
"260029","img/object_images/watch01.jpg","0","s","5.91833160002716",1,5,0,2,0
"260029","img/object_images/helmet03.jpg","1","k","4.0339334999444",1,5,0,2,0
"260029","img/object_images/pitcher03.jpg","1","s","4.72320940007921",1,5,0,2,0
"260029","img/object_images/couch04.jpg","1","s","4.64670519996434",1,5,0,2,0
"260029","img/object_images/laptop01.jpg","1","s","6.20891089993529",1,5,0,2,0
"260029","img/object_images/vga_port 01.jpg","1","k","3.83239960006904",1,5,0,2,0
"260029","img/object_images/toy04.jpg","0","k","3.5192376000341",1,5,0,2,0
"260029","img/object_images/razor02.jpg","0","k","3.32849530002568",1,5,0,2,0
"260029","img/object_images/Vacuum01.jpg","1","k","7.62190090003423",1,5,0,2,0
"260029","img/object_images/bag06.jpg","1","k","13.787752800039",1,5,0,2,0
"260029","img/object_images/grater01.jpg","0","s","2.81109229999129",1,5,0,2,0
"260029","img/object_images/clip03.jpg","1","s","2.63972219999414",1,5,0,2,0
"260029","img/object_images/pitcher07.jpg","1","s","8.12721139995847",1,6,0,2,0
"260029","img/object_images/shoes07.jpg","1","s","2.33973080001306",1,6,0,2,0
"260029","img/object_images/trash_can03.jpg","1","k","2.60218819999136",1,6,0,2,0
"260029","img/object_images/keyboard02.jpg","0","s","6.43086269998457",1,6,0,2,0
"260029","img/object_images/spray_can01.jpg","1","k","5.25752189999912",1,6,0,2,0
"260029","img/object_images/camera_lens01.jpg","1","s","3.00623870000709",1,6,0,2,0
"260029","img/object_images/soap03.jpg","0","s","4.30382230004761",1,6,0,2,0
"260029","img/object_images/shoes12.jpg","1","k","2.91467949992511",1,6,0,2,0
"260029","img/object_images/hot_air_balloon02.jpg","1","k","5.10723069997039",1,6,0,2,0
"260029","img/object_images/hair_brush01.jpg","1","s","9.24647809995804",1,6,0,2,0
"260029","img/object_images/tool06.jpg","1","k","8.68123350001406",1,6,0,2,0
"260029","img/object_images/piano03.jpg","1","k","4.59006069996394",1,6,0,2,0
"260029","img/object_images/toaster02.jpg","1","k","4.79221939994022",1,6,0,2,0
"260029","img/object_images/umbrella01.jpg","0","s","4.37632329994813",1,6,0,2,0
"260029","img/object_images/gift_box05.jpg","1","k","8.03954779997002",1,6,0,2,0
"260029","img/object_images/bucket01.jpg","0","k","4.17877660004888",1,6,0,2,0
"260029","img/object_images/tray01.jpg","0","k","7.45617120002862",1,6,0,2,0
"260029","img/object_images/hand_grip_exerciser01.jpg","0","k","9.78822610003408",1,6,0,2,0
"260029","img/object_images/funnel01.jpg","0","s","3.21099679998588",1,6,0,2,0
"260029","img/object_images/belt01.jpg","1","s","3.76844849996269",1,6,0,2,0
"260029","img/object_images/jewel03.jpg","1","k","10.7692663000198",1,6,0,2,0
"260029","img/object_images/shower_head03.jpg","0","s","8.94312979991082",1,6,0,2,0
"260029","img/object_images/perfume01.jpg","1","k","4.80648030003067",1,6,0,2,0
"260029","img/object_images/fork02.jpg","0","s","10.602279700106",1,6,0,2,0
"260029","img/object_images/computer_mouse02.jpg","1","s","4.86812430003192",1,6,0,2,0
"260029","img/object_images/cup03.jpg","1","k","10.3637054999126",1,6,0,2,0
"260029","img/object_images/paper_cup01.jpg","1","s","10.7702230999712",1,6,0,2,0
"260029","img/object_images/scale02.jpg","1","s","4.89477719995193",1,6,0,2,0
"260029","img/object_images/purse01.jpg","1","s","1.63546539994422",1,6,0,2,0
"260029","img/object_images/toy05.jpg","1","k","3.17747870006133",1,6,0,2,0
"260029","img/object_images/hair_dryer01.jpg","0","k","3.16808209998999",1,6,0,2,0
"260029","img/object_images/ironing_table02.jpg","1","k","5.14200059999712",1,6,0,2,0
"260029","img/object_images/fridge03.jpg","0","k","6.73872150003444",1,6,0,2,0
"260029","img/object_images/blender02.jpg","0","s","3.72758279996924",1,6,0,2,0
"260029","img/object_images/glasses07.jpg","1","k","4.16427299997304",1,6,0,2,0
"260029","img/object_images/rock02.jpg","1","s","3.05077560001519",1,6,0,2,0
"260029","img/object_images/jewelry07.jpg","1","k","9.43122449994553",1,6,0,2,0
"260029","img/object_images/Eyeliner01.jpg","0","s","7.24926299997605",1,6,0,2,0
"260029","img/object_images/car02.jpg","0","s","5.76968570007011",1,6,0,2,0
"260029","img/object_images/remote_controller01.jpg","0","s","4.52391350001562",1,6,0,2,0
"260029","img/object_images/tool19.jpg","0","s","3.14773190009873",1,6,0,2,0
"260029","img/object_images/cutting_board01.jpg","1","k","2.39697630004957",1,6,0,2,0
"260029","img/object_images/paper_cup02.jpg","0","s","3.41477619996294",1,6,0,2,0
"260029","img/object_images/chair04.jpg","0","k","3.23529069998767",1,6,0,2,0
"260029","img/object_images/drone02.jpg","0","s","7.32695979997516",1,6,0,2,0
"260029","img/object_images/Sprayer01.jpg","1","k","2.85874059994239",1,6,0,2,0
"260029","img/object_images/ribbon01.jpg","1","k","4.36898839997593",1,6,0,2,0
"260029","img/object_images/usb02.jpg","1","k","2.12432719999924",1,6,0,2,0
"260029","img/object_images/tennis_racket02.jpg","1","s","7.10342319996562",1,7,0,2,0
"260029","img/object_images/outlet01.jpg","1","s","2.3889869999839",1,7,0,2,0
"260029","img/object_images/rock03.jpg","0","s","4.39905899995938",1,7,0,2,0
"260029","img/object_images/screwdriver01.jpg","0","s","10.8070882000029",1,7,0,2,0
"260029","img/object_images/decorative02.jpg","0","s","2.39275340002496",1,7,0,2,0
"260029","img/object_images/frame01.jpg","1","s","5.36380809999537",1,7,0,2,0
"260029","img/object_images/glasses06.jpg","1","k","1.57083900005091",1,7,0,2,0
"260029","img/object_images/hat09.jpg","1","s","1.23308209993411",1,7,0,2,0
"260029","img/object_images/bicycle01.jpg","1","k","3.5623202000279",1,7,0,2,0
"260029","img/object_images/towels01.jpg","1","s","3.21683160006069",1,7,0,2,0
"260029","img/object_images/tv02.jpg","1","s","2.1629637000151",1,7,0,2,0
"260029","img/object_images/stapler.jpg","1","k","2.01931450003758",1,7,0,2,0
"260029","img/object_images/video_game03.jpg","1","k","1.20450550003443",1,7,0,2,0
"260029","img/object_images/box03.jpg","1","s","3.14238530001603",1,7,0,2,0
"260029","img/object_images/mail_box01.jpg","0","k","5.4799169000471",1,7,0,2,0
"260029","img/object_images/bottle06.jpg","0","k","1.52931380004156",1,7,0,2,0
"260029","img/object_images/Stool01.jpg","1","k","3.71238959999755",1,7,0,2,0
"260029","img/object_images/camera03.jpg","1","s","1.90962499997113",1,7,0,2,0
"260029","img/object_images/measuring_tape02.jpg","1","s","2.19718610006385",1,7,0,2,0
"260029","img/object_images/pen06.jpg","1","s","1.10228120000102",1,7,0,2,0
"260029","img/object_images/gloves02.jpg","0","s","6.03799710003659",1,7,0,2,0
"260029","img/object_images/hair_clips01.jpg","1","k","1.85635070002172",1,7,0,2,0
"260029","img/object_images/towel02.jpg","1","s","3.47101109998766",1,7,0,2,0
"260029","img/object_images/remover01.jpg","0","k","3.04513660003431",1,7,0,2,0
"260029","img/object_images/floss02.jpg","1","s","4.59561169997323",1,7,0,2,0
"260029","img/object_images/cochlear_implant01.jpg","1","s","6.31068829994183",1,7,0,2,0
"260029","img/object_images/bell02.jpg","0","k","9.50929349998478",1,7,0,2,0
"260029","img/object_images/Oven01.jpg","0","s","2.38023009989411",1,7,0,2,0
"260029","img/object_images/cup01.jpg","1","s","1.26354149996769",1,7,0,2,0
"260029","img/object_images/car03.jpg","0","k","3.50013260007836",1,7,0,2,0
"260029","img/object_images/handkerchief01.jpg","1","k","3.69853070005774",1,7,0,2,0
"260029","img/object_images/basketball_hoop02.jpg","0","k","3.77766619995236",1,7,0,2,0
"260029","img/object_images/duster01.jpg","1","s","1.05017210007645",1,7,0,2,0
"260029","img/object_images/chair03.jpg","0","k","2.17444079997949",1,7,0,2,0
"260029","img/object_images/boat02.jpg","0","s","4.42921089997981",1,7,0,2,0
"260029","img/object_images/Confetti 01.jpg","1","s","1.35265699995216",1,7,0,2,0
"260029","img/object_images/clipboard01.jpg","1","k","5.24110009998549",1,7,0,2,0
"260029","img/object_images/yoga_mat01.jpg","0","s","7.18858399998862",1,7,0,2,0
"260029","img/object_images/stove01.jpg","1","k","1.95542100002058",1,7,0,2,0
"260029","img/object_images/chair06.jpg","0","k","1.89805600000545",1,7,0,2,0
"260029","img/object_images/wire02.jpg","1","k","2.20853139995597",1,7,0,2,0
"260029","img/object_images/fork03.jpg","0","k","2.89884400006849",1,7,0,2,0
"260029","img/object_images/jacket03.jpg","1","s","2.35020069999155",1,7,0,2,0
"260029","img/object_images/razor03.jpg","1","k","3.67942739999853",1,7,0,2,0
"260029","img/object_images/ring03.jpg","0","s","2.00193060003221",1,7,0,2,0
"260029","img/object_images/compass01.jpg","1","s","2.03289090003818",1,7,0,2,0
"260029","img/object_images/fan02.jpg","0","s","1.5879684999818",1,7,0,2,0
"260029","img/object_images/car01.jpg","0","k","6.58055740001146",1,7,0,2,0
"260029","img/object_images/toilet_paper_dispenser01.jpg","1","s","1.90195179998409",1,8,0,2,0
"260029","img/object_images/cellphone02.jpg","0","s","2.42019209999125",1,8,0,2,0
"260029","img/object_images/Screws01.jpg","0","s","2.94479869992938",1,8,0,2,0
"260029","img/object_images/chair01.jpg","1","k","3.39745300007053",1,8,0,2,0
"260029","img/object_images/belt03.jpg","0","k","1.38543269992806",1,8,0,2,0
"260029","img/object_images/bottle07.jpg","0","s","5.15918299998157",1,8,0,2,0
"260029","img/object_images/frisbee01.jpg","1","k","7.0163532999577",1,8,0,2,0
"260029","img/object_images/pot01 (1).jpg","1","s","3.15484899992589",1,8,0,2,0
"260029","img/object_images/lantern01.jpg","1","k","2.42904129996896",1,8,0,2,0
"260029","img/object_images/airfryer02.jpg","1","k","1.36578350001946",1,8,0,2,0
"260029","img/object_images/Safe01.jpg","1","k","2.28767789993435",1,8,0,2,0
"260029","img/object_images/dust_pan01.jpg","1","k","1.63733100006357",1,8,0,2,0
"260029","img/object_images/shovel03.jpg","1","k","4.52065650001168",1,8,0,2,0
"260029","img/object_images/gift_box01.jpg","1","k","2.22889669996221",1,8,0,2,0
"260029","img/object_images/sponge03.jpg","1","s","3.10659569990821",1,8,0,2,0
"260029","img/object_images/ladle02.jpg","1","k","4.26582149998285",1,8,0,2,0
"260029","img/object_images/cellphone01.jpg","1","s","1.41303300007712",1,8,0,2,0
"260029","img/object_images/toilet_paper01.jpg","1","s","2.03546980000101",1,8,0,2,0
"260029","img/object_images/floss01.jpg","0","s","3.68349760002457",1,8,0,2,0
"260029","img/object_images/helmet02.jpg","0","s","3.5692718999926",1,8,0,2,0
"260029","img/object_images/pan03.jpg","1","k","2.15449190000072",1,8,0,2,0
"260029","img/object_images/gift_box04.jpg","1","s","4.86254020000342",1,8,0,2,0
"260029","img/object_images/wagon_cart03.jpg","1","k","4.72805549995974",1,8,0,2,0
"260029","img/object_images/dresser04.jpg","1","k","1.58547690010164",1,8,0,2,0
"260029","img/object_images/drone01.jpg","0","k","6.67869249999058",1,8,0,2,0
"260029","img/object_images/phone04.jpg","0","k","4.5835495000938",1,8,0,2,0
"260029","img/object_images/tool20.jpg","1","k","1.3842121999478",1,8,0,2,0
"260029","img/object_images/knit04.jpg","1","s","4.29501190001611",1,8,0,2,0
"260029","img/object_images/hat06.jpg","1","k","3.50864340004046",1,8,0,2,0
"260029","img/object_images/Recycling01.jpg","1","k","4.50310859992169",1,8,0,2,0
"260029","img/object_images/couch01.jpg","1","k","3.70629399991594",1,8,0,2,0
"260029","img/object_images/blanket01.jpg","1","s","3.21460359997582",1,8,0,2,0
"260029","img/object_images/pillows01.jpg","1","k","2.34673290001228",1,8,0,2,0
"260029","img/object_images/fire_extinguisher01.jpg","0","s","3.63662809995003",1,8,0,2,0
"260029","img/object_images/skate_board01.jpg","0","s","2.76970190007705",1,8,0,2,0
"260029","img/object_images/Shoes05.jpg","0","s","1.57732849998865",1,8,0,2,0
"260029","img/object_images/helmet04.jpg","0","k","3.59516430005897",1,8,0,2,0
"260029","img/object_images/calculator01.jpg","0","k","1.95011470001191",1,8,0,2,0
"260029","img/object_images/tool09.jpg","0","k","6.33963290008251",1,8,0,2,0
"260029","img/object_images/laptop03.jpg","1","k","2.57248360000085",1,8,0,2,0
"260029","img/object_images/dart01.jpg","0","s","5.06905090005603",1,8,0,2,0
"260029","img/object_images/floppy_disk03.jpg","0","s","2.62754949997179",1,8,0,2,0
"260029","img/object_images/chess_piece01.jpg","1","k","7.2133575999178",1,8,0,2,0
"260029","img/object_images/satellite01.jpg","1","s","4.47608860000037",1,8,0,2,0
"260029","img/object_images/scoreboard01.jpg","0","s","3.9869249999756",1,8,0,2,0
"260029","img/object_images/nut_cracker01.jpg","1","s","3.08926530007739",1,8,0,2,0
"260029","img/object_images/egg_basket01.jpg","1","s","5.84831740008667",1,8,0,2,0
"260029","img/object_images/gift_box03.jpg","0","k","2.37119690002874",1,8,0,2,0
