"participant_id","current_trial_object","pre_trial_object","post_trial_object","current_trial_accuracy","pre_trial_accuracy","post_trial_accuracy","current_trial_congruency","pre_trial_congruency","post_trial_congruency","current_trial_rt","pre_trial_rt","post_trial_rt","current_trial_responded","pre_trial_responded","post_trial_responded","current_trial_legitResponse","pre_trial_legitResponse","post_trial_legitResponse","current_trial_resp_nums","pre_trial_resp_nums","post_trial_resp_nums"
"260010","img/object_images/pitcher01.jpg",NA,"img/object_images/retainer01.jpg","1",NA,"1","0",NA,"0","0.427037800000107",NA,"0.545879600002081","1",NA,"1","1",NA,"1","1",NA,"1"
"260010","img/object_images/retainer01.jpg","img/object_images/pitcher01.jpg","img/object_images/bell02.jpg","1","1","1","0","0","0","0.545879600002081","0.427037800000107","0.431657799999812","1","1","1","1","1","1","1","1","1"
"260010","img/object_images/bell02.jpg","img/object_images/retainer01.jpg","img/object_images/floppy_disk03.jpg","1","1","1","0","0","1","0.431657799999812","0.545879600002081","0.480484799998521","1","1","1","1","1","1","1","1","1"
"260010","img/object_images/floppy_disk03.jpg","img/object_images/bell02.jpg","img/object_images/knit05.jpg","1","1","1","1","0","1","0.480484799998521","0.431657799999812","0.366165500003262","1","1","1","1","1","1","1","1","1"
"260010","img/object_images/knit05.jpg","img/object_images/floppy_disk03.jpg","img/object_images/hammer03.jpg","1","1","1","1","1","1","0.366165500003262","0.480484799998521","0.480771000002278","1","1","1","1","1","1","1","1","1"
"260010","img/object_images/hammer03.jpg","img/object_images/knit05.jpg","img/object_images/compass01.jpg","1","1","1","1","1","1","0.480771000002278","0.366165500003262","0.348965800003498","1","1","1","1","1","1","1","1","1"
"260010","img/object_images/compass01.jpg","img/object_images/hammer03.jpg","img/object_images/microscope01.jpg","1","1","1","1","1","0","0.348965800003498","0.480771000002278","0.477546300004178","1","1","1","1","1","1","1","1","1"
"260010","img/object_images/microscope01.jpg","img/object_images/compass01.jpg","img/object_images/ear_bud01.jpg","1","1","1","0","1","1","0.477546300004178","0.348965800003498","0.464703100005863","1","1","1","1","1","1","1","1","1"
"260010","img/object_images/ear_bud01.jpg","img/object_images/microscope01.jpg","img/object_images/chair05.jpg","1","1","1","1","0","0","0.464703100005863","0.477546300004178","0.444448599999305","1","1","1","1","1","1","1","1","1"
"260010","img/object_images/chair05.jpg","img/object_images/ear_bud01.jpg","img/object_images/tv02.jpg","1","1","1","0","1","0","0.444448599999305","0.464703100005863","0.525084900000365","1","1","1","1","1","1","1","1","1"
"260010","img/object_images/tv02.jpg","img/object_images/chair05.jpg","img/object_images/Oven01.jpg","1","1","0","0","0","1","0.525084900000365","0.444448599999305","0.544190900000103","1","1","1","1","1","1","1","1","1"
"260010","img/object_images/Oven01.jpg","img/object_images/tv02.jpg","img/object_images/lid01.jpg","0","1","1","1","0","1","0.544190900000103","0.525084900000365","0.392616500001168","1","1","1","1","1","1","1","1","1"
"260010","img/object_images/lid01.jpg","img/object_images/Oven01.jpg","img/object_images/bottle01.jpg","1","0","1","1","1","0","0.392616500001168","0.544190900000103","0.492253600001277","1","1","1","1","1","1","1","1","1"
"260010","img/object_images/bottle01.jpg","img/object_images/lid01.jpg","img/object_images/clock02.jpg","1","1","1","0","1","0","0.492253600001277","0.392616500001168","0.4747486999986","1","1","1","1","1","1","1","1","1"
"260010","img/object_images/clock02.jpg","img/object_images/bottle01.jpg","img/object_images/paint_brush04.jpg","1","1","1","0","0","0","0.4747486999986","0.492253600001277","0.509752400001162","1","1","1","1","1","1","1","1","1"
"260010","img/object_images/paint_brush04.jpg","img/object_images/clock02.jpg","img/object_images/motorcycle01.jpg","1","1","1","0","0","1","0.509752400001162","0.4747486999986","0.665686799999094","1","1","1","1","1","1","1","1","1"
"260010","img/object_images/motorcycle01.jpg","img/object_images/paint_brush04.jpg","img/object_images/chess_piece02.jpg","1","1","1","1","0","1","0.665686799999094","0.509752400001162","0.457711800001562","1","1","1","1","1","1","1","1","1"
"260010","img/object_images/chess_piece02.jpg","img/object_images/motorcycle01.jpg","img/object_images/pillows01.jpg","1","1","1","1","1","1","0.457711800001562","0.665686799999094","0.606933600000048","1","1","1","1","1","1","1","1","1"
"260010","img/object_images/pillows01.jpg","img/object_images/chess_piece02.jpg","img/object_images/wire02.jpg","1","1","1","1","1","1","0.606933600000048","0.457711800001562","0.631440700002713","1","1","1","1","1","1","1","1","1"
"260010","img/object_images/wire02.jpg","img/object_images/pillows01.jpg","img/object_images/Thermometer01.jpg","1","1","1","1","1","0","0.631440700002713","0.606933600000048","0.487194799999997","1","1","1","1","1","1","1","1","1"
"260010","img/object_images/Thermometer01.jpg","img/object_images/wire02.jpg","img/object_images/tennis_racket02.jpg","1","1","1","0","1","1","0.487194799999997","0.631440700002713","0.427420499996515","1","1","1","1","1","1","1","1","1"
"260010","img/object_images/tennis_racket02.jpg","img/object_images/Thermometer01.jpg","img/object_images/Staples01.jpg","1","1","1","1","0","1","0.427420499996515","0.487194799999997","0.527277900000627","1","1","1","1","1","1","1","1","1"
"260010","img/object_images/Staples01.jpg","img/object_images/tennis_racket02.jpg","img/object_images/usb02.jpg","1","1","1","1","1","0","0.527277900000627","0.427420499996515","0.503909200000635","1","1","1","1","1","1","1","1","1"
"260010","img/object_images/usb02.jpg","img/object_images/Staples01.jpg","img/object_images/pen03.jpg","1","1","1","0","1","0","0.503909200000635","0.527277900000627","0.49680680000165","1","1","1","1","1","1","1","1","1"
"260010","img/object_images/pen03.jpg","img/object_images/usb02.jpg","img/object_images/floppy_disk02.jpg","1","1","1","0","0","0","0.49680680000165","0.503909200000635","0.525093100004597","1","1","1","1","1","1","1","1","1"
"260010","img/object_images/floppy_disk02.jpg","img/object_images/pen03.jpg","img/object_images/clip03.jpg","1","1","1","0","0","0","0.525093100004597","0.49680680000165","0.561023000002024","1","1","1","1","1","1","1","1","1"
"260010","img/object_images/clip03.jpg","img/object_images/floppy_disk02.jpg","img/object_images/cellphone01.jpg","1","1","1","0","0","1","0.561023000002024","0.525093100004597","0.401948099999572","1","1","1","1","1","1","1","1","1"
"260010","img/object_images/cellphone01.jpg","img/object_images/clip03.jpg","img/object_images/crutches02.jpg","1","1","1","1","0","0","0.401948099999572","0.561023000002024","0.439186299998255","1","1","1","1","1","1","1","1","1"
"260010","img/object_images/crutches02.jpg","img/object_images/cellphone01.jpg","img/object_images/knife04.jpg","1","1","1","0","1","1","0.439186299998255","0.401948099999572","0.573605199999292","1","1","1","1","1","1","1","1","1"
"260010","img/object_images/knife04.jpg","img/object_images/crutches02.jpg","img/object_images/book03.jpg","1","1","1","1","0","1","0.573605199999292","0.439186299998255","0.440743800005294","1","1","1","1","1","1","1","1","1"
"260010","img/object_images/book03.jpg","img/object_images/knife04.jpg","img/object_images/note_book01.jpg","1","1","1","1","1","0","0.440743800005294","0.573605199999292","0.535144100002071","1","1","1","1","1","1","1","1","1"
"260010","img/object_images/note_book01.jpg","img/object_images/book03.jpg",NA,"1","1",NA,"0","1",NA,"0.535144100002071","0.440743800005294",NA,"1","1",NA,"1","1",NA,"1","1",NA
"260010","img/object_images/gift_box02.jpg",NA,"img/object_images/golf_ball03.jpg","1",NA,"1","1",NA,"1","0.39946960000816",NA,"0.58511880000151","1",NA,"1","1",NA,"1","1",NA,"1"
"260010","img/object_images/golf_ball03.jpg","img/object_images/gift_box02.jpg","img/object_images/balloon01.jpg","1","1","1","1","1","0","0.58511880000151","0.39946960000816","0.49714330000279","1","1","1","1","1","1","1","1","1"
"260010","img/object_images/balloon01.jpg","img/object_images/golf_ball03.jpg","img/object_images/wallet02.jpg","1","1","1","0","1","1","0.49714330000279","0.58511880000151","0.418908899999224","1","1","1","1","1","1","1","1","1"
"260010","img/object_images/wallet02.jpg","img/object_images/balloon01.jpg","img/object_images/ironing_table01.jpg","1","1","1","1","0","0","0.418908899999224","0.49714330000279","0.46704260000115","1","1","1","1","1","1","1","1","1"
"260010","img/object_images/ironing_table01.jpg","img/object_images/wallet02.jpg","img/object_images/pitcher02.jpg","1","1","1","0","1","1","0.46704260000115","0.418908899999224","0.472587700001895","1","1","1","1","1","1","1","1","1"
"260010","img/object_images/pitcher02.jpg","img/object_images/ironing_table01.jpg","img/object_images/socks02.jpg","1","1","1","1","0","0","0.472587700001895","0.46704260000115","0.492359800002305","1","1","1","1","1","1","1","1","1"
"260010","img/object_images/socks02.jpg","img/object_images/pitcher02.jpg","img/object_images/bow_tie01.jpg","1","1","1","0","1","0","0.492359800002305","0.472587700001895","0.452869100001408","1","1","1","1","1","1","1","1","1"
"260010","img/object_images/bow_tie01.jpg","img/object_images/socks02.jpg","img/object_images/handkerchief01.jpg","1","1","1","0","0","0","0.452869100001408","0.492359800002305","0.466265700000804","1","1","1","1","1","1","1","1","1"
"260010","img/object_images/handkerchief01.jpg","img/object_images/bow_tie01.jpg","img/object_images/fork03.jpg","1","1","1","0","0","1","0.466265700000804","0.452869100001408","0.387400400002662","1","1","1","1","1","1","1","1","1"
"260010","img/object_images/fork03.jpg","img/object_images/handkerchief01.jpg","img/object_images/lawn_mower01.jpg","1","1","1","1","0","1","0.387400400002662","0.466265700000804","0.385024099996372","1","1","1","1","1","1","1","1","1"
"260010","img/object_images/lawn_mower01.jpg","img/object_images/fork03.jpg","img/object_images/bow_tie02.jpg","1","1","1","1","1","0","0.385024099996372","0.387400400002662","0.427256499999203","1","1","1","1","1","1","1","1","1"
"260010","img/object_images/bow_tie02.jpg","img/object_images/lawn_mower01.jpg","img/object_images/dresser04.jpg","1","1","0","0","1","0","0.427256499999203","0.385024099996372","0.452159100001154","1","1","1","1","1","1","1","1","1"
"260010","img/object_images/dresser04.jpg","img/object_images/bow_tie02.jpg","img/object_images/bath_tub01.jpg","0","1","1","0","0","0","0.452159100001154","0.427256499999203","0.562817700003507","1","1","1","1","1","1","1","1","1"
"260010","img/object_images/bath_tub01.jpg","img/object_images/dresser04.jpg","img/object_images/sleeping_bag01.jpg","1","0","1","0","0","0","0.562817700003507","0.452159100001154","0.449706500003231","1","1","1","1","1","1","1","1","1"
"260010","img/object_images/sleeping_bag01.jpg","img/object_images/bath_tub01.jpg","img/object_images/gift_box03.jpg","1","1","1","0","0","0","0.449706500003231","0.562817700003507","0.512128800000937","1","1","1","1","1","1","1","1","1"
"260010","img/object_images/gift_box03.jpg","img/object_images/sleeping_bag01.jpg","img/object_images/paper_cup01.jpg","1","1","1","0","0","0","0.512128800000937","0.449706500003231","0.459746800006542","1","1","1","1","1","1","1","1","1"
"260010","img/object_images/paper_cup01.jpg","img/object_images/gift_box03.jpg","img/object_images/hammer01.jpg","1","1","1","0","0","0","0.459746800006542","0.512128800000937","0.689892100002908","1","1","1","1","1","1","1","1","1"
"260010","img/object_images/hammer01.jpg","img/object_images/paper_cup01.jpg","img/object_images/grater01.jpg","1","1","1","0","0","1","0.689892100002908","0.459746800006542","0.455309199998737","1","1","1","1","1","1","1","1","1"
"260010","img/object_images/grater01.jpg","img/object_images/hammer01.jpg","img/object_images/Screws01.jpg","1","1","1","1","0","1","0.455309199998737","0.689892100002908","0.417322199995397","1","1","1","1","1","1","1","1","1"
"260010","img/object_images/Screws01.jpg","img/object_images/grater01.jpg","img/object_images/jewelry01.jpg","1","1","1","1","1","1","0.417322199995397","0.455309199998737","0.457121500003268","1","1","1","1","1","1","1","1","1"
"260010","img/object_images/jewelry01.jpg","img/object_images/Screws01.jpg","img/object_images/vga_port 01.jpg","1","1","1","1","1","0","0.457121500003268","0.417322199995397","0.557428800006164","1","1","1","1","1","1","1","1","1"
"260010","img/object_images/vga_port 01.jpg","img/object_images/jewelry01.jpg","img/object_images/lock04.jpg","1","1","1","0","1","1","0.557428800006164","0.457121500003268","0.599710700000287","1","1","1","1","1","1","1","1","1"
"260010","img/object_images/lock04.jpg","img/object_images/vga_port 01.jpg","img/object_images/funnel01.jpg","1","1","1","1","0","0","0.599710700000287","0.557428800006164","0.507735000006505","1","1","1","1","1","1","1","1","1"
"260010","img/object_images/funnel01.jpg","img/object_images/lock04.jpg","img/object_images/Witchhat01.jpg","1","1","1","0","1","1","0.507735000006505","0.599710700000287","0.535401500004809","1","1","1","1","1","1","1","1","1"
"260010","img/object_images/Witchhat01.jpg","img/object_images/funnel01.jpg","img/object_images/jacket03.jpg","1","1","0","1","0","0","0.535401500004809","0.507735000006505","0.666459500003839","1","1","1","1","1","1","1","1","1"
"260010","img/object_images/jacket03.jpg","img/object_images/Witchhat01.jpg","img/object_images/couch03.jpg","0","1","1","0","1","0","0.666459500003839","0.535401500004809","0.528593900002306","1","1","1","1","1","1","1","1","1"
"260010","img/object_images/couch03.jpg","img/object_images/jacket03.jpg","img/object_images/measuring_tape02.jpg","1","0","1","0","0","1","0.528593900002306","0.666459500003839","0.545018899996649","1","1","1","1","1","1","1","1","1"
"260010","img/object_images/measuring_tape02.jpg","img/object_images/couch03.jpg","img/object_images/clip02.jpg","1","1","1","1","0","1","0.545018899996649","0.528593900002306","0.56563129999995","1","1","1","1","1","1","1","1","1"
"260010","img/object_images/clip02.jpg","img/object_images/measuring_tape02.jpg","img/object_images/gift_box01.jpg","1","1","1","1","1","1","0.56563129999995","0.545018899996649","0.499137700004212","1","1","1","1","1","1","1","1","1"
"260010","img/object_images/gift_box01.jpg","img/object_images/clip02.jpg","img/object_images/coloring_pencil01.jpg","1","1","1","1","1","1","0.499137700004212","0.56563129999995","0.513847700007318","1","1","1","1","1","1","1","1","1"
"260010","img/object_images/coloring_pencil01.jpg","img/object_images/gift_box01.jpg","img/object_images/camera07.jpg","1","1","1","1","1","1","0.513847700007318","0.499137700004212","0.564873299997998","1","1","1","1","1","1","1","1","1"
"260010","img/object_images/camera07.jpg","img/object_images/coloring_pencil01.jpg",NA,"1","1",NA,"1","1",NA,"0.564873299997998","0.513847700007318",NA,"1","1",NA,"1","1",NA,"1","1",NA
"260010","img/object_images/car04.jpg",NA,"img/object_images/binoculars03.jpg","1",NA,"1","0",NA,"1","0.468076699995436",NA,"0.501159200000984","1",NA,"1","1",NA,"1","1",NA,"1"
"260010","img/object_images/binoculars03.jpg","img/object_images/car04.jpg","img/object_images/cutting_board01.jpg","1","1","1","1","0","1","0.501159200000984","0.468076699995436","0.449887700000545","1","1","1","1","1","1","1","1","1"
"260010","img/object_images/cutting_board01.jpg","img/object_images/binoculars03.jpg","img/object_images/tv01.jpg","1","1","1","1","1","0","0.449887700000545","0.501159200000984","0.559177400005865","1","1","1","1","1","1","1","1","1"
"260010","img/object_images/tv01.jpg","img/object_images/cutting_board01.jpg","img/object_images/ribbon01.jpg","1","1","1","0","1","0","0.559177400005865","0.449887700000545","0.589898300000641","1","1","1","1","1","1","1","1","1"
"260010","img/object_images/ribbon01.jpg","img/object_images/tv01.jpg","img/object_images/MeasuringCup01.jpg","1","1","1","0","0","1","0.589898300000641","0.559177400005865","0.564379700001155","1","1","1","1","1","1","1","1","1"
"260010","img/object_images/MeasuringCup01.jpg","img/object_images/ribbon01.jpg","img/object_images/shoes10.jpg","1","1","1","1","0","0","0.564379700001155","0.589898300000641","0.509005200001411","1","1","1","1","1","1","1","1","1"
"260010","img/object_images/shoes10.jpg","img/object_images/MeasuringCup01.jpg","img/object_images/key02.jpg","1","1","1","0","1","1","0.509005200001411","0.564379700001155","0.526393300002383","1","1","1","1","1","1","1","1","1"
"260010","img/object_images/key02.jpg","img/object_images/shoes10.jpg","img/object_images/bag06.jpg","1","1","1","1","0","1","0.526393300002383","0.509005200001411","0.4291041999968","1","1","1","1","1","1","1","1","1"
"260010","img/object_images/bag06.jpg","img/object_images/key02.jpg","img/object_images/jewel01.jpg","1","1","1","1","1","0","0.4291041999968","0.526393300002383","0.637517899995146","1","1","1","1","1","1","1","1","1"
"260010","img/object_images/jewel01.jpg","img/object_images/bag06.jpg","img/object_images/toaster02.jpg","1","1","1","0","1","1","0.637517899995146","0.4291041999968","0.484508100002131","1","1","1","1","1","1","1","1","1"
"260010","img/object_images/toaster02.jpg","img/object_images/jewel01.jpg","img/object_images/ladle02.jpg","1","1","1","1","0","0","0.484508100002131","0.637517899995146","0.481304300003103","1","1","1","1","1","1","1","1","1"
"260010","img/object_images/ladle02.jpg","img/object_images/toaster02.jpg","img/object_images/slinky_toy01.jpg","1","1","1","0","1","1","0.481304300003103","0.484508100002131","0.491787500002829","1","1","1","1","1","1","1","1","1"
"260010","img/object_images/slinky_toy01.jpg","img/object_images/ladle02.jpg","img/object_images/hair_brush05.jpg","1","1","1","1","0","1","0.491787500002829","0.481304300003103","0.566446100005123","1","1","1","1","1","1","1","1","1"
"260010","img/object_images/hair_brush05.jpg","img/object_images/slinky_toy01.jpg","img/object_images/razor01.jpg","1","1","1","1","1","0","0.566446100005123","0.491787500002829","0.548131399998965","1","1","1","1","1","1","1","1","1"
"260010","img/object_images/razor01.jpg","img/object_images/hair_brush05.jpg","img/object_images/rock03.jpg","1","1","1","0","1","0","0.548131399998965","0.566446100005123","0.494090400003188","1","1","1","1","1","1","1","1","1"
"260010","img/object_images/rock03.jpg","img/object_images/razor01.jpg","img/object_images/chair04.jpg","1","1","1","0","0","1","0.494090400003188","0.548131399998965","0.548054899998533","1","1","1","1","1","1","1","1","1"
"260010","img/object_images/chair04.jpg","img/object_images/rock03.jpg","img/object_images/ice_tray03.jpg","1","1","1","1","0","1","0.548054899998533","0.494090400003188","0.696884199998749","1","1","1","1","1","1","1","1","1"
"260010","img/object_images/ice_tray03.jpg","img/object_images/chair04.jpg","img/object_images/lemon_squeezer02.jpg","1","1","1","1","1","1","0.696884199998749","0.548054899998533","0.418643300006806","1","1","1","1","1","1","1","1","1"
"260010","img/object_images/lemon_squeezer02.jpg","img/object_images/ice_tray03.jpg","img/object_images/fan05.jpg","1","1","1","1","1","0","0.418643300006806","0.696884199998749","0.611591200002294","1","1","1","1","1","1","1","1","1"
"260010","img/object_images/fan05.jpg","img/object_images/lemon_squeezer02.jpg","img/object_images/jewelry07.jpg","1","1","1","0","1","1","0.611591200002294","0.418643300006806","0.503616399997554","1","1","1","1","1","1","1","1","1"
"260010","img/object_images/jewelry07.jpg","img/object_images/fan05.jpg","img/object_images/screwdriver01.jpg","1","1","1","1","0","0","0.503616399997554","0.611591200002294","0.501748399998178","1","1","1","1","1","1","1","1","1"
"260010","img/object_images/screwdriver01.jpg","img/object_images/jewelry07.jpg","img/object_images/belt01.jpg","1","1","1","0","1","0","0.501748399998178","0.503616399997554","0.590301500000351","1","1","1","1","1","1","1","1","1"
"260010","img/object_images/belt01.jpg","img/object_images/screwdriver01.jpg","img/object_images/cards01.jpg","1","1","1","0","0","0","0.590301500000351","0.501748399998178","0.519339099999343","1","1","1","1","1","1","1","1","1"
"260010","img/object_images/cards01.jpg","img/object_images/belt01.jpg","img/object_images/WitchHat02.jpg","1","1","1","0","0","1","0.519339099999343","0.590301500000351","1.35709530000167","1","1","1","1","1","1","1","1","1"
"260010","img/object_images/WitchHat02.jpg","img/object_images/cards01.jpg","img/object_images/tool11.jpg","1","1","1","1","0","1","1.35709530000167","0.519339099999343","0.529699200000323","1","1","1","1","1","1","1","1","1"
"260010","img/object_images/tool11.jpg","img/object_images/WitchHat02.jpg","img/object_images/yarn02.jpg","1","1","1","1","1","0","0.529699200000323","1.35709530000167","0.428063300001668","1","1","1","1","1","1","1","1","1"
"260010","img/object_images/yarn02.jpg","img/object_images/tool11.jpg","img/object_images/mask01.jpg","1","1","1","0","1","0","0.428063300001668","0.529699200000323","0.505449500000395","1","1","1","1","1","1","1","1","1"
"260010","img/object_images/mask01.jpg","img/object_images/yarn02.jpg","img/object_images/shower_head03.jpg","1","1","1","0","0","1","0.505449500000395","0.428063300001668","0.368432600000233","1","1","1","1","1","1","1","1","1"
"260010","img/object_images/shower_head03.jpg","img/object_images/mask01.jpg","img/object_images/satellite01.jpg","1","1","1","1","0","0","0.368432600000233","0.505449500000395","0.533841700002085","1","1","1","1","1","1","1","1","1"
"260010","img/object_images/satellite01.jpg","img/object_images/shower_head03.jpg","img/object_images/car03.jpg","1","1","1","0","1","0","0.533841700002085","0.368432600000233","0.450649400001566","1","1","1","1","1","1","1","1","1"
"260010","img/object_images/car03.jpg","img/object_images/satellite01.jpg","img/object_images/dress03.jpg","1","1","1","0","0","1","0.450649400001566","0.533841700002085","0.451794599997811","1","1","1","1","1","1","1","1","1"
"260010","img/object_images/dress03.jpg","img/object_images/car03.jpg",NA,"1","1",NA,"1","0",NA,"0.451794599997811","0.450649400001566",NA,"1","1",NA,"1","1",NA,"1","1",NA
"260010","img/object_images/book01.jpg",NA,"img/object_images/gift_box04.jpg","1",NA,"1","1",NA,"0","0.450118300002941",NA,"0.505954900007055","1",NA,"1","1",NA,"1","1",NA,"1"
"260010","img/object_images/gift_box04.jpg","img/object_images/book01.jpg","img/object_images/Kitchen_Towel.jpg","1","1","1","0","1","0","0.505954900007055","0.450118300002941","0.4953502999997","1","1","1","1","1","1","1","1","1"
"260010","img/object_images/Kitchen_Towel.jpg","img/object_images/gift_box04.jpg","img/object_images/pan01.jpg","1","1","1","0","0","1","0.4953502999997","0.505954900007055","0.777374600002076","1","1","1","1","1","1","1","1","1"
"260010","img/object_images/pan01.jpg","img/object_images/Kitchen_Towel.jpg","img/object_images/glasses06.jpg","1","1","1","1","0","1","0.777374600002076","0.4953502999997","0.563316400002805","1","1","1","1","1","1","1","1","1"
"260010","img/object_images/glasses06.jpg","img/object_images/pan01.jpg","img/object_images/exfoliater_brush01.jpg","1","1","1","1","1","0","0.563316400002805","0.777374600002076","0.471439900000405","1","1","1","1","1","1","1","1","1"
"260010","img/object_images/exfoliater_brush01.jpg","img/object_images/glasses06.jpg","img/object_images/speaker01.jpg","1","1","1","0","1","1","0.471439900000405","0.563316400002805","0.404428200003167","1","1","1","1","1","1","1","1","1"
"260010","img/object_images/speaker01.jpg","img/object_images/exfoliater_brush01.jpg","img/object_images/projector01.jpg","1","1","1","1","0","0","0.404428200003167","0.471439900000405","0.550598800000444","1","1","1","1","1","1","1","1","1"
"260010","img/object_images/projector01.jpg","img/object_images/speaker01.jpg","img/object_images/basket02.jpg","1","1","0","0","1","0","0.550598800000444","0.404428200003167","0.415347499998461","1","1","1","1","1","1","1","1","2"
"260010","img/object_images/basket02.jpg","img/object_images/projector01.jpg","img/object_images/Sprayer01.jpg","0","1","1","0","0","0","0.415347499998461","0.550598800000444","0.518815000003087","1","1","1","1","1","1","2","1","1"
"260010","img/object_images/Sprayer01.jpg","img/object_images/basket02.jpg","img/object_images/tool07.jpg","1","0","1","0","0","0","0.518815000003087","0.415347499998461","0.537224300001981","1","1","1","1","1","1","1","2","1"
"260010","img/object_images/tool07.jpg","img/object_images/Sprayer01.jpg","img/object_images/blanket01.jpg","1","1","1","0","0","1","0.537224300001981","0.518815000003087","0.469733400001132","1","1","1","1","1","1","1","1","1"
"260010","img/object_images/blanket01.jpg","img/object_images/tool07.jpg","img/object_images/cellphone02.jpg","1","1","1","1","0","1","0.469733400001132","0.537224300001981","0.541162599998643","1","1","1","1","1","1","1","1","1"
"260010","img/object_images/cellphone02.jpg","img/object_images/blanket01.jpg","img/object_images/hair_clips01.jpg","1","1","1","1","1","1","0.541162599998643","0.469733400001132","0.438671600000816","1","1","1","1","1","1","1","1","1"
"260010","img/object_images/hair_clips01.jpg","img/object_images/cellphone02.jpg","img/object_images/TrashCan02.jpg","1","1","1","1","1","1","0.438671600000816","0.541162599998643","0.515912600007141","1","1","1","1","1","1","1","1","1"
"260010","img/object_images/TrashCan02.jpg","img/object_images/hair_clips01.jpg","img/object_images/colander01.jpg","1","1","0","1","1","0","0.515912600007141","0.438671600000816","0.383608600001025","1","1","1","1","1","1","1","1","1"
"260010","img/object_images/colander01.jpg","img/object_images/TrashCan02.jpg","img/object_images/Pottery01.jpg","0","1","1","0","1","0","0.383608600001025","0.515912600007141","0.565046700001403","1","1","1","1","1","1","1","1","1"
"260010","img/object_images/Pottery01.jpg","img/object_images/colander01.jpg","img/object_images/cup03.jpg","1","0","1","0","0","1","0.565046700001403","0.383608600001025","0.587987400002021","1","1","1","1","1","1","1","1","1"
"260010","img/object_images/cup03.jpg","img/object_images/Pottery01.jpg","img/object_images/purse01.jpg","1","1","1","1","0","1","0.587987400002021","0.565046700001403","0.477844800007006","1","1","1","1","1","1","1","1","1"
"260010","img/object_images/purse01.jpg","img/object_images/cup03.jpg","img/object_images/tool08.jpg","1","1","1","1","1","0","0.477844800007006","0.587987400002021","0.5523555999971","1","1","1","1","1","1","1","1","1"
"260010","img/object_images/tool08.jpg","img/object_images/purse01.jpg","img/object_images/hole_puncher01.jpg","1","1","1","0","1","1","0.5523555999971","0.477844800007006","0.585321700003988","1","1","1","1","1","1","1","1","1"
"260010","img/object_images/hole_puncher01.jpg","img/object_images/tool08.jpg","img/object_images/fire_extinguisher01.jpg","1","1","1","1","0","0","0.585321700003988","0.5523555999971","0.603975200006971","1","1","1","1","1","1","1","1","1"
"260010","img/object_images/fire_extinguisher01.jpg","img/object_images/hole_puncher01.jpg","img/object_images/glasses07.jpg","1","1","1","0","1","1","0.603975200006971","0.585321700003988","0.474646200003917","1","1","1","1","1","1","1","1","1"
"260010","img/object_images/glasses07.jpg","img/object_images/fire_extinguisher01.jpg","img/object_images/tray01.jpg","1","1","1","1","0","1","0.474646200003917","0.603975200006971","0.514787499996601","1","1","1","1","1","1","1","1","1"
"260010","img/object_images/tray01.jpg","img/object_images/glasses07.jpg","img/object_images/Traffic Sign 01.jpg","1","1","1","1","1","0","0.514787499996601","0.474646200003917","0.513334000002942","1","1","1","1","1","1","1","1","1"
"260010","img/object_images/Traffic Sign 01.jpg","img/object_images/tray01.jpg","img/object_images/ring03.jpg","1","1","1","0","1","1","0.513334000002942","0.514787499996601","0.450130299999728","1","1","1","1","1","1","1","1","1"
"260010","img/object_images/ring03.jpg","img/object_images/Traffic Sign 01.jpg","img/object_images/faucet01.jpg","1","1","1","1","0","0","0.450130299999728","0.513334000002942","0.540862600006221","1","1","1","1","1","1","1","1","1"
"260010","img/object_images/faucet01.jpg","img/object_images/ring03.jpg","img/object_images/handcuffs01.jpg","1","1","1","0","1","0","0.540862600006221","0.450130299999728","0.754239800000505","1","1","1","1","1","1","1","1","1"
"260010","img/object_images/handcuffs01.jpg","img/object_images/faucet01.jpg","img/object_images/bicycle_lock01.jpg","1","1","1","0","0","0","0.754239800000505","0.540862600006221","0.647589100000914","1","1","1","1","1","1","1","1","1"
"260010","img/object_images/bicycle_lock01.jpg","img/object_images/handcuffs01.jpg","img/object_images/jewelry09.jpg","1","1","1","0","0","1","0.647589100000914","0.754239800000505","0.536884300003294","1","1","1","1","1","1","1","1","1"
"260010","img/object_images/jewelry09.jpg","img/object_images/bicycle_lock01.jpg","img/object_images/yo_yo01.jpg","1","1","1","1","0","0","0.536884300003294","0.647589100000914","0.520048500002304","1","1","1","1","1","1","1","1","1"
"260010","img/object_images/yo_yo01.jpg","img/object_images/jewelry09.jpg","img/object_images/lighter01.jpg","1","1","1","0","1","1","0.520048500002304","0.536884300003294","0.526520400002482","1","1","1","1","1","1","1","1","1"
"260010","img/object_images/lighter01.jpg","img/object_images/yo_yo01.jpg",NA,"1","1",NA,"1","0",NA,"0.526520400002482","0.520048500002304",NA,"1","1",NA,"1","1",NA,"1","1",NA
"260010","img/object_images/gloves02.jpg",NA,"img/object_images/keyboard02.jpg","1",NA,"1","0",NA,"1","0.639674099998956",NA,"0.501791600006982","1",NA,"1","1",NA,"1","1",NA,"1"
"260010","img/object_images/keyboard02.jpg","img/object_images/gloves02.jpg","img/object_images/tool18.jpg","1","1","1","1","0","0","0.501791600006982","0.639674099998956","0.667442500001926","1","1","1","1","1","1","1","1","1"
"260010","img/object_images/tool18.jpg","img/object_images/keyboard02.jpg","img/object_images/bottle07.jpg","1","1","1","0","1","1","0.667442500001926","0.501791600006982","0.52383920000284","1","1","1","1","1","1","1","1","1"
"260010","img/object_images/bottle07.jpg","img/object_images/tool18.jpg","img/object_images/toy08.jpg","1","1","1","1","0","0","0.52383920000284","0.667442500001926","0.53063739999925","1","1","1","1","1","1","1","1","1"
"260010","img/object_images/toy08.jpg","img/object_images/bottle07.jpg","img/object_images/stereo02.jpg","1","1","1","0","1","0","0.53063739999925","0.52383920000284","0.572160400006396","1","1","1","1","1","1","1","1","1"
"260010","img/object_images/stereo02.jpg","img/object_images/toy08.jpg","img/object_images/hoverboard01.jpg","1","1","1","0","0","0","0.572160400006396","0.53063739999925","0.476772499998333","1","1","1","1","1","1","1","1","1"
"260010","img/object_images/hoverboard01.jpg","img/object_images/stereo02.jpg","img/object_images/matches02.jpg","1","1","1","0","0","0","0.476772499998333","0.572160400006396","0.518479900005332","1","1","1","1","1","1","1","1","1"
"260010","img/object_images/matches02.jpg","img/object_images/hoverboard01.jpg","img/object_images/remover01.jpg","1","1","1","0","0","1","0.518479900005332","0.476772499998333","0.524027600004047","1","1","1","1","1","1","1","1","1"
"260010","img/object_images/remover01.jpg","img/object_images/matches02.jpg","img/object_images/blender02.jpg","1","1","0","1","0","1","0.524027600004047","0.518479900005332",NA,"1","1","0","1","1","0","1","1","0"
"260010","img/object_images/blender02.jpg","img/object_images/remover01.jpg","img/object_images/knit03.jpg","0","1","1","1","1","1",NA,"0.524027600004047","0.398241299997608","0","1","1","0","1","1","0","1","1"
"260010","img/object_images/knit03.jpg","img/object_images/blender02.jpg","img/object_images/backpack01.jpg","1","0","1","1","1","0","0.398241299997608",NA,"0.541203699998732","1","0","1","1","0","1","1","0","1"
"260010","img/object_images/backpack01.jpg","img/object_images/knit03.jpg","img/object_images/shower_head01.jpg","1","1","1","0","1","1","0.541203699998732","0.398241299997608","0.468541599999298","1","1","1","1","1","1","1","1","1"
"260010","img/object_images/shower_head01.jpg","img/object_images/backpack01.jpg","img/object_images/video_game01.jpg","1","1","1","1","0","1","0.468541599999298","0.541203699998732","0.41760030000296","1","1","1","1","1","1","1","1","1"
"260010","img/object_images/video_game01.jpg","img/object_images/shower_head01.jpg","img/object_images/boat04.jpg","1","1","1","1","1","0","0.41760030000296","0.468541599999298","0.420634800000698","1","1","1","1","1","1","1","1","1"
"260010","img/object_images/boat04.jpg","img/object_images/video_game01.jpg","img/object_images/kite01.jpg","1","1","1","0","1","1","0.420634800000698","0.41760030000296","0.45944910000253","1","1","1","1","1","1","1","1","1"
"260010","img/object_images/kite01.jpg","img/object_images/boat04.jpg","img/object_images/hand_grip_exerciser01.jpg","1","1","1","1","0","0","0.45944910000253","0.420634800000698","0.489394800002628","1","1","1","1","1","1","1","1","1"
"260010","img/object_images/hand_grip_exerciser01.jpg","img/object_images/kite01.jpg","img/object_images/flashlight03.jpg","1","1","1","0","1","0","0.489394800002628","0.45944910000253","0.505120599998918","1","1","1","1","1","1","1","1","1"
"260010","img/object_images/flashlight03.jpg","img/object_images/hand_grip_exerciser01.jpg","img/object_images/basket04.jpg","1","1","1","0","0","1","0.505120599998918","0.489394800002628","0.526010200002929","1","1","1","1","1","1","1","1","1"
"260010","img/object_images/basket04.jpg","img/object_images/flashlight03.jpg","img/object_images/phone02.jpg","1","1","1","1","0","1","0.526010200002929","0.505120599998918","0.457948499999475","1","1","1","1","1","1","1","1","1"
"260010","img/object_images/phone02.jpg","img/object_images/basket04.jpg","img/object_images/dresser03.jpg","1","1","1","1","1","0","0.457948499999475","0.526010200002929","0.497938200001954","1","1","1","1","1","1","1","1","1"
"260010","img/object_images/dresser03.jpg","img/object_images/phone02.jpg","img/object_images/jacket04.jpg","1","1","1","0","1","0","0.497938200001954","0.457948499999475","0.42042030000448","1","1","1","1","1","1","1","1","1"
"260010","img/object_images/jacket04.jpg","img/object_images/dresser03.jpg","img/object_images/camera03.jpg","1","1","1","0","0","0","0.42042030000448","0.497938200001954","0.502482100004272","1","1","1","1","1","1","1","1","1"
"260010","img/object_images/camera03.jpg","img/object_images/jacket04.jpg","img/object_images/curtain02.jpg","1","1","1","0","0","0","0.502482100004272","0.42042030000448","0.520509800000582","1","1","1","1","1","1","1","1","1"
"260010","img/object_images/curtain02.jpg","img/object_images/camera03.jpg","img/object_images/mail_box01.jpg","1","1","1","0","0","0","0.520509800000582","0.502482100004272","0.552828200001386","1","1","1","1","1","1","1","1","1"
"260010","img/object_images/mail_box01.jpg","img/object_images/curtain02.jpg","img/object_images/Statue01.jpg","1","1","1","0","0","1","0.552828200001386","0.520509800000582","0.52158960000088","1","1","1","1","1","1","1","1","1"
"260010","img/object_images/Statue01.jpg","img/object_images/mail_box01.jpg","img/object_images/car01.jpg","1","1","1","1","0","1","0.52158960000088","0.552828200001386","0.499803800004884","1","1","1","1","1","1","1","1","1"
"260010","img/object_images/car01.jpg","img/object_images/Statue01.jpg","img/object_images/knife02.jpg","1","1","1","1","1","0","0.499803800004884","0.52158960000088","0.588641099995584","1","1","1","1","1","1","1","1","1"
"260010","img/object_images/knife02.jpg","img/object_images/car01.jpg","img/object_images/remote_controller01.jpg","1","1","1","0","1","1","0.588641099995584","0.499803800004884","0.508655600002385","1","1","1","1","1","1","1","1","1"
"260010","img/object_images/remote_controller01.jpg","img/object_images/knife02.jpg","img/object_images/knit04.jpg","1","1","1","1","0","1","0.508655600002385","0.588641099995584","0.539330700004939","1","1","1","1","1","1","1","1","1"
"260010","img/object_images/knit04.jpg","img/object_images/remote_controller01.jpg","img/object_images/paper_cup02.jpg","1","1","1","1","1","1","0.539330700004939","0.508655600002385","0.947397399999318","1","1","1","1","1","1","1","1","1"
"260010","img/object_images/paper_cup02.jpg","img/object_images/knit04.jpg","img/object_images/sponge03.jpg","1","1","1","1","1","1","0.947397399999318","0.539330700004939","0.515646499996365","1","1","1","1","1","1","1","1","1"
"260010","img/object_images/sponge03.jpg","img/object_images/paper_cup02.jpg",NA,"1","1",NA,"1","1",NA,"0.515646499996365","0.947397399999318",NA,"1","1",NA,"1","1",NA,"1","1",NA
"260010","img/object_images/hair_brush01.jpg",NA,"img/object_images/fork02.jpg","1",NA,"1","1",NA,"0","0.463169000002381",NA,"0.524047600003541","1",NA,"1","1",NA,"1","1",NA,"1"
"260010","img/object_images/fork02.jpg","img/object_images/hair_brush01.jpg","img/object_images/toy01.jpg","1","1","0","0","1","1","0.524047600003541","0.463169000002381","0.481487999997626","1","1","1","1","1","1","1","1","1"
"260010","img/object_images/toy01.jpg","img/object_images/fork02.jpg","img/object_images/box03.jpg","0","1","1","1","0","0","0.481487999997626","0.524047600003541","0.549310700000206","1","1","1","1","1","1","1","1","1"
"260010","img/object_images/box03.jpg","img/object_images/toy01.jpg","img/object_images/skate_board01.jpg","1","0","1","0","1","0","0.549310700000206","0.481487999997626","0.524096699999063","1","1","1","1","1","1","1","1","1"
"260010","img/object_images/skate_board01.jpg","img/object_images/box03.jpg","img/object_images/tool06.jpg","1","1","1","0","0","0","0.524096699999063","0.549310700000206","0.470337099999597","1","1","1","1","1","1","1","1","1"
"260010","img/object_images/tool06.jpg","img/object_images/skate_board01.jpg","img/object_images/airfryer02.jpg","1","1","1","0","0","1","0.470337099999597","0.524096699999063","0.394638899997517","1","1","1","1","1","1","1","1","1"
"260010","img/object_images/airfryer02.jpg","img/object_images/tool06.jpg","img/object_images/blender01.jpg","1","1","0","1","0","0","0.394638899997517","0.470337099999597","0.393179000006057","1","1","1","1","1","1","1","1","1"
"260010","img/object_images/blender01.jpg","img/object_images/airfryer02.jpg","img/object_images/clip04.jpg","0","1","1","0","1","1","0.393179000006057","0.394638899997517","0.430769600003259","1","1","1","1","1","1","1","1","1"
"260010","img/object_images/clip04.jpg","img/object_images/blender01.jpg","img/object_images/computer_mouse02.jpg","1","0","1","1","0","0","0.430769600003259","0.393179000006057","0.488393799998448","1","1","1","1","1","1","1","1","1"
"260010","img/object_images/computer_mouse02.jpg","img/object_images/clip04.jpg","img/object_images/shoes12.jpg","1","1","0","0","1","1","0.488393799998448","0.430769600003259","0.383872100006556","1","1","1","1","1","1","1","1","1"
"260010","img/object_images/shoes12.jpg","img/object_images/computer_mouse02.jpg","img/object_images/Violin01.jpg","0","1","1","1","0","0","0.383872100006556","0.488393799998448","0.457443100000091","1","1","1","1","1","1","1","1","1"
"260010","img/object_images/Violin01.jpg","img/object_images/shoes12.jpg","img/object_images/mail_box02.jpg","1","0","1","0","1","1","0.457443100000091","0.383872100006556","0.464029499999015","1","1","1","1","1","1","1","1","1"
"260010","img/object_images/mail_box02.jpg","img/object_images/Violin01.jpg","img/object_images/chain01.jpg","1","1","1","1","0","0","0.464029499999015","0.457443100000091","0.462899500002095","1","1","1","1","1","1","1","1","1"
"260010","img/object_images/chain01.jpg","img/object_images/mail_box02.jpg","img/object_images/tripod01.jpg","1","1","1","0","1","1","0.462899500002095","0.464029499999015","0.387585900003614","1","1","1","1","1","1","1","1","1"
"260010","img/object_images/tripod01.jpg","img/object_images/chain01.jpg","img/object_images/bell03.jpg","1","1","1","1","0","0","0.387585900003614","0.462899500002095","0.452606200000446","1","1","1","1","1","1","1","1","1"
"260010","img/object_images/bell03.jpg","img/object_images/tripod01.jpg","img/object_images/video_game03.jpg","1","1","1","0","1","1","0.452606200000446","0.387585900003614","0.382195000005595","1","1","1","1","1","1","1","1","1"
"260010","img/object_images/video_game03.jpg","img/object_images/bell03.jpg","img/object_images/bag_pipes01.jpg","1","1","1","1","0","1","0.382195000005595","0.452606200000446","0.698240899997472","1","1","1","1","1","1","1","1","1"
"260010","img/object_images/bag_pipes01.jpg","img/object_images/video_game03.jpg","img/object_images/soap03.jpg","1","1","1","1","1","0","0.698240899997472","0.382195000005595","0.59272079999937","1","1","1","1","1","1","1","1","1"
"260010","img/object_images/soap03.jpg","img/object_images/bag_pipes01.jpg","img/object_images/couch01.jpg","1","1","1","0","1","0","0.59272079999937","0.698240899997472","0.487761399999727","1","1","1","1","1","1","1","1","1"
"260010","img/object_images/couch01.jpg","img/object_images/soap03.jpg","img/object_images/pen01.jpg","1","1","1","0","0","0","0.487761399999727","0.59272079999937","0.562663900003827","1","1","1","1","1","1","1","1","1"
"260010","img/object_images/pen01.jpg","img/object_images/couch01.jpg","img/object_images/book02.jpg","1","1","1","0","0","1","0.562663900003827","0.487761399999727","0.60495020000235","1","1","1","1","1","1","1","1","1"
"260010","img/object_images/book02.jpg","img/object_images/pen01.jpg","img/object_images/pitcher09.jpg","1","1","1","1","0","1","0.60495020000235","0.562663900003827","0.832273699998041","1","1","1","1","1","1","1","1","1"
"260010","img/object_images/pitcher09.jpg","img/object_images/book02.jpg","img/object_images/rock02.jpg","1","1","1","1","1","0","0.832273699998041","0.60495020000235","0.49899049999658","1","1","1","1","1","1","1","1","1"
"260010","img/object_images/rock02.jpg","img/object_images/pitcher09.jpg","img/object_images/toothbrush01.jpg","1","1","1","0","1","0","0.49899049999658","0.832273699998041","0.513765899995633","1","1","1","1","1","1","1","1","1"
"260010","img/object_images/toothbrush01.jpg","img/object_images/rock02.jpg","img/object_images/chair06.jpg","1","1","1","0","0","0","0.513765899995633","0.49899049999658","0.560891200002516","1","1","1","1","1","1","1","1","1"
"260010","img/object_images/chair06.jpg","img/object_images/toothbrush01.jpg","img/object_images/Trowel01.jpg","1","1","1","0","0","0","0.560891200002516","0.513765899995633","0.52900370000134","1","1","1","1","1","1","1","1","1"
"260010","img/object_images/Trowel01.jpg","img/object_images/chair06.jpg","img/object_images/floss02.jpg","1","1","1","0","0","1","0.52900370000134","0.560891200002516","0.524552200004109","1","1","1","1","1","1","1","1","1"
"260010","img/object_images/floss02.jpg","img/object_images/Trowel01.jpg","img/object_images/drone01.jpg","1","1","1","1","0","1","0.524552200004109","0.52900370000134","0.758001700000023","1","1","1","1","1","1","1","1","1"
"260010","img/object_images/drone01.jpg","img/object_images/floss02.jpg","img/object_images/computer_mouse01.jpg","1","1","1","1","1","1","0.758001700000023","0.524552200004109","0.477657899995393","1","1","1","1","1","1","1","1","1"
"260010","img/object_images/computer_mouse01.jpg","img/object_images/drone01.jpg","img/object_images/egg_slicer01.jpg","1","1","1","1","1","1","0.477657899995393","0.758001700000023","0.611851000001479","1","1","1","1","1","1","1","1","1"
"260010","img/object_images/egg_slicer01.jpg","img/object_images/computer_mouse01.jpg","img/object_images/scarf01.jpg","1","1","1","1","1","1","0.611851000001479","0.477657899995393","0.459198799995647","1","1","1","1","1","1","1","1","1"
"260010","img/object_images/scarf01.jpg","img/object_images/egg_slicer01.jpg",NA,"1","1",NA,"1","1",NA,"0.459198799995647","0.611851000001479",NA,"1","1",NA,"1","1",NA,"1","1",NA
"260010","img/object_images/sign02.jpg",NA,"img/object_images/dust_pan01.jpg","1",NA,"1","0",NA,"1","0.52773139999772",NA,"0.471124200004851","1",NA,"1","1",NA,"1","1",NA,"1"
"260010","img/object_images/dust_pan01.jpg","img/object_images/sign02.jpg","img/object_images/lemon_squeezer01.jpg","1","1","1","1","0","1","0.471124200004851","0.52773139999772","0.493516000002273","1","1","1","1","1","1","1","1","1"
"260010","img/object_images/lemon_squeezer01.jpg","img/object_images/dust_pan01.jpg","img/object_images/office_supplies01.jpg","1","1","1","1","1","1","0.493516000002273","0.471124200004851","0.503430200005823","1","1","1","1","1","1","1","1","1"
"260010","img/object_images/office_supplies01.jpg","img/object_images/lemon_squeezer01.jpg","img/object_images/ruler02.jpg","1","1","1","1","1","1","0.503430200005823","0.493516000002273","0.431254900002386","1","1","1","1","1","1","1","1","1"
"260010","img/object_images/ruler02.jpg","img/object_images/office_supplies01.jpg","img/object_images/razor02.jpg","1","1","1","1","1","1","0.431254900002386","0.503430200005823","0.612114300005487","1","1","1","1","1","1","1","1","1"
"260010","img/object_images/razor02.jpg","img/object_images/ruler02.jpg","img/object_images/perfume01.jpg","1","1","1","1","1","0","0.612114300005487","0.431254900002386","0.607202099999995","1","1","1","1","1","1","1","1","1"
"260010","img/object_images/perfume01.jpg","img/object_images/razor02.jpg","img/object_images/hammer02.jpg","1","1","1","0","1","0","0.607202099999995","0.612114300005487","0.57661619999999","1","1","1","1","1","1","1","1","1"
"260010","img/object_images/hammer02.jpg","img/object_images/perfume01.jpg","img/object_images/tool20.jpg","1","1","1","0","0","0","0.57661619999999","0.607202099999995","0.580638200000976","1","1","1","1","1","1","1","1","1"
"260010","img/object_images/tool20.jpg","img/object_images/hammer02.jpg","img/object_images/board01.jpg","1","1","0","0","0","1","0.580638200000976","0.57661619999999","0.649083500007691","1","1","1","1","1","1","1","1","1"
"260010","img/object_images/board01.jpg","img/object_images/tool20.jpg","img/object_images/Confetti 01.jpg","0","1","1","1","0","0","0.649083500007691","0.580638200000976","0.700133099999221","1","1","1","1","1","1","1","1","1"
"260010","img/object_images/Confetti 01.jpg","img/object_images/board01.jpg","img/object_images/sink_filter01 (1).jpg","1","0","1","0","1","0","0.700133099999221","0.649083500007691","0.535925100004533","1","1","1","1","1","1","1","1","1"
"260010","img/object_images/sink_filter01 (1).jpg","img/object_images/Confetti 01.jpg","img/object_images/knife01.jpg","1","1","1","0","0","1","0.535925100004533","0.700133099999221","0.474616499996046","1","1","1","1","1","1","1","1","1"
"260010","img/object_images/knife01.jpg","img/object_images/sink_filter01 (1).jpg","img/object_images/candle02.jpg","1","1","1","1","0","0","0.474616499996046","0.535925100004533","0.541572599999199","1","1","1","1","1","1","1","1","1"
"260010","img/object_images/candle02.jpg","img/object_images/knife01.jpg","img/object_images/pan03.jpg","1","1","1","0","1","1","0.541572599999199","0.474616499996046","0.453199100003985","1","1","1","1","1","1","1","1","1"
"260010","img/object_images/pan03.jpg","img/object_images/candle02.jpg","img/object_images/Candle_Holder01.jpg","1","1","1","1","0","0","0.453199100003985","0.541572599999199","0.474367400005576","1","1","1","1","1","1","1","1","1"
"260010","img/object_images/Candle_Holder01.jpg","img/object_images/pan03.jpg","img/object_images/video_game02.jpg","1","1","1","0","1","1","0.474367400005576","0.453199100003985","0.414258500000869","1","1","1","1","1","1","1","1","1"
"260010","img/object_images/video_game02.jpg","img/object_images/Candle_Holder01.jpg","img/object_images/hat13.jpg","1","1","1","1","0","1","0.414258500000869","0.474367400005576","0.621507900003053","1","1","1","1","1","1","1","1","1"
"260010","img/object_images/hat13.jpg","img/object_images/video_game02.jpg","img/object_images/bow_tie03.jpg","1","1","1","1","1","1","0.621507900003053","0.414258500000869","0.470796200002951","1","1","1","1","1","1","1","1","1"
"260010","img/object_images/bow_tie03.jpg","img/object_images/hat13.jpg","img/object_images/camera05.jpg","1","1","1","1","1","0","0.470796200002951","0.621507900003053","0.456105200006277","1","1","1","1","1","1","1","1","1"
"260010","img/object_images/camera05.jpg","img/object_images/bow_tie03.jpg","img/object_images/hat09.jpg","1","1","1","0","1","0","0.456105200006277","0.470796200002951","0.465266500003054","1","1","1","1","1","1","1","1","1"
"260010","img/object_images/hat09.jpg","img/object_images/camera05.jpg","img/object_images/glasses03.jpg","1","1","1","0","0","0","0.465266500003054","0.456105200006277","0.557323200002429","1","1","1","1","1","1","1","1","1"
"260010","img/object_images/glasses03.jpg","img/object_images/hat09.jpg","img/object_images/spray_can01.jpg","1","1","1","0","0","0","0.557323200002429","0.465266500003054","0.558839100005571","1","1","1","1","1","1","1","1","1"
"260010","img/object_images/spray_can01.jpg","img/object_images/glasses03.jpg","img/object_images/cup01.jpg","1","1","1","0","0","0","0.558839100005571","0.557323200002429","0.446109000004071","1","1","1","1","1","1","1","1","1"
"260010","img/object_images/cup01.jpg","img/object_images/spray_can01.jpg","img/object_images/duster01.jpg","1","1","1","0","0","0","0.446109000004071","0.558839100005571","0.739312700003211","1","1","1","1","1","1","1","1","1"
"260010","img/object_images/duster01.jpg","img/object_images/cup01.jpg","img/object_images/clipboard01.jpg","1","1","1","0","0","1","0.739312700003211","0.446109000004071","0.641229900000326","1","1","1","1","1","1","1","1","1"
"260010","img/object_images/clipboard01.jpg","img/object_images/duster01.jpg","img/object_images/pen06.jpg","1","1","1","1","0","0","0.641229900000326","0.739312700003211","0.623487299999397","1","1","1","1","1","1","1","1","1"
"260010","img/object_images/pen06.jpg","img/object_images/clipboard01.jpg","img/object_images/tool13.jpg","1","1","1","0","1","1","0.623487299999397","0.641229900000326","0.632626999999047","1","1","1","1","1","1","1","1","1"
"260010","img/object_images/tool13.jpg","img/object_images/pen06.jpg","img/object_images/floss01.jpg","1","1","1","1","0","1","0.632626999999047","0.623487299999397","0.578885800001444","1","1","1","1","1","1","1","1","1"
"260010","img/object_images/floss01.jpg","img/object_images/tool13.jpg","img/object_images/socks01.jpg","1","1","1","1","1","1","0.578885800001444","0.632626999999047","0.580267199999071","1","1","1","1","1","1","1","1","1"
"260010","img/object_images/socks01.jpg","img/object_images/floss01.jpg","img/object_images/bag04.jpg","1","1","1","1","1","0","0.580267199999071","0.578885800001444","0.488268800007063","1","1","1","1","1","1","1","1","1"
"260010","img/object_images/bag04.jpg","img/object_images/socks01.jpg","img/object_images/vase02.jpg","1","1","1","0","1","1","0.488268800007063","0.580267199999071","0.444580600000336","1","1","1","1","1","1","1","1","1"
"260010","img/object_images/vase02.jpg","img/object_images/bag04.jpg",NA,"1","1",NA,"1","0",NA,"0.444580600000336","0.488268800007063",NA,"1","1",NA,"1","1",NA,"1","1",NA
"260010","img/object_images/judge_gavel01.jpg",NA,"img/object_images/bow01.jpg","1",NA,"1","1",NA,"1","0.487234500003979",NA,"0.492930899999919","1",NA,"1","1",NA,"1","1",NA,"1"
"260010","img/object_images/bow01.jpg","img/object_images/judge_gavel01.jpg","img/object_images/toy04.jpg","1","1","1","1","1","0","0.492930899999919","0.487234500003979","0.479322400002275","1","1","1","1","1","1","1","1","1"
"260010","img/object_images/toy04.jpg","img/object_images/bow01.jpg","img/object_images/gauze01.jpg","1","1","0","0","1","0","0.479322400002275","0.492930899999919","0.335181399997964","1","1","1","1","1","1","1","1","1"
"260010","img/object_images/gauze01.jpg","img/object_images/toy04.jpg","img/object_images/mirror01.jpg","0","1","1","0","0","1","0.335181399997964","0.479322400002275","0.361866200000804","1","1","1","1","1","1","1","1","1"
"260010","img/object_images/mirror01.jpg","img/object_images/gauze01.jpg","img/object_images/stapler.jpg","1","0","1","1","0","1","0.361866200000804","0.335181399997964","0.426462399998854","1","1","1","1","1","1","1","1","1"
"260010","img/object_images/stapler.jpg","img/object_images/mirror01.jpg","img/object_images/Vacuum01.jpg","1","1","0","1","1","0","0.426462399998854","0.361866200000804","0.367132100000163","1","1","1","1","1","1","1","1","1"
"260010","img/object_images/Vacuum01.jpg","img/object_images/stapler.jpg","img/object_images/pot01 (1).jpg","0","1","0","0","1","0","0.367132100000163","0.426462399998854","0.492002300001332","1","1","1","1","1","1","1","1","1"
"260010","img/object_images/pot01 (1).jpg","img/object_images/Vacuum01.jpg","img/object_images/toy03.jpg","0","0","1","0","0","1","0.492002300001332","0.367132100000163","0.518333700005314","1","1","1","1","1","1","1","1","1"
"260010","img/object_images/toy03.jpg","img/object_images/pot01 (1).jpg","img/object_images/shovel03.jpg","1","0","1","1","0","1","0.518333700005314","0.492002300001332","0.477310800000851","1","1","1","1","1","1","1","1","1"
"260010","img/object_images/shovel03.jpg","img/object_images/toy03.jpg","img/object_images/tool09.jpg","1","1","1","1","1","1","0.477310800000851","0.518333700005314","0.504935500001011","1","1","1","1","1","1","1","1","1"
"260010","img/object_images/tool09.jpg","img/object_images/shovel03.jpg","img/object_images/fridge03.jpg","1","1","1","1","1","0","0.504935500001011","0.477310800000851","0.439409999999043","1","1","1","1","1","1","1","1","1"
"260010","img/object_images/fridge03.jpg","img/object_images/tool09.jpg","img/object_images/frisbee01.jpg","1","1","1","0","1","1","0.439409999999043","0.504935500001011","0.430947200002265","1","1","1","1","1","1","1","1","1"
"260010","img/object_images/frisbee01.jpg","img/object_images/fridge03.jpg","img/object_images/MetalWire01.jpg","1","1","1","1","0","0","0.430947200002265","0.439409999999043","0.597148700006073","1","1","1","1","1","1","1","1","1"
"260010","img/object_images/MetalWire01.jpg","img/object_images/frisbee01.jpg","img/object_images/bird_house02.jpg","1","1","1","0","1","1","0.597148700006073","0.430947200002265","0.882590500004881","1","1","1","1","1","1","1","1","1"
"260010","img/object_images/bird_house02.jpg","img/object_images/MetalWire01.jpg","img/object_images/helmet01.jpg","1","1","0","1","0","0","0.882590500004881","0.597148700006073","0.537105300005351","1","1","1","1","1","1","1","1","1"
"260010","img/object_images/helmet01.jpg","img/object_images/bird_house02.jpg","img/object_images/towel02.jpg","0","1","1","0","1","1","0.537105300005351","0.882590500004881","0.489131400005135","1","1","1","1","1","1","1","1","1"
"260010","img/object_images/towel02.jpg","img/object_images/helmet01.jpg","img/object_images/crown02.jpg","1","0","1","1","0","1","0.489131400005135","0.537105300005351","0.445795300001919","1","1","1","1","1","1","1","1","1"
"260010","img/object_images/crown02.jpg","img/object_images/towel02.jpg","img/object_images/dart01.jpg","1","1","1","1","1","0","0.445795300001919","0.489131400005135","0.569741600003908","1","1","1","1","1","1","1","1","1"
"260010","img/object_images/dart01.jpg","img/object_images/crown02.jpg","img/object_images/acoustic_capo01.jpg","1","1","0","0","1","1","0.569741600003908","0.445795300001919","0.549442300005467","1","1","1","1","1","1","1","1","1"
"260010","img/object_images/acoustic_capo01.jpg","img/object_images/dart01.jpg","img/object_images/Stool01.jpg","0","1","0","1","0","0","0.549442300005467","0.569741600003908","0.823822800004564","1","1","1","1","1","1","1","1","1"
"260010","img/object_images/Stool01.jpg","img/object_images/acoustic_capo01.jpg","img/object_images/bottle05.jpg","0","0","1","0","1","0","0.823822800004564","0.549442300005467","0.555146999999124","1","1","1","1","1","1","1","1","1"
"260010","img/object_images/bottle05.jpg","img/object_images/Stool01.jpg","img/object_images/sink01.jpg","1","0","1","0","0","0","0.555146999999124","0.823822800004564","0.672058100004506","1","1","1","1","1","1","1","1","1"
"260010","img/object_images/sink01.jpg","img/object_images/bottle05.jpg","img/object_images/watch01.jpg","1","1","1","0","0","0","0.672058100004506","0.555146999999124","0.601715400000103","1","1","1","1","1","1","1","1","1"
"260010","img/object_images/watch01.jpg","img/object_images/sink01.jpg","img/object_images/Ring02.jpg","1","1","1","0","0","0","0.601715400000103","0.672058100004506","0.574609000002965","1","1","1","1","1","1","1","1","1"
"260010","img/object_images/Ring02.jpg","img/object_images/watch01.jpg","img/object_images/tool02.jpg","1","1","1","0","0","1","0.574609000002965","0.601715400000103","0.484715899998264","1","1","1","1","1","1","1","1","1"
"260010","img/object_images/tool02.jpg","img/object_images/Ring02.jpg","img/object_images/video_game07.jpg","1","1","1","1","0","1","0.484715899998264","0.574609000002965","0.460467000004428","1","1","1","1","1","1","1","1","1"
"260010","img/object_images/video_game07.jpg","img/object_images/tool02.jpg","img/object_images/guitar02.jpg","1","1","1","1","1","0","0.460467000004428","0.484715899998264","0.474902800000564","1","1","1","1","1","1","1","1","1"
"260010","img/object_images/guitar02.jpg","img/object_images/video_game07.jpg","img/object_images/Tin01.jpg","1","1","1","0","1","1","0.474902800000564","0.460467000004428","0.550977999999304","1","1","1","1","1","1","1","1","1"
"260010","img/object_images/Tin01.jpg","img/object_images/guitar02.jpg","img/object_images/ornament01.jpg","1","1","1","1","0","1","0.550977999999304","0.474902800000564","0.451023300003726","1","1","1","1","1","1","1","1","1"
"260010","img/object_images/ornament01.jpg","img/object_images/Tin01.jpg","img/object_images/jewel04.jpg","1","1","0","1","1","0","0.451023300003726","0.550977999999304","0.668068000006315","1","1","1","1","1","1","1","1","1"
"260010","img/object_images/jewel04.jpg","img/object_images/ornament01.jpg","img/object_images/outlet01.jpg","0","1","1","0","1","0","0.668068000006315","0.451023300003726","0.492112499996438","1","1","1","1","1","1","1","1","1"
"260010","img/object_images/outlet01.jpg","img/object_images/jewel04.jpg",NA,"1","0",NA,"0","0",NA,"0.492112499996438","0.668068000006315",NA,"1","1",NA,"1","1",NA,"1","1",NA
"260010","img/object_images/shovel01.jpg",NA,"img/object_images/joystick03.jpg","1",NA,"1","0",NA,"1","0.665283300004376",NA,"0.570075899995572","1",NA,"1","1",NA,"1","1",NA,"1"
"260010","img/object_images/joystick03.jpg","img/object_images/shovel01.jpg","img/object_images/tennis_racket01.jpg","1","1","1","1","0","1","0.570075899995572","0.665283300004376","0.388639999997395","1","1","1","1","1","1","1","1","1"
"260010","img/object_images/tennis_racket01.jpg","img/object_images/joystick03.jpg","img/object_images/water_gun01.jpg","1","1","0","1","1","1","0.388639999997395","0.570075899995572","0.501230400004715","1","1","1","1","1","1","1","1","1"
"260010","img/object_images/water_gun01.jpg","img/object_images/tennis_racket01.jpg","img/object_images/Safe01.jpg","0","1","1","1","1","1","0.501230400004715","0.388639999997395","0.601217600000382","1","1","1","1","1","1","1","1","1"
"260010","img/object_images/Safe01.jpg","img/object_images/water_gun01.jpg","img/object_images/Eyeliner01.jpg","1","0","1","1","1","1","0.601217600000382","0.501230400004715","0.506374399999913","1","1","1","1","1","1","1","1","1"
"260010","img/object_images/Eyeliner01.jpg","img/object_images/Safe01.jpg","img/object_images/piano03.jpg","1","1","1","1","1","0","0.506374399999913","0.601217600000382","0.833065599996189","1","1","1","1","1","1","1","1","1"
"260010","img/object_images/piano03.jpg","img/object_images/Eyeliner01.jpg","img/object_images/fan01.jpg","1","1","0","0","1","0","0.833065599996189","0.506374399999913","0.713386499999615","1","1","1","1","1","1","1","1","1"
"260010","img/object_images/fan01.jpg","img/object_images/piano03.jpg","img/object_images/nut_cracker01.jpg","0","1","1","0","0","1","0.713386499999615","0.833065599996189","0.475364600002649","1","1","1","1","1","1","1","1","1"
"260010","img/object_images/nut_cracker01.jpg","img/object_images/fan01.jpg","img/object_images/origami01.jpg","1","0","1","1","0","1","0.475364600002649","0.713386499999615","0.593108200002462","1","1","1","1","1","1","1","1","1"
"260010","img/object_images/origami01.jpg","img/object_images/nut_cracker01.jpg","img/object_images/jewel02.jpg","1","1","1","1","1","0","0.593108200002462","0.475364600002649","0.543303800004651","1","1","1","1","1","1","1","1","1"
"260010","img/object_images/jewel02.jpg","img/object_images/origami01.jpg","img/object_images/trumpet01.jpg","1","1","1","0","1","0","0.543303800004651","0.593108200002462","0.584695800003828","1","1","1","1","1","1","1","1","1"
"260010","img/object_images/trumpet01.jpg","img/object_images/jewel02.jpg","img/object_images/pitcher07.jpg","1","1","1","0","0","1","0.584695800003828","0.543303800004651","0.571043200005079","1","1","1","1","1","1","1","1","1"
"260010","img/object_images/pitcher07.jpg","img/object_images/trumpet01.jpg","img/object_images/egg_basket01.jpg","1","1","1","1","0","1","0.571043200005079","0.584695800003828","0.552896900000633","1","1","1","1","1","1","1","1","1"
"260010","img/object_images/egg_basket01.jpg","img/object_images/pitcher07.jpg","img/object_images/usb03.jpg","1","1","1","1","1","0","0.552896900000633","0.571043200005079","0.575637599999027","1","1","1","1","1","1","1","1","1"
"260010","img/object_images/usb03.jpg","img/object_images/egg_basket01.jpg","img/object_images/scale02.jpg","1","1","1","0","1","0","0.575637599999027","0.552896900000633","0.621089699998265","1","1","1","1","1","1","1","1","1"
"260010","img/object_images/scale02.jpg","img/object_images/usb03.jpg","img/object_images/frame01.jpg","1","1","1","0","0","1","0.621089699998265","0.575637599999027","0.452634800007218","1","1","1","1","1","1","1","1","1"
"260010","img/object_images/frame01.jpg","img/object_images/scale02.jpg","img/object_images/bookmark01.jpg","1","1","1","1","0","0","0.452634800007218","0.621089699998265","0.723082699994848","1","1","1","1","1","1","1","1","1"
"260010","img/object_images/bookmark01.jpg","img/object_images/frame01.jpg","img/object_images/headset02.jpg","1","1","0","0","1","0","0.723082699994848","0.452634800007218","0.743731400005345","1","1","1","1","1","1","1","1","1"
"260010","img/object_images/headset02.jpg","img/object_images/bookmark01.jpg","img/object_images/Shoes05.jpg","0","1","1","0","0","0","0.743731400005345","0.723082699994848","0.525926399997843","1","1","1","1","1","1","1","1","1"
"260010","img/object_images/Shoes05.jpg","img/object_images/headset02.jpg","img/object_images/belt03.jpg","1","0","1","0","0","0","0.525926399997843","0.743731400005345","0.59234799999831","1","1","1","1","1","1","1","1","1"
"260010","img/object_images/belt03.jpg","img/object_images/Shoes05.jpg","img/object_images/bottle06.jpg","1","1","1","0","0","0","0.59234799999831","0.525926399997843","0.515002300002379","1","1","1","1","1","1","1","1","1"
"260010","img/object_images/bottle06.jpg","img/object_images/belt03.jpg","img/object_images/bucket01.jpg","1","1","1","0","0","1","0.515002300002379","0.59234799999831","0.63651860000391","1","1","1","1","1","1","1","1","1"
"260010","img/object_images/bucket01.jpg","img/object_images/bottle06.jpg","img/object_images/badminton01.jpg","1","1","1","1","0","1","0.63651860000391","0.515002300002379","0.56488150000223","1","1","1","1","1","1","1","1","1"
"260010","img/object_images/badminton01.jpg","img/object_images/bucket01.jpg","img/object_images/lock03.jpg","1","1","1","1","1","1","0.56488150000223","0.63651860000391","0.447660500001803","1","1","1","1","1","1","1","1","1"
"260010","img/object_images/lock03.jpg","img/object_images/badminton01.jpg","img/object_images/dice01.jpg","1","1","1","1","1","0","0.447660500001803","0.56488150000223","0.416282799997134","1","1","1","1","1","1","1","1","1"
"260010","img/object_images/dice01.jpg","img/object_images/lock03.jpg","img/object_images/TreeSlice01.jpg","1","1","0","0","1","1","0.416282799997134","0.447660500001803","0.53830089999974","1","1","1","1","1","1","1","1","1"
"260010","img/object_images/TreeSlice01.jpg","img/object_images/dice01.jpg","img/object_images/helmet03.jpg","0","1","1","1","0","1","0.53830089999974","0.416282799997134","0.513793599995552","1","1","1","1","1","1","1","1","1"
"260010","img/object_images/helmet03.jpg","img/object_images/TreeSlice01.jpg","img/object_images/phone04.jpg","1","0","1","1","1","1","0.513793599995552","0.53830089999974","0.397822100007033","1","1","1","1","1","1","1","1","1"
"260010","img/object_images/phone04.jpg","img/object_images/helmet03.jpg","img/object_images/ToolBag01.jpg","1","1","1","1","1","0","0.397822100007033","0.513793599995552","0.385604999995849","1","1","1","1","1","1","1","1","1"
"260010","img/object_images/ToolBag01.jpg","img/object_images/phone04.jpg","img/object_images/yoga_mat01.jpg","1","1","1","0","1","0","0.385604999995849","0.397822100007033","0.519590900003095","1","1","1","1","1","1","1","1","1"
"260010","img/object_images/yoga_mat01.jpg","img/object_images/ToolBag01.jpg","img/object_images/note_book02.jpg","1","1","1","0","0","0","0.519590900003095","0.385604999995849","0.447750599996652","1","1","1","1","1","1","1","1","1"
"260010","img/object_images/note_book02.jpg","img/object_images/yoga_mat01.jpg",NA,"1","1",NA,"0","0",NA,"0.447750599996652","0.519590900003095",NA,"1","1",NA,"1","1",NA,"1","1",NA
"260010","img/object_images/ironing_table02.jpg",NA,"img/object_images/tie01.jpg","0",NA,"1","0",NA,"0","0.542446599996765",NA,"0.536501299997326","1",NA,"1","1",NA,"1","1",NA,"1"
"260010","img/object_images/tie01.jpg","img/object_images/ironing_table02.jpg","img/object_images/chair01.jpg","1","0","0","0","0","0","0.536501299997326","0.542446599996765","0.399745499998971","1","1","1","1","1","1","1","1","1"
"260010","img/object_images/chair01.jpg","img/object_images/tie01.jpg","img/object_images/bottle12.jpg","0","1","1","0","0","1","0.399745499998971","0.536501299997326","0.523103799998353","1","1","1","1","1","1","1","1","1"
"260010","img/object_images/bottle12.jpg","img/object_images/chair01.jpg","img/object_images/Recycling01.jpg","1","0","1","1","0","1","0.523103799998353","0.399745499998971","0.371793400001479","1","1","1","1","1","1","1","1","1"
"260010","img/object_images/Recycling01.jpg","img/object_images/bottle12.jpg","img/object_images/basketball_hoop02.jpg","1","1","1","1","1","0","0.371793400001479","0.523103799998353","0.494848100002855","1","1","1","1","1","1","1","1","1"
"260010","img/object_images/basketball_hoop02.jpg","img/object_images/Recycling01.jpg","img/object_images/pitcher03.jpg","1","1","1","0","1","1","0.494848100002855","0.371793400001479","0.520633299995097","1","1","1","1","1","1","1","1","1"
"260010","img/object_images/pitcher03.jpg","img/object_images/basketball_hoop02.jpg","img/object_images/toy_train02.jpg","1","1","1","1","0","1","0.520633299995097","0.494848100002855","0.353281400006381","1","1","1","1","1","1","1","1","1"
"260010","img/object_images/toy_train02.jpg","img/object_images/pitcher03.jpg","img/object_images/lamp01.jpg","1","1","1","1","1","1","0.353281400006381","0.520633299995097","0.378649099999166","1","1","1","1","1","1","1","1","1"
"260010","img/object_images/lamp01.jpg","img/object_images/toy_train02.jpg","img/object_images/lantern01.jpg","1","1","1","1","1","1","0.378649099999166","0.353281400006381","0.462179900001502","1","1","1","1","1","1","1","1","1"
"260010","img/object_images/lantern01.jpg","img/object_images/lamp01.jpg","img/object_images/Woopie01.jpg","1","1","1","1","1","1","0.462179900001502","0.378649099999166","0.55328400000144","1","1","1","1","1","1","1","1","1"
"260010","img/object_images/Woopie01.jpg","img/object_images/lantern01.jpg","img/object_images/pot01.jpg","1","1","1","1","1","0","0.55328400000144","0.462179900001502","0.444211300004099","1","1","1","1","1","1","1","1","1"
"260010","img/object_images/pot01.jpg","img/object_images/Woopie01.jpg","img/object_images/soap01.jpg","1","1","1","0","1","0","0.444211300004099","0.55328400000144","0.453775200003292","1","1","1","1","1","1","1","1","1"
"260010","img/object_images/soap01.jpg","img/object_images/pot01.jpg","img/object_images/razor03.jpg","1","1","1","0","0","0","0.453775200003292","0.444211300004099","0.492756999999983","1","1","1","1","1","1","1","1","1"
"260010","img/object_images/razor03.jpg","img/object_images/soap01.jpg","img/object_images/container01.jpg","1","1","1","0","0","0","0.492756999999983","0.453775200003292","0.463120800006436","1","1","1","1","1","1","1","1","1"
"260010","img/object_images/container01.jpg","img/object_images/razor03.jpg","img/object_images/ball01.jpg","1","1","0","0","0","1","0.463120800006436","0.492756999999983","0.44711250000546","1","1","1","1","1","1","1","1","1"
"260010","img/object_images/ball01.jpg","img/object_images/container01.jpg","img/object_images/helmet05.jpg","0","1","1","1","0","1","0.44711250000546","0.463120800006436","0.530701700001373","1","1","1","1","1","1","1","1","1"
"260010","img/object_images/helmet05.jpg","img/object_images/ball01.jpg","img/object_images/couch04.jpg","1","0","1","1","1","1","0.530701700001373","0.44711250000546","0.415033900004346","1","1","1","1","1","1","1","1","1"
"260010","img/object_images/couch04.jpg","img/object_images/helmet05.jpg","img/object_images/cochlear_implant01.jpg","1","1","1","1","1","0","0.415033900004346","0.530701700001373","0.524782699998468","1","1","1","1","1","1","1","1","1"
"260010","img/object_images/cochlear_implant01.jpg","img/object_images/couch04.jpg","img/object_images/toilet_paper01.jpg","1","1","1","0","1","1","0.524782699998468","0.415033900004346","0.530222200002754","1","1","1","1","1","1","1","1","1"
"260010","img/object_images/toilet_paper01.jpg","img/object_images/cochlear_implant01.jpg","img/object_images/airfryer01.jpg","1","1","0","1","0","0","0.530222200002754","0.524782699998468","0.426860799998394","1","1","1","1","1","1","1","1","1"
"260010","img/object_images/airfryer01.jpg","img/object_images/toilet_paper01.jpg","img/object_images/video_game06.jpg","0","1","1","0","1","0","0.426860799998394","0.530222200002754","0.642666100000497","1","1","1","1","1","1","1","1","1"
"260010","img/object_images/video_game06.jpg","img/object_images/airfryer01.jpg","img/object_images/broom01.jpg","1","0","1","0","0","1","0.642666100000497","0.426860799998394","0.477445300006366","1","1","1","1","1","1","1","1","1"
"260010","img/object_images/broom01.jpg","img/object_images/video_game06.jpg","img/object_images/gloves05.jpg","1","1","1","1","0","1","0.477445300006366","0.642666100000497","0.412633899999491","1","1","1","1","1","1","1","1","1"
"260010","img/object_images/gloves05.jpg","img/object_images/broom01.jpg","img/object_images/brief_case01.jpg","1","1","1","1","1","0","0.412633899999491","0.477445300006366","0.467237600001681","1","1","1","1","1","1","1","1","1"
"260010","img/object_images/brief_case01.jpg","img/object_images/gloves05.jpg","img/object_images/drone02.jpg","1","1","1","0","1","0","0.467237600001681","0.412633899999491","0.506694800002151","1","1","1","1","1","1","1","1","1"
"260010","img/object_images/drone02.jpg","img/object_images/brief_case01.jpg","img/object_images/hat02.jpg","1","1","1","0","0","0","0.506694800002151","0.467237600001681","0.561833599997044","1","1","1","1","1","1","1","1","1"
"260010","img/object_images/hat02.jpg","img/object_images/drone02.jpg","img/object_images/guitar01.jpg","1","1","0","0","0","1","0.561833599997044","0.506694800002151","0.565254499997536","1","1","1","1","1","1","1","1","1"
"260010","img/object_images/guitar01.jpg","img/object_images/hat02.jpg","img/object_images/decorative02.jpg","0","1","1","1","0","0","0.565254499997536","0.561833599997044","0.522364199998265","1","1","1","1","1","1","1","1","1"
"260010","img/object_images/decorative02.jpg","img/object_images/guitar01.jpg","img/object_images/brief_case02.jpg","1","0","1","0","1","1","0.522364199998265","0.565254499997536","0.469807200002833","1","1","1","1","1","1","1","1","1"
"260010","img/object_images/brief_case02.jpg","img/object_images/decorative02.jpg","img/object_images/car02.jpg","1","1","1","1","0","0","0.469807200002833","0.522364199998265","0.647739899999578","1","1","1","1","1","1","1","1","1"
"260010","img/object_images/car02.jpg","img/object_images/brief_case02.jpg","img/object_images/Wisk01.jpg","1","1","1","0","1","1","0.647739899999578","0.469807200002833","0.568856300000334","1","1","1","1","1","1","1","1","1"
"260010","img/object_images/Wisk01.jpg","img/object_images/car02.jpg",NA,"1","1",NA,"1","0",NA,"0.568856300000334","0.647739899999578",NA,"1","1",NA,"1","1",NA,"1","1",NA
"260010","img/object_images/bottle02.jpg",NA,"img/object_images/camera_lens01.jpg","1",NA,"1","1",NA,"1","1.46546530000342",NA,"0.429614200002106","1",NA,"1","1",NA,"1","1",NA,"1"
"260010","img/object_images/camera_lens01.jpg","img/object_images/bottle02.jpg","img/object_images/toaster01.jpg","1","1","1","1","1","1","0.429614200002106","1.46546530000342","0.451268100005109","1","1","1","1","1","1","1","1","1"
"260010","img/object_images/toaster01.jpg","img/object_images/camera_lens01.jpg","img/object_images/WoodBox01.jpg","1","1","1","1","1","0","0.451268100005109","0.429614200002106","0.408404300003895","1","1","1","1","1","1","1","1","1"
"260010","img/object_images/WoodBox01.jpg","img/object_images/toaster01.jpg","img/object_images/fan02.jpg","1","1","1","0","1","0","0.408404300003895","0.451268100005109","0.458658000003197","1","1","1","1","1","1","1","1","1"
"260010","img/object_images/fan02.jpg","img/object_images/WoodBox01.jpg","img/object_images/coloring_pencil02.jpg","1","1","1","0","0","0","0.458658000003197","0.408404300003895","0.425835100002587","1","1","1","1","1","1","1","1","1"
"260010","img/object_images/coloring_pencil02.jpg","img/object_images/fan02.jpg","img/object_images/boat02.jpg","1","1","1","0","0","1","0.425835100002587","0.458658000003197","0.384532899995975","1","1","1","1","1","1","1","1","1"
"260010","img/object_images/boat02.jpg","img/object_images/coloring_pencil02.jpg","img/object_images/hat06.jpg","1","1","0","1","0","0","0.384532899995975","0.425835100002587","0.405743000002985","1","1","1","1","1","1","1","1","1"
"260010","img/object_images/hat06.jpg","img/object_images/boat02.jpg","img/object_images/tool19.jpg","0","1","1","0","1","1","0.405743000002985","0.384532899995975","0.649504900000466","1","1","1","1","1","1","1","1","1"
"260010","img/object_images/tool19.jpg","img/object_images/hat06.jpg","img/object_images/pen05.jpg","1","0","1","1","0","0","0.649504900000466","0.405743000002985","0.548548400001891","1","1","1","1","1","1","1","1","1"
"260010","img/object_images/pen05.jpg","img/object_images/tool19.jpg","img/object_images/shoes07.jpg","1","1","1","0","1","0","0.548548400001891","0.649504900000466","0.581126900004165","1","1","1","1","1","1","1","1","1"
"260010","img/object_images/shoes07.jpg","img/object_images/pen05.jpg","img/object_images/hot_air_balloon02.jpg","1","1","1","0","0","0","0.581126900004165","0.548548400001891","0.551185900003475","1","1","1","1","1","1","1","1","1"
"260010","img/object_images/hot_air_balloon02.jpg","img/object_images/shoes07.jpg","img/object_images/bean_bag02.jpg","1","1","1","0","0","1","0.551185900003475","0.581126900004165","0.593212600004335","1","1","1","1","1","1","1","1","1"
"260010","img/object_images/bean_bag02.jpg","img/object_images/hot_air_balloon02.jpg","img/object_images/tie02.jpg","1","1","0","1","0","0","0.593212600004335","0.551185900003475","0.899257500001113","1","1","1","1","1","1","1","1","1"
"260010","img/object_images/tie02.jpg","img/object_images/bean_bag02.jpg","img/object_images/bottle10.jpg","0","1","1","0","1","1","0.899257500001113","0.593212600004335","0.473489600000903","1","1","1","1","1","1","1","1","1"
"260010","img/object_images/bottle10.jpg","img/object_images/tie02.jpg","img/object_images/helmet04.jpg","1","0","1","1","0","1","0.473489600000903","0.899257500001113","0.536031900002854","1","1","1","1","1","1","1","1","1"
"260010","img/object_images/helmet04.jpg","img/object_images/bottle10.jpg","img/object_images/purse04.jpg","1","1","1","1","1","1","0.536031900002854","0.473489600000903","0.500981800003501","1","1","1","1","1","1","1","1","1"
"260010","img/object_images/purse04.jpg","img/object_images/helmet04.jpg","img/object_images/audio_port01.jpg","1","1","1","1","1","1","0.500981800003501","0.536031900002854","0.426211700003478","1","1","1","1","1","1","1","1","1"
"260010","img/object_images/audio_port01.jpg","img/object_images/purse04.jpg","img/object_images/knit01.jpg","1","1","0","1","1","0","0.426211700003478","0.500981800003501","0.449124600003415","1","1","1","1","1","1","1","1","1"
"260010","img/object_images/knit01.jpg","img/object_images/audio_port01.jpg","img/object_images/wagon_cart03.jpg","0","1","1","0","1","1","0.449124600003415","0.426211700003478","0.629003200003353","1","1","1","1","1","1","1","1","1"
"260010","img/object_images/wagon_cart03.jpg","img/object_images/knit01.jpg","img/object_images/bottle09.jpg","1","0","1","1","0","0","0.629003200003353","0.449124600003415","0.657453700005135","1","1","1","1","1","1","1","1","1"
"260010","img/object_images/bottle09.jpg","img/object_images/wagon_cart03.jpg","img/object_images/toilet_paper_dispenser01.jpg","1","1","1","0","1","1","0.657453700005135","0.629003200003353","0.418889699998544","1","1","1","1","1","1","1","1","1"
"260010","img/object_images/toilet_paper_dispenser01.jpg","img/object_images/bottle09.jpg","img/object_images/scoreboard01.jpg","1","1","1","1","0","1","0.418889699998544","0.657453700005135","0.518664400005946","1","1","1","1","1","1","1","1","1"
"260010","img/object_images/scoreboard01.jpg","img/object_images/toilet_paper_dispenser01.jpg","img/object_images/chair03.jpg","1","1","0","1","1","0","0.518664400005946","0.418889699998544","0.746316800003115","1","1","1","1","1","1","1","1","1"
"260010","img/object_images/chair03.jpg","img/object_images/scoreboard01.jpg","img/object_images/piggy_bank01.jpg","0","1","1","0","1","1","0.746316800003115","0.518664400005946","0.472061100001156","1","1","1","1","1","1","1","1","1"
"260010","img/object_images/piggy_bank01.jpg","img/object_images/chair03.jpg","img/object_images/cellphone03.jpg","1","0","1","1","0","0","0.472061100001156","0.746316800003115","0.544830799997726","1","1","1","1","1","1","1","1","1"
"260010","img/object_images/cellphone03.jpg","img/object_images/piggy_bank01.jpg","img/object_images/boat_toy10.jpg","1","1","1","0","1","0","0.544830799997726","0.472061100001156","0.534204900002806","1","1","1","1","1","1","1","1","1"
"260010","img/object_images/boat_toy10.jpg","img/object_images/cellphone03.jpg","img/object_images/perfume02.jpg","1","1","0","0","0","0","0.534204900002806","0.544830799997726","0.572424999998475","1","1","1","1","1","1","1","1","1"
"260010","img/object_images/perfume02.jpg","img/object_images/boat_toy10.jpg","img/object_images/bicycle01.jpg","0","1","1","0","0","1","0.572424999998475","0.534204900002806","0.75377170000138","1","1","1","1","1","1","1","1","1"
"260010","img/object_images/bicycle01.jpg","img/object_images/perfume02.jpg","img/object_images/water_scooter01.jpg","1","0","0","1","0","1","0.75377170000138","0.572424999998475","0.932227700002841","1","1","1","1","1","1","1","1","1"
"260010","img/object_images/water_scooter01.jpg","img/object_images/bicycle01.jpg","img/object_images/flask01.jpg","0","1","0","1","1","0","0.932227700002841","0.75377170000138","0.568719300004886","1","1","1","1","1","1","1","1","1"
"260010","img/object_images/flask01.jpg","img/object_images/water_scooter01.jpg","img/object_images/dog_leash01.jpg","0","0","1","0","1","0","0.568719300004886","0.932227700002841","0.459555300003558","1","1","1","1","1","1","1","1","1"
"260010","img/object_images/dog_leash01.jpg","img/object_images/flask01.jpg",NA,"1","0",NA,"0","0",NA,"0.459555300003558","0.568719300004886",NA,"1","1",NA,"1","1",NA,"1","1",NA
"260010","img/object_images/bucket02.jpg",NA,"img/object_images/Lint_Roller02.jpg","1",NA,"1","1",NA,"0","0.908050600002753",NA,"0.533141699997941","1",NA,"1","1",NA,"1","1",NA,"1"
"260010","img/object_images/Lint_Roller02.jpg","img/object_images/bucket02.jpg","img/object_images/ball02.jpg","1","1","1","0","1","1","0.533141699997941","0.908050600002753","0.441046899999492","1","1","1","1","1","1","1","1","1"
"260010","img/object_images/ball02.jpg","img/object_images/Lint_Roller02.jpg","img/object_images/towels01.jpg","1","1","1","1","0","0","0.441046899999492","0.533141699997941","0.565489599997818","1","1","1","1","1","1","1","1","1"
"260010","img/object_images/towels01.jpg","img/object_images/ball02.jpg","img/object_images/stove01.jpg","1","1","1","0","1","0","0.565489599997818","0.441046899999492","0.48134740000387","1","1","1","1","1","1","1","1","1"
"260010","img/object_images/stove01.jpg","img/object_images/towels01.jpg","img/object_images/chair02.jpg","1","1","1","0","0","1","0.48134740000387","0.565489599997818","0.488371700004791","1","1","1","1","1","1","1","1","1"
"260010","img/object_images/chair02.jpg","img/object_images/stove01.jpg","img/object_images/lock01.jpg","1","1","1","1","0","0","0.488371700004791","0.48134740000387","0.606421000004048","1","1","1","1","1","1","1","1","1"
"260010","img/object_images/lock01.jpg","img/object_images/chair02.jpg","img/object_images/trash_can05.jpg","1","1","1","0","1","1","0.606421000004048","0.488371700004791","0.560426900003222","1","1","1","1","1","1","1","1","1"
"260010","img/object_images/trash_can05.jpg","img/object_images/lock01.jpg","img/object_images/surf_board01.jpg","1","1","1","1","0","1","0.560426900003222","0.606421000004048","0.576140299999679","1","1","1","1","1","1","1","1","1"
"260010","img/object_images/surf_board01.jpg","img/object_images/trash_can05.jpg","img/object_images/backpack03.jpg","1","1","1","1","1","1","0.576140299999679","0.560426900003222","0.391613400002825","1","1","1","1","1","1","1","1","1"
"260010","img/object_images/backpack03.jpg","img/object_images/surf_board01.jpg","img/object_images/robe01.jpg","1","1","1","1","1","1","0.391613400002825","0.576140299999679","0.596651699997892","1","1","1","1","1","1","1","1","1"
"260010","img/object_images/robe01.jpg","img/object_images/backpack03.jpg","img/object_images/toy05.jpg","1","1","1","1","1","0","0.596651699997892","0.391613400002825","0.540689200002817","1","1","1","1","1","1","1","1","1"
"260010","img/object_images/toy05.jpg","img/object_images/robe01.jpg","img/object_images/jewel03.jpg","1","1","1","0","1","1","0.540689200002817","0.596651699997892","0.469215000004624","1","1","1","1","1","1","1","1","1"
"260010","img/object_images/jewel03.jpg","img/object_images/toy05.jpg","img/object_images/laptop03.jpg","1","1","1","1","0","1","0.469215000004624","0.540689200002817","0.487561699999787","1","1","1","1","1","1","1","1","1"
"260010","img/object_images/laptop03.jpg","img/object_images/jewel03.jpg","img/object_images/spatula02.jpg","1","1","1","1","1","1","0.487561699999787","0.469215000004624","0.716027599999506","1","1","1","1","1","1","1","1","1"
"260010","img/object_images/spatula02.jpg","img/object_images/laptop03.jpg","img/object_images/helmet02.jpg","1","1","1","1","1","0","0.716027599999506","0.487561699999787","0.80306080000446","1","1","1","1","1","1","1","1","1"
"260010","img/object_images/helmet02.jpg","img/object_images/spatula02.jpg","img/object_images/gift_box05.jpg","1","1","1","0","1","0","0.80306080000446","0.716027599999506","0.47989989999769","1","1","1","1","1","1","1","1","1"
"260010","img/object_images/gift_box05.jpg","img/object_images/helmet02.jpg","img/object_images/hair_dryer01.jpg","1","1","1","0","0","0","0.47989989999769","0.80306080000446","0.562345100006496","1","1","1","1","1","1","1","1","1"
"260010","img/object_images/hair_dryer01.jpg","img/object_images/gift_box05.jpg","img/object_images/microphone03.jpg","1","1","1","0","0","1","0.562345100006496","0.47989989999769","0.723398000001907","1","1","1","1","1","1","1","1","1"
"260010","img/object_images/microphone03.jpg","img/object_images/hair_dryer01.jpg","img/object_images/trash_can03.jpg","1","1","1","1","0","1","0.723398000001907","0.562345100006496","0.597406000000774","1","1","1","1","1","1","1","1","1"
"260010","img/object_images/trash_can03.jpg","img/object_images/microphone03.jpg","img/object_images/hair_brush02.jpg","1","1","1","1","1","0","0.597406000000774","0.723398000001907","0.540889899995818","1","1","1","1","1","1","1","1","1"
"260010","img/object_images/hair_brush02.jpg","img/object_images/trash_can03.jpg","img/object_images/calculator01.jpg","1","1","1","0","1","1","0.540889899995818","0.597406000000774","0.492516000005708","1","1","1","1","1","1","1","1","1"
"260010","img/object_images/calculator01.jpg","img/object_images/hair_brush02.jpg","img/object_images/pitcher05.jpg","1","1","1","1","0","0","0.492516000005708","0.540889899995818","0.48565800000506","1","1","1","1","1","1","1","1","1"
"260010","img/object_images/pitcher05.jpg","img/object_images/calculator01.jpg","img/object_images/combs01.jpg","1","1","1","0","1","1","0.48565800000506","0.492516000005708","0.485044100001687","1","1","1","1","1","1","1","1","1"
"260010","img/object_images/combs01.jpg","img/object_images/pitcher05.jpg","img/object_images/accardion01.jpg","1","1","1","1","0","1","0.485044100001687","0.48565800000506","0.483082500002638","1","1","1","1","1","1","1","1","1"
"260010","img/object_images/accardion01.jpg","img/object_images/combs01.jpg","img/object_images/shoes08.jpg","1","1","1","1","1","1","0.483082500002638","0.485044100001687","0.443748700003198","1","1","1","1","1","1","1","1","1"
"260010","img/object_images/shoes08.jpg","img/object_images/accardion01.jpg","img/object_images/umbrella01.jpg","1","1","1","1","1","0","0.443748700003198","0.483082500002638","0.539848400003393","1","1","1","1","1","1","1","1","1"
"260010","img/object_images/umbrella01.jpg","img/object_images/shoes08.jpg","img/object_images/fan04.jpg","1","1","1","0","1","0","0.539848400003393","0.443748700003198","0.530722000003152","1","1","1","1","1","1","1","1","1"
"260010","img/object_images/fan04.jpg","img/object_images/umbrella01.jpg","img/object_images/Vest02.jpg","1","1","1","0","0","0","0.530722000003152","0.539848400003393","0.694627000004402","1","1","1","1","1","1","1","1","1"
"260010","img/object_images/Vest02.jpg","img/object_images/fan04.jpg","img/object_images/chess_piece01.jpg","1","1","0","0","0","0","0.694627000004402","0.530722000003152","0.61213829999906","1","1","1","1","1","1","1","1","2"
"260010","img/object_images/chess_piece01.jpg","img/object_images/Vest02.jpg","img/object_images/vase01.jpg","0","1","1","0","0","0","0.61213829999906","0.694627000004402","0.492127900004562","1","1","1","1","1","1","2","1","1"
"260010","img/object_images/vase01.jpg","img/object_images/chess_piece01.jpg","img/object_images/laptop01.jpg","1","0","1","0","0","0","0.492127900004562","0.61213829999906","0.539629899998545","1","1","1","1","1","1","1","2","1"
"260010","img/object_images/laptop01.jpg","img/object_images/vase01.jpg",NA,"1","1",NA,"0","0",NA,"0.539629899998545","0.492127900004562",NA,"1","1",NA,"1","1",NA,"1","1",NA
