"participant_id","current_trial_object","pre_trial_object","post_trial_object","current_trial_accuracy","pre_trial_accuracy","post_trial_accuracy","current_trial_congruency","pre_trial_congruency","post_trial_congruency","current_trial_rt","pre_trial_rt","post_trial_rt","current_trial_responded","pre_trial_responded","post_trial_responded","current_trial_legitResponse","pre_trial_legitResponse","post_trial_legitResponse","current_trial_resp_nums","pre_trial_resp_nums","post_trial_resp_nums"
"260066","img/object_images/umbrella01.jpg",NA,"img/object_images/trash_can05.jpg","0",NA,"1","0",NA,"1","0.961322100018151",NA,"0.49818720004987","1",NA,"1","1",NA,"1","1",NA,"1"
"260066","img/object_images/trash_can05.jpg","img/object_images/umbrella01.jpg","img/object_images/Vest02.jpg","1","0","1","1","0","0","0.49818720004987","0.961322100018151","0.603732600051444","1","1","1","1","1","1","1","1","1"
"260066","img/object_images/Vest02.jpg","img/object_images/trash_can05.jpg","img/object_images/chair02.jpg","1","1","1","0","1","1","0.603732600051444","0.49818720004987","0.600681699987035","1","1","1","1","1","1","1","1","1"
"260066","img/object_images/chair02.jpg","img/object_images/Vest02.jpg","img/object_images/calculator01.jpg","1","1","1","1","0","1","0.600681699987035","0.603732600051444","0.577492599957623","1","1","1","1","1","1","1","1","1"
"260066","img/object_images/calculator01.jpg","img/object_images/chair02.jpg","img/object_images/vase01.jpg","1","1","1","1","1","0","0.577492599957623","0.600681699987035","0.568429999984801","1","1","1","1","1","1","1","1","1"
"260066","img/object_images/vase01.jpg","img/object_images/calculator01.jpg","img/object_images/chess_piece01.jpg","1","1","1","0","1","0","0.568429999984801","0.577492599957623","0.589701799966861","1","1","1","1","1","1","1","1","1"
"260066","img/object_images/chess_piece01.jpg","img/object_images/vase01.jpg","img/object_images/Lint_Roller02.jpg","1","1","1","0","0","0","0.589701799966861","0.568429999984801","0.908915799984243","1","1","1","1","1","1","1","1","1"
"260066","img/object_images/Lint_Roller02.jpg","img/object_images/chess_piece01.jpg","img/object_images/gift_box05.jpg","1","1","1","0","0","0","0.908915799984243","0.589701799966861","0.587604200001806","1","1","1","1","1","1","1","1","1"
"260066","img/object_images/gift_box05.jpg","img/object_images/Lint_Roller02.jpg","img/object_images/microphone03.jpg","1","1","1","0","0","1","0.587604200001806","0.908915799984243","0.849936900020111","1","1","1","1","1","1","1","1","1"
"260066","img/object_images/microphone03.jpg","img/object_images/gift_box05.jpg","img/object_images/spatula02.jpg","1","1","1","1","0","1","0.849936900020111","0.587604200001806","0.685163600021042","1","1","1","1","1","1","1","1","1"
"260066","img/object_images/spatula02.jpg","img/object_images/microphone03.jpg","img/object_images/fan04.jpg","1","1","1","1","1","0","0.685163600021042","0.849936900020111","0.59344789996976","1","1","1","1","1","1","1","1","1"
"260066","img/object_images/fan04.jpg","img/object_images/spatula02.jpg","img/object_images/toy05.jpg","1","1","1","0","1","0","0.59344789996976","0.685163600021042","0.582665099995211","1","1","1","1","1","1","1","1","1"
"260066","img/object_images/toy05.jpg","img/object_images/fan04.jpg","img/object_images/laptop01.jpg","1","1","1","0","0","0","0.582665099995211","0.59344789996976","0.623929100052919","1","1","1","1","1","1","1","1","1"
"260066","img/object_images/laptop01.jpg","img/object_images/toy05.jpg","img/object_images/hair_dryer01.jpg","1","1","1","0","0","0","0.623929100052919","0.582665099995211","0.82449239998823","1","1","1","1","1","1","1","1","1"
"260066","img/object_images/hair_dryer01.jpg","img/object_images/laptop01.jpg","img/object_images/lock01.jpg","1","1","1","0","0","0","0.82449239998823","0.623929100052919","0.918490600015502","1","1","1","1","1","1","1","1","1"
"260066","img/object_images/lock01.jpg","img/object_images/hair_dryer01.jpg","img/object_images/helmet02.jpg","1","1","1","0","0","0","0.918490600015502","0.82449239998823","0.626648900040891","1","1","1","1","1","1","1","1","1"
"260066","img/object_images/helmet02.jpg","img/object_images/lock01.jpg","img/object_images/jewel03.jpg","1","1","1","0","0","1","0.626648900040891","0.918490600015502","0.552039099973626","1","1","1","1","1","1","1","1","1"
"260066","img/object_images/jewel03.jpg","img/object_images/helmet02.jpg","img/object_images/surf_board01.jpg","1","1","1","1","0","1","0.552039099973626","0.626648900040891","0.763560400053393","1","1","1","1","1","1","1","1","1"
"260066","img/object_images/surf_board01.jpg","img/object_images/jewel03.jpg","img/object_images/bucket02.jpg","1","1","1","1","1","1","0.763560400053393","0.552039099973626","0.951453100016806","1","1","1","1","1","1","1","1","1"
"260066","img/object_images/bucket02.jpg","img/object_images/surf_board01.jpg","img/object_images/towels01.jpg","1","1","1","1","1","0","0.951453100016806","0.763560400053393","0.705932700017001","1","1","1","1","1","1","1","1","1"
"260066","img/object_images/towels01.jpg","img/object_images/bucket02.jpg","img/object_images/shoes08.jpg","1","1","1","0","1","1","0.705932700017001","0.951453100016806","0.617528000031598","1","1","1","1","1","1","1","1","1"
"260066","img/object_images/shoes08.jpg","img/object_images/towels01.jpg","img/object_images/stove01.jpg","1","1","1","1","0","0","0.617528000031598","0.705932700017001","0.761333500035107","1","1","1","1","1","1","1","1","1"
"260066","img/object_images/stove01.jpg","img/object_images/shoes08.jpg","img/object_images/trash_can03.jpg","1","1","1","0","1","1","0.761333500035107","0.617528000031598","0.571166200039443","1","1","1","1","1","1","1","1","1"
"260066","img/object_images/trash_can03.jpg","img/object_images/stove01.jpg","img/object_images/ball02.jpg","1","1","1","1","0","1","0.571166200039443","0.761333500035107","0.750501400034409","1","1","1","1","1","1","1","1","1"
"260066","img/object_images/ball02.jpg","img/object_images/trash_can03.jpg","img/object_images/backpack03.jpg","1","1","1","1","1","1","0.750501400034409","0.571166200039443","0.647026599966921","1","1","1","1","1","1","1","1","1"
"260066","img/object_images/backpack03.jpg","img/object_images/ball02.jpg","img/object_images/accardion01.jpg","1","1","1","1","1","1","0.647026599966921","0.750501400034409","0.676606900000479","1","1","1","1","1","1","1","1","1"
"260066","img/object_images/accardion01.jpg","img/object_images/backpack03.jpg","img/object_images/laptop03.jpg","1","1","1","1","1","1","0.676606900000479","0.647026599966921","0.700312500004657","1","1","1","1","1","1","1","1","1"
"260066","img/object_images/laptop03.jpg","img/object_images/accardion01.jpg","img/object_images/pitcher05.jpg","1","1","1","1","1","0","0.700312500004657","0.676606900000479","0.597376300022006","1","1","1","1","1","1","1","1","1"
"260066","img/object_images/pitcher05.jpg","img/object_images/laptop03.jpg","img/object_images/hair_brush02.jpg","1","1","1","0","1","0","0.597376300022006","0.700312500004657","0.785674799990375","1","1","1","1","1","1","1","1","1"
"260066","img/object_images/hair_brush02.jpg","img/object_images/pitcher05.jpg","img/object_images/robe01.jpg","1","1","1","0","0","1","0.785674799990375","0.597376300022006","0.70708999998169","1","1","1","1","1","1","1","1","1"
"260066","img/object_images/robe01.jpg","img/object_images/hair_brush02.jpg","img/object_images/combs01.jpg","1","1","1","1","0","1","0.70708999998169","0.785674799990375","0.62440680002328","1","1","1","1","1","1","1","1","1"
"260066","img/object_images/combs01.jpg","img/object_images/robe01.jpg",NA,"1","1",NA,"1","1",NA,"0.62440680002328","0.70708999998169",NA,"1","1",NA,"1","1",NA,"1","1",NA
"260066","img/object_images/sink_filter01 (1).jpg",NA,"img/object_images/cup01.jpg","1",NA,"0","0",NA,"0","0.563234000001103",NA,"0.708232599950861","1",NA,"1","1",NA,"1","1",NA,"1"
"260066","img/object_images/cup01.jpg","img/object_images/sink_filter01 (1).jpg","img/object_images/Candle_Holder01.jpg","0","1","1","0","0","0","0.708232599950861","0.563234000001103","0.698781599989161","1","1","1","1","1","1","1","1","1"
"260066","img/object_images/Candle_Holder01.jpg","img/object_images/cup01.jpg","img/object_images/socks01.jpg","1","0","1","0","0","1","0.698781599989161","0.708232599950861","0.393606500001624","1","1","1","1","1","1","1","1","1"
"260066","img/object_images/socks01.jpg","img/object_images/Candle_Holder01.jpg","img/object_images/clipboard01.jpg","1","1","1","1","0","1","0.393606500001624","0.698781599989161","0.462002900021616","1","1","1","1","1","1","1","1","1"
"260066","img/object_images/clipboard01.jpg","img/object_images/socks01.jpg","img/object_images/hammer02.jpg","1","1","1","1","1","0","0.462002900021616","0.393606500001624","0.536780200025532","1","1","1","1","1","1","1","1","1"
"260066","img/object_images/hammer02.jpg","img/object_images/clipboard01.jpg","img/object_images/video_game02.jpg","1","1","1","0","1","1","0.536780200025532","0.462002900021616","0.470499400049448","1","1","1","1","1","1","1","1","1"
"260066","img/object_images/video_game02.jpg","img/object_images/hammer02.jpg","img/object_images/candle02.jpg","1","1","1","1","0","0","0.470499400049448","0.536780200025532","0.523617599974386","1","1","1","1","1","1","1","1","1"
"260066","img/object_images/candle02.jpg","img/object_images/video_game02.jpg","img/object_images/duster01.jpg","1","1","1","0","1","0","0.523617599974386","0.470499400049448","0.620699399965815","1","1","1","1","1","1","1","1","1"
"260066","img/object_images/duster01.jpg","img/object_images/candle02.jpg","img/object_images/board01.jpg","1","1","1","0","0","1","0.620699399965815","0.523617599974386","0.562341700016987","1","1","1","1","1","1","1","1","1"
"260066","img/object_images/board01.jpg","img/object_images/duster01.jpg","img/object_images/vase02.jpg","1","1","1","1","0","1","0.562341700016987","0.620699399965815","0.531403200002387","1","1","1","1","1","1","1","1","1"
"260066","img/object_images/vase02.jpg","img/object_images/board01.jpg","img/object_images/office_supplies01.jpg","1","1","1","1","1","1","0.531403200002387","0.562341700016987","0.590946600015741","1","1","1","1","1","1","1","1","1"
"260066","img/object_images/office_supplies01.jpg","img/object_images/vase02.jpg","img/object_images/razor02.jpg","1","1","1","1","1","1","0.590946600015741","0.531403200002387","0.654671599972062","1","1","1","1","1","1","1","1","1"
"260066","img/object_images/razor02.jpg","img/object_images/office_supplies01.jpg","img/object_images/ruler02.jpg","1","1","1","1","1","1","0.654671599972062","0.590946600015741","0.577727299998514","1","1","1","1","1","1","1","1","1"
"260066","img/object_images/ruler02.jpg","img/object_images/razor02.jpg","img/object_images/sign02.jpg","1","1","1","1","1","0","0.577727299998514","0.654671599972062","0.591687300009653","1","1","1","1","1","1","1","1","1"
"260066","img/object_images/sign02.jpg","img/object_images/ruler02.jpg","img/object_images/hat13.jpg","1","1","1","0","1","1","0.591687300009653","0.577727299998514","0.466756800014991","1","1","1","1","1","1","1","1","1"
"260066","img/object_images/hat13.jpg","img/object_images/sign02.jpg","img/object_images/tool20.jpg","1","1","1","1","0","0","0.466756800014991","0.591687300009653","0.613268000015523","1","1","1","1","1","1","1","1","1"
"260066","img/object_images/tool20.jpg","img/object_images/hat13.jpg","img/object_images/lemon_squeezer01.jpg","1","1","1","0","1","1","0.613268000015523","0.466756800014991","0.473653399967588","1","1","1","1","1","1","1","1","1"
"260066","img/object_images/lemon_squeezer01.jpg","img/object_images/tool20.jpg","img/object_images/spray_can01.jpg","1","1","1","1","0","0","0.473653399967588","0.613268000015523","0.583291799994186","1","1","1","1","1","1","1","1","1"
"260066","img/object_images/spray_can01.jpg","img/object_images/lemon_squeezer01.jpg","img/object_images/pan03.jpg","1","1","1","0","1","1","0.583291799994186","0.473653399967588","0.508046599978115","1","1","1","1","1","1","1","1","1"
"260066","img/object_images/pan03.jpg","img/object_images/spray_can01.jpg","img/object_images/hat09.jpg","1","1","1","1","0","0","0.508046599978115","0.583291799994186","0.616862899973057","1","1","1","1","1","1","1","1","1"
"260066","img/object_images/hat09.jpg","img/object_images/pan03.jpg","img/object_images/perfume01.jpg","1","1","1","0","1","0","0.616862899973057","0.508046599978115","0.533821599965449","1","1","1","1","1","1","1","1","1"
"260066","img/object_images/perfume01.jpg","img/object_images/hat09.jpg","img/object_images/pen06.jpg","1","1","1","0","0","0","0.533821599965449","0.616862899973057","0.815846000041347","1","1","1","1","1","1","1","1","1"
"260066","img/object_images/pen06.jpg","img/object_images/perfume01.jpg","img/object_images/camera05.jpg","1","1","1","0","0","0","0.815846000041347","0.533821599965449","0.597887300013099","1","1","1","1","1","1","1","1","1"
"260066","img/object_images/camera05.jpg","img/object_images/pen06.jpg","img/object_images/knife01.jpg","1","1","1","0","0","1","0.597887300013099","0.815846000041347","0.565753299975768","1","1","1","1","1","1","1","1","1"
"260066","img/object_images/knife01.jpg","img/object_images/camera05.jpg","img/object_images/dust_pan01.jpg","1","1","1","1","0","1","0.565753299975768","0.597887300013099","0.553938500001095","1","1","1","1","1","1","1","1","1"
"260066","img/object_images/dust_pan01.jpg","img/object_images/knife01.jpg","img/object_images/glasses03.jpg","1","1","1","1","1","0","0.553938500001095","0.565753299975768","0.685960099974182","1","1","1","1","1","1","1","1","1"
"260066","img/object_images/glasses03.jpg","img/object_images/dust_pan01.jpg","img/object_images/bag04.jpg","1","1","1","0","1","0","0.685960099974182","0.553938500001095","0.873237200023141","1","1","1","1","1","1","1","1","1"
"260066","img/object_images/bag04.jpg","img/object_images/glasses03.jpg","img/object_images/Confetti 01.jpg","1","1","1","0","0","0","0.873237200023141","0.685960099974182","0.671406999987084","1","1","1","1","1","1","1","1","1"
"260066","img/object_images/Confetti 01.jpg","img/object_images/bag04.jpg","img/object_images/floss01.jpg","1","1","1","0","0","1","0.671406999987084","0.873237200023141","0.551371400011703","1","1","1","1","1","1","1","1","1"
"260066","img/object_images/floss01.jpg","img/object_images/Confetti 01.jpg","img/object_images/tool13.jpg","1","1","1","1","0","1","0.551371400011703","0.671406999987084","0.583351400040556","1","1","1","1","1","1","1","1","1"
"260066","img/object_images/tool13.jpg","img/object_images/floss01.jpg","img/object_images/bow_tie03.jpg","1","1","1","1","1","1","0.583351400040556","0.551371400011703","0.65997730003437","1","1","1","1","1","1","1","1","1"
"260066","img/object_images/bow_tie03.jpg","img/object_images/tool13.jpg",NA,"1","1",NA,"1","1",NA,"0.65997730003437","0.583351400040556",NA,"1","1",NA,"1","1",NA,"1","1",NA
"260066","img/object_images/computer_mouse02.jpg",NA,"img/object_images/floss02.jpg","1",NA,"1","0",NA,"1","0.597080500039738",NA,"0.476536500034854","1",NA,"1","1",NA,"1","1",NA,"1"
"260066","img/object_images/floss02.jpg","img/object_images/computer_mouse02.jpg","img/object_images/airfryer02.jpg","1","1","1","1","0","1","0.476536500034854","0.597080500039738","0.479302700026892","1","1","1","1","1","1","1","1","1"
"260066","img/object_images/airfryer02.jpg","img/object_images/floss02.jpg","img/object_images/skate_board01.jpg","1","1","1","1","1","0","0.479302700026892","0.476536500034854","0.569673100020736","1","1","1","1","1","1","1","1","1"
"260066","img/object_images/skate_board01.jpg","img/object_images/airfryer02.jpg","img/object_images/pitcher09.jpg","1","1","1","0","1","1","0.569673100020736","0.479302700026892","0.746542900044005","1","1","1","1","1","1","1","1","1"
"260066","img/object_images/pitcher09.jpg","img/object_images/skate_board01.jpg","img/object_images/toothbrush01.jpg","1","1","1","1","0","0","0.746542900044005","0.569673100020736","0.48247430002084","1","1","1","1","1","1","1","1","1"
"260066","img/object_images/toothbrush01.jpg","img/object_images/pitcher09.jpg","img/object_images/pen01.jpg","1","1","1","0","1","0","0.48247430002084","0.746542900044005","0.626970899989828","1","1","1","1","1","1","1","1","1"
"260066","img/object_images/pen01.jpg","img/object_images/toothbrush01.jpg","img/object_images/drone01.jpg","1","1","1","0","0","1","0.626970899989828","0.48247430002084","0.496524999965914","1","1","1","1","1","1","1","1","1"
"260066","img/object_images/drone01.jpg","img/object_images/pen01.jpg","img/object_images/mail_box02.jpg","1","1","1","1","0","1","0.496524999965914","0.626970899989828","0.50483200000599","1","1","1","1","1","1","1","1","1"
"260066","img/object_images/mail_box02.jpg","img/object_images/drone01.jpg","img/object_images/tool06.jpg","1","1","1","1","1","0","0.50483200000599","0.496524999965914","0.71586690004915","1","1","1","1","1","1","1","1","1"
"260066","img/object_images/tool06.jpg","img/object_images/mail_box02.jpg","img/object_images/hair_brush01.jpg","1","1","1","0","1","1","0.71586690004915","0.50483200000599","0.505938599992078","1","1","1","1","1","1","1","1","1"
"260066","img/object_images/hair_brush01.jpg","img/object_images/tool06.jpg","img/object_images/egg_slicer01.jpg","1","1","1","1","0","1","0.505938599992078","0.71586690004915","0.629059800005052","1","1","1","1","1","1","1","1","1"
"260066","img/object_images/egg_slicer01.jpg","img/object_images/hair_brush01.jpg","img/object_images/chain01.jpg","1","1","1","1","1","0","0.629059800005052","0.505938599992078","0.725968699960504","1","1","1","1","1","1","1","1","1"
"260066","img/object_images/chain01.jpg","img/object_images/egg_slicer01.jpg","img/object_images/rock02.jpg","1","1","1","0","1","0","0.725968699960504","0.629059800005052","0.743048800039105","1","1","1","1","1","1","1","1","1"
"260066","img/object_images/rock02.jpg","img/object_images/chain01.jpg","img/object_images/couch01.jpg","1","1","1","0","0","0","0.743048800039105","0.725968699960504","0.633796899986919","1","1","1","1","1","1","1","1","1"
"260066","img/object_images/couch01.jpg","img/object_images/rock02.jpg","img/object_images/video_game03.jpg","1","1","1","0","0","1","0.633796899986919","0.743048800039105","0.678977000003215","1","1","1","1","1","1","1","1","1"
"260066","img/object_images/video_game03.jpg","img/object_images/couch01.jpg","img/object_images/scarf01.jpg","1","1","1","1","0","1","0.678977000003215","0.633796899986919","0.623020800005179","1","1","1","1","1","1","1","1","1"
"260066","img/object_images/scarf01.jpg","img/object_images/video_game03.jpg","img/object_images/toy01.jpg","1","1","1","1","1","1","0.623020800005179","0.678977000003215","0.610378099954687","1","1","1","1","1","1","1","1","1"
"260066","img/object_images/toy01.jpg","img/object_images/scarf01.jpg","img/object_images/Trowel01.jpg","1","1","1","1","1","0","0.610378099954687","0.623020800005179","0.554886300000362","1","1","1","1","1","1","1","1","1"
"260066","img/object_images/Trowel01.jpg","img/object_images/toy01.jpg","img/object_images/book02.jpg","1","1","1","0","1","1","0.554886300000362","0.610378099954687","0.659282299980987","1","1","1","1","1","1","1","1","1"
"260066","img/object_images/book02.jpg","img/object_images/Trowel01.jpg","img/object_images/chair06.jpg","1","1","1","1","0","0","0.659282299980987","0.554886300000362","0.79370049998397","1","1","1","1","1","1","1","1","1"
"260066","img/object_images/chair06.jpg","img/object_images/book02.jpg","img/object_images/soap03.jpg","1","1","1","0","1","0","0.79370049998397","0.659282299980987","0.672147000033874","1","1","1","1","1","1","1","1","1"
"260066","img/object_images/soap03.jpg","img/object_images/chair06.jpg","img/object_images/computer_mouse01.jpg","1","1","1","0","0","1","0.672147000033874","0.79370049998397","0.572162700002082","1","1","1","1","1","1","1","1","1"
"260066","img/object_images/computer_mouse01.jpg","img/object_images/soap03.jpg","img/object_images/box03.jpg","1","1","1","1","0","0","0.572162700002082","0.672147000033874","0.707268500002101","1","1","1","1","1","1","1","1","1"
"260066","img/object_images/box03.jpg","img/object_images/computer_mouse01.jpg","img/object_images/bag_pipes01.jpg","1","1","1","0","1","1","0.707268500002101","0.572162700002082","0.586112200049683","1","1","1","1","1","1","1","1","1"
"260066","img/object_images/bag_pipes01.jpg","img/object_images/box03.jpg","img/object_images/blender01.jpg","1","1","1","1","0","0","0.586112200049683","0.707268500002101","0.55523820000235","1","1","1","1","1","1","1","1","1"
"260066","img/object_images/blender01.jpg","img/object_images/bag_pipes01.jpg","img/object_images/shoes12.jpg","1","1","1","0","1","1","0.55523820000235","0.586112200049683","0.69693770003505","1","1","1","1","1","1","1","1","1"
"260066","img/object_images/shoes12.jpg","img/object_images/blender01.jpg","img/object_images/tripod01.jpg","1","1","1","1","0","1","0.69693770003505","0.55523820000235","0.695316899975296","1","1","1","1","1","1","1","1","1"
"260066","img/object_images/tripod01.jpg","img/object_images/shoes12.jpg","img/object_images/clip04.jpg","1","1","1","1","1","1","0.695316899975296","0.69693770003505","0.660966800001916","1","1","1","1","1","1","1","1","1"
"260066","img/object_images/clip04.jpg","img/object_images/tripod01.jpg","img/object_images/Violin01.jpg","1","1","1","1","1","0","0.660966800001916","0.695316899975296","0.770701000001281","1","1","1","1","1","1","1","1","1"
"260066","img/object_images/Violin01.jpg","img/object_images/clip04.jpg","img/object_images/bell03.jpg","1","1","1","0","1","0","0.770701000001281","0.660966800001916","0.657073799986392","1","1","1","1","1","1","1","1","1"
"260066","img/object_images/bell03.jpg","img/object_images/Violin01.jpg","img/object_images/fork02.jpg","1","1","1","0","0","0","0.657073799986392","0.770701000001281","0.7658413000172","1","1","1","1","1","1","1","1","1"
"260066","img/object_images/fork02.jpg","img/object_images/bell03.jpg",NA,"1","1",NA,"0","0",NA,"0.7658413000172","0.657073799986392",NA,"1","1",NA,"1","1",NA,"1","1",NA
"260066","img/object_images/Witchhat01.jpg",NA,"img/object_images/vga_port 01.jpg","1",NA,"1","1",NA,"0","0.621536399994511",NA,"0.704288800014183","1",NA,"1","1",NA,"1","1",NA,"1"
"260066","img/object_images/vga_port 01.jpg","img/object_images/Witchhat01.jpg","img/object_images/fork03.jpg","1","1","1","0","1","1","0.704288800014183","0.621536399994511","0.50788749998901","1","1","1","1","1","1","1","1","1"
"260066","img/object_images/fork03.jpg","img/object_images/vga_port 01.jpg","img/object_images/pitcher02.jpg","1","1","1","1","0","1","0.50788749998901","0.704288800014183","0.582703299995046","1","1","1","1","1","1","1","1","1"
"260066","img/object_images/pitcher02.jpg","img/object_images/fork03.jpg","img/object_images/couch03.jpg","1","1","1","1","1","0","0.582703299995046","0.50788749998901","0.61472179996781","1","1","1","1","1","1","1","1","1"
"260066","img/object_images/couch03.jpg","img/object_images/pitcher02.jpg","img/object_images/jewelry01.jpg","1","1","1","0","1","1","0.61472179996781","0.582703299995046","0.607036600005813","1","1","1","1","1","1","1","1","1"
"260066","img/object_images/jewelry01.jpg","img/object_images/couch03.jpg","img/object_images/gift_box02.jpg","1","1","1","1","0","1","0.607036600005813","0.61472179996781","0.594447500014212","1","1","1","1","1","1","1","1","1"
"260066","img/object_images/gift_box02.jpg","img/object_images/jewelry01.jpg","img/object_images/ironing_table01.jpg","1","1","1","1","1","0","0.594447500014212","0.607036600005813","0.703653600008693","1","1","1","1","1","1","1","1","1"
"260066","img/object_images/ironing_table01.jpg","img/object_images/gift_box02.jpg","img/object_images/golf_ball03.jpg","1","1","1","0","1","1","0.703653600008693","0.594447500014212","0.732804000028409","1","1","1","1","1","1","1","1","1"
"260066","img/object_images/golf_ball03.jpg","img/object_images/ironing_table01.jpg","img/object_images/paper_cup01.jpg","1","1","1","1","0","0","0.732804000028409","0.703653600008693","0.600834099983331","1","1","1","1","1","1","1","1","1"
"260066","img/object_images/paper_cup01.jpg","img/object_images/golf_ball03.jpg","img/object_images/clip02.jpg","1","1","1","0","1","1","0.600834099983331","0.732804000028409","0.63430590002099","1","1","1","1","1","1","1","1","1"
"260066","img/object_images/clip02.jpg","img/object_images/paper_cup01.jpg","img/object_images/wallet02.jpg","1","1","1","1","0","1","0.63430590002099","0.600834099983331","0.555309799965471","1","1","1","1","1","1","1","1","1"
"260066","img/object_images/wallet02.jpg","img/object_images/clip02.jpg","img/object_images/bath_tub01.jpg","1","1","0","1","1","0","0.555309799965471","0.63430590002099","1.05265859997598","1","1","1","1","1","1","1","1","1"
"260066","img/object_images/bath_tub01.jpg","img/object_images/wallet02.jpg","img/object_images/bow_tie02.jpg","0","1","1","0","1","0","1.05265859997598","0.555309799965471","0.676405600039288","1","1","1","1","1","1","1","1","1"
"260066","img/object_images/bow_tie02.jpg","img/object_images/bath_tub01.jpg","img/object_images/gift_box01.jpg","1","0","1","0","0","1","0.676405600039288","1.05265859997598","0.845530599995982","1","1","1","1","1","1","1","1","1"
"260066","img/object_images/gift_box01.jpg","img/object_images/bow_tie02.jpg","img/object_images/coloring_pencil01.jpg","1","1","1","1","0","1","0.845530599995982","0.676405600039288","0.527536800014786","1","1","1","1","1","1","1","1","1"
"260066","img/object_images/coloring_pencil01.jpg","img/object_images/gift_box01.jpg","img/object_images/Screws01.jpg","1","1","1","1","1","1","0.527536800014786","0.845530599995982","0.874889999977313","1","1","1","1","1","1","1","1","1"
"260066","img/object_images/Screws01.jpg","img/object_images/coloring_pencil01.jpg","img/object_images/sleeping_bag01.jpg","1","1","1","1","1","0","0.874889999977313","0.527536800014786","0.852087500039488","1","1","1","1","1","1","1","1","1"
"260066","img/object_images/sleeping_bag01.jpg","img/object_images/Screws01.jpg","img/object_images/lawn_mower01.jpg","1","1","1","0","1","1","0.852087500039488","0.874889999977313","0.571633399988059","1","1","1","1","1","1","1","1","1"
"260066","img/object_images/lawn_mower01.jpg","img/object_images/sleeping_bag01.jpg","img/object_images/measuring_tape02.jpg","1","1","1","1","0","1","0.571633399988059","0.852087500039488","0.575573800015263","1","1","1","1","1","1","1","1","1"
"260066","img/object_images/measuring_tape02.jpg","img/object_images/lawn_mower01.jpg","img/object_images/funnel01.jpg","1","1","1","1","1","0","0.575573800015263","0.571633399988059","0.708768600015901","1","1","1","1","1","1","1","1","1"
"260066","img/object_images/funnel01.jpg","img/object_images/measuring_tape02.jpg","img/object_images/dresser04.jpg","1","1","1","0","1","0","0.708768600015901","0.575573800015263","0.691011900024023","1","1","1","1","1","1","1","1","1"
"260066","img/object_images/dresser04.jpg","img/object_images/funnel01.jpg","img/object_images/jacket03.jpg","1","1","1","0","0","0","0.691011900024023","0.708768600015901","0.69900520000374","1","1","1","1","1","1","1","1","1"
"260066","img/object_images/jacket03.jpg","img/object_images/dresser04.jpg","img/object_images/camera07.jpg","1","1","1","0","0","1","0.69900520000374","0.691011900024023","0.510254000022542","1","1","1","1","1","1","1","1","1"
"260066","img/object_images/camera07.jpg","img/object_images/jacket03.jpg","img/object_images/grater01.jpg","1","1","1","1","0","1","0.510254000022542","0.69900520000374","0.59210410004016","1","1","1","1","1","1","1","1","1"
"260066","img/object_images/grater01.jpg","img/object_images/camera07.jpg","img/object_images/balloon01.jpg","1","1","1","1","1","0","0.59210410004016","0.510254000022542","0.627157200011425","1","1","1","1","1","1","1","1","1"
"260066","img/object_images/balloon01.jpg","img/object_images/grater01.jpg","img/object_images/gift_box03.jpg","1","1","1","0","1","0","0.627157200011425","0.59210410004016","0.4844446000061","1","1","1","1","1","1","1","1","1"
"260066","img/object_images/gift_box03.jpg","img/object_images/balloon01.jpg","img/object_images/socks02.jpg","1","1","1","0","0","0","0.4844446000061","0.627157200011425","0.614668900030665","1","1","1","1","1","1","1","1","1"
"260066","img/object_images/socks02.jpg","img/object_images/gift_box03.jpg","img/object_images/bow_tie01.jpg","1","1","1","0","0","0","0.614668900030665","0.4844446000061","0.503917699970771","1","1","1","1","1","1","1","1","1"
"260066","img/object_images/bow_tie01.jpg","img/object_images/socks02.jpg","img/object_images/handkerchief01.jpg","1","1","1","0","0","0","0.503917699970771","0.614668900030665","0.678418299998157","1","1","1","1","1","1","1","1","1"
"260066","img/object_images/handkerchief01.jpg","img/object_images/bow_tie01.jpg","img/object_images/hammer01.jpg","1","1","1","0","0","0","0.678418299998157","0.503917699970771","0.532991499989294","1","1","1","1","1","1","1","1","1"
"260066","img/object_images/hammer01.jpg","img/object_images/handkerchief01.jpg","img/object_images/lock04.jpg","1","1","1","0","0","1","0.532991499989294","0.678418299998157","0.552552200038917","1","1","1","1","1","1","1","1","1"
"260066","img/object_images/lock04.jpg","img/object_images/hammer01.jpg",NA,"1","1",NA,"1","0",NA,"0.552552200038917","0.532991499989294",NA,"1","1",NA,"1","1",NA,"1","1",NA
"260066","img/object_images/hand_grip_exerciser01.jpg",NA,"img/object_images/phone02.jpg","1",NA,"1","0",NA,"1","0.894128000014462",NA,"0.517879399994854","1",NA,"1","1",NA,"1","1",NA,"1"
"260066","img/object_images/phone02.jpg","img/object_images/hand_grip_exerciser01.jpg","img/object_images/backpack01.jpg","1","1","1","1","0","0","0.517879399994854","0.894128000014462","0.733285700029228","1","1","1","1","1","1","1","1","1"
"260066","img/object_images/backpack01.jpg","img/object_images/phone02.jpg","img/object_images/curtain02.jpg","1","1","1","0","1","0","0.733285700029228","0.517879399994854","0.582167099986691","1","1","1","1","1","1","1","1","1"
"260066","img/object_images/curtain02.jpg","img/object_images/backpack01.jpg","img/object_images/knit03.jpg","1","1","1","0","0","1","0.582167099986691","0.733285700029228","0.508097300014924","1","1","1","1","1","1","1","1","1"
"260066","img/object_images/knit03.jpg","img/object_images/curtain02.jpg","img/object_images/dresser03.jpg","1","1","1","1","0","0","0.508097300014924","0.582167099986691","0.56672930001514","1","1","1","1","1","1","1","1","1"
"260066","img/object_images/dresser03.jpg","img/object_images/knit03.jpg","img/object_images/sponge03.jpg","1","1","1","0","1","1","0.56672930001514","0.508097300014924","0.516000400006305","1","1","1","1","1","1","1","1","1"
"260066","img/object_images/sponge03.jpg","img/object_images/dresser03.jpg","img/object_images/gloves02.jpg","1","1","1","1","0","0","0.516000400006305","0.56672930001514","0.670526399975643","1","1","1","1","1","1","1","1","1"
"260066","img/object_images/gloves02.jpg","img/object_images/sponge03.jpg","img/object_images/tool18.jpg","1","1","1","0","1","0","0.670526399975643","0.516000400006305","0.546165700012352","1","1","1","1","1","1","1","1","1"
"260066","img/object_images/tool18.jpg","img/object_images/gloves02.jpg","img/object_images/keyboard02.jpg","1","1","1","0","0","1","0.546165700012352","0.670526399975643","0.645722199988086","1","1","1","1","1","1","1","1","1"
"260066","img/object_images/keyboard02.jpg","img/object_images/tool18.jpg","img/object_images/toy08.jpg","1","1","1","1","0","0","0.645722199988086","0.546165700012352","0.670538800011855","1","1","1","1","1","1","1","1","1"
"260066","img/object_images/toy08.jpg","img/object_images/keyboard02.jpg","img/object_images/car01.jpg","1","1","1","0","1","1","0.670538800011855","0.645722199988086","0.529327500029467","1","1","1","1","1","1","1","1","1"
"260066","img/object_images/car01.jpg","img/object_images/toy08.jpg","img/object_images/remover01.jpg","1","1","1","1","0","1","0.529327500029467","0.670538800011855","0.657923999999184","1","1","1","1","1","1","1","1","1"
"260066","img/object_images/remover01.jpg","img/object_images/car01.jpg","img/object_images/knit04.jpg","1","1","1","1","1","1","0.657923999999184","0.529327500029467","0.585427800018806","1","1","1","1","1","1","1","1","1"
"260066","img/object_images/knit04.jpg","img/object_images/remover01.jpg","img/object_images/basket04.jpg","1","1","1","1","1","1","0.585427800018806","0.657923999999184","0.496500300010666","1","1","1","1","1","1","1","1","1"
"260066","img/object_images/basket04.jpg","img/object_images/knit04.jpg","img/object_images/knife02.jpg","1","1","1","1","1","0","0.496500300010666","0.585427800018806","0.732244700018782","1","1","1","1","1","1","1","1","1"
"260066","img/object_images/knife02.jpg","img/object_images/basket04.jpg","img/object_images/hoverboard01.jpg","1","1","1","0","1","0","0.732244700018782","0.496500300010666","0.617386600002646","1","1","1","1","1","1","1","1","1"
"260066","img/object_images/hoverboard01.jpg","img/object_images/knife02.jpg","img/object_images/jacket04.jpg","1","1","1","0","0","0","0.617386600002646","0.732244700018782","0.674626399995759","1","1","1","1","1","1","1","1","1"
"260066","img/object_images/jacket04.jpg","img/object_images/hoverboard01.jpg","img/object_images/Statue01.jpg","1","1","1","0","0","1","0.674626399995759","0.617386600002646","0.820016700017732","1","1","1","1","1","1","1","1","1"
"260066","img/object_images/Statue01.jpg","img/object_images/jacket04.jpg","img/object_images/shower_head01.jpg","1","1","1","1","0","1","0.820016700017732","0.674626399995759","0.907975299982354","1","1","1","1","1","1","1","1","1"
"260066","img/object_images/shower_head01.jpg","img/object_images/Statue01.jpg","img/object_images/remote_controller01.jpg","1","1","1","1","1","1","0.907975299982354","0.820016700017732","0.647607000020798","1","1","1","1","1","1","1","1","1"
"260066","img/object_images/remote_controller01.jpg","img/object_images/shower_head01.jpg","img/object_images/boat04.jpg","1","1","1","1","1","0","0.647607000020798","0.907975299982354","0.703409200010356","1","1","1","1","1","1","1","1","1"
"260066","img/object_images/boat04.jpg","img/object_images/remote_controller01.jpg","img/object_images/kite01.jpg","1","1","1","0","1","1","0.703409200010356","0.647607000020798","1.17909720004536","1","1","1","1","1","1","1","1","1"
"260066","img/object_images/kite01.jpg","img/object_images/boat04.jpg","img/object_images/paper_cup02.jpg","1","1","1","1","0","1","1.17909720004536","0.703409200010356","0.74474170000758","1","1","1","1","1","1","1","1","1"
"260066","img/object_images/paper_cup02.jpg","img/object_images/kite01.jpg","img/object_images/camera03.jpg","1","1","1","1","1","0","0.74474170000758","1.17909720004536","0.627079900004901","1","1","1","1","1","1","1","1","1"
"260066","img/object_images/camera03.jpg","img/object_images/paper_cup02.jpg","img/object_images/bottle07.jpg","1","1","1","0","1","1","0.627079900004901","0.74474170000758","0.619381800002884","1","1","1","1","1","1","1","1","1"
"260066","img/object_images/bottle07.jpg","img/object_images/camera03.jpg","img/object_images/flashlight03.jpg","1","1","1","1","0","0","0.619381800002884","0.627079900004901","0.749359800014645","1","1","1","1","1","1","1","1","1"
"260066","img/object_images/flashlight03.jpg","img/object_images/bottle07.jpg","img/object_images/video_game01.jpg","1","1","1","0","1","1","0.749359800014645","0.619381800002884","0.574377999990247","1","1","1","1","1","1","1","1","1"
"260066","img/object_images/video_game01.jpg","img/object_images/flashlight03.jpg","img/object_images/blender02.jpg","1","1","1","1","0","1","0.574377999990247","0.749359800014645","0.710908400011249","1","1","1","1","1","1","1","1","1"
"260066","img/object_images/blender02.jpg","img/object_images/video_game01.jpg","img/object_images/mail_box01.jpg","1","1","1","1","1","0","0.710908400011249","0.574377999990247","0.673165600048378","1","1","1","1","1","1","1","1","1"
"260066","img/object_images/mail_box01.jpg","img/object_images/blender02.jpg","img/object_images/stereo02.jpg","1","1","1","0","1","0","0.673165600048378","0.710908400011249","0.627250099962112","1","1","1","1","1","1","1","1","1"
"260066","img/object_images/stereo02.jpg","img/object_images/mail_box01.jpg","img/object_images/matches02.jpg","1","1","0","0","0","0","0.627250099962112","0.673165600048378","0.803792599996086","1","1","1","1","1","1","1","1","1"
"260066","img/object_images/matches02.jpg","img/object_images/stereo02.jpg",NA,"0","1",NA,"0","0",NA,"0.803792599996086","0.627250099962112",NA,"1","1",NA,"1","1",NA,"1","1",NA
"260066","img/object_images/belt03.jpg",NA,"img/object_images/helmet03.jpg","0",NA,"1","0",NA,"1","0.828215999994427",NA,"0.715548700012732","1",NA,"1","1",NA,"1","1",NA,"1"
"260066","img/object_images/helmet03.jpg","img/object_images/belt03.jpg","img/object_images/egg_basket01.jpg","1","0","1","1","0","1","0.715548700012732","0.828215999994427","0.606035500008147","1","1","1","1","1","1","1","1","1"
"260066","img/object_images/egg_basket01.jpg","img/object_images/helmet03.jpg","img/object_images/scale02.jpg","1","1","1","1","1","0","0.606035500008147","0.715548700012732","0.752976400020998","1","1","1","1","1","1","1","1","1"
"260066","img/object_images/scale02.jpg","img/object_images/egg_basket01.jpg","img/object_images/Shoes05.jpg","1","1","1","0","1","0","0.752976400020998","0.606035500008147","0.619946800055914","1","1","1","1","1","1","1","1","1"
"260066","img/object_images/Shoes05.jpg","img/object_images/scale02.jpg","img/object_images/Eyeliner01.jpg","1","1","1","0","0","1","0.619946800055914","0.752976400020998","0.685664299991913","1","1","1","1","1","1","1","1","1"
"260066","img/object_images/Eyeliner01.jpg","img/object_images/Shoes05.jpg","img/object_images/bottle06.jpg","1","1","1","1","0","0","0.685664299991913","0.619946800055914","0.683138300024439","1","1","1","1","1","1","1","1","1"
"260066","img/object_images/bottle06.jpg","img/object_images/Eyeliner01.jpg","img/object_images/joystick03.jpg","1","1","1","0","1","1","0.683138300024439","0.685664299991913","1.33107249997556","1","1","1","1","1","1","1","1","1"
"260066","img/object_images/joystick03.jpg","img/object_images/bottle06.jpg","img/object_images/bucket01.jpg","1","1","1","1","0","1","1.33107249997556","0.683138300024439","0.609057900030166","1","1","1","1","1","1","1","1","1"
"260066","img/object_images/bucket01.jpg","img/object_images/joystick03.jpg","img/object_images/ToolBag01.jpg","1","1","1","1","1","0","0.609057900030166","1.33107249997556","0.730046199983917","1","1","1","1","1","1","1","1","1"
"260066","img/object_images/ToolBag01.jpg","img/object_images/bucket01.jpg","img/object_images/TreeSlice01.jpg","1","1","1","0","1","1","0.730046199983917","0.609057900030166","0.650040599983186","1","1","1","1","1","1","1","1","1"
"260066","img/object_images/TreeSlice01.jpg","img/object_images/ToolBag01.jpg","img/object_images/dice01.jpg","1","1","1","1","0","0","0.650040599983186","0.730046199983917","0.758522799995262","1","1","1","1","1","1","1","1","1"
"260066","img/object_images/dice01.jpg","img/object_images/TreeSlice01.jpg","img/object_images/shovel01.jpg","1","1","1","0","1","0","0.758522799995262","0.650040599983186","0.630914799985476","1","1","1","1","1","1","1","1","1"
"260066","img/object_images/shovel01.jpg","img/object_images/dice01.jpg","img/object_images/pitcher07.jpg","1","1","1","0","0","1","0.630914799985476","0.758522799995262","0.521424199978355","1","1","1","1","1","1","1","1","1"
"260066","img/object_images/pitcher07.jpg","img/object_images/shovel01.jpg","img/object_images/lock03.jpg","1","1","1","1","0","1","0.521424199978355","0.630914799985476","0.52339360001497","1","1","1","1","1","1","1","1","1"
"260066","img/object_images/lock03.jpg","img/object_images/pitcher07.jpg","img/object_images/trumpet01.jpg","1","1","1","1","1","0","0.52339360001497","0.521424199978355","0.723595900053624","1","1","1","1","1","1","1","1","1"
"260066","img/object_images/trumpet01.jpg","img/object_images/lock03.jpg","img/object_images/origami01.jpg","1","1","1","0","1","1","0.723595900053624","0.52339360001497","0.910309500002768","1","1","1","1","1","1","1","1","1"
"260066","img/object_images/origami01.jpg","img/object_images/trumpet01.jpg","img/object_images/bookmark01.jpg","1","1","1","1","0","0","0.910309500002768","0.723595900053624","0.622097000014037","1","1","1","1","1","1","1","1","1"
"260066","img/object_images/bookmark01.jpg","img/object_images/origami01.jpg","img/object_images/water_gun01.jpg","1","1","0","0","1","1","0.622097000014037","0.910309500002768",NA,"1","1","0","1","1","0","1","1","0"
"260066","img/object_images/water_gun01.jpg","img/object_images/bookmark01.jpg","img/object_images/nut_cracker01.jpg","0","1","1","1","0","1",NA,"0.622097000014037","0.766395199985709","0","1","1","0","1","1","0","1","1"
"260066","img/object_images/nut_cracker01.jpg","img/object_images/water_gun01.jpg","img/object_images/tennis_racket01.jpg","1","0","1","1","1","1","0.766395199985709",NA,"0.61245900002541","1","0","1","1","0","1","1","0","1"
"260066","img/object_images/tennis_racket01.jpg","img/object_images/nut_cracker01.jpg","img/object_images/piano03.jpg","1","1","1","1","1","0","0.61245900002541","0.766395199985709","0.631128399982117","1","1","1","1","1","1","1","1","1"
"260066","img/object_images/piano03.jpg","img/object_images/tennis_racket01.jpg","img/object_images/phone04.jpg","1","1","1","0","1","1","0.631128399982117","0.61245900002541","0.720664800028317","1","1","1","1","1","1","1","1","1"
"260066","img/object_images/phone04.jpg","img/object_images/piano03.jpg","img/object_images/yoga_mat01.jpg","1","1","1","1","0","0","0.720664800028317","0.631128399982117","0.795093399996404","1","1","1","1","1","1","1","1","1"
"260066","img/object_images/yoga_mat01.jpg","img/object_images/phone04.jpg","img/object_images/headset02.jpg","1","1","1","0","1","0","0.795093399996404","0.720664800028317","0.719359499984421","1","1","1","1","1","1","1","1","1"
"260066","img/object_images/headset02.jpg","img/object_images/yoga_mat01.jpg","img/object_images/fan01.jpg","1","1","1","0","0","0","0.719359499984421","0.795093399996404","0.733720699965488","1","1","1","1","1","1","1","1","1"
"260066","img/object_images/fan01.jpg","img/object_images/headset02.jpg","img/object_images/jewel02.jpg","1","1","0","0","0","0","0.733720699965488","0.719359499984421","0.945643200015184","1","1","1","1","1","1","1","1","1"
"260066","img/object_images/jewel02.jpg","img/object_images/fan01.jpg","img/object_images/badminton01.jpg","0","1","0","0","0","1","0.945643200015184","0.733720699965488","0.73596749996068","1","1","1","1","1","1","1","1","1"
"260066","img/object_images/badminton01.jpg","img/object_images/jewel02.jpg","img/object_images/Safe01.jpg","0","0","1","1","0","1","0.73596749996068","0.945643200015184","0.616695399978198","1","1","1","1","1","1","1","1","1"
"260066","img/object_images/Safe01.jpg","img/object_images/badminton01.jpg","img/object_images/frame01.jpg","1","0","1","1","1","1","0.616695399978198","0.73596749996068","0.638448299956508","1","1","1","1","1","1","1","1","1"
"260066","img/object_images/frame01.jpg","img/object_images/Safe01.jpg","img/object_images/usb03.jpg","1","1","1","1","1","0","0.638448299956508","0.616695399978198","0.579359300027136","1","1","1","1","1","1","1","1","1"
"260066","img/object_images/usb03.jpg","img/object_images/frame01.jpg","img/object_images/note_book02.jpg","1","1","1","0","1","0","0.579359300027136","0.638448299956508","0.650058300001547","1","1","1","1","1","1","1","1","1"
"260066","img/object_images/note_book02.jpg","img/object_images/usb03.jpg",NA,"1","1",NA,"0","0",NA,"0.650058300001547","0.579359300027136",NA,"1","1",NA,"1","1",NA,"1","1",NA
"260066","img/object_images/tool11.jpg",NA,"img/object_images/satellite01.jpg","1",NA,"1","1",NA,"0","0.861259099969175",NA,"0.775155100040138","1",NA,"1","1",NA,"1","1",NA,"1"
"260066","img/object_images/satellite01.jpg","img/object_images/tool11.jpg","img/object_images/shower_head03.jpg","1","1","1","0","1","1","0.775155100040138","0.861259099969175","0.612572300015017","1","1","1","1","1","1","1","1","1"
"260066","img/object_images/shower_head03.jpg","img/object_images/satellite01.jpg","img/object_images/tv01.jpg","1","1","1","1","0","0","0.612572300015017","0.775155100040138","0.681084299983922","1","1","1","1","1","1","1","1","1"
"260066","img/object_images/tv01.jpg","img/object_images/shower_head03.jpg","img/object_images/car03.jpg","1","1","1","0","1","0","0.681084299983922","0.612572300015017","0.742924200021662","1","1","1","1","1","1","1","1","1"
"260066","img/object_images/car03.jpg","img/object_images/tv01.jpg","img/object_images/ladle02.jpg","1","1","1","0","0","0","0.742924200021662","0.681084299983922","0.984285900020041","1","1","1","1","1","1","1","1","1"
"260066","img/object_images/ladle02.jpg","img/object_images/car03.jpg","img/object_images/WitchHat02.jpg","1","1","1","0","0","1","0.984285900020041","0.742924200021662","0.517386000021361","1","1","1","1","1","1","1","1","1"
"260066","img/object_images/WitchHat02.jpg","img/object_images/ladle02.jpg","img/object_images/binoculars03.jpg","1","1","1","1","0","1","0.517386000021361","0.984285900020041","0.648975800024346","1","1","1","1","1","1","1","1","1"
"260066","img/object_images/binoculars03.jpg","img/object_images/WitchHat02.jpg","img/object_images/cutting_board01.jpg","1","1","1","1","1","1","0.648975800024346","0.517386000021361","0.772754100034945","1","1","1","1","1","1","1","1","1"
"260066","img/object_images/cutting_board01.jpg","img/object_images/binoculars03.jpg","img/object_images/razor01.jpg","1","1","1","1","1","0","0.772754100034945","0.648975800024346","0.557487699959893","1","1","1","1","1","1","1","1","1"
"260066","img/object_images/razor01.jpg","img/object_images/cutting_board01.jpg","img/object_images/toaster02.jpg","1","1","1","0","1","1","0.557487699959893","0.772754100034945","0.595211100007873","1","1","1","1","1","1","1","1","1"
"260066","img/object_images/toaster02.jpg","img/object_images/razor01.jpg","img/object_images/yarn02.jpg","1","1","1","1","0","0","0.595211100007873","0.557487699959893","0.6735394000425","1","1","1","1","1","1","1","1","1"
"260066","img/object_images/yarn02.jpg","img/object_images/toaster02.jpg","img/object_images/jewelry07.jpg","1","1","1","0","1","1","0.6735394000425","0.595211100007873","0.720358500024304","1","1","1","1","1","1","1","1","1"
"260066","img/object_images/jewelry07.jpg","img/object_images/yarn02.jpg","img/object_images/car04.jpg","1","1","1","1","0","0","0.720358500024304","0.6735394000425","0.856803800037596","1","1","1","1","1","1","1","1","1"
"260066","img/object_images/car04.jpg","img/object_images/jewelry07.jpg","img/object_images/cards01.jpg","1","1","0","0","1","0","0.856803800037596","0.720358500024304","0.84570820000954","1","1","1","1","1","1","1","1","1"
"260066","img/object_images/cards01.jpg","img/object_images/car04.jpg","img/object_images/shoes10.jpg","0","1","1","0","0","0","0.84570820000954","0.856803800037596","0.950933400017675","1","1","1","1","1","1","1","1","1"
"260066","img/object_images/shoes10.jpg","img/object_images/cards01.jpg","img/object_images/lemon_squeezer02.jpg","1","0","1","0","0","1","0.950933400017675","0.84570820000954","0.786852499993984","1","1","1","1","1","1","1","1","1"
"260066","img/object_images/lemon_squeezer02.jpg","img/object_images/shoes10.jpg","img/object_images/jewel01.jpg","1","1","1","1","0","0","0.786852499993984","0.950933400017675","0.80628830002388","1","1","1","1","1","1","1","1","1"
"260066","img/object_images/jewel01.jpg","img/object_images/lemon_squeezer02.jpg","img/object_images/bag06.jpg","1","1","1","0","1","1","0.80628830002388","0.786852499993984","0.628333600005135","1","1","1","1","1","1","1","1","1"
"260066","img/object_images/bag06.jpg","img/object_images/jewel01.jpg","img/object_images/key02.jpg","1","1","1","1","0","1","0.628333600005135","0.80628830002388","0.584381499968003","1","1","1","1","1","1","1","1","1"
"260066","img/object_images/key02.jpg","img/object_images/bag06.jpg","img/object_images/belt01.jpg","1","1","1","1","1","0","0.584381499968003","0.628333600005135","0.823372700018808","1","1","1","1","1","1","1","1","1"
"260066","img/object_images/belt01.jpg","img/object_images/key02.jpg","img/object_images/screwdriver01.jpg","1","1","1","0","1","0","0.823372700018808","0.584381499968003","0.911405400023796","1","1","1","1","1","1","1","1","1"
"260066","img/object_images/screwdriver01.jpg","img/object_images/belt01.jpg","img/object_images/slinky_toy01.jpg","1","1","0","0","0","1","0.911405400023796","0.823372700018808",NA,"1","1","0","1","1","0","1","1","0"
"260066","img/object_images/slinky_toy01.jpg","img/object_images/screwdriver01.jpg","img/object_images/MeasuringCup01.jpg","0","1","1","1","0","1",NA,"0.911405400023796","0.77721280005062","0","1","1","0","1","1","0","1","1"
"260066","img/object_images/MeasuringCup01.jpg","img/object_images/slinky_toy01.jpg","img/object_images/chair04.jpg","1","0","1","1","1","1","0.77721280005062",NA,"0.640213600010611","1","0","1","1","0","1","1","0","1"
"260066","img/object_images/chair04.jpg","img/object_images/MeasuringCup01.jpg","img/object_images/rock03.jpg","1","1","1","1","1","0","0.640213600010611","0.77721280005062","0.771841999958269","1","1","1","1","1","1","1","1","1"
"260066","img/object_images/rock03.jpg","img/object_images/chair04.jpg","img/object_images/fan05.jpg","1","1","0","0","1","0","0.771841999958269","0.640213600010611",NA,"1","1","0","1","1","0","1","1","0"
"260066","img/object_images/fan05.jpg","img/object_images/rock03.jpg","img/object_images/ribbon01.jpg","0","1","1","0","0","0",NA,"0.771841999958269","0.77224279998336","0","1","1","0","1","1","0","1","1"
"260066","img/object_images/ribbon01.jpg","img/object_images/fan05.jpg","img/object_images/dress03.jpg","1","0","1","0","0","1","0.77224279998336",NA,"0.796143000014126","1","0","1","1","0","1","1","0","1"
"260066","img/object_images/dress03.jpg","img/object_images/ribbon01.jpg","img/object_images/ice_tray03.jpg","1","1","1","1","0","1","0.796143000014126","0.77224279998336","0.725658099981956","1","1","1","1","1","1","1","1","1"
"260066","img/object_images/ice_tray03.jpg","img/object_images/dress03.jpg","img/object_images/hair_brush05.jpg","1","1","1","1","1","1","0.725658099981956","0.796143000014126","0.661731000000145","1","1","1","1","1","1","1","1","1"
"260066","img/object_images/hair_brush05.jpg","img/object_images/ice_tray03.jpg","img/object_images/mask01.jpg","1","1","1","1","1","0","0.661731000000145","0.725658099981956","0.667226400051732","1","1","1","1","1","1","1","1","1"
"260066","img/object_images/mask01.jpg","img/object_images/hair_brush05.jpg",NA,"1","1",NA,"0","1",NA,"0.667226400051732","0.661731000000145",NA,"1","1",NA,"1","1",NA,"1","1",NA
"260066","img/object_images/lamp01.jpg",NA,"img/object_images/ball01.jpg","1",NA,"1","1",NA,"1","0.751015099987853",NA,"0.6518456999911","1",NA,"1","1",NA,"1","1",NA,"1"
"260066","img/object_images/ball01.jpg","img/object_images/lamp01.jpg","img/object_images/soap01.jpg","1","1","1","1","1","0","0.6518456999911","0.751015099987853","0.708442800038029","1","1","1","1","1","1","1","1","1"
"260066","img/object_images/soap01.jpg","img/object_images/ball01.jpg","img/object_images/helmet05.jpg","1","1","1","0","1","1","0.708442800038029","0.6518456999911","0.620744600018952","1","1","1","1","1","1","1","1","1"
"260066","img/object_images/helmet05.jpg","img/object_images/soap01.jpg","img/object_images/brief_case01.jpg","1","1","1","1","0","0","0.620744600018952","0.708442800038029","0.607064499985427","1","1","1","1","1","1","1","1","1"
"260066","img/object_images/brief_case01.jpg","img/object_images/helmet05.jpg","img/object_images/couch04.jpg","1","1","1","0","1","1","0.607064499985427","0.620744600018952","0.538530600024387","1","1","1","1","1","1","1","1","1"
"260066","img/object_images/couch04.jpg","img/object_images/brief_case01.jpg","img/object_images/video_game06.jpg","1","1","1","1","0","0","0.538530600024387","0.607064499985427","0.906449700007215","1","1","1","1","1","1","1","1","1"
"260066","img/object_images/video_game06.jpg","img/object_images/couch04.jpg","img/object_images/bottle12.jpg","1","1","1","0","1","1","0.906449700007215","0.538530600024387","0.870027000026312","1","1","1","1","1","1","1","1","1"
"260066","img/object_images/bottle12.jpg","img/object_images/video_game06.jpg","img/object_images/ironing_table02.jpg","1","1","1","1","0","0","0.870027000026312","0.906449700007215","0.584072600002401","1","1","1","1","1","1","1","1","1"
"260066","img/object_images/ironing_table02.jpg","img/object_images/bottle12.jpg","img/object_images/toy_train02.jpg","1","1","1","0","1","1","0.584072600002401","0.870027000026312","0.425358900043648","1","1","1","1","1","1","1","1","1"
"260066","img/object_images/toy_train02.jpg","img/object_images/ironing_table02.jpg","img/object_images/tie01.jpg","1","1","1","1","0","0","0.425358900043648","0.584072600002401","0.545981000002939","1","1","1","1","1","1","1","1","1"
"260066","img/object_images/tie01.jpg","img/object_images/toy_train02.jpg","img/object_images/Wisk01.jpg","1","1","1","0","1","1","0.545981000002939","0.425358900043648","0.649698599998374","1","1","1","1","1","1","1","1","1"
"260066","img/object_images/Wisk01.jpg","img/object_images/tie01.jpg","img/object_images/container01.jpg","1","1","1","1","0","0","0.649698599998374","0.545981000002939","0.560969100042712","1","1","1","1","1","1","1","1","1"
"260066","img/object_images/container01.jpg","img/object_images/Wisk01.jpg","img/object_images/guitar01.jpg","1","1","1","0","1","1","0.560969100042712","0.649698599998374","1.03433840000071","1","1","1","1","1","1","1","1","1"
"260066","img/object_images/guitar01.jpg","img/object_images/container01.jpg","img/object_images/Recycling01.jpg","1","1","1","1","0","1","1.03433840000071","0.560969100042712","0.64422120002564","1","1","1","1","1","1","1","1","1"
"260066","img/object_images/Recycling01.jpg","img/object_images/guitar01.jpg","img/object_images/basketball_hoop02.jpg","1","1","1","1","1","0","0.64422120002564","1.03433840000071","0.920527099980973","1","1","1","1","1","1","1","1","1"
"260066","img/object_images/basketball_hoop02.jpg","img/object_images/Recycling01.jpg","img/object_images/razor03.jpg","1","1","1","0","1","0","0.920527099980973","0.64422120002564","0.681475099991076","1","1","1","1","1","1","1","1","1"
"260066","img/object_images/razor03.jpg","img/object_images/basketball_hoop02.jpg","img/object_images/car02.jpg","1","1","1","0","0","0","0.681475099991076","0.920527099980973","0.917003599985037","1","1","1","1","1","1","1","1","1"
"260066","img/object_images/car02.jpg","img/object_images/razor03.jpg","img/object_images/decorative02.jpg","1","1","1","0","0","0","0.917003599985037","0.681475099991076","0.921320200024638","1","1","1","1","1","1","1","1","1"
"260066","img/object_images/decorative02.jpg","img/object_images/car02.jpg","img/object_images/Woopie01.jpg","1","1","1","0","0","1","0.921320200024638","0.917003599985037","0.612985400017351","1","1","1","1","1","1","1","1","1"
"260066","img/object_images/Woopie01.jpg","img/object_images/decorative02.jpg","img/object_images/lantern01.jpg","1","1","1","1","0","1","0.612985400017351","0.921320200024638","0.531596099957824","1","1","1","1","1","1","1","1","1"
"260066","img/object_images/lantern01.jpg","img/object_images/Woopie01.jpg","img/object_images/chair01.jpg","1","1","1","1","1","0","0.531596099957824","0.612985400017351","0.679833800008055","1","1","1","1","1","1","1","1","1"
"260066","img/object_images/chair01.jpg","img/object_images/lantern01.jpg","img/object_images/drone02.jpg","1","1","1","0","1","0","0.679833800008055","0.531596099957824","0.571804700011853","1","1","1","1","1","1","1","1","1"
"260066","img/object_images/drone02.jpg","img/object_images/chair01.jpg","img/object_images/broom01.jpg","1","1","1","0","0","1","0.571804700011853","0.679833800008055","0.621347000007518","1","1","1","1","1","1","1","1","1"
"260066","img/object_images/broom01.jpg","img/object_images/drone02.jpg","img/object_images/toilet_paper01.jpg","1","1","1","1","0","1","0.621347000007518","0.571804700011853","0.748726400022861","1","1","1","1","1","1","1","1","1"
"260066","img/object_images/toilet_paper01.jpg","img/object_images/broom01.jpg","img/object_images/gloves05.jpg","1","1","1","1","1","1","0.748726400022861","0.621347000007518","0.482846900005825","1","1","1","1","1","1","1","1","1"
"260066","img/object_images/gloves05.jpg","img/object_images/toilet_paper01.jpg","img/object_images/pot01.jpg","1","1","1","1","1","0","0.482846900005825","0.748726400022861","0.727566300018225","1","1","1","1","1","1","1","1","1"
"260066","img/object_images/pot01.jpg","img/object_images/gloves05.jpg","img/object_images/airfryer01.jpg","1","1","1","0","1","0","0.727566300018225","0.482846900005825","0.660733999975491","1","1","1","1","1","1","1","1","1"
"260066","img/object_images/airfryer01.jpg","img/object_images/pot01.jpg","img/object_images/pitcher03.jpg","1","1","1","0","0","1","0.660733999975491","0.727566300018225","0.520840200013481","1","1","1","1","1","1","1","1","1"
"260066","img/object_images/pitcher03.jpg","img/object_images/airfryer01.jpg","img/object_images/hat02.jpg","1","1","1","1","0","0","0.520840200013481","0.660733999975491","0.683901100012008","1","1","1","1","1","1","1","1","1"
"260066","img/object_images/hat02.jpg","img/object_images/pitcher03.jpg","img/object_images/cochlear_implant01.jpg","1","1","1","0","1","0","0.683901100012008","0.520840200013481","0.623525100003462","1","1","1","1","1","1","1","1","1"
"260066","img/object_images/cochlear_implant01.jpg","img/object_images/hat02.jpg","img/object_images/brief_case02.jpg","1","1","1","0","0","1","0.623525100003462","0.683901100012008","0.681121500034351","1","1","1","1","1","1","1","1","1"
"260066","img/object_images/brief_case02.jpg","img/object_images/cochlear_implant01.jpg",NA,"1","1",NA,"1","0",NA,"0.681121500034351","0.623525100003462",NA,"1","1",NA,"1","1",NA,"1","1",NA
"260066","img/object_images/piggy_bank01.jpg",NA,"img/object_images/coloring_pencil02.jpg","1",NA,"1","1",NA,"0","0.780313499970362",NA,"0.732694500009529","1",NA,"1","1",NA,"1","1",NA,"1"
"260066","img/object_images/coloring_pencil02.jpg","img/object_images/piggy_bank01.jpg","img/object_images/helmet04.jpg","1","1","1","0","1","1","0.732694500009529","0.780313499970362","0.574260699970182","1","1","1","1","1","1","1","1","1"
"260066","img/object_images/helmet04.jpg","img/object_images/coloring_pencil02.jpg","img/object_images/knit01.jpg","1","1","1","1","0","0","0.574260699970182","0.732694500009529","0.694655900006182","1","1","1","1","1","1","1","1","1"
"260066","img/object_images/knit01.jpg","img/object_images/helmet04.jpg","img/object_images/water_scooter01.jpg","1","1","1","0","1","1","0.694655900006182","0.574260699970182","0.52114620001521","1","1","1","1","1","1","1","1","1"
"260066","img/object_images/water_scooter01.jpg","img/object_images/knit01.jpg","img/object_images/tool19.jpg","1","1","1","1","0","1","0.52114620001521","0.694655900006182","0.647524400032125","1","1","1","1","1","1","1","1","1"
"260066","img/object_images/tool19.jpg","img/object_images/water_scooter01.jpg","img/object_images/bicycle01.jpg","1","1","1","1","1","1","0.647524400032125","0.52114620001521","0.697017600003164","1","1","1","1","1","1","1","1","1"
"260066","img/object_images/bicycle01.jpg","img/object_images/tool19.jpg","img/object_images/shoes07.jpg","1","1","1","1","1","0","0.697017600003164","0.647524400032125","0.633967800007667","1","1","1","1","1","1","1","1","1"
"260066","img/object_images/shoes07.jpg","img/object_images/bicycle01.jpg","img/object_images/camera_lens01.jpg","1","1","1","0","1","1","0.633967800007667","0.697017600003164","0.745006899989676","1","1","1","1","1","1","1","1","1"
"260066","img/object_images/camera_lens01.jpg","img/object_images/shoes07.jpg","img/object_images/cellphone03.jpg","1","1","0","1","0","0","0.745006899989676","0.633967800007667",NA,"1","1","0","1","1","0","1","1","0"
"260066","img/object_images/cellphone03.jpg","img/object_images/camera_lens01.jpg","img/object_images/pen05.jpg","0","1","1","0","1","0",NA,"0.745006899989676","0.79451550001977","0","1","1","0","1","1","0","1","1"
"260066","img/object_images/pen05.jpg","img/object_images/cellphone03.jpg","img/object_images/wagon_cart03.jpg","1","0","1","0","0","1","0.79451550001977",NA,"0.915050000010524","1","0","1","1","0","1","1","0","1"
"260066","img/object_images/wagon_cart03.jpg","img/object_images/pen05.jpg","img/object_images/perfume02.jpg","1","1","1","1","0","0","0.915050000010524","0.79451550001977","0.801776100008283","1","1","1","1","1","1","1","1","1"
"260066","img/object_images/perfume02.jpg","img/object_images/wagon_cart03.jpg","img/object_images/boat02.jpg","1","1","1","0","1","1","0.801776100008283","0.915050000010524","0.700321700016502","1","1","1","1","1","1","1","1","1"
"260066","img/object_images/boat02.jpg","img/object_images/perfume02.jpg","img/object_images/fan02.jpg","1","1","1","1","0","0","0.700321700016502","0.801776100008283","0.723663400043733","1","1","1","1","1","1","1","1","1"
"260066","img/object_images/fan02.jpg","img/object_images/boat02.jpg","img/object_images/toaster01.jpg","1","1","1","0","1","1","0.723663400043733","0.700321700016502","0.929583899967838","1","1","1","1","1","1","1","1","1"
"260066","img/object_images/toaster01.jpg","img/object_images/fan02.jpg","img/object_images/purse04.jpg","1","1","1","1","0","1","0.929583899967838","0.723663400043733","0.543324400030542","1","1","1","1","1","1","1","1","1"
"260066","img/object_images/purse04.jpg","img/object_images/toaster01.jpg","img/object_images/toilet_paper_dispenser01.jpg","1","1","1","1","1","1","0.543324400030542","0.929583899967838","0.68622149998555","1","1","1","1","1","1","1","1","1"
"260066","img/object_images/toilet_paper_dispenser01.jpg","img/object_images/purse04.jpg","img/object_images/hat06.jpg","1","1","1","1","1","0","0.68622149998555","0.543324400030542","0.731185099983122","1","1","1","1","1","1","1","1","1"
"260066","img/object_images/hat06.jpg","img/object_images/toilet_paper_dispenser01.jpg","img/object_images/boat_toy10.jpg","1","1","1","0","1","0","0.731185099983122","0.68622149998555","0.756798299960792","1","1","1","1","1","1","1","1","1"
"260066","img/object_images/boat_toy10.jpg","img/object_images/hat06.jpg","img/object_images/flask01.jpg","1","1","1","0","0","0","0.756798299960792","0.731185099983122","0.728086000017356","1","1","1","1","1","1","1","1","1"
"260066","img/object_images/flask01.jpg","img/object_images/boat_toy10.jpg","img/object_images/tie02.jpg","1","1","1","0","0","0","0.728086000017356","0.756798299960792","0.598119999980554","1","1","1","1","1","1","1","1","1"
"260066","img/object_images/tie02.jpg","img/object_images/flask01.jpg","img/object_images/chair03.jpg","1","1","1","0","0","0","0.598119999980554","0.728086000017356","1.29870530002518","1","1","1","1","1","1","1","1","1"
"260066","img/object_images/chair03.jpg","img/object_images/tie02.jpg","img/object_images/WoodBox01.jpg","1","1","1","0","0","0","1.29870530002518","0.598119999980554","0.666664200020023","1","1","1","1","1","1","1","1","1"
"260066","img/object_images/WoodBox01.jpg","img/object_images/chair03.jpg","img/object_images/bottle09.jpg","1","1","1","0","0","0","0.666664200020023","1.29870530002518","0.809893700003158","1","1","1","1","1","1","1","1","1"
"260066","img/object_images/bottle09.jpg","img/object_images/WoodBox01.jpg","img/object_images/hot_air_balloon02.jpg","1","1","1","0","0","0","0.809893700003158","0.666664200020023","0.947904900007416","1","1","1","1","1","1","1","1","1"
"260066","img/object_images/hot_air_balloon02.jpg","img/object_images/bottle09.jpg","img/object_images/bean_bag02.jpg","1","1","1","0","0","1","0.947904900007416","0.809893700003158","0.537060900009237","1","1","1","1","1","1","1","1","1"
"260066","img/object_images/bean_bag02.jpg","img/object_images/hot_air_balloon02.jpg","img/object_images/bottle10.jpg","1","1","1","1","0","1","0.537060900009237","0.947904900007416","0.55400910001481","1","1","1","1","1","1","1","1","1"
"260066","img/object_images/bottle10.jpg","img/object_images/bean_bag02.jpg","img/object_images/dog_leash01.jpg","1","1","1","1","1","0","0.55400910001481","0.537060900009237","0.867222699976992","1","1","1","1","1","1","1","1","1"
"260066","img/object_images/dog_leash01.jpg","img/object_images/bottle10.jpg","img/object_images/bottle02.jpg","1","1","1","0","1","1","0.867222699976992","0.55400910001481","0.631528300000355","1","1","1","1","1","1","1","1","1"
"260066","img/object_images/bottle02.jpg","img/object_images/dog_leash01.jpg","img/object_images/scoreboard01.jpg","1","1","1","1","0","1","0.631528300000355","0.867222699976992","0.587472499988507","1","1","1","1","1","1","1","1","1"
"260066","img/object_images/scoreboard01.jpg","img/object_images/bottle02.jpg","img/object_images/audio_port01.jpg","1","1","1","1","1","1","0.587472499988507","0.631528300000355","0.843470799969509","1","1","1","1","1","1","1","1","1"
"260066","img/object_images/audio_port01.jpg","img/object_images/scoreboard01.jpg",NA,"1","1",NA,"1","1",NA,"0.843470799969509","0.587472499988507",NA,"1","1",NA,"1","1",NA,"1","1",NA
"260066","img/object_images/crutches02.jpg",NA,"img/object_images/paint_brush04.jpg","1",NA,"1","0",NA,"0","0.660800400015432",NA,"0.579374300024938","1",NA,"1","1",NA,"1","1",NA,"1"
"260066","img/object_images/paint_brush04.jpg","img/object_images/crutches02.jpg","img/object_images/chess_piece02.jpg","1","1","1","0","0","1","0.579374300024938","0.660800400015432","0.554403199988883","1","1","1","1","1","1","1","1","1"
"260066","img/object_images/chess_piece02.jpg","img/object_images/paint_brush04.jpg","img/object_images/tv02.jpg","1","1","1","1","0","0","0.554403199988883","0.579374300024938","0.43326189997606","1","1","1","1","1","1","1","1","1"
"260066","img/object_images/tv02.jpg","img/object_images/chess_piece02.jpg","img/object_images/wire02.jpg","1","1","1","0","1","1","0.43326189997606","0.554403199988883","0.620117399957962","1","1","1","1","1","1","1","1","1"
"260066","img/object_images/wire02.jpg","img/object_images/tv02.jpg","img/object_images/hammer03.jpg","1","1","1","1","0","1","0.620117399957962","0.43326189997606","0.540321499982383","1","1","1","1","1","1","1","1","1"
"260066","img/object_images/hammer03.jpg","img/object_images/wire02.jpg","img/object_images/knife04.jpg","1","1","1","1","1","1","0.540321499982383","0.620117399957962","0.409604399988893","1","1","1","1","1","1","1","1","1"
"260066","img/object_images/knife04.jpg","img/object_images/hammer03.jpg","img/object_images/note_book01.jpg","1","1","1","1","1","0","0.409604399988893","0.540321499982383","0.699798100045882","1","1","1","1","1","1","1","1","1"
"260066","img/object_images/note_book01.jpg","img/object_images/knife04.jpg","img/object_images/tennis_racket02.jpg","1","1","1","0","1","1","0.699798100045882","0.409604399988893","0.528043000027537","1","1","1","1","1","1","1","1","1"
"260066","img/object_images/tennis_racket02.jpg","img/object_images/note_book01.jpg","img/object_images/ear_bud01.jpg","1","1","1","1","0","1","0.528043000027537","0.699798100045882","0.675228700041771","1","1","1","1","1","1","1","1","1"
"260066","img/object_images/ear_bud01.jpg","img/object_images/tennis_racket02.jpg","img/object_images/Staples01.jpg","1","1","1","1","1","1","0.675228700041771","0.528043000027537","0.546681799984071","1","1","1","1","1","1","1","1","1"
"260066","img/object_images/Staples01.jpg","img/object_images/ear_bud01.jpg","img/object_images/pitcher01.jpg","1","1","1","1","1","0","0.546681799984071","0.675228700041771","0.584331899997778","1","1","1","1","1","1","1","1","1"
"260066","img/object_images/pitcher01.jpg","img/object_images/Staples01.jpg","img/object_images/Oven01.jpg","1","1","1","0","1","1","0.584331899997778","0.546681799984071","0.621314999996684","1","1","1","1","1","1","1","1","1"
"260066","img/object_images/Oven01.jpg","img/object_images/pitcher01.jpg","img/object_images/pen03.jpg","1","1","1","1","0","0","0.621314999996684","0.584331899997778","0.537840700009838","1","1","1","1","1","1","1","1","1"
"260066","img/object_images/pen03.jpg","img/object_images/Oven01.jpg","img/object_images/lid01.jpg","1","1","1","0","1","1","0.537840700009838","0.621314999996684","0.586225800041575","1","1","1","1","1","1","1","1","1"
"260066","img/object_images/lid01.jpg","img/object_images/pen03.jpg","img/object_images/compass01.jpg","1","1","1","1","0","1","0.586225800041575","0.537840700009838","0.710363999998663","1","1","1","1","1","1","1","1","1"
"260066","img/object_images/compass01.jpg","img/object_images/lid01.jpg","img/object_images/chair05.jpg","1","1","1","1","1","0","0.710363999998663","0.586225800041575","0.830367400019895","1","1","1","1","1","1","1","1","1"
"260066","img/object_images/chair05.jpg","img/object_images/compass01.jpg","img/object_images/bell02.jpg","1","1","0","0","1","0","0.830367400019895","0.710363999998663","0.537714700039942","1","1","1","1","1","1","1","1","1"
"260066","img/object_images/bell02.jpg","img/object_images/chair05.jpg","img/object_images/clip03.jpg","0","1","1","0","0","0","0.537714700039942","0.830367400019895","0.757210900017526","1","1","1","1","1","1","1","1","1"
"260066","img/object_images/clip03.jpg","img/object_images/bell02.jpg","img/object_images/floppy_disk02.jpg","1","0","1","0","0","0","0.757210900017526","0.537714700039942","0.675016399996821","1","1","1","1","1","1","1","1","1"
"260066","img/object_images/floppy_disk02.jpg","img/object_images/clip03.jpg","img/object_images/retainer01.jpg","1","1","1","0","0","0","0.675016399996821","0.757210900017526","0.582861300033983","1","1","1","1","1","1","1","1","1"
"260066","img/object_images/retainer01.jpg","img/object_images/floppy_disk02.jpg","img/object_images/knit05.jpg","1","1","1","0","0","1","0.582861300033983","0.675016399996821","0.611232900002506","1","1","1","1","1","1","1","1","1"
"260066","img/object_images/knit05.jpg","img/object_images/retainer01.jpg","img/object_images/book03.jpg","1","1","1","1","0","1","0.611232900002506","0.582861300033983","0.572144800040405","1","1","1","1","1","1","1","1","1"
"260066","img/object_images/book03.jpg","img/object_images/knit05.jpg","img/object_images/usb02.jpg","1","1","1","1","1","0","0.572144800040405","0.611232900002506","0.783089000033215","1","1","1","1","1","1","1","1","1"
"260066","img/object_images/usb02.jpg","img/object_images/book03.jpg","img/object_images/motorcycle01.jpg","1","1","1","0","1","1","0.783089000033215","0.572144800040405","0.712639799981844","1","1","1","1","1","1","1","1","1"
"260066","img/object_images/motorcycle01.jpg","img/object_images/usb02.jpg","img/object_images/cellphone01.jpg","1","1","1","1","0","1","0.712639799981844","0.783089000033215","0.619738100038376","1","1","1","1","1","1","1","1","1"
"260066","img/object_images/cellphone01.jpg","img/object_images/motorcycle01.jpg","img/object_images/pillows01.jpg","1","1","1","1","1","1","0.619738100038376","0.712639799981844","0.476714299991727","1","1","1","1","1","1","1","1","1"
"260066","img/object_images/pillows01.jpg","img/object_images/cellphone01.jpg","img/object_images/microscope01.jpg","1","1","1","1","1","0","0.476714299991727","0.619738100038376","0.52101029996993","1","1","1","1","1","1","1","1","1"
"260066","img/object_images/microscope01.jpg","img/object_images/pillows01.jpg","img/object_images/floppy_disk03.jpg","1","1","1","0","1","1","0.52101029996993","0.476714299991727","0.530720499984454","1","1","1","1","1","1","1","1","1"
"260066","img/object_images/floppy_disk03.jpg","img/object_images/microscope01.jpg","img/object_images/Thermometer01.jpg","1","1","1","1","0","0","0.530720499984454","0.52101029996993","0.68433980003465","1","1","1","1","1","1","1","1","1"
"260066","img/object_images/Thermometer01.jpg","img/object_images/floppy_disk03.jpg","img/object_images/bottle01.jpg","1","1","1","0","1","0","0.68433980003465","0.530720499984454","0.673434700001962","1","1","1","1","1","1","1","1","1"
"260066","img/object_images/bottle01.jpg","img/object_images/Thermometer01.jpg","img/object_images/clock02.jpg","1","1","1","0","0","0","0.673434700001962","0.68433980003465","0.492145599971991","1","1","1","1","1","1","1","1","1"
"260066","img/object_images/clock02.jpg","img/object_images/bottle01.jpg",NA,"1","1",NA,"0","0",NA,"0.492145599971991","0.673434700001962",NA,"1","1",NA,"1","1",NA,"1","1",NA
"260066","img/object_images/basket02.jpg",NA,"img/object_images/book01.jpg","1",NA,"1","0",NA,"1","0.638931400026195",NA,"0.52510099997744","1",NA,"1","1",NA,"1","1",NA,"1"
"260066","img/object_images/book01.jpg","img/object_images/basket02.jpg","img/object_images/speaker01.jpg","1","1","1","1","0","1","0.52510099997744","0.638931400026195","0.529268299986143","1","1","1","1","1","1","1","1","1"
"260066","img/object_images/speaker01.jpg","img/object_images/book01.jpg","img/object_images/purse01.jpg","1","1","1","1","1","1","0.529268299986143","0.52510099997744","0.569337800028734","1","1","1","1","1","1","1","1","1"
"260066","img/object_images/purse01.jpg","img/object_images/speaker01.jpg","img/object_images/Sprayer01.jpg","1","1","1","1","1","0","0.569337800028734","0.529268299986143","0.634026799991261","1","1","1","1","1","1","1","1","1"
"260066","img/object_images/Sprayer01.jpg","img/object_images/purse01.jpg","img/object_images/tool07.jpg","1","1","1","0","1","0","0.634026799991261","0.569337800028734","0.5388893999625","1","1","1","1","1","1","1","1","1"
"260066","img/object_images/tool07.jpg","img/object_images/Sprayer01.jpg","img/object_images/TrashCan02.jpg","1","1","1","0","0","1","0.5388893999625","0.634026799991261","0.583639499964193","1","1","1","1","1","1","1","1","1"
"260066","img/object_images/TrashCan02.jpg","img/object_images/tool07.jpg","img/object_images/lighter01.jpg","1","1","1","1","0","1","0.583639499964193","0.5388893999625","0.536877000005916","1","1","1","1","1","1","1","1","1"
"260066","img/object_images/lighter01.jpg","img/object_images/TrashCan02.jpg","img/object_images/jewelry09.jpg","1","1","1","1","1","1","0.536877000005916","0.583639499964193","0.543375100009143","1","1","1","1","1","1","1","1","1"
"260066","img/object_images/jewelry09.jpg","img/object_images/lighter01.jpg","img/object_images/colander01.jpg","1","1","1","1","1","0","0.543375100009143","0.536877000005916","0.512765699997544","1","1","1","1","1","1","1","1","1"
"260066","img/object_images/colander01.jpg","img/object_images/jewelry09.jpg","img/object_images/Traffic Sign 01.jpg","1","1","1","0","1","0","0.512765699997544","0.543375100009143","0.576642900006846","1","1","1","1","1","1","1","1","1"
"260066","img/object_images/Traffic Sign 01.jpg","img/object_images/colander01.jpg","img/object_images/tray01.jpg","1","1","1","0","0","1","0.576642900006846","0.512765699997544","0.628541100013535","1","1","1","1","1","1","1","1","1"
"260066","img/object_images/tray01.jpg","img/object_images/Traffic Sign 01.jpg","img/object_images/cup03.jpg","1","1","1","1","0","1","0.628541100013535","0.576642900006846","0.530644799990114","1","1","1","1","1","1","1","1","1"
"260066","img/object_images/cup03.jpg","img/object_images/tray01.jpg","img/object_images/ring03.jpg","1","1","1","1","1","1","0.530644799990114","0.628541100013535","0.575261000019964","1","1","1","1","1","1","1","1","1"
"260066","img/object_images/ring03.jpg","img/object_images/cup03.jpg","img/object_images/hole_puncher01.jpg","1","1","1","1","1","1","0.575261000019964","0.530644799990114","0.41726810002001","1","1","1","1","1","1","1","1","1"
"260066","img/object_images/hole_puncher01.jpg","img/object_images/ring03.jpg","img/object_images/Kitchen_Towel.jpg","1","1","1","1","1","0","0.41726810002001","0.575261000019964","0.708032900001854","1","1","1","1","1","1","1","1","1"
"260066","img/object_images/Kitchen_Towel.jpg","img/object_images/hole_puncher01.jpg","img/object_images/handcuffs01.jpg","1","1","1","0","1","0","0.708032900001854","0.41726810002001","0.61875120003242","1","1","1","1","1","1","1","1","1"
"260066","img/object_images/handcuffs01.jpg","img/object_images/Kitchen_Towel.jpg","img/object_images/gift_box04.jpg","1","1","1","0","0","0","0.61875120003242","0.708032900001854","0.608458400005475","1","1","1","1","1","1","1","1","1"
"260066","img/object_images/gift_box04.jpg","img/object_images/handcuffs01.jpg","img/object_images/fire_extinguisher01.jpg","1","1","1","0","0","0","0.608458400005475","0.61875120003242","0.744132599967998","1","1","1","1","1","1","1","1","1"
"260066","img/object_images/fire_extinguisher01.jpg","img/object_images/gift_box04.jpg","img/object_images/bicycle_lock01.jpg","1","1","1","0","0","0","0.744132599967998","0.608458400005475","0.550571899977513","1","1","1","1","1","1","1","1","1"
"260066","img/object_images/bicycle_lock01.jpg","img/object_images/fire_extinguisher01.jpg","img/object_images/cellphone02.jpg","1","1","1","0","0","1","0.550571899977513","0.744132599967998","0.417981399979908","1","1","1","1","1","1","1","1","1"
"260066","img/object_images/cellphone02.jpg","img/object_images/bicycle_lock01.jpg","img/object_images/glasses07.jpg","1","1","1","1","0","1","0.417981399979908","0.550571899977513","0.603349199984223","1","1","1","1","1","1","1","1","1"
"260066","img/object_images/glasses07.jpg","img/object_images/cellphone02.jpg","img/object_images/Pottery01.jpg","1","1","1","1","1","0","0.603349199984223","0.417981399979908","0.797600799996872","1","1","1","1","1","1","1","1","1"
"260066","img/object_images/Pottery01.jpg","img/object_images/glasses07.jpg","img/object_images/pan01.jpg","1","1","1","0","1","1","0.797600799996872","0.603349199984223","0.621335999981966","1","1","1","1","1","1","1","1","1"
"260066","img/object_images/pan01.jpg","img/object_images/Pottery01.jpg","img/object_images/faucet01.jpg","1","1","1","1","0","0","0.621335999981966","0.797600799996872","0.579544099979103","1","1","1","1","1","1","1","1","1"
"260066","img/object_images/faucet01.jpg","img/object_images/pan01.jpg","img/object_images/hair_clips01.jpg","1","1","1","0","1","1","0.579544099979103","0.621335999981966","0.787419500004034","1","1","1","1","1","1","1","1","1"
"260066","img/object_images/hair_clips01.jpg","img/object_images/faucet01.jpg","img/object_images/yo_yo01.jpg","1","1","1","1","0","0","0.787419500004034","0.579544099979103","0.941844800021499","1","1","1","1","1","1","1","1","1"
"260066","img/object_images/yo_yo01.jpg","img/object_images/hair_clips01.jpg","img/object_images/projector01.jpg","1","1","1","0","1","0","0.941844800021499","0.787419500004034","0.638496300030965","1","1","1","1","1","1","1","1","1"
"260066","img/object_images/projector01.jpg","img/object_images/yo_yo01.jpg","img/object_images/tool08.jpg","1","1","1","0","0","0","0.638496300030965","0.941844800021499","0.920284099993296","1","1","1","1","1","1","1","1","1"
"260066","img/object_images/tool08.jpg","img/object_images/projector01.jpg","img/object_images/glasses06.jpg","1","1","1","0","0","1","0.920284099993296","0.638496300030965","0.838279999967199","1","1","1","1","1","1","1","1","1"
"260066","img/object_images/glasses06.jpg","img/object_images/tool08.jpg","img/object_images/blanket01.jpg","1","1","1","1","0","1","0.838279999967199","0.920284099993296","0.628592399996705","1","1","1","1","1","1","1","1","1"
"260066","img/object_images/blanket01.jpg","img/object_images/glasses06.jpg","img/object_images/exfoliater_brush01.jpg","1","1","1","1","1","0","0.628592399996705","0.838279999967199","0.569402100052685","1","1","1","1","1","1","1","1","1"
"260066","img/object_images/exfoliater_brush01.jpg","img/object_images/blanket01.jpg",NA,"1","1",NA,"0","1",NA,"0.569402100052685","0.628592399996705",NA,"1","1",NA,"1","1",NA,"1","1",NA
"260066","img/object_images/toy03.jpg",NA,"img/object_images/outlet01.jpg","1",NA,"1","1",NA,"0","0.75429820001591",NA,"0.571845900034532","1",NA,"1","1",NA,"1","1",NA,"1"
"260066","img/object_images/outlet01.jpg","img/object_images/toy03.jpg","img/object_images/watch01.jpg","1","1","1","0","1","0","0.571845900034532","0.75429820001591","0.750258999993093","1","1","1","1","1","1","1","1","1"
"260066","img/object_images/watch01.jpg","img/object_images/outlet01.jpg","img/object_images/Ring02.jpg","1","1","1","0","0","0","0.750258999993093","0.571845900034532","0.92752109997673","1","1","1","1","1","1","1","1","1"
"260066","img/object_images/Ring02.jpg","img/object_images/watch01.jpg","img/object_images/Stool01.jpg","1","1","1","0","0","0","0.92752109997673","0.750258999993093","0.670770900032949","1","1","1","1","1","1","1","1","1"
"260066","img/object_images/Stool01.jpg","img/object_images/Ring02.jpg","img/object_images/video_game07.jpg","1","1","1","0","0","1","0.670770900032949","0.92752109997673","0.48549869999988","1","1","1","1","1","1","1","1","1"
"260066","img/object_images/video_game07.jpg","img/object_images/Stool01.jpg","img/object_images/Tin01.jpg","1","1","1","1","0","1","0.48549869999988","0.670770900032949","0.54852850001771","1","1","1","1","1","1","1","1","1"
"260066","img/object_images/Tin01.jpg","img/object_images/video_game07.jpg","img/object_images/frisbee01.jpg","1","1","1","1","1","1","0.54852850001771","0.48549869999988","0.604025700013153","1","1","1","1","1","1","1","1","1"
"260066","img/object_images/frisbee01.jpg","img/object_images/Tin01.jpg","img/object_images/bird_house02.jpg","1","1","1","1","1","1","0.604025700013153","0.54852850001771","0.943210700002965","1","1","1","1","1","1","1","1","1"
"260066","img/object_images/bird_house02.jpg","img/object_images/frisbee01.jpg","img/object_images/dart01.jpg","1","1","1","1","1","0","0.943210700002965","0.604025700013153","0.709618000022601","1","1","1","1","1","1","1","1","1"
"260066","img/object_images/dart01.jpg","img/object_images/bird_house02.jpg","img/object_images/helmet01.jpg","1","1","1","0","1","0","0.709618000022601","0.943210700002965","0.932890600059182","1","1","1","1","1","1","1","1","1"
"260066","img/object_images/helmet01.jpg","img/object_images/dart01.jpg","img/object_images/toy04.jpg","1","1","1","0","0","0","0.932890600059182","0.709618000022601","0.814574700023513","1","1","1","1","1","1","1","1","1"
"260066","img/object_images/toy04.jpg","img/object_images/helmet01.jpg","img/object_images/towel02.jpg","1","1","1","0","0","1","0.814574700023513","0.932890600059182","0.500903700012714","1","1","1","1","1","1","1","1","1"
"260066","img/object_images/towel02.jpg","img/object_images/toy04.jpg","img/object_images/fridge03.jpg","1","1","1","1","0","0","0.500903700012714","0.814574700023513","0.5933852000162","1","1","1","1","1","1","1","1","1"
"260066","img/object_images/fridge03.jpg","img/object_images/towel02.jpg","img/object_images/bow01.jpg","1","1","1","0","1","1","0.5933852000162","0.500903700012714","0.528902899997775","1","1","1","1","1","1","1","1","1"
"260066","img/object_images/bow01.jpg","img/object_images/fridge03.jpg","img/object_images/acoustic_capo01.jpg","1","1","1","1","0","1","0.528902899997775","0.5933852000162","0.58574419998331","1","1","1","1","1","1","1","1","1"
"260066","img/object_images/acoustic_capo01.jpg","img/object_images/bow01.jpg","img/object_images/pot01 (1).jpg","1","1","1","1","1","0","0.58574419998331","0.528902899997775","0.609857100003865","1","1","1","1","1","1","1","1","1"
"260066","img/object_images/pot01 (1).jpg","img/object_images/acoustic_capo01.jpg","img/object_images/guitar02.jpg","1","1","1","0","1","0","0.609857100003865","0.58574419998331","0.554555700044148","1","1","1","1","1","1","1","1","1"
"260066","img/object_images/guitar02.jpg","img/object_images/pot01 (1).jpg","img/object_images/MetalWire01.jpg","1","1","1","0","0","0","0.554555700044148","0.609857100003865","0.747684800007846","1","1","1","1","1","1","1","1","1"
"260066","img/object_images/MetalWire01.jpg","img/object_images/guitar02.jpg","img/object_images/judge_gavel01.jpg","1","1","1","0","0","1","0.747684800007846","0.554555700044148","0.447784399962984","1","1","1","1","1","1","1","1","1"
"260066","img/object_images/judge_gavel01.jpg","img/object_images/MetalWire01.jpg","img/object_images/tool02.jpg","1","1","1","1","0","1","0.447784399962984","0.747684800007846","0.485898799961433","1","1","1","1","1","1","1","1","1"
"260066","img/object_images/tool02.jpg","img/object_images/judge_gavel01.jpg","img/object_images/bottle05.jpg","1","1","1","1","1","0","0.485898799961433","0.447784399962984","0.679276900016703","1","1","1","1","1","1","1","1","1"
"260066","img/object_images/bottle05.jpg","img/object_images/tool02.jpg","img/object_images/jewel04.jpg","1","1","1","0","1","0","0.679276900016703","0.485898799961433","0.46446540002944","1","1","1","1","1","1","1","1","1"
"260066","img/object_images/jewel04.jpg","img/object_images/bottle05.jpg","img/object_images/crown02.jpg","1","1","1","0","0","1","0.46446540002944","0.679276900016703","0.566328399989288","1","1","1","1","1","1","1","1","1"
"260066","img/object_images/crown02.jpg","img/object_images/jewel04.jpg","img/object_images/Vacuum01.jpg","1","1","1","1","0","0","0.566328399989288","0.46446540002944","0.648815000022296","1","1","1","1","1","1","1","1","1"
"260066","img/object_images/Vacuum01.jpg","img/object_images/crown02.jpg","img/object_images/mirror01.jpg","1","1","1","0","1","1","0.648815000022296","0.566328399989288","0.879554699989967","1","1","1","1","1","1","1","1","1"
"260066","img/object_images/mirror01.jpg","img/object_images/Vacuum01.jpg","img/object_images/sink01.jpg","1","1","1","1","0","0","0.879554699989967","0.648815000022296","0.697459000046365","1","1","1","1","1","1","1","1","1"
"260066","img/object_images/sink01.jpg","img/object_images/mirror01.jpg","img/object_images/ornament01.jpg","1","1","1","0","1","1","0.697459000046365","0.879554699989967","0.58460980001837","1","1","1","1","1","1","1","1","1"
"260066","img/object_images/ornament01.jpg","img/object_images/sink01.jpg","img/object_images/gauze01.jpg","1","1","1","1","0","0","0.58460980001837","0.697459000046365","0.889710900024511","1","1","1","1","1","1","1","1","1"
"260066","img/object_images/gauze01.jpg","img/object_images/ornament01.jpg","img/object_images/shovel03.jpg","1","1","1","0","1","1","0.889710900024511","0.58460980001837","0.664317500020843","1","1","1","1","1","1","1","1","1"
"260066","img/object_images/shovel03.jpg","img/object_images/gauze01.jpg","img/object_images/stapler.jpg","1","1","1","1","0","1","0.664317500020843","0.889710900024511","0.546743000042625","1","1","1","1","1","1","1","1","1"
"260066","img/object_images/stapler.jpg","img/object_images/shovel03.jpg","img/object_images/tool09.jpg","1","1","1","1","1","1","0.546743000042625","0.664317500020843","0.729260199994314","1","1","1","1","1","1","1","1","1"
"260066","img/object_images/tool09.jpg","img/object_images/stapler.jpg",NA,"1","1",NA,"1","1",NA,"0.729260199994314","0.546743000042625",NA,"1","1",NA,"1","1",NA,"1","1",NA
