"participant_id","current_trial_object","pre_trial_object","post_trial_object","current_trial_accuracy","pre_trial_accuracy","post_trial_accuracy","current_trial_congruency","pre_trial_congruency","post_trial_congruency","current_trial_rt","pre_trial_rt","post_trial_rt","current_trial_responded","pre_trial_responded","post_trial_responded","current_trial_legitResponse","pre_trial_legitResponse","post_trial_legitResponse","current_trial_resp_nums","pre_trial_resp_nums","post_trial_resp_nums"
"260065","img/object_images/cochlear_implant01.jpg",NA,"img/object_images/tie01.jpg","0",NA,"0","0",NA,"0","0.86289029999898",NA,"0.81380309999804","1",NA,"1","1",NA,"1","1",NA,"1"
"260065","img/object_images/tie01.jpg","img/object_images/cochlear_implant01.jpg","img/object_images/guitar01.jpg","0","0","1","0","0","1","0.81380309999804","0.86289029999898","0.598166099996888","1","1","1","1","1","1","1","1","1"
"260065","img/object_images/guitar01.jpg","img/object_images/tie01.jpg","img/object_images/brief_case01.jpg","1","0","1","1","0","0","0.598166099996888","0.81380309999804","0.634457100000873","1","1","1","1","1","1","1","1","1"
"260065","img/object_images/brief_case01.jpg","img/object_images/guitar01.jpg","img/object_images/pitcher03.jpg","1","1","1","0","1","1","0.634457100000873","0.598166099996888","0.472834999993211","1","1","1","1","1","1","1","1","1"
"260065","img/object_images/pitcher03.jpg","img/object_images/brief_case01.jpg","img/object_images/Woopie01.jpg","1","1","1","1","0","1","0.472834999993211","0.634457100000873","0.453478899995389","1","1","1","1","1","1","1","1","1"
"260065","img/object_images/Woopie01.jpg","img/object_images/pitcher03.jpg","img/object_images/ironing_table02.jpg","1","1","1","1","1","0","0.453478899995389","0.472834999993211","0.626925500000652","1","1","1","1","1","1","1","1","1"
"260065","img/object_images/ironing_table02.jpg","img/object_images/Woopie01.jpg","img/object_images/lantern01.jpg","1","1","1","0","1","1","0.626925500000652","0.453478899995389","0.389815399998042","1","1","1","1","1","1","1","1","1"
"260065","img/object_images/lantern01.jpg","img/object_images/ironing_table02.jpg","img/object_images/decorative02.jpg","1","1","1","1","0","0","0.389815399998042","0.626925500000652","0.505358099995647","1","1","1","1","1","1","1","1","1"
"260065","img/object_images/decorative02.jpg","img/object_images/lantern01.jpg","img/object_images/toy_train02.jpg","1","1","1","0","1","1","0.505358099995647","0.389815399998042","0.402503800003615","1","1","1","1","1","1","1","1","1"
"260065","img/object_images/toy_train02.jpg","img/object_images/decorative02.jpg","img/object_images/ball01.jpg","1","1","1","1","0","1","0.402503800003615","0.505358099995647","0.612254200001189","1","1","1","1","1","1","1","1","1"
"260065","img/object_images/ball01.jpg","img/object_images/toy_train02.jpg","img/object_images/helmet05.jpg","1","1","1","1","1","1","0.612254200001189","0.402503800003615","0.405441399998381","1","1","1","1","1","1","1","1","1"
"260065","img/object_images/helmet05.jpg","img/object_images/ball01.jpg","img/object_images/airfryer01.jpg","1","1","1","1","1","0","0.405441399998381","0.612254200001189","0.512209699998493","1","1","1","1","1","1","1","1","1"
"260065","img/object_images/airfryer01.jpg","img/object_images/helmet05.jpg","img/object_images/Recycling01.jpg","1","1","1","0","1","1","0.512209699998493","0.405441399998381","0.455705699998362","1","1","1","1","1","1","1","1","1"
"260065","img/object_images/Recycling01.jpg","img/object_images/airfryer01.jpg","img/object_images/chair01.jpg","1","1","1","1","0","0","0.455705699998362","0.512209699998493","0.467004900005122","1","1","1","1","1","1","1","1","1"
"260065","img/object_images/chair01.jpg","img/object_images/Recycling01.jpg","img/object_images/pot01.jpg","1","1","0","0","1","0","0.467004900005122","0.455705699998362","0.488256600001478","1","1","1","1","1","1","1","1","1"
"260065","img/object_images/pot01.jpg","img/object_images/chair01.jpg","img/object_images/car02.jpg","0","1","0","0","0","0","0.488256600001478","0.467004900005122","0.785833599999023","1","1","1","1","1","1","1","1","1"
"260065","img/object_images/car02.jpg","img/object_images/pot01.jpg","img/object_images/drone02.jpg","0","0","1","0","0","0","0.785833599999023","0.488256600001478","0.520774399999937","1","1","1","1","1","1","1","1","1"
"260065","img/object_images/drone02.jpg","img/object_images/car02.jpg","img/object_images/soap01.jpg","1","0","1","0","0","0","0.520774399999937","0.785833599999023","0.526549599999271","1","1","1","1","1","1","1","1","1"
"260065","img/object_images/soap01.jpg","img/object_images/drone02.jpg","img/object_images/video_game06.jpg","1","1","1","0","0","0","0.526549599999271","0.520774399999937","0.62373430000298","1","1","1","1","1","1","1","1","1"
"260065","img/object_images/video_game06.jpg","img/object_images/soap01.jpg","img/object_images/container01.jpg","1","1","1","0","0","0","0.62373430000298","0.526549599999271","0.530897699994966","1","1","1","1","1","1","1","1","1"
"260065","img/object_images/container01.jpg","img/object_images/video_game06.jpg","img/object_images/toilet_paper01.jpg","1","1","1","0","0","1","0.530897699994966","0.62373430000298","0.512228599996888","1","1","1","1","1","1","1","1","1"
"260065","img/object_images/toilet_paper01.jpg","img/object_images/container01.jpg","img/object_images/brief_case02.jpg","1","1","1","1","0","1","0.512228599996888","0.530897699994966","0.509920200005581","1","1","1","1","1","1","1","1","1"
"260065","img/object_images/brief_case02.jpg","img/object_images/toilet_paper01.jpg","img/object_images/gloves05.jpg","1","1","1","1","1","1","0.509920200005581","0.512228599996888","0.463819199998397","1","1","1","1","1","1","1","1","1"
"260065","img/object_images/gloves05.jpg","img/object_images/brief_case02.jpg","img/object_images/lamp01.jpg","1","1","1","1","1","1","0.463819199998397","0.509920200005581","0.357987799994589","1","1","1","1","1","1","1","1","1"
"260065","img/object_images/lamp01.jpg","img/object_images/gloves05.jpg","img/object_images/razor03.jpg","1","1","1","1","1","0","0.357987799994589","0.463819199998397","0.524322799996298","1","1","1","1","1","1","1","1","1"
"260065","img/object_images/razor03.jpg","img/object_images/lamp01.jpg","img/object_images/Wisk01.jpg","1","1","1","0","1","1","0.524322799996298","0.357987799994589","0.43074820000038","1","1","1","1","1","1","1","1","1"
"260065","img/object_images/Wisk01.jpg","img/object_images/razor03.jpg","img/object_images/basketball_hoop02.jpg","1","1","1","1","0","0","0.43074820000038","0.524322799996298","0.481327599998622","1","1","1","1","1","1","1","1","1"
"260065","img/object_images/basketball_hoop02.jpg","img/object_images/Wisk01.jpg","img/object_images/broom01.jpg","1","1","1","0","1","1","0.481327599998622","0.43074820000038","0.423126800000318","1","1","1","1","1","1","1","1","1"
"260065","img/object_images/broom01.jpg","img/object_images/basketball_hoop02.jpg","img/object_images/hat02.jpg","1","1","1","1","0","0","0.423126800000318","0.481327599998622","0.499620800001139","1","1","1","1","1","1","1","1","1"
"260065","img/object_images/hat02.jpg","img/object_images/broom01.jpg","img/object_images/couch04.jpg","1","1","1","0","1","1","0.499620800001139","0.423126800000318","0.366845600001398","1","1","1","1","1","1","1","1","1"
"260065","img/object_images/couch04.jpg","img/object_images/hat02.jpg","img/object_images/bottle12.jpg","1","1","1","1","0","1","0.366845600001398","0.499620800001139","0.420417099994665","1","1","1","1","1","1","1","1","1"
"260065","img/object_images/bottle12.jpg","img/object_images/couch04.jpg",NA,"1","1",NA,"1","1",NA,"0.420417099994665","0.366845600001398",NA,"1","1",NA,"1","1",NA,"1","1",NA
"260065","img/object_images/box03.jpg",NA,"img/object_images/scarf01.jpg","0",NA,"1","0",NA,"1","1.69133140000486",NA,"2.22562939999625","1",NA,"1","1",NA,"1","1",NA,"1"
"260065","img/object_images/scarf01.jpg","img/object_images/box03.jpg","img/object_images/computer_mouse02.jpg","1","0","1","1","0","0","2.22562939999625","1.69133140000486","0.914001499993901","1","1","1","1","1","1","1","1","1"
"260065","img/object_images/computer_mouse02.jpg","img/object_images/scarf01.jpg","img/object_images/pitcher09.jpg","1","1","1","0","1","1","0.914001499993901","2.22562939999625","0.457457299999078","1","1","1","1","1","1","1","1","1"
"260065","img/object_images/pitcher09.jpg","img/object_images/computer_mouse02.jpg","img/object_images/mail_box02.jpg","1","1","1","1","0","1","0.457457299999078","0.914001499993901","0.405666399994516","1","1","1","1","1","1","1","1","1"
"260065","img/object_images/mail_box02.jpg","img/object_images/pitcher09.jpg","img/object_images/drone01.jpg","1","1","1","1","1","1","0.405666399994516","0.457457299999078","0.292406100001244","1","1","1","1","1","1","1","1","1"
"260065","img/object_images/drone01.jpg","img/object_images/mail_box02.jpg","img/object_images/book02.jpg","1","1","1","1","1","1","0.292406100001244","0.405666399994516","0.479343500002869","1","1","1","1","1","1","1","1","1"
"260065","img/object_images/book02.jpg","img/object_images/drone01.jpg","img/object_images/Trowel01.jpg","1","1","1","1","1","0","0.479343500002869","0.292406100001244","0.486552200003644","1","1","1","1","1","1","1","1","1"
"260065","img/object_images/Trowel01.jpg","img/object_images/book02.jpg","img/object_images/tripod01.jpg","1","1","1","0","1","1","0.486552200003644","0.479343500002869","0.409285399997316","1","1","1","1","1","1","1","1","1"
"260065","img/object_images/tripod01.jpg","img/object_images/Trowel01.jpg","img/object_images/bag_pipes01.jpg","1","1","1","1","0","1","0.409285399997316","0.486552200003644","0.515859800005273","1","1","1","1","1","1","1","1","1"
"260065","img/object_images/bag_pipes01.jpg","img/object_images/tripod01.jpg","img/object_images/floss02.jpg","1","1","1","1","1","1","0.515859800005273","0.409285399997316","0.375600899998972","1","1","1","1","1","1","1","1","1"
"260065","img/object_images/floss02.jpg","img/object_images/bag_pipes01.jpg","img/object_images/tool06.jpg","1","1","0","1","1","0","0.375600899998972","0.515859800005273","0.400486800004728","1","1","1","1","1","1","1","1","1"
"260065","img/object_images/tool06.jpg","img/object_images/floss02.jpg","img/object_images/clip04.jpg","0","1","1","0","1","1","0.400486800004728","0.375600899998972","0.472726200001489","1","1","1","1","1","1","1","1","1"
"260065","img/object_images/clip04.jpg","img/object_images/tool06.jpg","img/object_images/toy01.jpg","1","0","1","1","0","1","0.472726200001489","0.400486800004728","0.401340499993239","1","1","1","1","1","1","1","1","1"
"260065","img/object_images/toy01.jpg","img/object_images/clip04.jpg","img/object_images/pen01.jpg","1","1","1","1","1","0","0.401340499993239","0.472726200001489","0.456773900004919","1","1","1","1","1","1","1","1","1"
"260065","img/object_images/pen01.jpg","img/object_images/toy01.jpg","img/object_images/couch01.jpg","1","1","1","0","1","0","0.456773900004919","0.401340499993239","0.424335200004862","1","1","1","1","1","1","1","1","1"
"260065","img/object_images/couch01.jpg","img/object_images/pen01.jpg","img/object_images/soap03.jpg","1","1","1","0","0","0","0.424335200004862","0.456773900004919","0.409159800001362","1","1","1","1","1","1","1","1","1"
"260065","img/object_images/soap03.jpg","img/object_images/couch01.jpg","img/object_images/shoes12.jpg","1","1","1","0","0","1","0.409159800001362","0.424335200004862","0.586121400003321","1","1","1","1","1","1","1","1","1"
"260065","img/object_images/shoes12.jpg","img/object_images/soap03.jpg","img/object_images/video_game03.jpg","1","1","1","1","0","1","0.586121400003321","0.409159800001362","0.386879799996677","1","1","1","1","1","1","1","1","1"
"260065","img/object_images/video_game03.jpg","img/object_images/shoes12.jpg","img/object_images/egg_slicer01.jpg","1","1","1","1","1","1","0.386879799996677","0.586121400003321","0.525391299997864","1","1","1","1","1","1","1","1","1"
"260065","img/object_images/egg_slicer01.jpg","img/object_images/video_game03.jpg","img/object_images/rock02.jpg","1","1","0","1","1","0","0.525391299997864","0.386879799996677","0.906106200003706","1","1","1","1","1","1","1","1","1"
"260065","img/object_images/rock02.jpg","img/object_images/egg_slicer01.jpg","img/object_images/Violin01.jpg","0","1","1","0","1","0","0.906106200003706","0.525391299997864","0.591062200001033","1","1","1","1","1","1","1","1","1"
"260065","img/object_images/Violin01.jpg","img/object_images/rock02.jpg","img/object_images/skate_board01.jpg","1","0","1","0","0","0","0.591062200001033","0.906106200003706","0.468972499998927","1","1","1","1","1","1","1","1","1"
"260065","img/object_images/skate_board01.jpg","img/object_images/Violin01.jpg","img/object_images/fork02.jpg","1","1","1","0","0","0","0.468972499998927","0.591062200001033","0.418596100003924","1","1","1","1","1","1","1","1","1"
"260065","img/object_images/fork02.jpg","img/object_images/skate_board01.jpg","img/object_images/blender01.jpg","1","1","1","0","0","0","0.418596100003924","0.468972499998927","0.488870699999097","1","1","1","1","1","1","1","1","1"
"260065","img/object_images/blender01.jpg","img/object_images/fork02.jpg","img/object_images/hair_brush01.jpg","1","1","1","0","0","1","0.488870699999097","0.418596100003924","0.427542199999152","1","1","1","1","1","1","1","1","1"
"260065","img/object_images/hair_brush01.jpg","img/object_images/blender01.jpg","img/object_images/toothbrush01.jpg","1","1","1","1","0","0","0.427542199999152","0.488870699999097","0.623710399995616","1","1","1","1","1","1","1","1","1"
"260065","img/object_images/toothbrush01.jpg","img/object_images/hair_brush01.jpg","img/object_images/bell03.jpg","1","1","1","0","1","0","0.623710399995616","0.427542199999152","0.46322009999858","1","1","1","1","1","1","1","1","1"
"260065","img/object_images/bell03.jpg","img/object_images/toothbrush01.jpg","img/object_images/airfryer02.jpg","1","1","1","0","0","1","0.46322009999858","0.623710399995616","0.417214100001729","1","1","1","1","1","1","1","1","1"
"260065","img/object_images/airfryer02.jpg","img/object_images/bell03.jpg","img/object_images/computer_mouse01.jpg","1","1","1","1","0","1","0.417214100001729","0.46322009999858","0.422913100002916","1","1","1","1","1","1","1","1","1"
"260065","img/object_images/computer_mouse01.jpg","img/object_images/airfryer02.jpg","img/object_images/chain01.jpg","1","1","1","1","1","0","0.422913100002916","0.417214100001729","0.552214399998775","1","1","1","1","1","1","1","1","1"
"260065","img/object_images/chain01.jpg","img/object_images/computer_mouse01.jpg","img/object_images/chair06.jpg","1","1","1","0","1","0","0.552214399998775","0.422913100002916","0.483782300005259","1","1","1","1","1","1","1","1","1"
"260065","img/object_images/chair06.jpg","img/object_images/chain01.jpg",NA,"1","1",NA,"0","0",NA,"0.483782300005259","0.552214399998775",NA,"1","1",NA,"1","1",NA,"1","1",NA
"260065","img/object_images/note_book01.jpg",NA,"img/object_images/cellphone01.jpg","0",NA,"1","0",NA,"1","0.654681599997275",NA,"0.453381100000115","1",NA,"1","1",NA,"1","1",NA,"1"
"260065","img/object_images/cellphone01.jpg","img/object_images/note_book01.jpg","img/object_images/ear_bud01.jpg","1","0","1","1","0","1","0.453381100000115","0.654681599997275","0.402441799997177","1","1","1","1","1","1","1","1","1"
"260065","img/object_images/ear_bud01.jpg","img/object_images/cellphone01.jpg","img/object_images/knife04.jpg","1","1","1","1","1","1","0.402441799997177","0.453381100000115","0.298119400002179","1","1","1","1","1","1","1","1","1"
"260065","img/object_images/knife04.jpg","img/object_images/ear_bud01.jpg","img/object_images/wire02.jpg","1","1","1","1","1","1","0.298119400002179","0.402441799997177","0.32861899999989","1","1","1","1","1","1","1","1","1"
"260065","img/object_images/wire02.jpg","img/object_images/knife04.jpg","img/object_images/chair05.jpg","1","1","1","1","1","0","0.32861899999989","0.298119400002179","0.545676900001126","1","1","1","1","1","1","1","1","1"
"260065","img/object_images/chair05.jpg","img/object_images/wire02.jpg","img/object_images/pen03.jpg","1","1","1","0","1","0","0.545676900001126","0.32861899999989","0.458033099996101","1","1","1","1","1","1","1","1","1"
"260065","img/object_images/pen03.jpg","img/object_images/chair05.jpg","img/object_images/compass01.jpg","1","1","1","0","0","1","0.458033099996101","0.545676900001126","0.341308499999286","1","1","1","1","1","1","1","1","1"
"260065","img/object_images/compass01.jpg","img/object_images/pen03.jpg","img/object_images/usb02.jpg","1","1","0","1","0","0","0.341308499999286","0.458033099996101","0.450575200004096","1","1","1","1","1","1","1","1","1"
"260065","img/object_images/usb02.jpg","img/object_images/compass01.jpg","img/object_images/pillows01.jpg","0","1","1","0","1","1","0.450575200004096","0.341308499999286","0.410959099994216","1","1","1","1","1","1","1","1","1"
"260065","img/object_images/pillows01.jpg","img/object_images/usb02.jpg","img/object_images/clock02.jpg","1","0","1","1","0","0","0.410959099994216","0.450575200004096","0.55106290000549","1","1","1","1","1","1","1","1","1"
"260065","img/object_images/clock02.jpg","img/object_images/pillows01.jpg","img/object_images/tennis_racket02.jpg","1","1","1","0","1","1","0.55106290000549","0.410959099994216","0.371087200001057","1","1","1","1","1","1","1","1","1"
"260065","img/object_images/tennis_racket02.jpg","img/object_images/clock02.jpg","img/object_images/bell02.jpg","1","1","1","1","0","0","0.371087200001057","0.55106290000549","0.47984169999836","1","1","1","1","1","1","1","1","1"
"260065","img/object_images/bell02.jpg","img/object_images/tennis_racket02.jpg","img/object_images/paint_brush04.jpg","1","1","1","0","1","0","0.47984169999836","0.371087200001057","0.483710600004997","1","1","1","1","1","1","1","1","1"
"260065","img/object_images/paint_brush04.jpg","img/object_images/bell02.jpg","img/object_images/microscope01.jpg","1","1","1","0","0","0","0.483710600004997","0.47984169999836","0.529219500000181","1","1","1","1","1","1","1","1","1"
"260065","img/object_images/microscope01.jpg","img/object_images/paint_brush04.jpg","img/object_images/motorcycle01.jpg","1","1","1","0","0","1","0.529219500000181","0.483710600004997","0.429644700001518","1","1","1","1","1","1","1","1","1"
"260065","img/object_images/motorcycle01.jpg","img/object_images/microscope01.jpg","img/object_images/Staples01.jpg","1","1","1","1","0","1","0.429644700001518","0.529219500000181","0.402364000001398","1","1","1","1","1","1","1","1","1"
"260065","img/object_images/Staples01.jpg","img/object_images/motorcycle01.jpg","img/object_images/floppy_disk02.jpg","1","1","1","1","1","0","0.402364000001398","0.429644700001518","0.60666769999807","1","1","1","1","1","1","1","1","1"
"260065","img/object_images/floppy_disk02.jpg","img/object_images/Staples01.jpg","img/object_images/book03.jpg","1","1","1","0","1","1","0.60666769999807","0.402364000001398","0.346456699997361","1","1","1","1","1","1","1","1","1"
"260065","img/object_images/book03.jpg","img/object_images/floppy_disk02.jpg","img/object_images/clip03.jpg","1","1","1","1","0","0","0.346456699997361","0.60666769999807","0.583602099999553","1","1","1","1","1","1","1","1","1"
"260065","img/object_images/clip03.jpg","img/object_images/book03.jpg","img/object_images/retainer01.jpg","1","1","1","0","1","0","0.583602099999553","0.346456699997361","0.825382400005765","1","1","1","1","1","1","1","1","1"
"260065","img/object_images/retainer01.jpg","img/object_images/clip03.jpg","img/object_images/knit05.jpg","1","1","1","0","0","1","0.825382400005765","0.583602099999553","0.469350499995926","1","1","1","1","1","1","1","1","1"
"260065","img/object_images/knit05.jpg","img/object_images/retainer01.jpg","img/object_images/floppy_disk03.jpg","1","1","1","1","0","1","0.469350499995926","0.825382400005765","0.479704799996398","1","1","1","1","1","1","1","1","1"
"260065","img/object_images/floppy_disk03.jpg","img/object_images/knit05.jpg","img/object_images/pitcher01.jpg","1","1","1","1","1","0","0.479704799996398","0.469350499995926","0.506408300003386","1","1","1","1","1","1","1","1","1"
"260065","img/object_images/pitcher01.jpg","img/object_images/floppy_disk03.jpg","img/object_images/tv02.jpg","1","1","1","0","1","0","0.506408300003386","0.479704799996398","0.456527400005143","1","1","1","1","1","1","1","1","1"
"260065","img/object_images/tv02.jpg","img/object_images/pitcher01.jpg","img/object_images/Thermometer01.jpg","1","1","1","0","0","0","0.456527400005143","0.506408300003386","0.462552100005269","1","1","1","1","1","1","1","1","1"
"260065","img/object_images/Thermometer01.jpg","img/object_images/tv02.jpg","img/object_images/bottle01.jpg","1","1","1","0","0","0","0.462552100005269","0.456527400005143","0.531378700005007","1","1","1","1","1","1","1","1","1"
"260065","img/object_images/bottle01.jpg","img/object_images/Thermometer01.jpg","img/object_images/lid01.jpg","1","1","1","0","0","1","0.531378700005007","0.462552100005269","0.377239199995529","1","1","1","1","1","1","1","1","1"
"260065","img/object_images/lid01.jpg","img/object_images/bottle01.jpg","img/object_images/Oven01.jpg","1","1","1","1","0","1","0.377239199995529","0.531378700005007","0.339501300004486","1","1","1","1","1","1","1","1","1"
"260065","img/object_images/Oven01.jpg","img/object_images/lid01.jpg","img/object_images/chess_piece02.jpg","1","1","1","1","1","1","0.339501300004486","0.377239199995529","0.451184500001546","1","1","1","1","1","1","1","1","1"
"260065","img/object_images/chess_piece02.jpg","img/object_images/Oven01.jpg","img/object_images/crutches02.jpg","1","1","1","1","1","0","0.451184500001546","0.339501300004486","0.45050479999918","1","1","1","1","1","1","1","1","1"
"260065","img/object_images/crutches02.jpg","img/object_images/chess_piece02.jpg","img/object_images/hammer03.jpg","1","1","1","0","1","1","0.45050479999918","0.451184500001546","0.37694719999854","1","1","1","1","1","1","1","1","1"
"260065","img/object_images/hammer03.jpg","img/object_images/crutches02.jpg",NA,"1","1",NA,"1","0",NA,"0.37694719999854","0.45050479999918",NA,"1","1",NA,"1","1",NA,"1","1",NA
"260065","img/object_images/tool20.jpg",NA,"img/object_images/clipboard01.jpg","0",NA,"1","0",NA,"1","0.63485270000092",NA,"0.567355199993472","1",NA,"1","1",NA,"1","1",NA,"1"
"260065","img/object_images/clipboard01.jpg","img/object_images/tool20.jpg","img/object_images/hat13.jpg","1","0","1","1","0","1","0.567355199993472","0.63485270000092","0.439741300004243","1","1","1","1","1","1","1","1","1"
"260065","img/object_images/hat13.jpg","img/object_images/clipboard01.jpg","img/object_images/knife01.jpg","1","1","1","1","1","1","0.439741300004243","0.567355199993472","0.393771900002321","1","1","1","1","1","1","1","1","1"
"260065","img/object_images/knife01.jpg","img/object_images/hat13.jpg","img/object_images/cup01.jpg","1","1","0","1","1","0","0.393771900002321","0.439741300004243","0.367476399995212","1","1","1","1","1","1","1","1","1"
"260065","img/object_images/cup01.jpg","img/object_images/knife01.jpg","img/object_images/board01.jpg","0","1","1","0","1","1","0.367476399995212","0.393771900002321","0.525648200004071","1","1","1","1","1","1","1","1","1"
"260065","img/object_images/board01.jpg","img/object_images/cup01.jpg","img/object_images/lemon_squeezer01.jpg","1","0","1","1","0","1","0.525648200004071","0.367476399995212","0.372455100005027","1","1","1","1","1","1","1","1","1"
"260065","img/object_images/lemon_squeezer01.jpg","img/object_images/board01.jpg","img/object_images/Confetti 01.jpg","1","1","0","1","1","0","0.372455100005027","0.525648200004071","0.319391299999552","1","1","1","1","1","1","1","1","2"
"260065","img/object_images/Confetti 01.jpg","img/object_images/lemon_squeezer01.jpg","img/object_images/hat09.jpg","0","1","1","0","1","0","0.319391299999552","0.372455100005027","0.518006300000707","1","1","1","1","1","1","2","1","1"
"260065","img/object_images/hat09.jpg","img/object_images/Confetti 01.jpg","img/object_images/razor02.jpg","1","0","1","0","0","1","0.518006300000707","0.319391299999552","0.393515300005674","1","1","1","1","1","1","1","2","1"
"260065","img/object_images/razor02.jpg","img/object_images/hat09.jpg","img/object_images/duster01.jpg","1","1","1","1","0","0","0.393515300005674","0.518006300000707","0.655037600001378","1","1","1","1","1","1","1","1","1"
"260065","img/object_images/duster01.jpg","img/object_images/razor02.jpg","img/object_images/bag04.jpg","1","1","0","0","1","0","0.655037600001378","0.393515300005674","0.407876199999009","1","1","1","1","1","1","1","1","1"
"260065","img/object_images/bag04.jpg","img/object_images/duster01.jpg","img/object_images/ruler02.jpg","0","1","1","0","0","1","0.407876199999009","0.655037600001378","0.384652499997173","1","1","1","1","1","1","1","1","1"
"260065","img/object_images/ruler02.jpg","img/object_images/bag04.jpg","img/object_images/sink_filter01 (1).jpg","1","0","1","1","0","0","0.384652499997173","0.407876199999009","0.518053699997836","1","1","1","1","1","1","1","1","1"
"260065","img/object_images/sink_filter01 (1).jpg","img/object_images/ruler02.jpg","img/object_images/tool13.jpg","1","1","1","0","1","1","0.518053699997836","0.384652499997173","0.382342100005189","1","1","1","1","1","1","1","1","1"
"260065","img/object_images/tool13.jpg","img/object_images/sink_filter01 (1).jpg","img/object_images/dust_pan01.jpg","1","1","1","1","0","1","0.382342100005189","0.518053699997836","0.4999358999994","1","1","1","1","1","1","1","1","1"
"260065","img/object_images/dust_pan01.jpg","img/object_images/tool13.jpg","img/object_images/socks01.jpg","1","1","1","1","1","1","0.4999358999994","0.382342100005189","0.399250400005258","1","1","1","1","1","1","1","1","1"
"260065","img/object_images/socks01.jpg","img/object_images/dust_pan01.jpg","img/object_images/vase02.jpg","1","1","1","1","1","1","0.399250400005258","0.4999358999994","0.358603499997116","1","1","1","1","1","1","1","1","1"
"260065","img/object_images/vase02.jpg","img/object_images/socks01.jpg","img/object_images/glasses03.jpg","1","1","1","1","1","0","0.358603499997116","0.399250400005258","0.622604800002591","1","1","1","1","1","1","1","1","1"
"260065","img/object_images/glasses03.jpg","img/object_images/vase02.jpg","img/object_images/Candle_Holder01.jpg","1","1","1","0","1","0","0.622604800002591","0.358603499997116","0.486764099994616","1","1","1","1","1","1","1","1","1"
"260065","img/object_images/Candle_Holder01.jpg","img/object_images/glasses03.jpg","img/object_images/office_supplies01.jpg","1","1","1","0","0","1","0.486764099994616","0.622604800002591","0.401988599995093","1","1","1","1","1","1","1","1","1"
"260065","img/object_images/office_supplies01.jpg","img/object_images/Candle_Holder01.jpg","img/object_images/bow_tie03.jpg","1","1","1","1","0","1","0.401988599995093","0.486764099994616","0.346442100002605","1","1","1","1","1","1","1","1","1"
"260065","img/object_images/bow_tie03.jpg","img/object_images/office_supplies01.jpg","img/object_images/sign02.jpg","1","1","1","1","1","0","0.346442100002605","0.401988599995093","0.474502800003393","1","1","1","1","1","1","1","1","1"
"260065","img/object_images/sign02.jpg","img/object_images/bow_tie03.jpg","img/object_images/floss01.jpg","1","1","1","0","1","1","0.474502800003393","0.346442100002605","0.487582000001566","1","1","1","1","1","1","1","1","1"
"260065","img/object_images/floss01.jpg","img/object_images/sign02.jpg","img/object_images/candle02.jpg","1","1","1","1","0","0","0.487582000001566","0.474502800003393","0.475164299998141","1","1","1","1","1","1","1","1","1"
"260065","img/object_images/candle02.jpg","img/object_images/floss01.jpg","img/object_images/pen06.jpg","1","1","1","0","1","0","0.475164299998141","0.487582000001566","0.439522600005148","1","1","1","1","1","1","1","1","1"
"260065","img/object_images/pen06.jpg","img/object_images/candle02.jpg","img/object_images/spray_can01.jpg","1","1","1","0","0","0","0.439522600005148","0.475164299998141","0.441150599996035","1","1","1","1","1","1","1","1","1"
"260065","img/object_images/spray_can01.jpg","img/object_images/pen06.jpg","img/object_images/perfume01.jpg","1","1","0","0","0","0","0.441150599996035","0.439522600005148","0.425257000002603","1","1","1","1","1","1","1","1","1"
"260065","img/object_images/perfume01.jpg","img/object_images/spray_can01.jpg","img/object_images/pan03.jpg","0","1","1","0","0","1","0.425257000002603","0.441150599996035","0.402024399998481","1","1","1","1","1","1","1","1","1"
"260065","img/object_images/pan03.jpg","img/object_images/perfume01.jpg","img/object_images/camera05.jpg","1","0","0","1","0","0","0.402024399998481","0.425257000002603","0.41862989999936","1","1","1","1","1","1","1","1","1"
"260065","img/object_images/camera05.jpg","img/object_images/pan03.jpg","img/object_images/video_game02.jpg","0","1","0","0","1","1","0.41862989999936","0.402024399998481","0.60547549999319","1","1","1","1","1","1","1","1","1"
"260065","img/object_images/video_game02.jpg","img/object_images/camera05.jpg","img/object_images/hammer02.jpg","0","0","1","1","0","0","0.60547549999319","0.41862989999936","0.478138999998919","1","1","1","1","1","1","1","1","1"
"260065","img/object_images/hammer02.jpg","img/object_images/video_game02.jpg",NA,"1","0",NA,"0","1",NA,"0.478138999998919","0.60547549999319",NA,"1","1",NA,"1","1",NA,"1","1",NA
"260065","img/object_images/tray01.jpg",NA,"img/object_images/hole_puncher01.jpg","1",NA,"1","1",NA,"1","0.704510399998981",NA,"0.476729000001797","1",NA,"1","1",NA,"1","1",NA,"1"
"260065","img/object_images/hole_puncher01.jpg","img/object_images/tray01.jpg","img/object_images/cup03.jpg","1","1","1","1","1","1","0.476729000001797","0.704510399998981","0.418615999995382","1","1","1","1","1","1","1","1","1"
"260065","img/object_images/cup03.jpg","img/object_images/hole_puncher01.jpg","img/object_images/tool08.jpg","1","1","1","1","1","0","0.418615999995382","0.476729000001797","0.483896800004004","1","1","1","1","1","1","1","1","1"
"260065","img/object_images/tool08.jpg","img/object_images/cup03.jpg","img/object_images/colander01.jpg","1","1","1","0","1","0","0.483896800004004","0.418615999995382","0.506040200001735","1","1","1","1","1","1","1","1","1"
"260065","img/object_images/colander01.jpg","img/object_images/tool08.jpg","img/object_images/projector01.jpg","1","1","0","0","0","0","0.506040200001735","0.483896800004004","0.374055899999803","1","1","1","1","1","1","1","1","1"
"260065","img/object_images/projector01.jpg","img/object_images/colander01.jpg","img/object_images/tool07.jpg","0","1","1","0","0","0","0.374055899999803","0.506040200001735","0.452958399997442","1","1","1","1","1","1","1","1","1"
"260065","img/object_images/tool07.jpg","img/object_images/projector01.jpg","img/object_images/ring03.jpg","1","0","1","0","0","1","0.452958399997442","0.374055899999803","0.405930900000385","1","1","1","1","1","1","1","1","1"
"260065","img/object_images/ring03.jpg","img/object_images/tool07.jpg","img/object_images/pan01.jpg","1","1","1","1","0","1","0.405930900000385","0.452958399997442","0.452552100003231","1","1","1","1","1","1","1","1","1"
"260065","img/object_images/pan01.jpg","img/object_images/ring03.jpg","img/object_images/yo_yo01.jpg","1","1","1","1","1","0","0.452552100003231","0.405930900000385","0.41673129999981","1","1","1","1","1","1","1","1","1"
"260065","img/object_images/yo_yo01.jpg","img/object_images/pan01.jpg","img/object_images/fire_extinguisher01.jpg","1","1","1","0","1","0","0.41673129999981","0.452552100003231","0.534891200004495","1","1","1","1","1","1","1","1","1"
"260065","img/object_images/fire_extinguisher01.jpg","img/object_images/yo_yo01.jpg","img/object_images/Kitchen_Towel.jpg","1","1","1","0","0","0","0.534891200004495","0.41673129999981","0.521143999998458","1","1","1","1","1","1","1","1","1"
"260065","img/object_images/Kitchen_Towel.jpg","img/object_images/fire_extinguisher01.jpg","img/object_images/hair_clips01.jpg","1","1","1","0","0","1","0.521143999998458","0.534891200004495","0.456098900001962","1","1","1","1","1","1","1","1","1"
"260065","img/object_images/hair_clips01.jpg","img/object_images/Kitchen_Towel.jpg","img/object_images/gift_box04.jpg","1","1","1","1","0","0","0.456098900001962","0.521143999998458","0.437560699996538","1","1","1","1","1","1","1","1","1"
"260065","img/object_images/gift_box04.jpg","img/object_images/hair_clips01.jpg","img/object_images/faucet01.jpg","1","1","1","0","1","0","0.437560699996538","0.456098900001962","0.513306699998793","1","1","1","1","1","1","1","1","1"
"260065","img/object_images/faucet01.jpg","img/object_images/gift_box04.jpg","img/object_images/blanket01.jpg","1","1","1","0","0","1","0.513306699998793","0.437560699996538","0.434586700001091","1","1","1","1","1","1","1","1","1"
"260065","img/object_images/blanket01.jpg","img/object_images/faucet01.jpg","img/object_images/handcuffs01.jpg","1","1","0","1","0","0","0.434586700001091","0.513306699998793","0.455461199999263","1","1","1","1","1","1","1","1","1"
"260065","img/object_images/handcuffs01.jpg","img/object_images/blanket01.jpg","img/object_images/purse01.jpg","0","1","1","0","1","1","0.455461199999263","0.434586700001091","0.430760800001735","1","1","1","1","1","1","1","1","1"
"260065","img/object_images/purse01.jpg","img/object_images/handcuffs01.jpg","img/object_images/cellphone02.jpg","1","0","1","1","0","1","0.430760800001735","0.455461199999263","0.413440400006948","1","1","1","1","1","1","1","1","1"
"260065","img/object_images/cellphone02.jpg","img/object_images/purse01.jpg","img/object_images/exfoliater_brush01.jpg","1","1","1","1","1","0","0.413440400006948","0.430760800001735","0.417837799999688","1","1","1","1","1","1","1","1","1"
"260065","img/object_images/exfoliater_brush01.jpg","img/object_images/cellphone02.jpg","img/object_images/lighter01.jpg","1","1","1","0","1","1","0.417837799999688","0.413440400006948","0.37885660000029","1","1","1","1","1","1","1","1","1"
"260065","img/object_images/lighter01.jpg","img/object_images/exfoliater_brush01.jpg","img/object_images/book01.jpg","1","1","1","1","0","1","0.37885660000029","0.417837799999688","0.388363600002776","1","1","1","1","1","1","1","1","1"
"260065","img/object_images/book01.jpg","img/object_images/lighter01.jpg","img/object_images/TrashCan02.jpg","1","1","1","1","1","1","0.388363600002776","0.37885660000029","0.697346200002357","1","1","1","1","1","1","1","1","1"
"260065","img/object_images/TrashCan02.jpg","img/object_images/book01.jpg","img/object_images/glasses07.jpg","1","1","1","1","1","1","0.697346200002357","0.388363600002776","0.368703100000857","1","1","1","1","1","1","1","1","1"
"260065","img/object_images/glasses07.jpg","img/object_images/TrashCan02.jpg","img/object_images/Pottery01.jpg","1","1","1","1","1","0","0.368703100000857","0.697346200002357","0.518378300002951","1","1","1","1","1","1","1","1","1"
"260065","img/object_images/Pottery01.jpg","img/object_images/glasses07.jpg","img/object_images/bicycle_lock01.jpg","1","1","1","0","1","0","0.518378300002951","0.368703100000857","0.468145099999674","1","1","1","1","1","1","1","1","1"
"260065","img/object_images/bicycle_lock01.jpg","img/object_images/Pottery01.jpg","img/object_images/Traffic Sign 01.jpg","1","1","1","0","0","0","0.468145099999674","0.518378300002951","0.465850000000501","1","1","1","1","1","1","1","1","1"
"260065","img/object_images/Traffic Sign 01.jpg","img/object_images/bicycle_lock01.jpg","img/object_images/basket02.jpg","1","1","1","0","0","0","0.465850000000501","0.468145099999674","0.40998980000586","1","1","1","1","1","1","1","1","1"
"260065","img/object_images/basket02.jpg","img/object_images/Traffic Sign 01.jpg","img/object_images/jewelry09.jpg","1","1","1","0","0","1","0.40998980000586","0.465850000000501","0.406818200004636","1","1","1","1","1","1","1","1","1"
"260065","img/object_images/jewelry09.jpg","img/object_images/basket02.jpg","img/object_images/speaker01.jpg","1","1","1","1","0","1","0.406818200004636","0.40998980000586","0.363956399996823","1","1","1","1","1","1","1","1","1"
"260065","img/object_images/speaker01.jpg","img/object_images/jewelry09.jpg","img/object_images/Sprayer01.jpg","1","1","0","1","1","0","0.363956399996823","0.406818200004636","0.376035400004184","1","1","1","1","1","1","1","1","1"
"260065","img/object_images/Sprayer01.jpg","img/object_images/speaker01.jpg","img/object_images/glasses06.jpg","0","1","1","0","1","1","0.376035400004184","0.363956399996823","0.461471700000402","1","1","1","1","1","1","1","1","1"
"260065","img/object_images/glasses06.jpg","img/object_images/Sprayer01.jpg",NA,"1","0",NA,"1","0",NA,"0.461471700000402","0.376035400004184",NA,"1","1",NA,"1","1",NA,"1","1",NA
"260065","img/object_images/dresser04.jpg",NA,"img/object_images/balloon01.jpg","1",NA,"0","0",NA,"0","1.29130019999866",NA,"0.593731500004651","1",NA,"1","1",NA,"1","1",NA,"1"
"260065","img/object_images/balloon01.jpg","img/object_images/dresser04.jpg","img/object_images/clip02.jpg","0","1","1","0","0","1","0.593731500004651","1.29130019999866","0.503446099995926","1","1","1","1","1","1","1","1","1"
"260065","img/object_images/clip02.jpg","img/object_images/balloon01.jpg","img/object_images/gift_box02.jpg","1","0","1","1","0","1","0.503446099995926","0.593731500004651","0.367617099997005","1","1","1","1","1","1","1","1","1"
"260065","img/object_images/gift_box02.jpg","img/object_images/clip02.jpg","img/object_images/gift_box01.jpg","1","1","1","1","1","1","0.367617099997005","0.503446099995926","0.377580300002592","1","1","1","1","1","1","1","1","1"
"260065","img/object_images/gift_box01.jpg","img/object_images/gift_box02.jpg","img/object_images/gift_box03.jpg","1","1","1","1","1","0","0.377580300002592","0.367617099997005","0.586749399997643","1","1","1","1","1","1","1","1","1"
"260065","img/object_images/gift_box03.jpg","img/object_images/gift_box01.jpg","img/object_images/wallet02.jpg","1","1","1","0","1","1","0.586749399997643","0.377580300002592","0.394257200001448","1","1","1","1","1","1","1","1","1"
"260065","img/object_images/wallet02.jpg","img/object_images/gift_box03.jpg","img/object_images/hammer01.jpg","1","1","1","1","0","0","0.394257200001448","0.586749399997643","0.496808099996997","1","1","1","1","1","1","1","1","1"
"260065","img/object_images/hammer01.jpg","img/object_images/wallet02.jpg","img/object_images/socks02.jpg","1","1","0","0","1","0","0.496808099996997","0.394257200001448","0.40165259999776","1","1","1","1","1","1","1","1","1"
"260065","img/object_images/socks02.jpg","img/object_images/hammer01.jpg","img/object_images/bath_tub01.jpg","0","1","1","0","0","0","0.40165259999776","0.496808099996997","0.460179900001094","1","1","1","1","1","1","1","1","1"
"260065","img/object_images/bath_tub01.jpg","img/object_images/socks02.jpg","img/object_images/Screws01.jpg","1","0","1","0","0","1","0.460179900001094","0.40165259999776","0.382980999995198","1","1","1","1","1","1","1","1","1"
"260065","img/object_images/Screws01.jpg","img/object_images/bath_tub01.jpg","img/object_images/vga_port 01.jpg","1","1","1","1","0","0","0.382980999995198","0.460179900001094","0.462504299997818","1","1","1","1","1","1","1","1","1"
"260065","img/object_images/vga_port 01.jpg","img/object_images/Screws01.jpg","img/object_images/ironing_table01.jpg","1","1","1","0","1","0","0.462504299997818","0.382980999995198","0.52484170000389","1","1","1","1","1","1","1","1","1"
"260065","img/object_images/ironing_table01.jpg","img/object_images/vga_port 01.jpg","img/object_images/bow_tie02.jpg","1","1","1","0","0","0","0.52484170000389","0.462504299997818","0.655079500000284","1","1","1","1","1","1","1","1","1"
"260065","img/object_images/bow_tie02.jpg","img/object_images/ironing_table01.jpg","img/object_images/bow_tie01.jpg","1","1","1","0","0","0","0.655079500000284","0.52484170000389","0.478738900004828","1","1","1","1","1","1","1","1","1"
"260065","img/object_images/bow_tie01.jpg","img/object_images/bow_tie02.jpg","img/object_images/funnel01.jpg","1","1","1","0","0","0","0.478738900004828","0.655079500000284","0.469967500001076","1","1","1","1","1","1","1","1","2"
"260065","img/object_images/funnel01.jpg","img/object_images/bow_tie01.jpg","img/object_images/fork03.jpg","1","1","1","0","0","1","0.469967500001076","0.478738900004828","0.393172500000219","1","1","1","1","1","1","2","1","1"
"260065","img/object_images/fork03.jpg","img/object_images/funnel01.jpg","img/object_images/couch03.jpg","1","1","1","1","0","0","0.393172500000219","0.469967500001076","0.46396509999613","1","1","1","1","1","1","1","2","1"
"260065","img/object_images/couch03.jpg","img/object_images/fork03.jpg","img/object_images/jewelry01.jpg","1","1","1","0","1","1","0.46396509999613","0.393172500000219","0.470538199995644","1","1","1","1","1","1","1","1","1"
"260065","img/object_images/jewelry01.jpg","img/object_images/couch03.jpg","img/object_images/jacket03.jpg","1","1","1","1","0","0","0.470538199995644","0.46396509999613","0.51403549999668","1","1","1","1","1","1","1","1","1"
"260065","img/object_images/jacket03.jpg","img/object_images/jewelry01.jpg","img/object_images/grater01.jpg","1","1","1","0","1","1","0.51403549999668","0.470538199995644","0.431563899997855","1","1","1","1","1","1","1","1","1"
"260065","img/object_images/grater01.jpg","img/object_images/jacket03.jpg","img/object_images/camera07.jpg","1","1","1","1","0","1","0.431563899997855","0.51403549999668","0.454582699996536","1","1","1","1","1","1","1","1","1"
"260065","img/object_images/camera07.jpg","img/object_images/grater01.jpg","img/object_images/Witchhat01.jpg","1","1","1","1","1","1","0.454582699996536","0.431563899997855","0.475019900004554","1","1","1","1","1","1","1","1","1"
"260065","img/object_images/Witchhat01.jpg","img/object_images/camera07.jpg","img/object_images/pitcher02.jpg","1","1","1","1","1","1","0.475019900004554","0.454582699996536","0.420640099997399","1","1","1","1","1","1","1","1","1"
"260065","img/object_images/pitcher02.jpg","img/object_images/Witchhat01.jpg","img/object_images/golf_ball03.jpg","1","1","1","1","1","1","0.420640099997399","0.475019900004554","0.420324400001846","1","1","1","1","1","1","1","1","1"
"260065","img/object_images/golf_ball03.jpg","img/object_images/pitcher02.jpg","img/object_images/paper_cup01.jpg","1","1","1","1","1","0","0.420324400001846","0.420640099997399","0.489640499996312","1","1","1","1","1","1","1","1","1"
"260065","img/object_images/paper_cup01.jpg","img/object_images/golf_ball03.jpg","img/object_images/lock04.jpg","1","1","1","0","1","1","0.489640499996312","0.420324400001846","0.492128499994578","1","1","1","1","1","1","1","1","1"
"260065","img/object_images/lock04.jpg","img/object_images/paper_cup01.jpg","img/object_images/coloring_pencil01.jpg","1","1","1","1","0","1","0.492128499994578","0.489640499996312","0.446282999997493","1","1","1","1","1","1","1","1","1"
"260065","img/object_images/coloring_pencil01.jpg","img/object_images/lock04.jpg","img/object_images/sleeping_bag01.jpg","1","1","1","1","1","0","0.446282999997493","0.492128499994578","0.444824300000619","1","1","1","1","1","1","1","1","1"
"260065","img/object_images/sleeping_bag01.jpg","img/object_images/coloring_pencil01.jpg","img/object_images/measuring_tape02.jpg","1","1","1","0","1","1","0.444824300000619","0.446282999997493","0.424925899998925","1","1","1","1","1","1","1","1","1"
"260065","img/object_images/measuring_tape02.jpg","img/object_images/sleeping_bag01.jpg","img/object_images/handkerchief01.jpg","1","1","1","1","0","0","0.424925899998925","0.444824300000619","0.620091100005084","1","1","1","1","1","1","1","1","1"
"260065","img/object_images/handkerchief01.jpg","img/object_images/measuring_tape02.jpg","img/object_images/lawn_mower01.jpg","1","1","1","0","1","1","0.620091100005084","0.424925899998925","0.424155600005179","1","1","1","1","1","1","1","1","1"
"260065","img/object_images/lawn_mower01.jpg","img/object_images/handkerchief01.jpg",NA,"1","1",NA,"1","0",NA,"0.424155600005179","0.620091100005084",NA,"1","1",NA,"1","1",NA,"1","1",NA
"260065","img/object_images/toaster01.jpg",NA,"img/object_images/water_scooter01.jpg","1",NA,"1","1",NA,"1","0.469030000000203",NA,"0.415974199997436","1",NA,"1","1",NA,"1","1",NA,"1"
"260065","img/object_images/water_scooter01.jpg","img/object_images/toaster01.jpg","img/object_images/helmet04.jpg","1","1","1","1","1","1","0.415974199997436","0.469030000000203","0.489454199996544","1","1","1","1","1","1","1","1","1"
"260065","img/object_images/helmet04.jpg","img/object_images/water_scooter01.jpg","img/object_images/boat02.jpg","1","1","1","1","1","1","0.489454199996544","0.415974199997436","0.378549699998985","1","1","1","1","1","1","1","1","1"
"260065","img/object_images/boat02.jpg","img/object_images/helmet04.jpg","img/object_images/hot_air_balloon02.jpg","1","1","1","1","1","0","0.378549699998985","0.489454199996544","0.530667500002892","1","1","1","1","1","1","1","1","1"
"260065","img/object_images/hot_air_balloon02.jpg","img/object_images/boat02.jpg","img/object_images/scoreboard01.jpg","1","1","1","0","1","1","0.530667500002892","0.378549699998985","0.413116499999887","1","1","1","1","1","1","1","1","1"
"260065","img/object_images/scoreboard01.jpg","img/object_images/hot_air_balloon02.jpg","img/object_images/bottle02.jpg","1","1","1","1","0","1","0.413116499999887","0.530667500002892","0.3684734999988","1","1","1","1","1","1","1","1","1"
"260065","img/object_images/bottle02.jpg","img/object_images/scoreboard01.jpg","img/object_images/tie02.jpg","1","1","1","1","1","0","0.3684734999988","0.413116499999887","0.452495599995018","1","1","1","1","1","1","1","1","1"
"260065","img/object_images/tie02.jpg","img/object_images/bottle02.jpg","img/object_images/chair03.jpg","1","1","1","0","1","0","0.452495599995018","0.3684734999988","0.601167499997246","1","1","1","1","1","1","1","1","1"
"260065","img/object_images/chair03.jpg","img/object_images/tie02.jpg","img/object_images/perfume02.jpg","1","1","1","0","0","0","0.601167499997246","0.452495599995018","0.492487099996652","1","1","1","1","1","1","1","1","1"
"260065","img/object_images/perfume02.jpg","img/object_images/chair03.jpg","img/object_images/pen05.jpg","1","1","1","0","0","0","0.492487099996652","0.601167499997246","0.414475100005802","1","1","1","1","1","1","1","1","1"
"260065","img/object_images/pen05.jpg","img/object_images/perfume02.jpg","img/object_images/bottle10.jpg","1","1","1","0","0","1","0.414475100005802","0.492487099996652","0.370401400003175","1","1","1","1","1","1","1","1","1"
"260065","img/object_images/bottle10.jpg","img/object_images/pen05.jpg","img/object_images/dog_leash01.jpg","1","1","1","1","0","0","0.370401400003175","0.414475100005802","0.537279099997249","1","1","1","1","1","1","1","1","1"
"260065","img/object_images/dog_leash01.jpg","img/object_images/bottle10.jpg","img/object_images/purse04.jpg","1","1","1","0","1","1","0.537279099997249","0.370401400003175","0.624567499995464","1","1","1","1","1","1","1","1","1"
"260065","img/object_images/purse04.jpg","img/object_images/dog_leash01.jpg","img/object_images/camera_lens01.jpg","1","1","1","1","0","1","0.624567499995464","0.537279099997249","0.433278500000597","1","1","1","1","1","1","1","1","1"
"260065","img/object_images/camera_lens01.jpg","img/object_images/purse04.jpg","img/object_images/WoodBox01.jpg","1","1","1","1","1","0","0.433278500000597","0.624567499995464","0.498304000000644","1","1","1","1","1","1","1","1","1"
"260065","img/object_images/WoodBox01.jpg","img/object_images/camera_lens01.jpg","img/object_images/hat06.jpg","1","1","1","0","1","0","0.498304000000644","0.433278500000597","0.431617000002006","1","1","1","1","1","1","1","1","1"
"260065","img/object_images/hat06.jpg","img/object_images/WoodBox01.jpg","img/object_images/bicycle01.jpg","1","1","1","0","0","1","0.431617000002006","0.498304000000644","0.385455000003276","1","1","1","1","1","1","1","1","1"
"260065","img/object_images/bicycle01.jpg","img/object_images/hat06.jpg","img/object_images/bean_bag02.jpg","1","1","0","1","0","1","0.385455000003276","0.431617000002006","0.439562300001853","1","1","1","1","1","1","1","1","2"
"260065","img/object_images/bean_bag02.jpg","img/object_images/bicycle01.jpg","img/object_images/audio_port01.jpg","0","1","1","1","1","1","0.439562300001853","0.385455000003276","0.394100399993476","1","1","1","1","1","1","2","1","1"
"260065","img/object_images/audio_port01.jpg","img/object_images/bean_bag02.jpg","img/object_images/toilet_paper_dispenser01.jpg","1","0","1","1","1","1","0.394100399993476","0.439562300001853","0.408468300003733","1","1","1","1","1","1","1","2","1"
"260065","img/object_images/toilet_paper_dispenser01.jpg","img/object_images/audio_port01.jpg","img/object_images/boat_toy10.jpg","1","1","0","1","1","0","0.408468300003733","0.394100399993476","0.425299000002269","1","1","1","1","1","1","1","1","1"
"260065","img/object_images/boat_toy10.jpg","img/object_images/toilet_paper_dispenser01.jpg","img/object_images/knit01.jpg","0","1","0","0","1","0","0.425299000002269","0.408468300003733","0.435636199996225","1","1","1","1","1","1","1","1","1"
"260065","img/object_images/knit01.jpg","img/object_images/boat_toy10.jpg","img/object_images/flask01.jpg","0","0","1","0","0","0","0.435636199996225","0.425299000002269","0.439973100001225","1","1","1","1","1","1","1","1","1"
"260065","img/object_images/flask01.jpg","img/object_images/knit01.jpg","img/object_images/tool19.jpg","1","0","1","0","0","1","0.439973100001225","0.435636199996225","0.417918500002998","1","1","1","1","1","1","1","1","1"
"260065","img/object_images/tool19.jpg","img/object_images/flask01.jpg","img/object_images/cellphone03.jpg","1","1","1","1","0","0","0.417918500002998","0.439973100001225","0.489158200005477","1","1","1","1","1","1","1","1","1"
"260065","img/object_images/cellphone03.jpg","img/object_images/tool19.jpg","img/object_images/bottle09.jpg","1","1","1","0","1","0","0.489158200005477","0.417918500002998","0.458316399999603","1","1","1","1","1","1","1","1","1"
"260065","img/object_images/bottle09.jpg","img/object_images/cellphone03.jpg","img/object_images/piggy_bank01.jpg","1","1","1","0","0","1","0.458316399999603","0.489158200005477","0.374719899999036","1","1","1","1","1","1","1","1","1"
"260065","img/object_images/piggy_bank01.jpg","img/object_images/bottle09.jpg","img/object_images/wagon_cart03.jpg","1","1","1","1","0","1","0.374719899999036","0.458316399999603","0.455612899997504","1","1","1","1","1","1","1","1","1"
"260065","img/object_images/wagon_cart03.jpg","img/object_images/piggy_bank01.jpg","img/object_images/shoes07.jpg","1","1","1","1","1","0","0.455612899997504","0.374719899999036","0.496280699997442","1","1","1","1","1","1","1","1","1"
"260065","img/object_images/shoes07.jpg","img/object_images/wagon_cart03.jpg","img/object_images/coloring_pencil02.jpg","1","1","1","0","1","0","0.496280699997442","0.455612899997504","0.452537299999676","1","1","1","1","1","1","1","1","1"
"260065","img/object_images/coloring_pencil02.jpg","img/object_images/shoes07.jpg","img/object_images/fan02.jpg","1","1","1","0","0","0","0.452537299999676","0.496280699997442","0.507170199998654","1","1","1","1","1","1","1","1","1"
"260065","img/object_images/fan02.jpg","img/object_images/coloring_pencil02.jpg",NA,"1","1",NA,"0","0",NA,"0.507170199998654","0.452537299999676",NA,"1","1",NA,"1","1",NA,"1","1",NA
"260065","img/object_images/WitchHat02.jpg",NA,"img/object_images/rock03.jpg","1",NA,"1","1",NA,"0","0.828943600005005",NA,"0.515640799996618","1",NA,"1","1",NA,"1","1",NA,"1"
"260065","img/object_images/rock03.jpg","img/object_images/WitchHat02.jpg","img/object_images/mask01.jpg","1","1","1","0","1","0","0.515640799996618","0.828943600005005","0.468355999997584","1","1","1","1","1","1","1","1","1"
"260065","img/object_images/mask01.jpg","img/object_images/rock03.jpg","img/object_images/razor01.jpg","1","1","1","0","0","0","0.468355999997584","0.515640799996618","0.417335800004366","1","1","1","1","1","1","1","1","1"
"260065","img/object_images/razor01.jpg","img/object_images/mask01.jpg","img/object_images/dress03.jpg","1","1","1","0","0","1","0.417335800004366","0.468355999997584","0.378509300004225","1","1","1","1","1","1","1","1","1"
"260065","img/object_images/dress03.jpg","img/object_images/razor01.jpg","img/object_images/cards01.jpg","1","1","1","1","0","0","0.378509300004225","0.417335800004366","0.532582699997874","1","1","1","1","1","1","1","1","1"
"260065","img/object_images/cards01.jpg","img/object_images/dress03.jpg","img/object_images/tv01.jpg","1","1","0","0","1","0","0.532582699997874","0.378509300004225","0.451480000003357","1","1","1","1","1","1","1","1","1"
"260065","img/object_images/tv01.jpg","img/object_images/cards01.jpg","img/object_images/toaster02.jpg","0","1","1","0","0","1","0.451480000003357","0.532582699997874","0.41489040000306","1","1","1","1","1","1","1","1","1"
"260065","img/object_images/toaster02.jpg","img/object_images/tv01.jpg","img/object_images/slinky_toy01.jpg","1","0","1","1","0","1","0.41489040000306","0.451480000003357","0.587377800002287","1","1","1","1","1","1","1","1","1"
"260065","img/object_images/slinky_toy01.jpg","img/object_images/toaster02.jpg","img/object_images/binoculars03.jpg","1","1","1","1","1","1","0.587377800002287","0.41489040000306","0.392772100000002","1","1","1","1","1","1","1","1","1"
"260065","img/object_images/binoculars03.jpg","img/object_images/slinky_toy01.jpg","img/object_images/bag06.jpg","1","1","1","1","1","1","0.392772100000002","0.587377800002287","0.402765400001954","1","1","1","1","1","1","1","1","1"
"260065","img/object_images/bag06.jpg","img/object_images/binoculars03.jpg","img/object_images/yarn02.jpg","1","1","1","1","1","0","0.402765400001954","0.392772100000002","0.453344499997911","1","1","1","1","1","1","1","1","1"
"260065","img/object_images/yarn02.jpg","img/object_images/bag06.jpg","img/object_images/jewelry07.jpg","1","1","1","0","1","1","0.453344499997911","0.402765400001954","0.383676500001457","1","1","1","1","1","1","1","1","1"
"260065","img/object_images/jewelry07.jpg","img/object_images/yarn02.jpg","img/object_images/screwdriver01.jpg","1","1","1","1","0","0","0.383676500001457","0.453344499997911","0.52532830000564","1","1","1","1","1","1","1","1","1"
"260065","img/object_images/screwdriver01.jpg","img/object_images/jewelry07.jpg","img/object_images/MeasuringCup01.jpg","1","1","0","0","1","1","0.52532830000564","0.383676500001457","0.387873599996965","1","1","1","1","1","1","1","1","1"
"260065","img/object_images/MeasuringCup01.jpg","img/object_images/screwdriver01.jpg","img/object_images/ladle02.jpg","0","1","1","1","0","0","0.387873599996965","0.52532830000564","0.514444700005697","1","1","1","1","1","1","1","1","1"
"260065","img/object_images/ladle02.jpg","img/object_images/MeasuringCup01.jpg","img/object_images/key02.jpg","1","0","1","0","1","1","0.514444700005697","0.387873599996965","0.480017999994743","1","1","1","1","1","1","1","1","1"
"260065","img/object_images/key02.jpg","img/object_images/ladle02.jpg","img/object_images/car04.jpg","1","1","0","1","0","0","0.480017999994743","0.514444700005697","0.401389600003313","1","1","1","1","1","1","1","1","1"
"260065","img/object_images/car04.jpg","img/object_images/key02.jpg","img/object_images/shower_head03.jpg","0","1","1","0","1","1","0.401389600003313","0.480017999994743","0.416323800003738","1","1","1","1","1","1","1","1","1"
"260065","img/object_images/shower_head03.jpg","img/object_images/car04.jpg","img/object_images/chair04.jpg","1","0","1","1","0","1","0.416323800003738","0.401389600003313","0.365002499995171","1","1","1","1","1","1","1","1","1"
"260065","img/object_images/chair04.jpg","img/object_images/shower_head03.jpg","img/object_images/car03.jpg","1","1","0","1","1","0","0.365002499995171","0.416323800003738","0.403774899998098","1","1","1","1","1","1","1","1","1"
"260065","img/object_images/car03.jpg","img/object_images/chair04.jpg","img/object_images/belt01.jpg","0","1","1","0","1","0","0.403774899998098","0.365002499995171","0.494915499999479","1","1","1","1","1","1","1","1","1"
"260065","img/object_images/belt01.jpg","img/object_images/car03.jpg","img/object_images/fan05.jpg","1","0","1","0","0","0","0.494915499999479","0.403774899998098","0.489401399994676","1","1","1","1","1","1","1","1","1"
"260065","img/object_images/fan05.jpg","img/object_images/belt01.jpg","img/object_images/cutting_board01.jpg","1","1","1","0","0","1","0.489401399994676","0.494915499999479","0.586401900000055","1","1","1","1","1","1","1","1","1"
"260065","img/object_images/cutting_board01.jpg","img/object_images/fan05.jpg","img/object_images/lemon_squeezer02.jpg","1","1","1","1","0","1","0.586401900000055","0.489401399994676","0.460459699999774","1","1","1","1","1","1","1","1","1"
"260065","img/object_images/lemon_squeezer02.jpg","img/object_images/cutting_board01.jpg","img/object_images/hair_brush05.jpg","1","1","1","1","1","1","0.460459699999774","0.586401900000055","0.368808200000785","1","1","1","1","1","1","1","1","1"
"260065","img/object_images/hair_brush05.jpg","img/object_images/lemon_squeezer02.jpg","img/object_images/ribbon01.jpg","1","1","0","1","1","0","0.368808200000785","0.460459699999774","0.533093700003519","1","1","1","1","1","1","1","1","1"
"260065","img/object_images/ribbon01.jpg","img/object_images/hair_brush05.jpg","img/object_images/jewel01.jpg","0","1","1","0","1","0","0.533093700003519","0.368808200000785","0.454786800000875","1","1","1","1","1","1","1","1","1"
"260065","img/object_images/jewel01.jpg","img/object_images/ribbon01.jpg","img/object_images/ice_tray03.jpg","1","0","1","0","0","1","0.454786800000875","0.533093700003519","0.411963899998227","1","1","1","1","1","1","1","1","1"
"260065","img/object_images/ice_tray03.jpg","img/object_images/jewel01.jpg","img/object_images/tool11.jpg","1","1","1","1","0","1","0.411963899998227","0.454786800000875","0.427158200000122","1","1","1","1","1","1","1","1","1"
"260065","img/object_images/tool11.jpg","img/object_images/ice_tray03.jpg","img/object_images/satellite01.jpg","1","1","1","1","1","0","0.427158200000122","0.411963899998227","0.583820599997125","1","1","1","1","1","1","1","1","1"
"260065","img/object_images/satellite01.jpg","img/object_images/tool11.jpg","img/object_images/shoes10.jpg","1","1","0","0","1","0","0.583820599997125","0.427158200000122","0.804243099999439","1","1","1","1","1","1","1","1","1"
"260065","img/object_images/shoes10.jpg","img/object_images/satellite01.jpg",NA,"0","1",NA,"0","0",NA,"0.804243099999439","0.583820599997125",NA,"1","1",NA,"1","1",NA,"1","1",NA
"260065","img/object_images/trash_can05.jpg",NA,"img/object_images/accardion01.jpg","1",NA,"1","1",NA,"1","0.509070900006918",NA,"0.42835880000348","1",NA,"1","1",NA,"1","1",NA,"1"
"260065","img/object_images/accardion01.jpg","img/object_images/trash_can05.jpg","img/object_images/laptop01.jpg","1","1","0","1","1","0","0.42835880000348","0.509070900006918","0.786699299998872","1","1","1","1","1","1","1","1","1"
"260065","img/object_images/laptop01.jpg","img/object_images/accardion01.jpg","img/object_images/umbrella01.jpg","0","1","0","0","1","0","0.786699299998872","0.42835880000348","0.681955300002301","1","1","1","1","1","1","1","1","1"
"260065","img/object_images/umbrella01.jpg","img/object_images/laptop01.jpg","img/object_images/fan04.jpg","0","0","1","0","0","0","0.681955300002301","0.786699299998872","1.17418919999909","1","1","1","1","1","1","1","1","1"
"260065","img/object_images/fan04.jpg","img/object_images/umbrella01.jpg","img/object_images/laptop03.jpg","1","0","1","0","0","1","1.17418919999909","0.681955300002301","0.616862200004107","1","1","1","1","1","1","1","1","1"
"260065","img/object_images/laptop03.jpg","img/object_images/fan04.jpg","img/object_images/pitcher05.jpg","1","1","1","1","0","0","0.616862200004107","1.17418919999909","0.517675900002359","1","1","1","1","1","1","1","1","1"
"260065","img/object_images/pitcher05.jpg","img/object_images/laptop03.jpg","img/object_images/backpack03.jpg","1","1","1","0","1","1","0.517675900002359","0.616862200004107","0.411085499996261","1","1","1","1","1","1","1","1","1"
"260065","img/object_images/backpack03.jpg","img/object_images/pitcher05.jpg","img/object_images/robe01.jpg","1","1","1","1","0","1","0.411085499996261","0.517675900002359","0.447921799997857","1","1","1","1","1","1","1","1","1"
"260065","img/object_images/robe01.jpg","img/object_images/backpack03.jpg","img/object_images/combs01.jpg","1","1","1","1","1","1","0.447921799997857","0.411085499996261","0.359643800002232","1","1","1","1","1","1","1","1","1"
"260065","img/object_images/combs01.jpg","img/object_images/robe01.jpg","img/object_images/vase01.jpg","1","1","1","1","1","0","0.359643800002232","0.447921799997857","0.466172599997662","1","1","1","1","1","1","1","1","1"
"260065","img/object_images/vase01.jpg","img/object_images/combs01.jpg","img/object_images/ball02.jpg","1","1","1","0","1","1","0.466172599997662","0.359643800002232","0.403736599997501","1","1","1","1","1","1","1","1","1"
"260065","img/object_images/ball02.jpg","img/object_images/vase01.jpg","img/object_images/toy05.jpg","1","1","1","1","0","0","0.403736599997501","0.466172599997662","0.462133900000481","1","1","1","1","1","1","1","1","1"
"260065","img/object_images/toy05.jpg","img/object_images/ball02.jpg","img/object_images/Lint_Roller02.jpg","1","1","1","0","1","0","0.462133900000481","0.403736599997501","1.20449830000143","1","1","1","1","1","1","1","1","1"
"260065","img/object_images/Lint_Roller02.jpg","img/object_images/toy05.jpg","img/object_images/shoes08.jpg","1","1","0","0","0","1","1.20449830000143","0.462133900000481","1.12503570000263","1","1","1","1","1","1","1","1","1"
"260065","img/object_images/shoes08.jpg","img/object_images/Lint_Roller02.jpg","img/object_images/helmet02.jpg","0","1","1","1","0","0","1.12503570000263","1.20449830000143","1.46217150000302","1","1","1","1","1","1","1","1","1"
"260065","img/object_images/helmet02.jpg","img/object_images/shoes08.jpg","img/object_images/calculator01.jpg","1","0","1","0","1","1","1.46217150000302","1.12503570000263","0.757078199996613","1","1","1","1","1","1","1","1","1"
"260065","img/object_images/calculator01.jpg","img/object_images/helmet02.jpg","img/object_images/chess_piece01.jpg","1","1","1","1","0","0","0.757078199996613","1.46217150000302","0.520451299998967","1","1","1","1","1","1","1","1","1"
"260065","img/object_images/chess_piece01.jpg","img/object_images/calculator01.jpg","img/object_images/stove01.jpg","1","1","1","0","1","0","0.520451299998967","0.757078199996613","0.535903500000131","1","1","1","1","1","1","1","1","1"
"260065","img/object_images/stove01.jpg","img/object_images/chess_piece01.jpg","img/object_images/lock01.jpg","1","1","1","0","0","0","0.535903500000131","0.520451299998967","0.705236999994668","1","1","1","1","1","1","1","1","1"
"260065","img/object_images/lock01.jpg","img/object_images/stove01.jpg","img/object_images/bucket02.jpg","1","1","1","0","0","1","0.705236999994668","0.535903500000131","0.621188999997685","1","1","1","1","1","1","1","1","1"
"260065","img/object_images/bucket02.jpg","img/object_images/lock01.jpg","img/object_images/trash_can03.jpg","1","1","1","1","0","1","0.621188999997685","0.705236999994668","0.44363069999963","1","1","1","1","1","1","1","1","1"
"260065","img/object_images/trash_can03.jpg","img/object_images/bucket02.jpg","img/object_images/spatula02.jpg","1","1","1","1","1","1","0.44363069999963","0.621188999997685","0.381947599998966","1","1","1","1","1","1","1","1","1"
"260065","img/object_images/spatula02.jpg","img/object_images/trash_can03.jpg","img/object_images/hair_brush02.jpg","1","1","1","1","1","0","0.381947599998966","0.44363069999963","0.536362600003486","1","1","1","1","1","1","1","1","1"
"260065","img/object_images/hair_brush02.jpg","img/object_images/spatula02.jpg","img/object_images/microphone03.jpg","1","1","1","0","1","1","0.536362600003486","0.381947599998966","0.464764799995464","1","1","1","1","1","1","1","1","1"
"260065","img/object_images/microphone03.jpg","img/object_images/hair_brush02.jpg","img/object_images/towels01.jpg","1","1","1","1","0","0","0.464764799995464","0.536362600003486","0.951859000000695","1","1","1","1","1","1","1","1","1"
"260065","img/object_images/towels01.jpg","img/object_images/microphone03.jpg","img/object_images/hair_dryer01.jpg","1","1","1","0","1","0","0.951859000000695","0.464764799995464","1.27229500000249","1","1","1","1","1","1","1","1","1"
"260065","img/object_images/hair_dryer01.jpg","img/object_images/towels01.jpg","img/object_images/gift_box05.jpg","1","1","0","0","0","0","1.27229500000249","0.951859000000695","0.447473000000173","1","1","1","1","1","1","1","1","1"
"260065","img/object_images/gift_box05.jpg","img/object_images/hair_dryer01.jpg","img/object_images/jewel03.jpg","0","1","1","0","0","1","0.447473000000173","1.27229500000249","0.521483899996383","1","1","1","1","1","1","1","1","1"
"260065","img/object_images/jewel03.jpg","img/object_images/gift_box05.jpg","img/object_images/chair02.jpg","1","0","1","1","0","1","0.521483899996383","0.447473000000173","0.513329900000826","1","1","1","1","1","1","1","1","1"
"260065","img/object_images/chair02.jpg","img/object_images/jewel03.jpg","img/object_images/surf_board01.jpg","1","1","1","1","1","1","0.513329900000826","0.521483899996383","0.455870000005234","1","1","1","1","1","1","1","1","1"
"260065","img/object_images/surf_board01.jpg","img/object_images/chair02.jpg","img/object_images/Vest02.jpg","1","1","1","1","1","0","0.455870000005234","0.513329900000826","0.595590600001742","1","1","1","1","1","1","1","1","1"
"260065","img/object_images/Vest02.jpg","img/object_images/surf_board01.jpg",NA,"1","1",NA,"0","1",NA,"0.595590600001742","0.455870000005234",NA,"1","1",NA,"1","1",NA,"1","1",NA
"260065","img/object_images/phone02.jpg",NA,"img/object_images/backpack01.jpg","0",NA,"1","1",NA,"0","2.32211190000089",NA,"1.41489770000044","1",NA,"1","1",NA,"1","1",NA,"1"
"260065","img/object_images/backpack01.jpg","img/object_images/phone02.jpg","img/object_images/keyboard02.jpg","1","0","1","0","1","1","1.41489770000044","2.32211190000089","0.488681399998313","1","1","1","1","1","1","1","1","1"
"260065","img/object_images/keyboard02.jpg","img/object_images/backpack01.jpg","img/object_images/dresser03.jpg","1","1","1","1","0","0","0.488681399998313","1.41489770000044","0.515568200004054","1","1","1","1","1","1","1","1","1"
"260065","img/object_images/dresser03.jpg","img/object_images/keyboard02.jpg","img/object_images/curtain02.jpg","1","1","1","0","1","0","0.515568200004054","0.488681399998313","0.640829299998586","1","1","1","1","1","1","1","1","1"
"260065","img/object_images/curtain02.jpg","img/object_images/dresser03.jpg","img/object_images/tool18.jpg","1","1","1","0","0","0","0.640829299998586","0.515568200004054","0.597724300001573","1","1","1","1","1","1","1","1","1"
"260065","img/object_images/tool18.jpg","img/object_images/curtain02.jpg","img/object_images/camera03.jpg","1","1","1","0","0","0","0.597724300001573","0.640829299998586","0.616267099998367","1","1","1","1","1","1","1","1","1"
"260065","img/object_images/camera03.jpg","img/object_images/tool18.jpg","img/object_images/video_game01.jpg","1","1","1","0","0","1","0.616267099998367","0.597724300001573","0.512095599995519","1","1","1","1","1","1","1","1","1"
"260065","img/object_images/video_game01.jpg","img/object_images/camera03.jpg","img/object_images/jacket04.jpg","1","1","0","1","0","0","0.512095599995519","0.616267099998367","0.534820099994249","1","1","1","1","1","1","1","1","1"
"260065","img/object_images/jacket04.jpg","img/object_images/video_game01.jpg","img/object_images/gloves02.jpg","0","1","1","0","1","0","0.534820099994249","0.512095599995519","0.617430699996476","1","1","1","1","1","1","1","1","1"
"260065","img/object_images/gloves02.jpg","img/object_images/jacket04.jpg","img/object_images/matches02.jpg","1","0","1","0","0","0","0.617430699996476","0.534820099994249","0.531004399999802","1","1","1","1","1","1","1","1","1"
"260065","img/object_images/matches02.jpg","img/object_images/gloves02.jpg","img/object_images/sponge03.jpg","1","1","1","0","0","1","0.531004399999802","0.617430699996476","0.562214999998105","1","1","1","1","1","1","1","1","1"
"260065","img/object_images/sponge03.jpg","img/object_images/matches02.jpg","img/object_images/mail_box01.jpg","1","1","1","1","0","0","0.562214999998105","0.531004399999802","0.819253599998774","1","1","1","1","1","1","1","1","1"
"260065","img/object_images/mail_box01.jpg","img/object_images/sponge03.jpg","img/object_images/knife02.jpg","1","1","1","0","1","0","0.819253599998774","0.562214999998105","0.888577999998233","1","1","1","1","1","1","1","1","1"
"260065","img/object_images/knife02.jpg","img/object_images/mail_box01.jpg","img/object_images/flashlight03.jpg","1","1","1","0","0","0","0.888577999998233","0.819253599998774","0.618318199994974","1","1","1","1","1","1","1","1","1"
"260065","img/object_images/flashlight03.jpg","img/object_images/knife02.jpg","img/object_images/knit03.jpg","1","1","1","0","0","1","0.618318199994974","0.888577999998233","0.546579399997427","1","1","1","1","1","1","1","1","1"
"260065","img/object_images/knit03.jpg","img/object_images/flashlight03.jpg","img/object_images/car01.jpg","1","1","1","1","0","1","0.546579399997427","0.618318199994974","0.722875599996769","1","1","1","1","1","1","1","1","1"
"260065","img/object_images/car01.jpg","img/object_images/knit03.jpg","img/object_images/kite01.jpg","1","1","1","1","1","1","0.722875599996769","0.546579399997427","0.51523769999767","1","1","1","1","1","1","1","1","1"
"260065","img/object_images/kite01.jpg","img/object_images/car01.jpg","img/object_images/toy08.jpg","1","1","1","1","1","0","0.51523769999767","0.722875599996769","0.708497600004193","1","1","1","1","1","1","1","1","1"
"260065","img/object_images/toy08.jpg","img/object_images/kite01.jpg","img/object_images/basket04.jpg","1","1","1","0","1","1","0.708497600004193","0.51523769999767","0.528724600000714","1","1","1","1","1","1","1","1","1"
"260065","img/object_images/basket04.jpg","img/object_images/toy08.jpg","img/object_images/hand_grip_exerciser01.jpg","1","1","1","1","0","0","0.528724600000714","0.708497600004193","1.32296340000175","1","1","1","1","1","1","1","1","1"
"260065","img/object_images/hand_grip_exerciser01.jpg","img/object_images/basket04.jpg","img/object_images/bottle07.jpg","1","1","1","0","1","1","1.32296340000175","0.528724600000714","1.72685189999902","1","1","1","1","1","1","1","1","1"
"260065","img/object_images/bottle07.jpg","img/object_images/hand_grip_exerciser01.jpg","img/object_images/paper_cup02.jpg","1","1","1","1","0","1","1.72685189999902","1.32296340000175","0.442063900001813","1","1","1","1","1","1","1","1","1"
"260065","img/object_images/paper_cup02.jpg","img/object_images/bottle07.jpg","img/object_images/boat04.jpg","1","1","1","1","1","0","0.442063900001813","1.72685189999902","1.96634130000166","1","1","1","1","1","1","1","1","1"
"260065","img/object_images/boat04.jpg","img/object_images/paper_cup02.jpg","img/object_images/blender02.jpg","1","1","1","0","1","1","1.96634130000166","0.442063900001813","0.741149100002076","1","1","1","1","1","1","1","1","1"
"260065","img/object_images/blender02.jpg","img/object_images/boat04.jpg","img/object_images/Statue01.jpg","1","1","1","1","0","1","0.741149100002076","1.96634130000166","0.620211200002814","1","1","1","1","1","1","1","1","1"
"260065","img/object_images/Statue01.jpg","img/object_images/blender02.jpg","img/object_images/stereo02.jpg","1","1","1","1","1","0","0.620211200002814","0.741149100002076","0.747908500001358","1","1","1","1","1","1","1","1","1"
"260065","img/object_images/stereo02.jpg","img/object_images/Statue01.jpg","img/object_images/knit04.jpg","1","1","1","0","1","1","0.747908500001358","0.620211200002814","0.716392700000142","1","1","1","1","1","1","1","1","1"
"260065","img/object_images/knit04.jpg","img/object_images/stereo02.jpg","img/object_images/remover01.jpg","1","1","1","1","0","1","0.716392700000142","0.747908500001358","0.502884500005166","1","1","1","1","1","1","1","1","1"
"260065","img/object_images/remover01.jpg","img/object_images/knit04.jpg","img/object_images/hoverboard01.jpg","1","1","1","1","1","0","0.502884500005166","0.716392700000142","0.476671199998236","1","1","1","1","1","1","1","1","1"
"260065","img/object_images/hoverboard01.jpg","img/object_images/remover01.jpg","img/object_images/shower_head01.jpg","1","1","1","0","1","1","0.476671199998236","0.502884500005166","0.487338300001284","1","1","1","1","1","1","1","1","1"
"260065","img/object_images/shower_head01.jpg","img/object_images/hoverboard01.jpg","img/object_images/remote_controller01.jpg","1","1","1","1","0","1","0.487338300001284","0.476671199998236","0.475637299998198","1","1","1","1","1","1","1","1","1"
"260065","img/object_images/remote_controller01.jpg","img/object_images/shower_head01.jpg",NA,"1","1",NA,"1","1",NA,"0.475637299998198","0.487338300001284",NA,"1","1",NA,"1","1",NA,"1","1",NA
"260065","img/object_images/Eyeliner01.jpg",NA,"img/object_images/phone04.jpg","1",NA,"1","1",NA,"1","0.619006300003093",NA,"0.459605199997895","1",NA,"1","1",NA,"1","1",NA,"1"
"260065","img/object_images/phone04.jpg","img/object_images/Eyeliner01.jpg","img/object_images/yoga_mat01.jpg","1","1","1","1","1","0","0.459605199997895","0.619006300003093","0.611950500002422","1","1","1","1","1","1","1","1","1"
"260065","img/object_images/yoga_mat01.jpg","img/object_images/phone04.jpg","img/object_images/bottle06.jpg","1","1","1","0","1","0","0.611950500002422","0.459605199997895","0.556040499999654","1","1","1","1","1","1","1","1","1"
"260065","img/object_images/bottle06.jpg","img/object_images/yoga_mat01.jpg","img/object_images/water_gun01.jpg","1","1","1","0","0","1","0.556040499999654","0.611950500002422","0.465357099994435","1","1","1","1","1","1","1","1","1"
"260065","img/object_images/water_gun01.jpg","img/object_images/bottle06.jpg","img/object_images/lock03.jpg","1","1","1","1","0","1","0.465357099994435","0.556040499999654","0.483324400003767","1","1","1","1","1","1","1","1","1"
"260065","img/object_images/lock03.jpg","img/object_images/water_gun01.jpg","img/object_images/tennis_racket01.jpg","1","1","1","1","1","1","0.483324400003767","0.465357099994435","0.455404599997564","1","1","1","1","1","1","1","1","1"
"260065","img/object_images/tennis_racket01.jpg","img/object_images/lock03.jpg","img/object_images/origami01.jpg","1","1","1","1","1","1","0.455404599997564","0.483324400003767","0.473648400002276","1","1","1","1","1","1","1","1","1"
"260065","img/object_images/origami01.jpg","img/object_images/tennis_racket01.jpg","img/object_images/piano03.jpg","1","1","1","1","1","0","0.473648400002276","0.455404599997564","0.665726300001552","1","1","1","1","1","1","1","1","1"
"260065","img/object_images/piano03.jpg","img/object_images/origami01.jpg","img/object_images/fan01.jpg","1","1","1","0","1","0","0.665726300001552","0.473648400002276","0.558853700000327","1","1","1","1","1","1","1","1","1"
"260065","img/object_images/fan01.jpg","img/object_images/piano03.jpg","img/object_images/belt03.jpg","1","1","1","0","0","0","0.558853700000327","0.665726300001552","0.698466500005452","1","1","1","1","1","1","1","1","1"
"260065","img/object_images/belt03.jpg","img/object_images/fan01.jpg","img/object_images/headset02.jpg","1","1","1","0","0","0","0.698466500005452","0.558853700000327","1.25817040000402","1","1","1","1","1","1","1","1","1"
"260065","img/object_images/headset02.jpg","img/object_images/belt03.jpg","img/object_images/egg_basket01.jpg","1","1","1","0","0","1","1.25817040000402","0.698466500005452","0.741933099998278","1","1","1","1","1","1","1","1","1"
"260065","img/object_images/egg_basket01.jpg","img/object_images/headset02.jpg","img/object_images/pitcher07.jpg","1","1","1","1","0","1","0.741933099998278","1.25817040000402","0.609750900002837","1","1","1","1","1","1","1","1","1"
"260065","img/object_images/pitcher07.jpg","img/object_images/egg_basket01.jpg","img/object_images/nut_cracker01.jpg","1","1","1","1","1","1","0.609750900002837","0.741933099998278","0.523390200003632","1","1","1","1","1","1","1","1","1"
"260065","img/object_images/nut_cracker01.jpg","img/object_images/pitcher07.jpg","img/object_images/Safe01.jpg","1","1","1","1","1","1","0.523390200003632","0.609750900002837","0.524506099995051","1","1","1","1","1","1","1","1","1"
"260065","img/object_images/Safe01.jpg","img/object_images/nut_cracker01.jpg","img/object_images/bookmark01.jpg","1","1","1","1","1","0","0.524506099995051","0.523390200003632","0.778066200000467","1","1","1","1","1","1","1","1","1"
"260065","img/object_images/bookmark01.jpg","img/object_images/Safe01.jpg","img/object_images/shovel01.jpg","1","1","1","0","1","0","0.778066200000467","0.524506099995051","0.709435599994322","1","1","1","1","1","1","1","1","1"
"260065","img/object_images/shovel01.jpg","img/object_images/bookmark01.jpg","img/object_images/joystick03.jpg","1","1","1","0","0","1","0.709435599994322","0.778066200000467","0.432092600000033","1","1","1","1","1","1","1","1","1"
"260065","img/object_images/joystick03.jpg","img/object_images/shovel01.jpg","img/object_images/dice01.jpg","1","1","1","1","0","0","0.432092600000033","0.709435599994322","0.589375899995503","1","1","1","1","1","1","1","1","1"
"260065","img/object_images/dice01.jpg","img/object_images/joystick03.jpg","img/object_images/Shoes05.jpg","1","1","1","0","1","0","0.589375899995503","0.432092600000033","0.58246930000314","1","1","1","1","1","1","1","1","1"
"260065","img/object_images/Shoes05.jpg","img/object_images/dice01.jpg","img/object_images/jewel02.jpg","1","1","1","0","0","0","0.58246930000314","0.589375899995503","0.925321099995926","1","1","1","1","1","1","1","1","1"
"260065","img/object_images/jewel02.jpg","img/object_images/Shoes05.jpg","img/object_images/note_book02.jpg","1","1","1","0","0","0","0.925321099995926","0.58246930000314","1.58296070000506","1","1","1","1","1","1","1","1","1"
"260065","img/object_images/note_book02.jpg","img/object_images/jewel02.jpg","img/object_images/badminton01.jpg","1","1","1","0","0","1","1.58296070000506","0.925321099995926","0.775331000004371","1","1","1","1","1","1","1","1","1"
"260065","img/object_images/badminton01.jpg","img/object_images/note_book02.jpg","img/object_images/trumpet01.jpg","1","1","1","1","0","0","0.775331000004371","1.58296070000506","0.557196800000384","1","1","1","1","1","1","1","1","1"
"260065","img/object_images/trumpet01.jpg","img/object_images/badminton01.jpg","img/object_images/frame01.jpg","1","1","1","0","1","1","0.557196800000384","0.775331000004371","0.587634499999695","1","1","1","1","1","1","1","1","1"
"260065","img/object_images/frame01.jpg","img/object_images/trumpet01.jpg","img/object_images/bucket01.jpg","1","1","1","1","0","1","0.587634499999695","0.557196800000384","0.659227099997224","1","1","1","1","1","1","1","1","1"
"260065","img/object_images/bucket01.jpg","img/object_images/frame01.jpg","img/object_images/TreeSlice01.jpg","1","1","1","1","1","1","0.659227099997224","0.587634499999695","0.52148440000019","1","1","1","1","1","1","1","1","1"
"260065","img/object_images/TreeSlice01.jpg","img/object_images/bucket01.jpg","img/object_images/helmet03.jpg","1","1","1","1","1","1","0.52148440000019","0.659227099997224","0.567072799996822","1","1","1","1","1","1","1","1","1"
"260065","img/object_images/helmet03.jpg","img/object_images/TreeSlice01.jpg","img/object_images/ToolBag01.jpg","1","1","1","1","1","0","0.567072799996822","0.52148440000019","0.941313800001808","1","1","1","1","1","1","1","1","1"
"260065","img/object_images/ToolBag01.jpg","img/object_images/helmet03.jpg","img/object_images/usb03.jpg","1","1","1","0","1","0","0.941313800001808","0.567072799996822","0.693814300000668","1","1","1","1","1","1","1","1","1"
"260065","img/object_images/usb03.jpg","img/object_images/ToolBag01.jpg","img/object_images/scale02.jpg","1","1","1","0","0","0","0.693814300000668","0.941313800001808","0.624326299999666","1","1","1","1","1","1","1","1","1"
"260065","img/object_images/scale02.jpg","img/object_images/usb03.jpg",NA,"1","1",NA,"0","0",NA,"0.624326299999666","0.693814300000668",NA,"1","1",NA,"1","1",NA,"1","1",NA
"260065","img/object_images/tool02.jpg",NA,"img/object_images/towel02.jpg","1",NA,"1","1",NA,"1","0.544826899997133",NA,"0.496921899997687","1",NA,"1","1",NA,"1","1",NA,"1"
"260065","img/object_images/towel02.jpg","img/object_images/tool02.jpg","img/object_images/outlet01.jpg","1","1","1","1","1","0","0.496921899997687","0.544826899997133","0.636528900002304","1","1","1","1","1","1","1","1","1"
"260065","img/object_images/outlet01.jpg","img/object_images/towel02.jpg","img/object_images/fridge03.jpg","1","1","1","0","1","0","0.636528900002304","0.496921899997687","0.482020800001919","1","1","1","1","1","1","1","1","1"
"260065","img/object_images/fridge03.jpg","img/object_images/outlet01.jpg","img/object_images/pot01 (1).jpg","1","1","1","0","0","0","0.482020800001919","0.636528900002304","0.476479999997537","1","1","1","1","1","1","1","1","1"
"260065","img/object_images/pot01 (1).jpg","img/object_images/fridge03.jpg","img/object_images/guitar02.jpg","1","1","1","0","0","0","0.476479999997537","0.482020800001919","0.581835000004503","1","1","1","1","1","1","1","1","1"
"260065","img/object_images/guitar02.jpg","img/object_images/pot01 (1).jpg","img/object_images/Vacuum01.jpg","1","1","1","0","0","0","0.581835000004503","0.476479999997537","1.83853449999879","1","1","1","1","1","1","1","1","1"
"260065","img/object_images/Vacuum01.jpg","img/object_images/guitar02.jpg","img/object_images/bottle05.jpg","1","1","1","0","0","0","1.83853449999879","0.581835000004503","1.13337350000074","1","1","1","1","1","1","1","1","1"
"260065","img/object_images/bottle05.jpg","img/object_images/Vacuum01.jpg","img/object_images/MetalWire01.jpg","1","1","1","0","0","0","1.13337350000074","1.83853449999879","1.23500420000346","1","1","1","1","1","1","1","1","1"
"260065","img/object_images/MetalWire01.jpg","img/object_images/bottle05.jpg","img/object_images/ornament01.jpg","1","1","1","0","0","1","1.23500420000346","1.13337350000074","0.660875199995644","1","1","1","1","1","1","1","1","1"
"260065","img/object_images/ornament01.jpg","img/object_images/MetalWire01.jpg","img/object_images/dart01.jpg","1","1","1","1","0","0","0.660875199995644","1.23500420000346","1.48276749999786","1","1","1","1","1","1","1","1","1"
"260065","img/object_images/dart01.jpg","img/object_images/ornament01.jpg","img/object_images/gauze01.jpg","1","1","1","0","1","0","1.48276749999786","0.660875199995644","1.14177139999811","1","1","1","1","1","1","1","1","1"
"260065","img/object_images/gauze01.jpg","img/object_images/dart01.jpg","img/object_images/jewel04.jpg","1","1","1","0","0","0","1.14177139999811","1.48276749999786","0.53336880000279","1","1","1","1","1","1","1","1","1"
"260065","img/object_images/jewel04.jpg","img/object_images/gauze01.jpg","img/object_images/Tin01.jpg","1","1","1","0","0","1","0.53336880000279","1.14177139999811","0.451362300002074","1","1","1","1","1","1","1","1","1"
"260065","img/object_images/Tin01.jpg","img/object_images/jewel04.jpg","img/object_images/toy04.jpg","1","1","1","1","0","0","0.451362300002074","0.53336880000279","0.630737399995269","1","1","1","1","1","1","1","1","1"
"260065","img/object_images/toy04.jpg","img/object_images/Tin01.jpg","img/object_images/frisbee01.jpg","1","1","1","0","1","1","0.630737399995269","0.451362300002074","0.512554200002342","1","1","1","1","1","1","1","1","1"
"260065","img/object_images/frisbee01.jpg","img/object_images/toy04.jpg","img/object_images/toy03.jpg","1","1","1","1","0","1","0.512554200002342","0.630737399995269","0.493218899995554","1","1","1","1","1","1","1","1","1"
"260065","img/object_images/toy03.jpg","img/object_images/frisbee01.jpg","img/object_images/sink01.jpg","1","1","1","1","1","0","0.493218899995554","0.512554200002342","0.523074000004272","1","1","1","1","1","1","1","1","1"
"260065","img/object_images/sink01.jpg","img/object_images/toy03.jpg","img/object_images/Stool01.jpg","1","1","1","0","1","0","0.523074000004272","0.493218899995554","0.62402270000166","1","1","1","1","1","1","1","1","1"
"260065","img/object_images/Stool01.jpg","img/object_images/sink01.jpg","img/object_images/bow01.jpg","1","1","1","0","0","1","0.62402270000166","0.523074000004272","0.552206099993782","1","1","1","1","1","1","1","1","1"
"260065","img/object_images/bow01.jpg","img/object_images/Stool01.jpg","img/object_images/acoustic_capo01.jpg","1","1","1","1","0","1","0.552206099993782","0.62402270000166","0.419914500002051","1","1","1","1","1","1","1","1","1"
"260065","img/object_images/acoustic_capo01.jpg","img/object_images/bow01.jpg","img/object_images/shovel03.jpg","1","1","1","1","1","1","0.419914500002051","0.552206099993782","0.435115400003269","1","1","1","1","1","1","1","1","1"
"260065","img/object_images/shovel03.jpg","img/object_images/acoustic_capo01.jpg","img/object_images/judge_gavel01.jpg","1","1","1","1","1","1","0.435115400003269","0.419914500002051","0.53392840000015","1","1","1","1","1","1","1","1","1"
"260065","img/object_images/judge_gavel01.jpg","img/object_images/shovel03.jpg","img/object_images/watch01.jpg","1","1","0","1","1","0","0.53392840000015","0.435115400003269","0.477311800001189","1","1","1","1","1","1","1","1","2"
"260065","img/object_images/watch01.jpg","img/object_images/judge_gavel01.jpg","img/object_images/bird_house02.jpg","0","1","1","0","1","1","0.477311800001189","0.53392840000015","0.505494699995324","1","1","1","1","1","1","2","1","1"
"260065","img/object_images/bird_house02.jpg","img/object_images/watch01.jpg","img/object_images/Ring02.jpg","1","0","0","1","0","0","0.505494699995324","0.477311800001189","0.768897200003266","1","1","1","1","1","1","1","2","1"
"260065","img/object_images/Ring02.jpg","img/object_images/bird_house02.jpg","img/object_images/helmet01.jpg","0","1","1","0","1","0","0.768897200003266","0.505494699995324","0.662254400005622","1","1","1","1","1","1","1","1","1"
"260065","img/object_images/helmet01.jpg","img/object_images/Ring02.jpg","img/object_images/video_game07.jpg","1","0","1","0","0","1","0.662254400005622","0.768897200003266","0.449307099996076","1","1","1","1","1","1","1","1","1"
"260065","img/object_images/video_game07.jpg","img/object_images/helmet01.jpg","img/object_images/mirror01.jpg","1","1","1","1","0","1","0.449307099996076","0.662254400005622","0.473630499996943","1","1","1","1","1","1","1","1","1"
"260065","img/object_images/mirror01.jpg","img/object_images/video_game07.jpg","img/object_images/crown02.jpg","1","1","1","1","1","1","0.473630499996943","0.449307099996076","0.585852299998805","1","1","1","1","1","1","1","1","1"
"260065","img/object_images/crown02.jpg","img/object_images/mirror01.jpg","img/object_images/tool09.jpg","1","1","1","1","1","1","0.585852299998805","0.473630499996943","0.508166799998435","1","1","1","1","1","1","1","1","1"
"260065","img/object_images/tool09.jpg","img/object_images/crown02.jpg","img/object_images/stapler.jpg","1","1","1","1","1","1","0.508166799998435","0.585852299998805","0.42025250000006","1","1","1","1","1","1","1","1","1"
"260065","img/object_images/stapler.jpg","img/object_images/tool09.jpg",NA,"1","1",NA,"1","1",NA,"0.42025250000006","0.508166799998435",NA,"1","1",NA,"1","1",NA,"1","1",NA
