"participant_id","current_trial_object","pre_trial_object","post_trial_object","current_trial_accuracy","pre_trial_accuracy","post_trial_accuracy","current_trial_congruency","pre_trial_congruency","post_trial_congruency","current_trial_rt","pre_trial_rt","post_trial_rt","current_trial_responded","pre_trial_responded","post_trial_responded","current_trial_legitResponse","pre_trial_legitResponse","post_trial_legitResponse","current_trial_resp_nums","pre_trial_resp_nums","post_trial_resp_nums"
"260014","img/object_images/ironing_table02.jpg",NA,"img/object_images/bottle12.jpg","1",NA,"1","0",NA,"1","0.57110780000221",NA,"0.470274200022686","1",NA,"1","1",NA,"1","1",NA,"1"
"260014","img/object_images/bottle12.jpg","img/object_images/ironing_table02.jpg","img/object_images/cochlear_implant01.jpg","1","1","0","1","0","0","0.470274200022686","0.57110780000221","0.389610099955462","1","1","1","1","1","1","1","1","1"
"260014","img/object_images/cochlear_implant01.jpg","img/object_images/bottle12.jpg","img/object_images/soap01.jpg","0","1","1","0","1","0","0.389610099955462","0.470274200022686","0.458805800008122","1","1","1","1","1","1","1","1","1"
"260014","img/object_images/soap01.jpg","img/object_images/cochlear_implant01.jpg","img/object_images/gloves05.jpg","1","0","1","0","0","1","0.458805800008122","0.389610099955462","0.447731900028884","1","1","1","1","1","1","1","1","1"
"260014","img/object_images/gloves05.jpg","img/object_images/soap01.jpg","img/object_images/airfryer01.jpg","1","1","1","1","0","0","0.447731900028884","0.458805800008122","0.473048599960748","1","1","1","1","1","1","1","1","1"
"260014","img/object_images/airfryer01.jpg","img/object_images/gloves05.jpg","img/object_images/video_game06.jpg","1","1","1","0","1","0","0.473048599960748","0.447731900028884","0.569957800034899","1","1","1","1","1","1","1","1","1"
"260014","img/object_images/video_game06.jpg","img/object_images/airfryer01.jpg","img/object_images/decorative02.jpg","1","1","1","0","0","0","0.569957800034899","0.473048599960748","0.574029699957464","1","1","1","1","1","1","1","1","1"
"260014","img/object_images/decorative02.jpg","img/object_images/video_game06.jpg","img/object_images/couch04.jpg","1","1","1","0","0","1","0.574029699957464","0.569957800034899","0.429070200014394","1","1","1","1","1","1","1","1","1"
"260014","img/object_images/couch04.jpg","img/object_images/decorative02.jpg","img/object_images/chair01.jpg","1","1","1","1","0","0","0.429070200014394","0.574029699957464","0.508044400019571","1","1","1","1","1","1","1","1","1"
"260014","img/object_images/chair01.jpg","img/object_images/couch04.jpg","img/object_images/tie01.jpg","1","1","1","0","1","0","0.508044400019571","0.429070200014394","0.508836099994369","1","1","1","1","1","1","1","1","1"
"260014","img/object_images/tie01.jpg","img/object_images/chair01.jpg","img/object_images/helmet05.jpg","1","1","1","0","0","1","0.508836099994369","0.508044400019571","0.447024099994451","1","1","1","1","1","1","1","1","1"
"260014","img/object_images/helmet05.jpg","img/object_images/tie01.jpg","img/object_images/broom01.jpg","1","1","1","1","0","1","0.447024099994451","0.508836099994369","0.344363899959717","1","1","1","1","1","1","1","1","1"
"260014","img/object_images/broom01.jpg","img/object_images/helmet05.jpg","img/object_images/car02.jpg","1","1","1","1","1","0","0.344363899959717","0.447024099994451","0.45025799999712","1","1","1","1","1","1","1","1","1"
"260014","img/object_images/car02.jpg","img/object_images/broom01.jpg","img/object_images/guitar01.jpg","1","1","1","0","1","1","0.45025799999712","0.344363899959717","0.452980300004128","1","1","1","1","1","1","1","1","1"
"260014","img/object_images/guitar01.jpg","img/object_images/car02.jpg","img/object_images/pitcher03.jpg","1","1","1","1","0","1","0.452980300004128","0.45025799999712","0.45425010001054","1","1","1","1","1","1","1","1","1"
"260014","img/object_images/pitcher03.jpg","img/object_images/guitar01.jpg","img/object_images/brief_case02.jpg","1","1","1","1","1","1","0.45425010001054","0.452980300004128","0.497677599953022","1","1","1","1","1","1","1","1","1"
"260014","img/object_images/brief_case02.jpg","img/object_images/pitcher03.jpg","img/object_images/Woopie01.jpg","1","1","1","1","1","1","0.497677599953022","0.45425010001054","0.427096799947321","1","1","1","1","1","1","1","1","1"
"260014","img/object_images/Woopie01.jpg","img/object_images/brief_case02.jpg","img/object_images/toilet_paper01.jpg","1","1","1","1","1","1","0.427096799947321","0.497677599953022","0.461153900017962","1","1","1","1","1","1","1","1","1"
"260014","img/object_images/toilet_paper01.jpg","img/object_images/Woopie01.jpg","img/object_images/drone02.jpg","1","1","1","1","1","0","0.461153900017962","0.427096799947321","0.421349300013389","1","1","1","1","1","1","1","1","1"
"260014","img/object_images/drone02.jpg","img/object_images/toilet_paper01.jpg","img/object_images/basketball_hoop02.jpg","1","1","1","0","1","0","0.421349300013389","0.461153900017962","0.471952299994882","1","1","1","1","1","1","1","1","1"
"260014","img/object_images/basketball_hoop02.jpg","img/object_images/drone02.jpg","img/object_images/ball01.jpg","1","1","1","0","0","1","0.471952299994882","0.421349300013389","0.467813299968839","1","1","1","1","1","1","1","1","1"
"260014","img/object_images/ball01.jpg","img/object_images/basketball_hoop02.jpg","img/object_images/lamp01.jpg","1","1","1","1","0","1","0.467813299968839","0.471952299994882","0.413838599983137","1","1","1","1","1","1","1","1","1"
"260014","img/object_images/lamp01.jpg","img/object_images/ball01.jpg","img/object_images/Wisk01.jpg","1","1","1","1","1","1","0.413838599983137","0.467813299968839","0.418450299999677","1","1","1","1","1","1","1","1","1"
"260014","img/object_images/Wisk01.jpg","img/object_images/lamp01.jpg","img/object_images/toy_train02.jpg","1","1","1","1","1","1","0.418450299999677","0.413838599983137","0.430498700006865","1","1","1","1","1","1","1","1","1"
"260014","img/object_images/toy_train02.jpg","img/object_images/Wisk01.jpg","img/object_images/hat02.jpg","1","1","1","1","1","0","0.430498700006865","0.418450299999677","0.705852200044319","1","1","1","1","1","1","1","1","1"
"260014","img/object_images/hat02.jpg","img/object_images/toy_train02.jpg","img/object_images/razor03.jpg","1","1","1","0","1","0","0.705852200044319","0.430498700006865","0.635314500017557","1","1","1","1","1","1","1","1","1"
"260014","img/object_images/razor03.jpg","img/object_images/hat02.jpg","img/object_images/brief_case01.jpg","1","1","1","0","0","0","0.635314500017557","0.705852200044319","1.00718120002421","1","1","1","1","1","1","1","1","1"
"260014","img/object_images/brief_case01.jpg","img/object_images/razor03.jpg","img/object_images/pot01.jpg","1","1","1","0","0","0","1.00718120002421","0.635314500017557","0.61601920000976","1","1","1","1","1","1","1","1","1"
"260014","img/object_images/pot01.jpg","img/object_images/brief_case01.jpg","img/object_images/Recycling01.jpg","1","1","1","0","0","1","0.61601920000976","1.00718120002421","0.490682400006335","1","1","1","1","1","1","1","1","1"
"260014","img/object_images/Recycling01.jpg","img/object_images/pot01.jpg","img/object_images/container01.jpg","1","1","1","1","0","0","0.490682400006335","0.61601920000976","0.814697099965997","1","1","1","1","1","1","1","1","1"
"260014","img/object_images/container01.jpg","img/object_images/Recycling01.jpg","img/object_images/lantern01.jpg","1","1","1","0","1","1","0.814697099965997","0.490682400006335","0.475195300008636","1","1","1","1","1","1","1","1","1"
"260014","img/object_images/lantern01.jpg","img/object_images/container01.jpg",NA,"1","1",NA,"1","0",NA,"0.475195300008636","0.814697099965997",NA,"1","1",NA,"1","1",NA,"1","1",NA
"260014","img/object_images/Confetti 01.jpg",NA,"img/object_images/clipboard01.jpg","1",NA,"1","0",NA,"1","0.509033499984071",NA,"0.36949170002481","1",NA,"1","1",NA,"1","1",NA,"1"
"260014","img/object_images/clipboard01.jpg","img/object_images/Confetti 01.jpg","img/object_images/camera05.jpg","1","1","1","1","0","0","0.36949170002481","0.509033499984071","0.338816400035284","1","1","1","1","1","1","1","1","1"
"260014","img/object_images/camera05.jpg","img/object_images/clipboard01.jpg","img/object_images/pen06.jpg","1","1","0","0","1","0","0.338816400035284","0.36949170002481","0.312447400006931","1","1","1","1","1","1","1","1","1"
"260014","img/object_images/pen06.jpg","img/object_images/camera05.jpg","img/object_images/Candle_Holder01.jpg","0","1","1","0","0","0","0.312447400006931","0.338816400035284","0.442964499990922","1","1","1","1","1","1","1","1","1"
"260014","img/object_images/Candle_Holder01.jpg","img/object_images/pen06.jpg","img/object_images/vase02.jpg","1","0","1","0","0","1","0.442964499990922","0.312447400006931","0.43167799996445","1","1","1","1","1","1","1","1","1"
"260014","img/object_images/vase02.jpg","img/object_images/Candle_Holder01.jpg","img/object_images/lemon_squeezer01.jpg","1","1","1","1","0","1","0.43167799996445","0.442964499990922","0.305898500024341","1","1","1","1","1","1","1","1","1"
"260014","img/object_images/lemon_squeezer01.jpg","img/object_images/vase02.jpg","img/object_images/sign02.jpg","1","1","0","1","1","0","0.305898500024341","0.43167799996445","0.315519600000698","1","1","1","1","1","1","1","1","2"
"260014","img/object_images/sign02.jpg","img/object_images/lemon_squeezer01.jpg","img/object_images/hammer02.jpg","0","1","1","0","1","0","0.315519600000698","0.305898500024341","0.529940699983854","1","1","1","1","1","1","2","1","1"
"260014","img/object_images/hammer02.jpg","img/object_images/sign02.jpg","img/object_images/hat09.jpg","1","0","1","0","0","0","0.529940699983854","0.315519600000698","0.630889899970498","1","1","1","1","1","1","1","2","1"
"260014","img/object_images/hat09.jpg","img/object_images/hammer02.jpg","img/object_images/ruler02.jpg","1","1","1","0","0","1","0.630889899970498","0.529940699983854","0.322678899974562","1","1","1","1","1","1","1","1","1"
"260014","img/object_images/ruler02.jpg","img/object_images/hat09.jpg","img/object_images/sink_filter01 (1).jpg","1","1","1","1","0","0","0.322678899974562","0.630889899970498","0.380755199992564","1","1","1","1","1","1","1","1","1"
"260014","img/object_images/sink_filter01 (1).jpg","img/object_images/ruler02.jpg","img/object_images/office_supplies01.jpg","1","1","1","0","1","1","0.380755199992564","0.322678899974562","0.497047499986365","1","1","1","1","1","1","1","1","1"
"260014","img/object_images/office_supplies01.jpg","img/object_images/sink_filter01 (1).jpg","img/object_images/tool20.jpg","1","1","0","1","0","0","0.497047499986365","0.380755199992564","0.423696100013331","1","1","1","1","1","1","1","1","1"
"260014","img/object_images/tool20.jpg","img/object_images/office_supplies01.jpg","img/object_images/dust_pan01.jpg","0","1","0","0","1","1","0.423696100013331","0.497047499986365","0.321212599985301","1","1","1","1","1","1","1","1","1"
"260014","img/object_images/dust_pan01.jpg","img/object_images/tool20.jpg","img/object_images/duster01.jpg","0","0","1","1","0","0","0.321212599985301","0.423696100013331","0.660523800004739","1","1","1","1","1","1","1","1","1"
"260014","img/object_images/duster01.jpg","img/object_images/dust_pan01.jpg","img/object_images/glasses03.jpg","1","0","1","0","1","0","0.660523800004739","0.321212599985301","0.485753899964038","1","1","1","1","1","1","1","1","1"
"260014","img/object_images/glasses03.jpg","img/object_images/duster01.jpg","img/object_images/knife01.jpg","1","1","1","0","0","1","0.485753899964038","0.660523800004739","0.234484700020403","1","1","1","1","1","1","1","1","1"
"260014","img/object_images/knife01.jpg","img/object_images/glasses03.jpg","img/object_images/cup01.jpg","1","1","0","1","0","0","0.234484700020403","0.485753899964038","0.285084199975245","1","1","1","1","1","1","1","1","1"
"260014","img/object_images/cup01.jpg","img/object_images/knife01.jpg","img/object_images/candle02.jpg","0","1","1","0","1","0","0.285084199975245","0.234484700020403","0.533607899968047","1","1","1","1","1","1","1","1","1"
"260014","img/object_images/candle02.jpg","img/object_images/cup01.jpg","img/object_images/bag04.jpg","1","0","1","0","0","0","0.533607899968047","0.285084199975245","0.509085499972571","1","1","1","1","1","1","1","1","1"
"260014","img/object_images/bag04.jpg","img/object_images/candle02.jpg","img/object_images/razor02.jpg","1","1","0","0","0","1","0.509085499972571","0.533607899968047","0.24872430000687","1","1","1","1","1","1","1","1","1"
"260014","img/object_images/razor02.jpg","img/object_images/bag04.jpg","img/object_images/perfume01.jpg","0","1","1","1","0","0","0.24872430000687","0.509085499972571","0.666463000001386","1","1","1","1","1","1","1","1","1"
"260014","img/object_images/perfume01.jpg","img/object_images/razor02.jpg","img/object_images/spray_can01.jpg","1","0","0","0","1","0","0.666463000001386","0.24872430000687","0.364880100009032","1","1","1","1","1","1","1","1","1"
"260014","img/object_images/spray_can01.jpg","img/object_images/perfume01.jpg","img/object_images/pan03.jpg","0","1","1","0","0","1","0.364880100009032","0.666463000001386","0.518520899990108","1","1","1","1","1","1","1","1","1"
"260014","img/object_images/pan03.jpg","img/object_images/spray_can01.jpg","img/object_images/hat13.jpg","1","0","1","1","0","1","0.518520899990108","0.364880100009032","0.416786700021476","1","1","1","1","1","1","1","1","1"
"260014","img/object_images/hat13.jpg","img/object_images/pan03.jpg","img/object_images/video_game02.jpg","1","1","0","1","1","1","0.416786700021476","0.518520899990108",NA,"1","1","0","1","1","0","1","1","0"
"260014","img/object_images/video_game02.jpg","img/object_images/hat13.jpg","img/object_images/socks01.jpg","0","1","1","1","1","1",NA,"0.416786700021476","0.642682599951513","0","1","1","0","1","1","0","1","1"
"260014","img/object_images/socks01.jpg","img/object_images/video_game02.jpg","img/object_images/tool13.jpg","1","0","1","1","1","1","0.642682599951513",NA,"0.357050399994478","1","0","1","1","0","1","1","0","1"
"260014","img/object_images/tool13.jpg","img/object_images/socks01.jpg","img/object_images/board01.jpg","1","1","1","1","1","1","0.357050399994478","0.642682599951513","0.318694100016728","1","1","1","1","1","1","1","1","1"
"260014","img/object_images/board01.jpg","img/object_images/tool13.jpg","img/object_images/floss01.jpg","1","1","1","1","1","1","0.318694100016728","0.357050399994478","0.368223599973135","1","1","1","1","1","1","1","1","1"
"260014","img/object_images/floss01.jpg","img/object_images/board01.jpg","img/object_images/bow_tie03.jpg","1","1","1","1","1","1","0.368223599973135","0.318694100016728","0.344163000001572","1","1","1","1","1","1","1","1","1"
"260014","img/object_images/bow_tie03.jpg","img/object_images/floss01.jpg",NA,"1","1",NA,"1","1",NA,"0.344163000001572","0.368223599973135",NA,"1","1",NA,"1","1",NA,"1","1",NA
"260014","img/object_images/glasses07.jpg",NA,"img/object_images/hair_clips01.jpg","1",NA,"1","1",NA,"1","0.498001699976157",NA,"0.372810799977742","1",NA,"1","1",NA,"1","1",NA,"1"
"260014","img/object_images/hair_clips01.jpg","img/object_images/glasses07.jpg","img/object_images/gift_box04.jpg","1","1","0","1","1","0","0.372810799977742","0.498001699976157","0.37668180000037","1","1","1","1","1","1","1","1","1"
"260014","img/object_images/gift_box04.jpg","img/object_images/hair_clips01.jpg","img/object_images/fire_extinguisher01.jpg","0","1","1","0","1","0","0.37668180000037","0.372810799977742","0.514294799999334","1","1","1","1","1","1","1","1","1"
"260014","img/object_images/fire_extinguisher01.jpg","img/object_images/gift_box04.jpg","img/object_images/handcuffs01.jpg","1","0","1","0","0","0","0.514294799999334","0.37668180000037","0.476771399960853","1","1","1","1","1","1","1","1","1"
"260014","img/object_images/handcuffs01.jpg","img/object_images/fire_extinguisher01.jpg","img/object_images/TrashCan02.jpg","1","1","1","0","0","1","0.476771399960853","0.514294799999334","0.379203599994071","1","1","1","1","1","1","1","1","1"
"260014","img/object_images/TrashCan02.jpg","img/object_images/handcuffs01.jpg","img/object_images/cup03.jpg","1","1","1","1","0","1","0.379203599994071","0.476771399960853","0.290993000031449","1","1","1","1","1","1","1","1","1"
"260014","img/object_images/cup03.jpg","img/object_images/TrashCan02.jpg","img/object_images/colander01.jpg","1","1","1","1","1","0","0.290993000031449","0.379203599994071","0.545489000040106","1","1","1","1","1","1","1","1","1"
"260014","img/object_images/colander01.jpg","img/object_images/cup03.jpg","img/object_images/hole_puncher01.jpg","1","1","1","0","1","1","0.545489000040106","0.290993000031449","0.339527999982238","1","1","1","1","1","1","1","1","1"
"260014","img/object_images/hole_puncher01.jpg","img/object_images/colander01.jpg","img/object_images/tool07.jpg","1","1","1","1","0","0","0.339527999982238","0.545489000040106","0.470187500002794","1","1","1","1","1","1","1","1","1"
"260014","img/object_images/tool07.jpg","img/object_images/hole_puncher01.jpg","img/object_images/projector01.jpg","1","1","1","0","1","0","0.470187500002794","0.339527999982238","0.451545300020371","1","1","1","1","1","1","1","1","1"
"260014","img/object_images/projector01.jpg","img/object_images/tool07.jpg","img/object_images/Kitchen_Towel.jpg","1","1","1","0","0","0","0.451545300020371","0.470187500002794","0.327648499980569","1","1","1","1","1","1","1","1","1"
"260014","img/object_images/Kitchen_Towel.jpg","img/object_images/projector01.jpg","img/object_images/blanket01.jpg","1","1","1","0","0","1","0.327648499980569","0.451545300020371","0.389377399988007","1","1","1","1","1","1","1","1","1"
"260014","img/object_images/blanket01.jpg","img/object_images/Kitchen_Towel.jpg","img/object_images/purse01.jpg","1","1","1","1","0","1","0.389377399988007","0.327648499980569","0.330105799948797","1","1","1","1","1","1","1","1","1"
"260014","img/object_images/purse01.jpg","img/object_images/blanket01.jpg","img/object_images/yo_yo01.jpg","1","1","1","1","1","0","0.330105799948797","0.389377399988007","0.412344799959101","1","1","1","1","1","1","1","1","1"
"260014","img/object_images/yo_yo01.jpg","img/object_images/purse01.jpg","img/object_images/tray01.jpg","1","1","1","0","1","1","0.412344799959101","0.330105799948797","0.363043799996376","1","1","1","1","1","1","1","1","1"
"260014","img/object_images/tray01.jpg","img/object_images/yo_yo01.jpg","img/object_images/Pottery01.jpg","1","1","1","1","0","0","0.363043799996376","0.412344799959101","0.368144400010351","1","1","1","1","1","1","1","1","1"
"260014","img/object_images/Pottery01.jpg","img/object_images/tray01.jpg","img/object_images/tool08.jpg","1","1","1","0","1","0","0.368144400010351","0.363043799996376","0.364906499977224","1","1","1","1","1","1","1","1","1"
"260014","img/object_images/tool08.jpg","img/object_images/Pottery01.jpg","img/object_images/Sprayer01.jpg","1","1","0","0","0","0","0.364906499977224","0.368144400010351","0.349507600010838","1","1","1","1","1","1","1","1","1"
"260014","img/object_images/Sprayer01.jpg","img/object_images/tool08.jpg","img/object_images/book01.jpg","0","1","1","0","0","1","0.349507600010838","0.364906499977224","0.371018199948594","1","1","1","1","1","1","1","1","1"
"260014","img/object_images/book01.jpg","img/object_images/Sprayer01.jpg","img/object_images/Traffic Sign 01.jpg","1","0","0","1","0","0","0.371018199948594","0.349507600010838","0.385834200016689","1","1","1","1","1","1","1","1","1"
"260014","img/object_images/Traffic Sign 01.jpg","img/object_images/book01.jpg","img/object_images/pan01.jpg","0","1","1","0","1","1","0.385834200016689","0.371018199948594","0.49317540001357","1","1","1","1","1","1","1","1","1"
"260014","img/object_images/pan01.jpg","img/object_images/Traffic Sign 01.jpg","img/object_images/lighter01.jpg","1","0","1","1","0","1","0.49317540001357","0.385834200016689","0.42385479999939","1","1","1","1","1","1","1","1","1"
"260014","img/object_images/lighter01.jpg","img/object_images/pan01.jpg","img/object_images/cellphone02.jpg","1","1","1","1","1","1","0.42385479999939","0.49317540001357","0.355069999990519","1","1","1","1","1","1","1","1","1"
"260014","img/object_images/cellphone02.jpg","img/object_images/lighter01.jpg","img/object_images/exfoliater_brush01.jpg","1","1","1","1","1","0","0.355069999990519","0.42385479999939","0.509413000021596","1","1","1","1","1","1","1","1","1"
"260014","img/object_images/exfoliater_brush01.jpg","img/object_images/cellphone02.jpg","img/object_images/bicycle_lock01.jpg","1","1","1","0","1","0","0.509413000021596","0.355069999990519","0.432013200013898","1","1","1","1","1","1","1","1","1"
"260014","img/object_images/bicycle_lock01.jpg","img/object_images/exfoliater_brush01.jpg","img/object_images/glasses06.jpg","1","1","1","0","0","1","0.432013200013898","0.509413000021596","0.494910500012338","1","1","1","1","1","1","1","1","1"
"260014","img/object_images/glasses06.jpg","img/object_images/bicycle_lock01.jpg","img/object_images/ring03.jpg","1","1","1","1","0","1","0.494910500012338","0.432013200013898","0.349398099991959","1","1","1","1","1","1","1","1","1"
"260014","img/object_images/ring03.jpg","img/object_images/glasses06.jpg","img/object_images/speaker01.jpg","1","1","1","1","1","1","0.349398099991959","0.494910500012338","0.567636099993251","1","1","1","1","1","1","1","1","1"
"260014","img/object_images/speaker01.jpg","img/object_images/ring03.jpg","img/object_images/faucet01.jpg","1","1","0","1","1","0","0.567636099993251","0.349398099991959","0.377060100028757","1","1","1","1","1","1","1","1","1"
"260014","img/object_images/faucet01.jpg","img/object_images/speaker01.jpg","img/object_images/basket02.jpg","0","1","0","0","1","0","0.377060100028757","0.567636099993251","0.433563700004015","1","1","1","1","1","1","1","1","1"
"260014","img/object_images/basket02.jpg","img/object_images/faucet01.jpg","img/object_images/jewelry09.jpg","0","0","1","0","0","1","0.433563700004015","0.377060100028757","0.45408579998184","1","1","1","1","1","1","1","1","1"
"260014","img/object_images/jewelry09.jpg","img/object_images/basket02.jpg",NA,"1","0",NA,"1","0",NA,"0.45408579998184","0.433563700004015",NA,"1","1",NA,"1","1",NA,"1","1",NA
"260014","img/object_images/toilet_paper_dispenser01.jpg",NA,"img/object_images/dog_leash01.jpg","1",NA,"0","1",NA,"0","0.403815799974836",NA,"0.396237599954475","1",NA,"1","1",NA,"1","1",NA,"1"
"260014","img/object_images/dog_leash01.jpg","img/object_images/toilet_paper_dispenser01.jpg","img/object_images/tool19.jpg","0","1","1","0","1","1","0.396237599954475","0.403815799974836","0.357340999995358","1","1","1","1","1","1","1","1","1"
"260014","img/object_images/tool19.jpg","img/object_images/dog_leash01.jpg","img/object_images/cellphone03.jpg","1","0","1","1","0","0","0.357340999995358","0.396237599954475","0.387445799948182","1","1","1","1","1","1","1","1","1"
"260014","img/object_images/cellphone03.jpg","img/object_images/tool19.jpg","img/object_images/shoes07.jpg","1","1","1","0","1","0","0.387445799948182","0.357340999995358","0.471215699973982","1","1","1","1","1","1","1","1","1"
"260014","img/object_images/shoes07.jpg","img/object_images/cellphone03.jpg","img/object_images/boat02.jpg","1","1","1","0","0","1","0.471215699973982","0.387445799948182","0.390435500012245","1","1","1","1","1","1","1","1","1"
"260014","img/object_images/boat02.jpg","img/object_images/shoes07.jpg","img/object_images/bottle02.jpg","1","1","1","1","0","1","0.390435500012245","0.471215699973982","0.349777100025676","1","1","1","1","1","1","1","1","1"
"260014","img/object_images/bottle02.jpg","img/object_images/boat02.jpg","img/object_images/bean_bag02.jpg","1","1","1","1","1","1","0.349777100025676","0.390435500012245","0.407850500021596","1","1","1","1","1","1","1","1","1"
"260014","img/object_images/bean_bag02.jpg","img/object_images/bottle02.jpg","img/object_images/purse04.jpg","1","1","1","1","1","1","0.407850500021596","0.349777100025676","0.37117080000462","1","1","1","1","1","1","1","1","1"
"260014","img/object_images/purse04.jpg","img/object_images/bean_bag02.jpg","img/object_images/coloring_pencil02.jpg","1","1","0","1","1","0","0.37117080000462","0.407850500021596","0.302919499983545","1","1","1","1","1","1","1","1","1"
"260014","img/object_images/coloring_pencil02.jpg","img/object_images/purse04.jpg","img/object_images/camera_lens01.jpg","0","1","1","0","1","1","0.302919499983545","0.37117080000462","0.392177899950184","1","1","1","1","1","1","1","1","1"
"260014","img/object_images/camera_lens01.jpg","img/object_images/coloring_pencil02.jpg","img/object_images/bottle10.jpg","1","0","1","1","0","1","0.392177899950184","0.302919499983545","0.419385399960447","1","1","1","1","1","1","1","1","1"
"260014","img/object_images/bottle10.jpg","img/object_images/camera_lens01.jpg","img/object_images/piggy_bank01.jpg","1","1","1","1","1","1","0.419385399960447","0.392177899950184","0.449311500007752","1","1","1","1","1","1","1","1","1"
"260014","img/object_images/piggy_bank01.jpg","img/object_images/bottle10.jpg","img/object_images/audio_port01.jpg","1","1","1","1","1","1","0.449311500007752","0.419385399960447","0.435766799957491","1","1","1","1","1","1","1","1","1"
"260014","img/object_images/audio_port01.jpg","img/object_images/piggy_bank01.jpg","img/object_images/tie02.jpg","1","1","1","1","1","0","0.435766799957491","0.449311500007752","0.503746600006707","1","1","1","1","1","1","1","1","1"
"260014","img/object_images/tie02.jpg","img/object_images/audio_port01.jpg","img/object_images/boat_toy10.jpg","1","1","1","0","1","0","0.503746600006707","0.435766799957491","0.563845700002275","1","1","1","1","1","1","1","1","1"
"260014","img/object_images/boat_toy10.jpg","img/object_images/tie02.jpg","img/object_images/helmet04.jpg","1","1","0","0","0","1","0.563845700002275","0.503746600006707","0.324864999973215","1","1","1","1","1","1","1","1","1"
"260014","img/object_images/helmet04.jpg","img/object_images/boat_toy10.jpg","img/object_images/scoreboard01.jpg","0","1","1","1","0","1","0.324864999973215","0.563845700002275","0.447621500003152","1","1","1","1","1","1","1","1","1"
"260014","img/object_images/scoreboard01.jpg","img/object_images/helmet04.jpg","img/object_images/flask01.jpg","1","0","1","1","1","0","0.447621500003152","0.324864999973215","0.500052099989261","1","1","1","1","1","1","1","1","1"
"260014","img/object_images/flask01.jpg","img/object_images/scoreboard01.jpg","img/object_images/perfume02.jpg","1","1","1","0","1","0","0.500052099989261","0.447621500003152","0.518398499989416","1","1","1","1","1","1","1","1","1"
"260014","img/object_images/perfume02.jpg","img/object_images/flask01.jpg","img/object_images/chair03.jpg","1","1","1","0","0","0","0.518398499989416","0.500052099989261","0.472653699980583","1","1","1","1","1","1","1","1","1"
"260014","img/object_images/chair03.jpg","img/object_images/perfume02.jpg","img/object_images/wagon_cart03.jpg","1","1","1","0","0","1","0.472653699980583","0.518398499989416","0.611288400017656","1","1","1","1","1","1","1","1","1"
"260014","img/object_images/wagon_cart03.jpg","img/object_images/chair03.jpg","img/object_images/hot_air_balloon02.jpg","1","1","1","1","0","0","0.611288400017656","0.472653699980583","0.593515800021123","1","1","1","1","1","1","1","1","1"
"260014","img/object_images/hot_air_balloon02.jpg","img/object_images/wagon_cart03.jpg","img/object_images/bottle09.jpg","1","1","1","0","1","0","0.593515800021123","0.611288400017656","0.463441700034309","1","1","1","1","1","1","1","1","1"
"260014","img/object_images/bottle09.jpg","img/object_images/hot_air_balloon02.jpg","img/object_images/toaster01.jpg","1","1","1","0","0","1","0.463441700034309","0.593515800021123","0.405424399999902","1","1","1","1","1","1","1","1","1"
"260014","img/object_images/toaster01.jpg","img/object_images/bottle09.jpg","img/object_images/bicycle01.jpg","1","1","1","1","0","1","0.405424399999902","0.463441700034309","0.436449099972378","1","1","1","1","1","1","1","1","1"
"260014","img/object_images/bicycle01.jpg","img/object_images/toaster01.jpg","img/object_images/knit01.jpg","1","1","1","1","1","0","0.436449099972378","0.405424399999902","0.460961600008886","1","1","1","1","1","1","1","1","1"
"260014","img/object_images/knit01.jpg","img/object_images/bicycle01.jpg","img/object_images/pen05.jpg","1","1","1","0","1","0","0.460961600008886","0.436449099972378","0.461251500004437","1","1","1","1","1","1","1","1","1"
"260014","img/object_images/pen05.jpg","img/object_images/knit01.jpg","img/object_images/hat06.jpg","1","1","1","0","0","0","0.461251500004437","0.460961600008886","0.529352999990806","1","1","1","1","1","1","1","1","1"
"260014","img/object_images/hat06.jpg","img/object_images/pen05.jpg","img/object_images/WoodBox01.jpg","1","1","0","0","0","0","0.529352999990806","0.461251500004437","0.435105599986855","1","1","1","1","1","1","1","1","1"
"260014","img/object_images/WoodBox01.jpg","img/object_images/hat06.jpg","img/object_images/fan02.jpg","0","1","0","0","0","0","0.435105599986855","0.529352999990806","0.93490400002338","1","1","1","1","1","1","1","1","1"
"260014","img/object_images/fan02.jpg","img/object_images/WoodBox01.jpg","img/object_images/water_scooter01.jpg","0","0","1","0","0","1","0.93490400002338","0.435105599986855","0.506087300018407","1","1","1","1","1","1","1","1","1"
"260014","img/object_images/water_scooter01.jpg","img/object_images/fan02.jpg",NA,"1","0",NA,"1","0",NA,"0.506087300018407","0.93490400002338",NA,"1","1",NA,"1","1",NA,"1","1",NA
"260014","img/object_images/shower_head03.jpg",NA,"img/object_images/ladle02.jpg","1",NA,"0","1",NA,"0","0.680328499991447",NA,"0.918990299978759","1",NA,"1","1",NA,"1","1",NA,"1"
"260014","img/object_images/ladle02.jpg","img/object_images/shower_head03.jpg","img/object_images/tv01.jpg","0","1","1","0","1","0","0.918990299978759","0.680328499991447","0.780213100020774","1","1","1","1","1","1","1","1","1"
"260014","img/object_images/tv01.jpg","img/object_images/ladle02.jpg","img/object_images/jewel01.jpg","1","0","1","0","0","0","0.780213100020774","0.918990299978759","0.482197700010147","1","1","1","1","1","1","1","1","1"
"260014","img/object_images/jewel01.jpg","img/object_images/tv01.jpg","img/object_images/cutting_board01.jpg","1","1","1","0","0","1","0.482197700010147","0.780213100020774","0.379306200018618","1","1","1","1","1","1","1","1","1"
"260014","img/object_images/cutting_board01.jpg","img/object_images/jewel01.jpg","img/object_images/razor01.jpg","1","1","1","1","0","0","0.379306200018618","0.482197700010147","0.464309100003447","1","1","1","1","1","1","1","1","1"
"260014","img/object_images/razor01.jpg","img/object_images/cutting_board01.jpg","img/object_images/rock03.jpg","1","1","1","0","1","0","0.464309100003447","0.379306200018618","0.519626900029834","1","1","1","1","1","1","1","1","1"
"260014","img/object_images/rock03.jpg","img/object_images/razor01.jpg","img/object_images/dress03.jpg","1","1","1","0","0","1","0.519626900029834","0.464309100003447","0.52325850003399","1","1","1","1","1","1","1","1","1"
"260014","img/object_images/dress03.jpg","img/object_images/rock03.jpg","img/object_images/slinky_toy01.jpg","1","1","1","1","0","1","0.52325850003399","0.519626900029834","0.410451500036288","1","1","1","1","1","1","1","1","1"
"260014","img/object_images/slinky_toy01.jpg","img/object_images/dress03.jpg","img/object_images/ribbon01.jpg","1","1","1","1","1","0","0.410451500036288","0.52325850003399","0.516945300041698","1","1","1","1","1","1","1","1","1"
"260014","img/object_images/ribbon01.jpg","img/object_images/slinky_toy01.jpg","img/object_images/MeasuringCup01.jpg","1","1","1","0","1","1","0.516945300041698","0.410451500036288","0.55088729999261","1","1","1","1","1","1","1","1","1"
"260014","img/object_images/MeasuringCup01.jpg","img/object_images/ribbon01.jpg","img/object_images/ice_tray03.jpg","1","1","1","1","0","1","0.55088729999261","0.516945300041698","0.610303600027692","1","1","1","1","1","1","1","1","1"
"260014","img/object_images/ice_tray03.jpg","img/object_images/MeasuringCup01.jpg","img/object_images/shoes10.jpg","1","1","1","1","1","0","0.610303600027692","0.55088729999261","0.626207099994645","1","1","1","1","1","1","1","1","1"
"260014","img/object_images/shoes10.jpg","img/object_images/ice_tray03.jpg","img/object_images/fan05.jpg","1","1","1","0","1","0","0.626207099994645","0.610303600027692","0.504872000019532","1","1","1","1","1","1","1","1","1"
"260014","img/object_images/fan05.jpg","img/object_images/shoes10.jpg","img/object_images/cards01.jpg","1","1","1","0","0","0","0.504872000019532","0.626207099994645","0.531116200028919","1","1","1","1","1","1","1","1","1"
"260014","img/object_images/cards01.jpg","img/object_images/fan05.jpg","img/object_images/lemon_squeezer02.jpg","1","1","1","0","0","1","0.531116200028919","0.504872000019532","0.697648799978197","1","1","1","1","1","1","1","1","1"
"260014","img/object_images/lemon_squeezer02.jpg","img/object_images/cards01.jpg","img/object_images/car04.jpg","1","1","1","1","0","0","0.697648799978197","0.531116200028919","0.610102500009816","1","1","1","1","1","1","1","1","1"
"260014","img/object_images/car04.jpg","img/object_images/lemon_squeezer02.jpg","img/object_images/yarn02.jpg","1","1","1","0","1","0","0.610102500009816","0.697648799978197","0.512200400000438","1","1","1","1","1","1","1","1","1"
"260014","img/object_images/yarn02.jpg","img/object_images/car04.jpg","img/object_images/key02.jpg","1","1","1","0","0","1","0.512200400000438","0.610102500009816","0.506967399967834","1","1","1","1","1","1","1","1","1"
"260014","img/object_images/key02.jpg","img/object_images/yarn02.jpg","img/object_images/screwdriver01.jpg","1","1","1","1","0","0","0.506967399967834","0.512200400000438","0.579396299959626","1","1","1","1","1","1","1","1","1"
"260014","img/object_images/screwdriver01.jpg","img/object_images/key02.jpg","img/object_images/jewelry07.jpg","1","1","1","0","1","1","0.579396299959626","0.506967399967834","0.413780500006396","1","1","1","1","1","1","1","1","1"
"260014","img/object_images/jewelry07.jpg","img/object_images/screwdriver01.jpg","img/object_images/tool11.jpg","1","1","1","1","0","1","0.413780500006396","0.579396299959626","0.453159999975469","1","1","1","1","1","1","1","1","1"
"260014","img/object_images/tool11.jpg","img/object_images/jewelry07.jpg","img/object_images/toaster02.jpg","1","1","1","1","1","1","0.453159999975469","0.413780500006396","0.624830499989912","1","1","1","1","1","1","1","1","1"
"260014","img/object_images/toaster02.jpg","img/object_images/tool11.jpg","img/object_images/hair_brush05.jpg","1","1","1","1","1","1","0.624830499989912","0.453159999975469","0.429971700010356","1","1","1","1","1","1","1","1","1"
"260014","img/object_images/hair_brush05.jpg","img/object_images/toaster02.jpg","img/object_images/bag06.jpg","1","1","1","1","1","1","0.429971700010356","0.624830499989912","0.37294730002759","1","1","1","1","1","1","1","1","1"
"260014","img/object_images/bag06.jpg","img/object_images/hair_brush05.jpg","img/object_images/satellite01.jpg","1","1","1","1","1","0","0.37294730002759","0.429971700010356","0.361695099971257","1","1","1","1","1","1","1","1","1"
"260014","img/object_images/satellite01.jpg","img/object_images/bag06.jpg","img/object_images/belt01.jpg","1","1","0","0","1","0","0.361695099971257","0.37294730002759","0.355121799977496","1","1","1","1","1","1","1","1","1"
"260014","img/object_images/belt01.jpg","img/object_images/satellite01.jpg","img/object_images/chair04.jpg","0","1","1","0","0","1","0.355121799977496","0.361695099971257","0.609973400016315","1","1","1","1","1","1","1","1","1"
"260014","img/object_images/chair04.jpg","img/object_images/belt01.jpg","img/object_images/binoculars03.jpg","1","0","1","1","0","1","0.609973400016315","0.355121799977496","0.450838900054805","1","1","1","1","1","1","1","1","1"
"260014","img/object_images/binoculars03.jpg","img/object_images/chair04.jpg","img/object_images/WitchHat02.jpg","1","1","1","1","1","1","0.450838900054805","0.609973400016315","0.389367900032084","1","1","1","1","1","1","1","1","1"
"260014","img/object_images/WitchHat02.jpg","img/object_images/binoculars03.jpg","img/object_images/car03.jpg","1","1","1","1","1","0","0.389367900032084","0.450838900054805","0.57021919998806","1","1","1","1","1","1","1","1","1"
"260014","img/object_images/car03.jpg","img/object_images/WitchHat02.jpg","img/object_images/mask01.jpg","1","1","1","0","1","0","0.57021919998806","0.389367900032084","0.706191100005526","1","1","1","1","1","1","1","1","1"
"260014","img/object_images/mask01.jpg","img/object_images/car03.jpg",NA,"1","1",NA,"0","0",NA,"0.706191100005526","0.57021919998806",NA,"1","1",NA,"1","1",NA,"1","1",NA
"260014","img/object_images/surf_board01.jpg",NA,"img/object_images/laptop01.jpg","1",NA,"0","1",NA,"0","0.383109399990644",NA,"0.408128599985503","1",NA,"1","1",NA,"1","1",NA,"1"
"260014","img/object_images/laptop01.jpg","img/object_images/surf_board01.jpg","img/object_images/toy05.jpg","0","1","1","0","1","0","0.408128599985503","0.383109399990644","0.586255299975164","1","1","1","1","1","1","1","1","1"
"260014","img/object_images/toy05.jpg","img/object_images/laptop01.jpg","img/object_images/Vest02.jpg","1","0","1","0","0","0","0.586255299975164","0.408128599985503","0.510412000003271","1","1","1","1","1","1","1","1","1"
"260014","img/object_images/Vest02.jpg","img/object_images/toy05.jpg","img/object_images/shoes08.jpg","1","1","1","0","0","1","0.510412000003271","0.586255299975164","0.414954799984116","1","1","1","1","1","1","1","1","1"
"260014","img/object_images/shoes08.jpg","img/object_images/Vest02.jpg","img/object_images/microphone03.jpg","1","1","1","1","0","1","0.414954799984116","0.510412000003271","0.374990199983586","1","1","1","1","1","1","1","1","1"
"260014","img/object_images/microphone03.jpg","img/object_images/shoes08.jpg","img/object_images/calculator01.jpg","1","1","1","1","1","1","0.374990199983586","0.414954799984116","0.352386299986392","1","1","1","1","1","1","1","1","1"
"260014","img/object_images/calculator01.jpg","img/object_images/microphone03.jpg","img/object_images/helmet02.jpg","1","1","1","1","1","0","0.352386299986392","0.374990199983586","0.434799899987411","1","1","1","1","1","1","1","1","1"
"260014","img/object_images/helmet02.jpg","img/object_images/calculator01.jpg","img/object_images/chess_piece01.jpg","1","1","1","0","1","0","0.434799899987411","0.352386299986392","0.539142400026321","1","1","1","1","1","1","1","1","1"
"260014","img/object_images/chess_piece01.jpg","img/object_images/helmet02.jpg","img/object_images/trash_can05.jpg","1","1","1","0","0","1","0.539142400026321","0.434799899987411","0.364578799984884","1","1","1","1","1","1","1","1","1"
"260014","img/object_images/trash_can05.jpg","img/object_images/chess_piece01.jpg","img/object_images/hair_dryer01.jpg","1","1","1","1","0","0","0.364578799984884","0.539142400026321","0.30228529998567","1","1","1","1","1","1","1","1","1"
"260014","img/object_images/hair_dryer01.jpg","img/object_images/trash_can05.jpg","img/object_images/trash_can03.jpg","1","1","1","0","1","1","0.30228529998567","0.364578799984884","0.393403199966997","1","1","1","1","1","1","1","1","1"
"260014","img/object_images/trash_can03.jpg","img/object_images/hair_dryer01.jpg","img/object_images/pitcher05.jpg","1","1","1","1","0","0","0.393403199966997","0.30228529998567","0.515587899950333","1","1","1","1","1","1","1","1","1"
"260014","img/object_images/pitcher05.jpg","img/object_images/trash_can03.jpg","img/object_images/umbrella01.jpg","1","1","1","0","1","0","0.515587899950333","0.393403199966997","0.2682177000097","1","1","1","1","1","1","1","1","1"
"260014","img/object_images/umbrella01.jpg","img/object_images/pitcher05.jpg","img/object_images/lock01.jpg","1","1","0","0","0","0","0.2682177000097","0.515587899950333","0.397826300002635","1","1","1","1","1","1","1","1","1"
"260014","img/object_images/lock01.jpg","img/object_images/umbrella01.jpg","img/object_images/combs01.jpg","0","1","1","0","0","1","0.397826300002635","0.2682177000097","0.444655400002375","1","1","1","1","1","1","1","1","1"
"260014","img/object_images/combs01.jpg","img/object_images/lock01.jpg","img/object_images/bucket02.jpg","1","0","1","1","0","1","0.444655400002375","0.397826300002635","0.49424089997774","1","1","1","1","1","1","1","1","1"
"260014","img/object_images/bucket02.jpg","img/object_images/combs01.jpg","img/object_images/backpack03.jpg","1","1","1","1","1","1","0.49424089997774","0.444655400002375","0.423443900013808","1","1","1","1","1","1","1","1","1"
"260014","img/object_images/backpack03.jpg","img/object_images/bucket02.jpg","img/object_images/chair02.jpg","1","1","1","1","1","1","0.423443900013808","0.49424089997774","0.386909199994989","1","1","1","1","1","1","1","1","1"
"260014","img/object_images/chair02.jpg","img/object_images/backpack03.jpg","img/object_images/robe01.jpg","1","1","1","1","1","1","0.386909199994989","0.423443900013808","0.373403800011147","1","1","1","1","1","1","1","1","1"
"260014","img/object_images/robe01.jpg","img/object_images/chair02.jpg","img/object_images/fan04.jpg","1","1","1","1","1","0","0.373403800011147","0.386909199994989","0.274710100027732","1","1","1","1","1","1","1","1","1"
"260014","img/object_images/fan04.jpg","img/object_images/robe01.jpg","img/object_images/stove01.jpg","1","1","1","0","1","0","0.274710100027732","0.373403800011147","0.47408740001265","1","1","1","1","1","1","1","1","1"
"260014","img/object_images/stove01.jpg","img/object_images/fan04.jpg","img/object_images/ball02.jpg","1","1","1","0","0","1","0.47408740001265","0.274710100027732","0.373404299956746","1","1","1","1","1","1","1","1","1"
"260014","img/object_images/ball02.jpg","img/object_images/stove01.jpg","img/object_images/accardion01.jpg","1","1","1","1","0","1","0.373404299956746","0.47408740001265","0.347707799985074","1","1","1","1","1","1","1","1","1"
"260014","img/object_images/accardion01.jpg","img/object_images/ball02.jpg","img/object_images/laptop03.jpg","1","1","1","1","1","1","0.347707799985074","0.373404299956746","0.305184299999382","1","1","1","1","1","1","1","1","1"
"260014","img/object_images/laptop03.jpg","img/object_images/accardion01.jpg","img/object_images/spatula02.jpg","1","1","1","1","1","1","0.305184299999382","0.347707799985074","0.395987599971704","1","1","1","1","1","1","1","1","1"
"260014","img/object_images/spatula02.jpg","img/object_images/laptop03.jpg","img/object_images/jewel03.jpg","1","1","1","1","1","1","0.395987599971704","0.305184299999382","0.388138499984052","1","1","1","1","1","1","1","1","1"
"260014","img/object_images/jewel03.jpg","img/object_images/spatula02.jpg","img/object_images/hair_brush02.jpg","1","1","1","1","1","0","0.388138499984052","0.395987599971704","0.684088100038934","1","1","1","1","1","1","1","1","1"
"260014","img/object_images/hair_brush02.jpg","img/object_images/jewel03.jpg","img/object_images/towels01.jpg","1","1","1","0","1","0","0.684088100038934","0.388138499984052","0.34208180004498","1","1","1","1","1","1","1","1","1"
"260014","img/object_images/towels01.jpg","img/object_images/hair_brush02.jpg","img/object_images/Lint_Roller02.jpg","1","1","1","0","0","0","0.34208180004498","0.684088100038934","0.501633699983358","1","1","1","1","1","1","1","1","1"
"260014","img/object_images/Lint_Roller02.jpg","img/object_images/towels01.jpg","img/object_images/vase01.jpg","1","1","1","0","0","0","0.501633699983358","0.34208180004498","0.597184099955484","1","1","1","1","1","1","1","1","1"
"260014","img/object_images/vase01.jpg","img/object_images/Lint_Roller02.jpg","img/object_images/gift_box05.jpg","1","1","0","0","0","0","0.597184099955484","0.501633699983358","0.330996000033338","1","1","1","1","1","1","1","1","1"
"260014","img/object_images/gift_box05.jpg","img/object_images/vase01.jpg",NA,"0","1",NA,"0","0",NA,"0.330996000033338","0.597184099955484",NA,"1","1",NA,"1","1",NA,"1","1",NA
"260014","img/object_images/Safe01.jpg",NA,"img/object_images/frame01.jpg","1",NA,"1","1",NA,"1","0.31997929996578",NA,"0.43151740002213","1",NA,"1","1",NA,"1","1",NA,"1"
"260014","img/object_images/frame01.jpg","img/object_images/Safe01.jpg","img/object_images/piano03.jpg","1","1","0","1","1","0","0.43151740002213","0.31997929996578","0.369650400010869","1","1","1","1","1","1","1","1","1"
"260014","img/object_images/piano03.jpg","img/object_images/frame01.jpg","img/object_images/origami01.jpg","0","1","1","0","1","1","0.369650400010869","0.43151740002213","0.379709400003776","1","1","1","1","1","1","1","1","1"
"260014","img/object_images/origami01.jpg","img/object_images/piano03.jpg","img/object_images/tennis_racket01.jpg","1","0","1","1","0","1","0.379709400003776","0.369650400010869","0.272437200008426","1","1","1","1","1","1","1","1","1"
"260014","img/object_images/tennis_racket01.jpg","img/object_images/origami01.jpg","img/object_images/badminton01.jpg","1","1","1","1","1","1","0.272437200008426","0.379709400003776","0.324627799971495","1","1","1","1","1","1","1","1","1"
"260014","img/object_images/badminton01.jpg","img/object_images/tennis_racket01.jpg","img/object_images/lock03.jpg","1","1","1","1","1","1","0.324627799971495","0.272437200008426","0.435715600033291","1","1","1","1","1","1","1","1","1"
"260014","img/object_images/lock03.jpg","img/object_images/badminton01.jpg","img/object_images/pitcher07.jpg","1","1","1","1","1","1","0.435715600033291","0.324627799971495","0.64915850001853","1","1","1","1","1","1","1","1","1"
"260014","img/object_images/pitcher07.jpg","img/object_images/lock03.jpg","img/object_images/note_book02.jpg","1","1","1","1","1","0","0.64915850001853","0.435715600033291","0.476412800024264","1","1","1","1","1","1","1","1","1"
"260014","img/object_images/note_book02.jpg","img/object_images/pitcher07.jpg","img/object_images/Eyeliner01.jpg","1","1","1","0","1","1","0.476412800024264","0.64915850001853","0.461014400003478","1","1","1","1","1","1","1","1","1"
"260014","img/object_images/Eyeliner01.jpg","img/object_images/note_book02.jpg","img/object_images/trumpet01.jpg","1","1","1","1","0","0","0.461014400003478","0.476412800024264","0.468815799977165","1","1","1","1","1","1","1","1","1"
"260014","img/object_images/trumpet01.jpg","img/object_images/Eyeliner01.jpg","img/object_images/headset02.jpg","1","1","1","0","1","0","0.468815799977165","0.461014400003478","0.607262499979697","1","1","1","1","1","1","1","1","1"
"260014","img/object_images/headset02.jpg","img/object_images/trumpet01.jpg","img/object_images/ToolBag01.jpg","1","1","1","0","0","0","0.607262499979697","0.468815799977165","0.378186499990989","1","1","1","1","1","1","1","1","1"
"260014","img/object_images/ToolBag01.jpg","img/object_images/headset02.jpg","img/object_images/TreeSlice01.jpg","1","1","1","0","0","1","0.378186499990989","0.607262499979697","0.437843299994711","1","1","1","1","1","1","1","1","1"
"260014","img/object_images/TreeSlice01.jpg","img/object_images/ToolBag01.jpg","img/object_images/fan01.jpg","1","1","0","1","0","0","0.437843299994711","0.378186499990989","0.28272299998207","1","1","1","1","1","1","1","1","1"
"260014","img/object_images/fan01.jpg","img/object_images/TreeSlice01.jpg","img/object_images/helmet03.jpg","0","1","1","0","1","1","0.28272299998207","0.437843299994711","0.509245600027498","1","1","1","1","1","1","1","1","1"
"260014","img/object_images/helmet03.jpg","img/object_images/fan01.jpg","img/object_images/yoga_mat01.jpg","1","0","1","1","0","0","0.509245600027498","0.28272299998207","0.466370200039819","1","1","1","1","1","1","1","1","1"
"260014","img/object_images/yoga_mat01.jpg","img/object_images/helmet03.jpg","img/object_images/water_gun01.jpg","1","1","1","0","1","1","0.466370200039819","0.509245600027498","0.445261600019876","1","1","1","1","1","1","1","1","1"
"260014","img/object_images/water_gun01.jpg","img/object_images/yoga_mat01.jpg","img/object_images/egg_basket01.jpg","1","1","1","1","0","1","0.445261600019876","0.466370200039819","0.406527700019069","1","1","1","1","1","1","1","1","1"
"260014","img/object_images/egg_basket01.jpg","img/object_images/water_gun01.jpg","img/object_images/bucket01.jpg","1","1","1","1","1","1","0.406527700019069","0.445261600019876","0.356183900032192","1","1","1","1","1","1","1","1","1"
"260014","img/object_images/bucket01.jpg","img/object_images/egg_basket01.jpg","img/object_images/joystick03.jpg","1","1","1","1","1","1","0.356183900032192","0.406527700019069","0.357917899964377","1","1","1","1","1","1","1","1","1"
"260014","img/object_images/joystick03.jpg","img/object_images/bucket01.jpg","img/object_images/scale02.jpg","1","1","1","1","1","0","0.357917899964377","0.356183900032192","0.296015899977647","1","1","1","1","1","1","1","1","1"
"260014","img/object_images/scale02.jpg","img/object_images/joystick03.jpg","img/object_images/phone04.jpg","1","1","0","0","1","1","0.296015899977647","0.357917899964377","0.287317000038456","1","1","1","1","1","1","1","1","1"
"260014","img/object_images/phone04.jpg","img/object_images/scale02.jpg","img/object_images/belt03.jpg","0","1","1","1","0","0","0.287317000038456","0.296015899977647","0.409202000009827","1","1","1","1","1","1","1","1","1"
"260014","img/object_images/belt03.jpg","img/object_images/phone04.jpg","img/object_images/nut_cracker01.jpg","1","0","1","0","1","1","0.409202000009827","0.287317000038456","0.439560100028757","1","1","1","1","1","1","1","1","1"
"260014","img/object_images/nut_cracker01.jpg","img/object_images/belt03.jpg","img/object_images/dice01.jpg","1","1","1","1","0","0","0.439560100028757","0.409202000009827","0.403215099999215","1","1","1","1","1","1","1","1","1"
"260014","img/object_images/dice01.jpg","img/object_images/nut_cracker01.jpg","img/object_images/usb03.jpg","1","1","1","0","1","0","0.403215099999215","0.439560100028757","0.58182309998665","1","1","1","1","1","1","1","1","1"
"260014","img/object_images/usb03.jpg","img/object_images/dice01.jpg","img/object_images/shovel01.jpg","1","1","1","0","0","0","0.58182309998665","0.403215099999215","0.491714200004935","1","1","1","1","1","1","1","1","1"
"260014","img/object_images/shovel01.jpg","img/object_images/usb03.jpg","img/object_images/bookmark01.jpg","1","1","1","0","0","0","0.491714200004935","0.58182309998665","0.541623299999628","1","1","1","1","1","1","1","1","1"
"260014","img/object_images/bookmark01.jpg","img/object_images/shovel01.jpg","img/object_images/Shoes05.jpg","1","1","1","0","0","0","0.541623299999628","0.491714200004935","0.548049899982288","1","1","1","1","1","1","1","1","1"
"260014","img/object_images/Shoes05.jpg","img/object_images/bookmark01.jpg","img/object_images/bottle06.jpg","1","1","1","0","0","0","0.548049899982288","0.541623299999628","0.601329799974337","1","1","1","1","1","1","1","1","1"
"260014","img/object_images/bottle06.jpg","img/object_images/Shoes05.jpg","img/object_images/jewel02.jpg","1","1","1","0","0","0","0.601329799974337","0.548049899982288","0.421450299967546","1","1","1","1","1","1","1","1","1"
"260014","img/object_images/jewel02.jpg","img/object_images/bottle06.jpg",NA,"1","1",NA,"0","0",NA,"0.421450299967546","0.601329799974337",NA,"1","1",NA,"1","1",NA,"1","1",NA
"260014","img/object_images/clip03.jpg",NA,"img/object_images/motorcycle01.jpg","1",NA,"1","0",NA,"1","0.51591760001611",NA,"0.443823600013275","1",NA,"1","1",NA,"1","1",NA,"1"
"260014","img/object_images/motorcycle01.jpg","img/object_images/clip03.jpg","img/object_images/paint_brush04.jpg","1","1","0","1","0","0","0.443823600013275","0.51591760001611","0.432125599996652","1","1","1","1","1","1","1","1","1"
"260014","img/object_images/paint_brush04.jpg","img/object_images/motorcycle01.jpg","img/object_images/cellphone01.jpg","0","1","1","0","1","1","0.432125599996652","0.443823600013275","0.436470000015106","1","1","1","1","1","1","1","1","1"
"260014","img/object_images/cellphone01.jpg","img/object_images/paint_brush04.jpg","img/object_images/Thermometer01.jpg","1","0","1","1","0","0","0.436470000015106","0.432125599996652","0.466332799987867","1","1","1","1","1","1","1","1","1"
"260014","img/object_images/Thermometer01.jpg","img/object_images/cellphone01.jpg","img/object_images/clock02.jpg","1","1","1","0","1","0","0.466332799987867","0.436470000015106","0.379178999981377","1","1","1","1","1","1","1","1","1"
"260014","img/object_images/clock02.jpg","img/object_images/Thermometer01.jpg","img/object_images/floppy_disk03.jpg","1","1","1","0","0","1","0.379178999981377","0.466332799987867","0.42966870003147","1","1","1","1","1","1","1","1","1"
"260014","img/object_images/floppy_disk03.jpg","img/object_images/clock02.jpg","img/object_images/pen03.jpg","1","1","1","1","0","0","0.42966870003147","0.379178999981377","0.559952499985229","1","1","1","1","1","1","1","1","1"
"260014","img/object_images/pen03.jpg","img/object_images/floppy_disk03.jpg","img/object_images/wire02.jpg","1","1","1","0","1","1","0.559952499985229","0.42966870003147","0.32984929997474","1","1","1","1","1","1","1","1","1"
"260014","img/object_images/wire02.jpg","img/object_images/pen03.jpg","img/object_images/usb02.jpg","1","1","1","1","0","0","0.32984929997474","0.559952499985229","0.317092299985234","1","1","1","1","1","1","1","1","1"
"260014","img/object_images/usb02.jpg","img/object_images/wire02.jpg","img/object_images/tv02.jpg","1","1","1","0","1","0","0.317092299985234","0.32984929997474","0.335344199964311","1","1","1","1","1","1","1","1","1"
"260014","img/object_images/tv02.jpg","img/object_images/usb02.jpg","img/object_images/tennis_racket02.jpg","1","1","1","0","0","1","0.335344199964311","0.317092299985234","0.272597399947699","1","1","1","1","1","1","1","1","1"
"260014","img/object_images/tennis_racket02.jpg","img/object_images/tv02.jpg","img/object_images/knife04.jpg","1","1","1","1","0","1","0.272597399947699","0.335344199964311","0.32593839999754","1","1","1","1","1","1","1","1","1"
"260014","img/object_images/knife04.jpg","img/object_images/tennis_racket02.jpg","img/object_images/pitcher01.jpg","1","1","0","1","1","0","0.32593839999754","0.272597399947699","0.328233600012027","1","1","1","1","1","1","1","1","2"
"260014","img/object_images/pitcher01.jpg","img/object_images/knife04.jpg","img/object_images/chair05.jpg","0","1","1","0","1","0","0.328233600012027","0.32593839999754","0.329449500015471","1","1","1","1","1","1","2","1","1"
"260014","img/object_images/chair05.jpg","img/object_images/pitcher01.jpg","img/object_images/retainer01.jpg","1","0","0","0","0","0","0.329449500015471","0.328233600012027","0.425210799963679","1","1","1","1","1","1","1","2","2"
"260014","img/object_images/retainer01.jpg","img/object_images/chair05.jpg","img/object_images/knit05.jpg","0","1","1","0","0","1","0.425210799963679","0.329449500015471","0.312310100009199","1","1","1","1","1","1","2","1","1"
"260014","img/object_images/knit05.jpg","img/object_images/retainer01.jpg","img/object_images/pillows01.jpg","1","0","1","1","0","1","0.312310100009199","0.425210799963679","0.319726300018374","1","1","1","1","1","1","1","2","1"
"260014","img/object_images/pillows01.jpg","img/object_images/knit05.jpg","img/object_images/microscope01.jpg","1","1","0","1","1","0","0.319726300018374","0.312310100009199","0.347569099976681","1","1","1","1","1","1","1","1","1"
"260014","img/object_images/microscope01.jpg","img/object_images/pillows01.jpg","img/object_images/Oven01.jpg","0","1","1","0","1","1","0.347569099976681","0.319726300018374","0.319126899994444","1","1","1","1","1","1","1","1","1"
"260014","img/object_images/Oven01.jpg","img/object_images/microscope01.jpg","img/object_images/bottle01.jpg","1","0","1","1","0","0","0.319126899994444","0.347569099976681","0.463244099984877","1","1","1","1","1","1","1","1","1"
"260014","img/object_images/bottle01.jpg","img/object_images/Oven01.jpg","img/object_images/bell02.jpg","1","1","1","0","1","0","0.463244099984877","0.319126899994444","0.46418349997839","1","1","1","1","1","1","1","1","1"
"260014","img/object_images/bell02.jpg","img/object_images/bottle01.jpg","img/object_images/floppy_disk02.jpg","1","1","1","0","0","0","0.46418349997839","0.463244099984877","0.47707000002265","1","1","1","1","1","1","1","1","1"
"260014","img/object_images/floppy_disk02.jpg","img/object_images/bell02.jpg","img/object_images/Staples01.jpg","1","1","0","0","0","1","0.47707000002265","0.46418349997839","0.311076999991201","1","1","1","1","1","1","1","1","1"
"260014","img/object_images/Staples01.jpg","img/object_images/floppy_disk02.jpg","img/object_images/lid01.jpg","0","1","1","1","0","1","0.311076999991201","0.47707000002265","0.420788199990056","1","1","1","1","1","1","1","1","1"
"260014","img/object_images/lid01.jpg","img/object_images/Staples01.jpg","img/object_images/ear_bud01.jpg","1","0","1","1","1","1","0.420788199990056","0.311076999991201","0.332804399949964","1","1","1","1","1","1","1","1","1"
"260014","img/object_images/ear_bud01.jpg","img/object_images/lid01.jpg","img/object_images/chess_piece02.jpg","1","1","1","1","1","1","0.332804399949964","0.420788199990056","0.260706099972595","1","1","1","1","1","1","1","1","1"
"260014","img/object_images/chess_piece02.jpg","img/object_images/ear_bud01.jpg","img/object_images/hammer03.jpg","1","1","1","1","1","1","0.260706099972595","0.332804399949964","0.557291899982374","1","1","1","1","1","1","1","1","1"
"260014","img/object_images/hammer03.jpg","img/object_images/chess_piece02.jpg","img/object_images/note_book01.jpg","1","1","0","1","1","0","0.557291899982374","0.260706099972595","0.383130999980494","1","1","1","1","1","1","1","1","1"
"260014","img/object_images/note_book01.jpg","img/object_images/hammer03.jpg","img/object_images/crutches02.jpg","0","1","1","0","1","0","0.383130999980494","0.557291899982374","0.29354310000781","1","1","1","1","1","1","1","1","1"
"260014","img/object_images/crutches02.jpg","img/object_images/note_book01.jpg","img/object_images/compass01.jpg","1","0","1","0","0","1","0.29354310000781","0.383130999980494","0.391638299974147","1","1","1","1","1","1","1","1","1"
"260014","img/object_images/compass01.jpg","img/object_images/crutches02.jpg","img/object_images/book03.jpg","1","1","1","1","0","1","0.391638299974147","0.29354310000781","0.521509899990633","1","1","1","1","1","1","1","1","1"
"260014","img/object_images/book03.jpg","img/object_images/compass01.jpg",NA,"1","1",NA,"1","1",NA,"0.521509899990633","0.391638299974147",NA,"1","1",NA,"1","1",NA,"1","1",NA
"260014","img/object_images/remote_controller01.jpg",NA,"img/object_images/curtain02.jpg","1",NA,"1","1",NA,"0","0.336963599955197",NA,"0.415682599996217","1",NA,"1","1",NA,"1","1",NA,"1"
"260014","img/object_images/curtain02.jpg","img/object_images/remote_controller01.jpg","img/object_images/camera03.jpg","1","1","1","0","1","0","0.415682599996217","0.336963599955197","0.405175999971107","1","1","1","1","1","1","1","1","1"
"260014","img/object_images/camera03.jpg","img/object_images/curtain02.jpg","img/object_images/boat04.jpg","1","1","1","0","0","0","0.405175999971107","0.415682599996217","0.433640800009016","1","1","1","1","1","1","1","1","1"
"260014","img/object_images/boat04.jpg","img/object_images/camera03.jpg","img/object_images/knit04.jpg","1","1","1","0","0","1","0.433640800009016","0.405175999971107","0.312864499981515","1","1","1","1","1","1","1","1","1"
"260014","img/object_images/knit04.jpg","img/object_images/boat04.jpg","img/object_images/blender02.jpg","1","1","1","1","0","1","0.312864499981515","0.433640800009016","0.446935800020583","1","1","1","1","1","1","1","1","1"
"260014","img/object_images/blender02.jpg","img/object_images/knit04.jpg","img/object_images/dresser03.jpg","1","1","0","1","1","0","0.446935800020583","0.312864499981515","0.376555499969982","1","1","1","1","1","1","1","1","1"
"260014","img/object_images/dresser03.jpg","img/object_images/blender02.jpg","img/object_images/kite01.jpg","0","1","1","0","1","1","0.376555499969982","0.446935800020583","0.41493020002963","1","1","1","1","1","1","1","1","1"
"260014","img/object_images/kite01.jpg","img/object_images/dresser03.jpg","img/object_images/mail_box01.jpg","1","0","1","1","0","0","0.41493020002963","0.376555499969982","0.452058300026693","1","1","1","1","1","1","1","1","1"
"260014","img/object_images/mail_box01.jpg","img/object_images/kite01.jpg","img/object_images/remover01.jpg","1","1","1","0","1","1","0.452058300026693","0.41493020002963","0.37915290001547","1","1","1","1","1","1","1","1","1"
"260014","img/object_images/remover01.jpg","img/object_images/mail_box01.jpg","img/object_images/jacket04.jpg","1","1","1","1","0","0","0.37915290001547","0.452058300026693","0.473035999981221","1","1","1","1","1","1","1","1","1"
"260014","img/object_images/jacket04.jpg","img/object_images/remover01.jpg","img/object_images/keyboard02.jpg","1","1","1","0","1","1","0.473035999981221","0.37915290001547","0.455967099987902","1","1","1","1","1","1","1","1","1"
"260014","img/object_images/keyboard02.jpg","img/object_images/jacket04.jpg","img/object_images/basket04.jpg","1","1","1","1","0","1","0.455967099987902","0.473035999981221","0.445700599986594","1","1","1","1","1","1","1","1","1"
"260014","img/object_images/basket04.jpg","img/object_images/keyboard02.jpg","img/object_images/flashlight03.jpg","1","1","1","1","1","0","0.445700599986594","0.455967099987902","0.445224899973255","1","1","1","1","1","1","1","1","1"
"260014","img/object_images/flashlight03.jpg","img/object_images/basket04.jpg","img/object_images/backpack01.jpg","1","1","1","0","1","0","0.445224899973255","0.445700599986594","0.418661300034728","1","1","1","1","1","1","1","1","1"
"260014","img/object_images/backpack01.jpg","img/object_images/flashlight03.jpg","img/object_images/video_game01.jpg","1","1","1","0","0","1","0.418661300034728","0.445224899973255","0.335974999994505","1","1","1","1","1","1","1","1","1"
"260014","img/object_images/video_game01.jpg","img/object_images/backpack01.jpg","img/object_images/knife02.jpg","1","1","1","1","0","0","0.335974999994505","0.418661300034728","0.416448900010437","1","1","1","1","1","1","1","1","1"
"260014","img/object_images/knife02.jpg","img/object_images/video_game01.jpg","img/object_images/Statue01.jpg","1","1","1","0","1","1","0.416448900010437","0.335974999994505","0.457616099971347","1","1","1","1","1","1","1","1","1"
"260014","img/object_images/Statue01.jpg","img/object_images/knife02.jpg","img/object_images/phone02.jpg","1","1","1","1","0","1","0.457616099971347","0.416448900010437","0.390743699972518","1","1","1","1","1","1","1","1","1"
"260014","img/object_images/phone02.jpg","img/object_images/Statue01.jpg","img/object_images/gloves02.jpg","1","1","0","1","1","0","0.390743699972518","0.457616099971347","0.313522399985231","1","1","1","1","1","1","1","1","1"
"260014","img/object_images/gloves02.jpg","img/object_images/phone02.jpg","img/object_images/paper_cup02.jpg","0","1","1","0","1","1","0.313522399985231","0.390743699972518","0.324024699977599","1","1","1","1","1","1","1","1","1"
"260014","img/object_images/paper_cup02.jpg","img/object_images/gloves02.jpg","img/object_images/knit03.jpg","1","0","1","1","0","1","0.324024699977599","0.313522399985231","0.323246999992989","1","1","1","1","1","1","1","1","1"
"260014","img/object_images/knit03.jpg","img/object_images/paper_cup02.jpg","img/object_images/matches02.jpg","1","1","1","1","1","0","0.323246999992989","0.324024699977599","0.490046699997038","1","1","1","1","1","1","1","1","1"
"260014","img/object_images/matches02.jpg","img/object_images/knit03.jpg","img/object_images/toy08.jpg","1","1","1","0","1","0","0.490046699997038","0.323246999992989","0.477183399954811","1","1","1","1","1","1","1","1","1"
"260014","img/object_images/toy08.jpg","img/object_images/matches02.jpg","img/object_images/car01.jpg","1","1","1","0","0","1","0.477183399954811","0.490046699997038","0.392541599983815","1","1","1","1","1","1","1","1","1"
"260014","img/object_images/car01.jpg","img/object_images/toy08.jpg","img/object_images/bottle07.jpg","1","1","0","1","0","1","0.392541599983815","0.477183399954811","0.333616200019605","1","1","1","1","1","1","1","1","1"
"260014","img/object_images/bottle07.jpg","img/object_images/car01.jpg","img/object_images/hoverboard01.jpg","0","1","0","1","1","0","0.333616200019605","0.392541599983815","0.413726099999622","1","1","1","1","1","1","1","1","1"
"260014","img/object_images/hoverboard01.jpg","img/object_images/bottle07.jpg","img/object_images/hand_grip_exerciser01.jpg","0","0","1","0","1","0","0.413726099999622","0.333616200019605","0.352294499985874","1","1","1","1","1","1","1","1","1"
"260014","img/object_images/hand_grip_exerciser01.jpg","img/object_images/hoverboard01.jpg","img/object_images/sponge03.jpg","1","0","1","0","0","1","0.352294499985874","0.413726099999622","0.459122000029311","1","1","1","1","1","1","1","1","1"
"260014","img/object_images/sponge03.jpg","img/object_images/hand_grip_exerciser01.jpg","img/object_images/stereo02.jpg","1","1","0","1","0","0","0.459122000029311","0.352294499985874","0.431394499959424","1","1","1","1","1","1","1","1","1"
"260014","img/object_images/stereo02.jpg","img/object_images/sponge03.jpg","img/object_images/tool18.jpg","0","1","1","0","1","0","0.431394499959424","0.459122000029311","0.449520599970128","1","1","1","1","1","1","1","1","1"
"260014","img/object_images/tool18.jpg","img/object_images/stereo02.jpg","img/object_images/shower_head01.jpg","1","0","1","0","0","1","0.449520599970128","0.431394499959424","0.389284299977589","1","1","1","1","1","1","1","1","1"
"260014","img/object_images/shower_head01.jpg","img/object_images/tool18.jpg",NA,"1","1",NA,"1","0",NA,"0.389284299977589","0.449520599970128",NA,"1","1",NA,"1","1",NA,"1","1",NA
"260014","img/object_images/pen01.jpg",NA,"img/object_images/mail_box02.jpg","1",NA,"1","0",NA,"1","0.55756869999459",NA,"0.407884599990211","1",NA,"1","1",NA,"1","1",NA,"1"
"260014","img/object_images/mail_box02.jpg","img/object_images/pen01.jpg","img/object_images/tool06.jpg","1","1","1","1","0","0","0.407884599990211","0.55756869999459","0.461829200037755","1","1","1","1","1","1","1","1","1"
"260014","img/object_images/tool06.jpg","img/object_images/mail_box02.jpg","img/object_images/toothbrush01.jpg","1","1","0","0","1","0","0.461829200037755","0.407884599990211","0.357973899983335","1","1","1","1","1","1","1","1","1"
"260014","img/object_images/toothbrush01.jpg","img/object_images/tool06.jpg","img/object_images/floss02.jpg","0","1","1","0","0","1","0.357973899983335","0.461829200037755","0.34684939996805","1","1","1","1","1","1","1","1","1"
"260014","img/object_images/floss02.jpg","img/object_images/toothbrush01.jpg","img/object_images/Trowel01.jpg","1","0","1","1","0","0","0.34684939996805","0.357973899983335","0.387407400005031","1","1","1","1","1","1","1","1","1"
"260014","img/object_images/Trowel01.jpg","img/object_images/floss02.jpg","img/object_images/scarf01.jpg","1","1","1","0","1","1","0.387407400005031","0.34684939996805","0.379291600023862","1","1","1","1","1","1","1","1","1"
"260014","img/object_images/scarf01.jpg","img/object_images/Trowel01.jpg","img/object_images/box03.jpg","1","1","1","1","0","0","0.379291600023862","0.387407400005031","0.408304499986116","1","1","1","1","1","1","1","1","1"
"260014","img/object_images/box03.jpg","img/object_images/scarf01.jpg","img/object_images/airfryer02.jpg","1","1","1","0","1","1","0.408304499986116","0.379291600023862","0.361668700003065","1","1","1","1","1","1","1","1","1"
"260014","img/object_images/airfryer02.jpg","img/object_images/box03.jpg","img/object_images/egg_slicer01.jpg","1","1","1","1","0","1","0.361668700003065","0.408304499986116","0.409758900001179","1","1","1","1","1","1","1","1","1"
"260014","img/object_images/egg_slicer01.jpg","img/object_images/airfryer02.jpg","img/object_images/soap03.jpg","1","1","1","1","1","0","0.409758900001179","0.361668700003065","0.405510599957779","1","1","1","1","1","1","1","1","1"
"260014","img/object_images/soap03.jpg","img/object_images/egg_slicer01.jpg","img/object_images/hair_brush01.jpg","1","1","1","0","1","1","0.405510599957779","0.409758900001179","0.416197200014722","1","1","1","1","1","1","1","1","1"
"260014","img/object_images/hair_brush01.jpg","img/object_images/soap03.jpg","img/object_images/book02.jpg","1","1","1","1","0","1","0.416197200014722","0.405510599957779","0.380762799992226","1","1","1","1","1","1","1","1","1"
"260014","img/object_images/book02.jpg","img/object_images/hair_brush01.jpg","img/object_images/skate_board01.jpg","1","1","0","1","1","0","0.380762799992226","0.416197200014722","0.304789400019217","1","1","1","1","1","1","1","1","1"
"260014","img/object_images/skate_board01.jpg","img/object_images/book02.jpg","img/object_images/Violin01.jpg","0","1","0","0","1","0","0.304789400019217","0.380762799992226","0.327267899992876","1","1","1","1","1","1","1","1","2"
"260014","img/object_images/Violin01.jpg","img/object_images/skate_board01.jpg","img/object_images/clip04.jpg","0","0","1","0","0","1","0.327267899992876","0.304789400019217","0.627864799986128","1","1","1","1","1","1","2","1","1"
"260014","img/object_images/clip04.jpg","img/object_images/Violin01.jpg","img/object_images/blender01.jpg","1","0","0","1","0","0","0.627864799986128","0.327267899992876","0.422527000016998","1","1","1","1","1","1","1","2","1"
"260014","img/object_images/blender01.jpg","img/object_images/clip04.jpg","img/object_images/toy01.jpg","0","1","1","0","1","1","0.422527000016998","0.627864799986128","0.415211899962742","1","1","1","1","1","1","1","1","1"
"260014","img/object_images/toy01.jpg","img/object_images/blender01.jpg","img/object_images/video_game03.jpg","1","0","1","1","0","1","0.415211899962742","0.422527000016998","0.342295899987221","1","1","1","1","1","1","1","1","1"
"260014","img/object_images/video_game03.jpg","img/object_images/toy01.jpg","img/object_images/couch01.jpg","1","1","0","1","1","0","0.342295899987221","0.415211899962742","0.3021124000079","1","1","1","1","1","1","1","1","1"
"260014","img/object_images/couch01.jpg","img/object_images/video_game03.jpg","img/object_images/bell03.jpg","0","1","1","0","1","0","0.3021124000079","0.342295899987221","0.453767099999823","1","1","1","1","1","1","1","1","1"
"260014","img/object_images/bell03.jpg","img/object_images/couch01.jpg","img/object_images/bag_pipes01.jpg","1","0","1","0","0","1","0.453767099999823","0.3021124000079","0.355365199968219","1","1","1","1","1","1","1","1","1"
"260014","img/object_images/bag_pipes01.jpg","img/object_images/bell03.jpg","img/object_images/tripod01.jpg","1","1","1","1","0","1","0.355365199968219","0.453767099999823","0.463093099999242","1","1","1","1","1","1","1","1","1"
"260014","img/object_images/tripod01.jpg","img/object_images/bag_pipes01.jpg","img/object_images/chain01.jpg","1","1","0","1","1","0","0.463093099999242","0.355365199968219","0.438306200027","1","1","1","1","1","1","1","1","1"
"260014","img/object_images/chain01.jpg","img/object_images/tripod01.jpg","img/object_images/computer_mouse02.jpg","0","1","1","0","1","0","0.438306200027","0.463093099999242","0.574591599986888","1","1","1","1","1","1","1","1","1"
"260014","img/object_images/computer_mouse02.jpg","img/object_images/chain01.jpg","img/object_images/chair06.jpg","1","0","1","0","0","0","0.574591599986888","0.438306200027","0.513034600007813","1","1","1","1","1","1","1","1","1"
"260014","img/object_images/chair06.jpg","img/object_images/computer_mouse02.jpg","img/object_images/shoes12.jpg","1","1","1","0","0","1","0.513034600007813","0.574591599986888","0.458847399975639","1","1","1","1","1","1","1","1","1"
"260014","img/object_images/shoes12.jpg","img/object_images/chair06.jpg","img/object_images/drone01.jpg","1","1","1","1","0","1","0.458847399975639","0.513034600007813","0.345988199987914","1","1","1","1","1","1","1","1","1"
"260014","img/object_images/drone01.jpg","img/object_images/shoes12.jpg","img/object_images/fork02.jpg","1","1","0","1","1","0","0.345988199987914","0.458847399975639","0.429660900030285","1","1","1","1","1","1","1","1","1"
"260014","img/object_images/fork02.jpg","img/object_images/drone01.jpg","img/object_images/computer_mouse01.jpg","0","1","1","0","1","1","0.429660900030285","0.345988199987914","0.42032079998171","1","1","1","1","1","1","1","1","1"
"260014","img/object_images/computer_mouse01.jpg","img/object_images/fork02.jpg","img/object_images/pitcher09.jpg","1","0","1","1","0","1","0.42032079998171","0.429660900030285","0.364390200003982","1","1","1","1","1","1","1","1","1"
"260014","img/object_images/pitcher09.jpg","img/object_images/computer_mouse01.jpg","img/object_images/rock02.jpg","1","1","1","1","1","0","0.364390200003982","0.42032079998171","0.393877199967392","1","1","1","1","1","1","1","1","1"
"260014","img/object_images/rock02.jpg","img/object_images/pitcher09.jpg",NA,"1","1",NA,"0","1",NA,"0.393877199967392","0.364390200003982",NA,"1","1",NA,"1","1",NA,"1","1",NA
"260014","img/object_images/gift_box01.jpg",NA,"img/object_images/sleeping_bag01.jpg","1",NA,"0","1",NA,"0","0.531398999970406",NA,"0.324130100023467","1",NA,"1","1",NA,"1","1",NA,"1"
"260014","img/object_images/sleeping_bag01.jpg","img/object_images/gift_box01.jpg","img/object_images/pitcher02.jpg","0","1","1","0","1","1","0.324130100023467","0.531398999970406","0.424268599948846","1","1","1","1","1","1","1","1","1"
"260014","img/object_images/pitcher02.jpg","img/object_images/sleeping_bag01.jpg","img/object_images/Screws01.jpg","1","0","1","1","0","1","0.424268599948846","0.324130100023467","0.346465500013437","1","1","1","1","1","1","1","1","1"
"260014","img/object_images/Screws01.jpg","img/object_images/pitcher02.jpg","img/object_images/hammer01.jpg","1","1","0","1","1","0","0.346465500013437","0.424268599948846","0.277417400036938","1","1","1","1","1","1","1","1","1"
"260014","img/object_images/hammer01.jpg","img/object_images/Screws01.jpg","img/object_images/lock04.jpg","0","1","1","0","1","1","0.277417400036938","0.346465500013437","0.420554900018033","1","1","1","1","1","1","1","1","1"
"260014","img/object_images/lock04.jpg","img/object_images/hammer01.jpg","img/object_images/socks02.jpg","1","0","1","1","0","0","0.420554900018033","0.277417400036938","0.48536430002423","1","1","1","1","1","1","1","1","1"
"260014","img/object_images/socks02.jpg","img/object_images/lock04.jpg","img/object_images/gift_box03.jpg","1","1","1","0","1","0","0.48536430002423","0.420554900018033","0.489832099992782","1","1","1","1","1","1","1","1","1"
"260014","img/object_images/gift_box03.jpg","img/object_images/socks02.jpg","img/object_images/bath_tub01.jpg","1","1","1","0","0","0","0.489832099992782","0.48536430002423","0.42244870000286","1","1","1","1","1","1","1","1","1"
"260014","img/object_images/bath_tub01.jpg","img/object_images/gift_box03.jpg","img/object_images/balloon01.jpg","1","1","1","0","0","0","0.42244870000286","0.489832099992782","0.484941500006244","1","1","1","1","1","1","1","1","1"
"260014","img/object_images/balloon01.jpg","img/object_images/bath_tub01.jpg","img/object_images/clip02.jpg","1","1","1","0","0","1","0.484941500006244","0.42244870000286","0.445818800013512","1","1","1","1","1","1","1","1","1"
"260014","img/object_images/clip02.jpg","img/object_images/balloon01.jpg","img/object_images/funnel01.jpg","1","1","1","1","0","0","0.445818800013512","0.484941500006244","0.538347999972757","1","1","1","1","1","1","1","1","1"
"260014","img/object_images/funnel01.jpg","img/object_images/clip02.jpg","img/object_images/handkerchief01.jpg","1","1","1","0","1","0","0.538347999972757","0.445818800013512","0.555317600024864","1","1","1","1","1","1","1","1","1"
"260014","img/object_images/handkerchief01.jpg","img/object_images/funnel01.jpg","img/object_images/jewelry01.jpg","1","1","1","0","0","1","0.555317600024864","0.538347999972757","0.362462200049777","1","1","1","1","1","1","1","1","1"
"260014","img/object_images/jewelry01.jpg","img/object_images/handkerchief01.jpg","img/object_images/dresser04.jpg","1","1","0","1","0","0","0.362462200049777","0.555317600024864",NA,"1","1","0","1","1","0","1","1","0"
"260014","img/object_images/dresser04.jpg","img/object_images/jewelry01.jpg","img/object_images/paper_cup01.jpg","0","1","1","0","1","0",NA,"0.362462200049777","0.413544400013052","0","1","1","0","1","1","0","1","1"
"260014","img/object_images/paper_cup01.jpg","img/object_images/dresser04.jpg","img/object_images/ironing_table01.jpg","1","0","1","0","0","0","0.413544400013052",NA,"0.495807400031481","1","0","1","1","0","1","1","0","1"
"260014","img/object_images/ironing_table01.jpg","img/object_images/paper_cup01.jpg","img/object_images/measuring_tape02.jpg","1","1","1","0","0","1","0.495807400031481","0.413544400013052","0.391064000024926","1","1","1","1","1","1","1","1","1"
"260014","img/object_images/measuring_tape02.jpg","img/object_images/ironing_table01.jpg","img/object_images/grater01.jpg","1","1","1","1","0","1","0.391064000024926","0.495807400031481","0.427291799976956","1","1","1","1","1","1","1","1","1"
"260014","img/object_images/grater01.jpg","img/object_images/measuring_tape02.jpg","img/object_images/camera07.jpg","1","1","1","1","1","1","0.427291799976956","0.391064000024926","0.384938999952283","1","1","1","1","1","1","1","1","1"
"260014","img/object_images/camera07.jpg","img/object_images/grater01.jpg","img/object_images/vga_port 01.jpg","1","1","1","1","1","0","0.384938999952283","0.427291799976956","0.626779199985322","1","1","1","1","1","1","1","1","1"
"260014","img/object_images/vga_port 01.jpg","img/object_images/camera07.jpg","img/object_images/Witchhat01.jpg","1","1","1","0","1","1","0.626779199985322","0.384938999952283","0.352219099993818","1","1","1","1","1","1","1","1","1"
"260014","img/object_images/Witchhat01.jpg","img/object_images/vga_port 01.jpg","img/object_images/golf_ball03.jpg","1","1","1","1","0","1","0.352219099993818","0.626779199985322","0.404472100024577","1","1","1","1","1","1","1","1","1"
"260014","img/object_images/golf_ball03.jpg","img/object_images/Witchhat01.jpg","img/object_images/gift_box02.jpg","1","1","1","1","1","1","0.404472100024577","0.352219099993818","0.479770500038285","1","1","1","1","1","1","1","1","1"
"260014","img/object_images/gift_box02.jpg","img/object_images/golf_ball03.jpg","img/object_images/jacket03.jpg","1","1","1","1","1","0","0.479770500038285","0.404472100024577","0.510637399973348","1","1","1","1","1","1","1","1","1"
"260014","img/object_images/jacket03.jpg","img/object_images/gift_box02.jpg","img/object_images/lawn_mower01.jpg","1","1","1","0","1","1","0.510637399973348","0.479770500038285","0.429205299995374","1","1","1","1","1","1","1","1","1"
"260014","img/object_images/lawn_mower01.jpg","img/object_images/jacket03.jpg","img/object_images/fork03.jpg","1","1","1","1","0","1","0.429205299995374","0.510637399973348","0.383486700011417","1","1","1","1","1","1","1","1","1"
"260014","img/object_images/fork03.jpg","img/object_images/lawn_mower01.jpg","img/object_images/wallet02.jpg","1","1","1","1","1","1","0.383486700011417","0.429205299995374","0.407517199986614","1","1","1","1","1","1","1","1","1"
"260014","img/object_images/wallet02.jpg","img/object_images/fork03.jpg","img/object_images/bow_tie01.jpg","1","1","1","1","1","0","0.407517199986614","0.383486700011417","0.579991400009021","1","1","1","1","1","1","1","1","1"
"260014","img/object_images/bow_tie01.jpg","img/object_images/wallet02.jpg","img/object_images/coloring_pencil01.jpg","1","1","1","0","1","1","0.579991400009021","0.407517199986614","0.444135199999437","1","1","1","1","1","1","1","1","1"
"260014","img/object_images/coloring_pencil01.jpg","img/object_images/bow_tie01.jpg","img/object_images/bow_tie02.jpg","1","1","0","1","0","0","0.444135199999437","0.579991400009021","0.413944299973082","1","1","1","1","1","1","1","1","1"
"260014","img/object_images/bow_tie02.jpg","img/object_images/coloring_pencil01.jpg","img/object_images/couch03.jpg","0","1","1","0","1","0","0.413944299973082","0.444135199999437","0.635912199970335","1","1","1","1","1","1","1","1","1"
"260014","img/object_images/couch03.jpg","img/object_images/bow_tie02.jpg",NA,"1","0",NA,"0","0",NA,"0.635912199970335","0.413944299973082",NA,"1","1",NA,"1","1",NA,"1","1",NA
"260014","img/object_images/outlet01.jpg",NA,"img/object_images/mirror01.jpg","1",NA,"1","0",NA,"1","0.91224679996958",NA,"0.40276210004231","1",NA,"1","1",NA,"1","1",NA,"1"
"260014","img/object_images/mirror01.jpg","img/object_images/outlet01.jpg","img/object_images/pot01 (1).jpg","1","1","0","1","0","0","0.40276210004231","0.91224679996958","0.312631000007968","1","1","1","1","1","1","1","1","1"
"260014","img/object_images/pot01 (1).jpg","img/object_images/mirror01.jpg","img/object_images/acoustic_capo01.jpg","0","1","1","0","1","1","0.312631000007968","0.40276210004231","0.42299659998389","1","1","1","1","1","1","1","1","1"
"260014","img/object_images/acoustic_capo01.jpg","img/object_images/pot01 (1).jpg","img/object_images/toy04.jpg","1","0","1","1","0","0","0.42299659998389","0.312631000007968","0.484644299955107","1","1","1","1","1","1","1","1","1"
"260014","img/object_images/toy04.jpg","img/object_images/acoustic_capo01.jpg","img/object_images/Tin01.jpg","1","1","1","0","1","1","0.484644299955107","0.42299659998389","0.402077499951702","1","1","1","1","1","1","1","1","1"
"260014","img/object_images/Tin01.jpg","img/object_images/toy04.jpg","img/object_images/shovel03.jpg","1","1","1","1","0","1","0.402077499951702","0.484644299955107","0.294712200004142","1","1","1","1","1","1","1","1","1"
"260014","img/object_images/shovel03.jpg","img/object_images/Tin01.jpg","img/object_images/Vacuum01.jpg","1","1","1","1","1","0","0.294712200004142","0.402077499951702","0.505901499942411","1","1","1","1","1","1","1","1","1"
"260014","img/object_images/Vacuum01.jpg","img/object_images/shovel03.jpg","img/object_images/crown02.jpg","1","1","1","0","1","1","0.505901499942411","0.294712200004142","0.366210599953774","1","1","1","1","1","1","1","1","1"
"260014","img/object_images/crown02.jpg","img/object_images/Vacuum01.jpg","img/object_images/tool02.jpg","1","1","1","1","0","1","0.366210599953774","0.505901499942411","0.400478600000497","1","1","1","1","1","1","1","1","1"
"260014","img/object_images/tool02.jpg","img/object_images/crown02.jpg","img/object_images/sink01.jpg","1","1","1","1","1","0","0.400478600000497","0.366210599953774","0.378924299962819","1","1","1","1","1","1","1","1","1"
"260014","img/object_images/sink01.jpg","img/object_images/tool02.jpg","img/object_images/video_game07.jpg","1","1","1","0","1","1","0.378924299962819","0.400478600000497","0.395739800005686","1","1","1","1","1","1","1","1","1"
"260014","img/object_images/video_game07.jpg","img/object_images/sink01.jpg","img/object_images/Stool01.jpg","1","1","0","1","0","0","0.395739800005686","0.378924299962819","0.493632500001695","1","1","1","1","1","1","1","1","1"
"260014","img/object_images/Stool01.jpg","img/object_images/video_game07.jpg","img/object_images/tool09.jpg","0","1","1","0","1","1","0.493632500001695","0.395739800005686","0.401889400032815","1","1","1","1","1","1","1","1","1"
"260014","img/object_images/tool09.jpg","img/object_images/Stool01.jpg","img/object_images/helmet01.jpg","1","0","0","1","0","0","0.401889400032815","0.493632500001695","0.36411040002713","1","1","1","1","1","1","1","1","1"
"260014","img/object_images/helmet01.jpg","img/object_images/tool09.jpg","img/object_images/watch01.jpg","0","1","0","0","1","0","0.36411040002713","0.401889400032815","0.4225336999516","1","1","1","1","1","1","1","1","1"
"260014","img/object_images/watch01.jpg","img/object_images/helmet01.jpg","img/object_images/fridge03.jpg","0","0","1","0","0","0","0.4225336999516","0.36411040002713","0.714090299967211","1","1","1","1","1","1","1","1","1"
"260014","img/object_images/fridge03.jpg","img/object_images/watch01.jpg","img/object_images/MetalWire01.jpg","1","0","1","0","0","0","0.714090299967211","0.4225336999516","0.392844799964223","1","1","1","1","1","1","1","1","1"
"260014","img/object_images/MetalWire01.jpg","img/object_images/fridge03.jpg","img/object_images/judge_gavel01.jpg","1","1","1","0","0","1","0.392844799964223","0.714090299967211","0.394192899984773","1","1","1","1","1","1","1","1","1"
"260014","img/object_images/judge_gavel01.jpg","img/object_images/MetalWire01.jpg","img/object_images/bird_house02.jpg","1","1","1","1","0","1","0.394192899984773","0.392844799964223","0.434045599948149","1","1","1","1","1","1","1","1","1"
"260014","img/object_images/bird_house02.jpg","img/object_images/judge_gavel01.jpg","img/object_images/towel02.jpg","1","1","1","1","1","1","0.434045599948149","0.394192899984773","0.287429300020449","1","1","1","1","1","1","1","1","1"
"260014","img/object_images/towel02.jpg","img/object_images/bird_house02.jpg","img/object_images/stapler.jpg","1","1","1","1","1","1","0.287429300020449","0.434045599948149","0.400818999973126","1","1","1","1","1","1","1","1","1"
"260014","img/object_images/stapler.jpg","img/object_images/towel02.jpg","img/object_images/toy03.jpg","1","1","1","1","1","1","0.400818999973126","0.287429300020449","0.370761799975298","1","1","1","1","1","1","1","1","1"
"260014","img/object_images/toy03.jpg","img/object_images/stapler.jpg","img/object_images/gauze01.jpg","1","1","1","1","1","0","0.370761799975298","0.400818999973126","0.411621399980504","1","1","1","1","1","1","1","1","1"
"260014","img/object_images/gauze01.jpg","img/object_images/toy03.jpg","img/object_images/bow01.jpg","1","1","1","0","1","1","0.411621399980504","0.370761799975298","0.304916299995966","1","1","1","1","1","1","1","1","1"
"260014","img/object_images/bow01.jpg","img/object_images/gauze01.jpg","img/object_images/ornament01.jpg","1","1","1","1","0","1","0.304916299995966","0.411621399980504","0.332257699978072","1","1","1","1","1","1","1","1","1"
"260014","img/object_images/ornament01.jpg","img/object_images/bow01.jpg","img/object_images/bottle05.jpg","1","1","1","1","1","0","0.332257699978072","0.304916299995966","0.565230300009716","1","1","1","1","1","1","1","1","1"
"260014","img/object_images/bottle05.jpg","img/object_images/ornament01.jpg","img/object_images/frisbee01.jpg","1","1","1","0","1","1","0.565230300009716","0.332257699978072","0.429022900003474","1","1","1","1","1","1","1","1","1"
"260014","img/object_images/frisbee01.jpg","img/object_images/bottle05.jpg","img/object_images/dart01.jpg","1","1","1","1","0","0","0.429022900003474","0.565230300009716","0.404029299970716","1","1","1","1","1","1","1","1","1"
"260014","img/object_images/dart01.jpg","img/object_images/frisbee01.jpg","img/object_images/jewel04.jpg","1","1","1","0","1","0","0.404029299970716","0.429022900003474","0.448283300036564","1","1","1","1","1","1","1","1","1"
"260014","img/object_images/jewel04.jpg","img/object_images/dart01.jpg","img/object_images/guitar02.jpg","1","1","1","0","0","0","0.448283300036564","0.404029299970716","0.460502600006294","1","1","1","1","1","1","1","1","1"
"260014","img/object_images/guitar02.jpg","img/object_images/jewel04.jpg","img/object_images/Ring02.jpg","1","1","1","0","0","0","0.460502600006294","0.448283300036564","0.438793599954806","1","1","1","1","1","1","1","1","1"
"260014","img/object_images/Ring02.jpg","img/object_images/guitar02.jpg",NA,"1","1",NA,"0","0",NA,"0.438793599954806","0.460502600006294",NA,"1","1",NA,"1","1",NA,"1","1",NA
