"participant_id","current_trial_object","pre_trial_object","post_trial_object","current_trial_accuracy","pre_trial_accuracy","post_trial_accuracy","current_trial_congruency","pre_trial_congruency","post_trial_congruency","current_trial_rt","pre_trial_rt","post_trial_rt","current_trial_responded","pre_trial_responded","post_trial_responded","current_trial_legitResponse","pre_trial_legitResponse","post_trial_legitResponse","current_trial_resp_nums","pre_trial_resp_nums","post_trial_resp_nums"
"260012","img/object_images/jewel03.jpg",NA,"img/object_images/robe01.jpg","1",NA,"1","1",NA,"1","0.704026099992916",NA,"0.750095600029454","1",NA,"1","1",NA,"1","1",NA,"1"
"260012","img/object_images/robe01.jpg","img/object_images/jewel03.jpg","img/object_images/hair_brush02.jpg","1","1","1","1","1","0","0.750095600029454","0.704026099992916","0.618131299997913","1","1","1","1","1","1","1","1","1"
"260012","img/object_images/hair_brush02.jpg","img/object_images/robe01.jpg","img/object_images/bucket02.jpg","1","1","1","0","1","1","0.618131299997913","0.750095600029454","0.570840500004124","1","1","1","1","1","1","1","1","1"
"260012","img/object_images/bucket02.jpg","img/object_images/hair_brush02.jpg","img/object_images/pitcher05.jpg","1","1","1","1","0","0","0.570840500004124","0.618131299997913","0.502651399991009","1","1","1","1","1","1","1","1","1"
"260012","img/object_images/pitcher05.jpg","img/object_images/bucket02.jpg","img/object_images/toy05.jpg","1","1","1","0","1","0","0.502651399991009","0.570840500004124","1.23127419999219","1","1","1","1","1","1","1","1","1"
"260012","img/object_images/toy05.jpg","img/object_images/pitcher05.jpg","img/object_images/backpack03.jpg","1","1","1","0","0","1","1.23127419999219","0.502651399991009","0.899151899997378","1","1","1","1","1","1","1","1","1"
"260012","img/object_images/backpack03.jpg","img/object_images/toy05.jpg","img/object_images/vase01.jpg","1","1","1","1","0","0","0.899151899997378","1.23127419999219","0.773319300002186","1","1","1","1","1","1","1","1","1"
"260012","img/object_images/vase01.jpg","img/object_images/backpack03.jpg","img/object_images/trash_can05.jpg","1","1","1","0","1","1","0.773319300002186","0.899151899997378","0.716417799994815","1","1","1","1","1","1","1","1","1"
"260012","img/object_images/trash_can05.jpg","img/object_images/vase01.jpg","img/object_images/laptop01.jpg","1","1","1","1","0","0","0.716417799994815","0.773319300002186","0.523440000019036","1","1","1","1","1","1","1","1","1"
"260012","img/object_images/laptop01.jpg","img/object_images/trash_can05.jpg","img/object_images/trash_can03.jpg","1","1","1","0","1","1","0.523440000019036","0.716417799994815","0.580552100000205","1","1","1","1","1","1","1","1","1"
"260012","img/object_images/trash_can03.jpg","img/object_images/laptop01.jpg","img/object_images/chess_piece01.jpg","1","1","1","1","0","0","0.580552100000205","0.523440000019036","0.537608799990267","1","1","1","1","1","1","1","1","1"
"260012","img/object_images/chess_piece01.jpg","img/object_images/trash_can03.jpg","img/object_images/calculator01.jpg","1","1","1","0","1","1","0.537608799990267","0.580552100000205","0.522842599981232","1","1","1","1","1","1","1","1","1"
"260012","img/object_images/calculator01.jpg","img/object_images/chess_piece01.jpg","img/object_images/surf_board01.jpg","1","1","1","1","0","1","0.522842599981232","0.537608799990267","0.459209200023906","1","1","1","1","1","1","1","1","1"
"260012","img/object_images/surf_board01.jpg","img/object_images/calculator01.jpg","img/object_images/umbrella01.jpg","1","1","1","1","1","0","0.459209200023906","0.522842599981232","0.580460400000447","1","1","1","1","1","1","1","1","1"
"260012","img/object_images/umbrella01.jpg","img/object_images/surf_board01.jpg","img/object_images/hair_dryer01.jpg","1","1","1","0","1","0","0.580460400000447","0.459209200023906","0.610297800012631","1","1","1","1","1","1","1","1","1"
"260012","img/object_images/hair_dryer01.jpg","img/object_images/umbrella01.jpg","img/object_images/stove01.jpg","1","1","1","0","0","0","0.610297800012631","0.580460400000447","0.684322000015527","1","1","1","1","1","1","1","1","1"
"260012","img/object_images/stove01.jpg","img/object_images/hair_dryer01.jpg","img/object_images/microphone03.jpg","1","1","1","0","0","1","0.684322000015527","0.610297800012631","0.439166500000283","1","1","1","1","1","1","1","1","1"
"260012","img/object_images/microphone03.jpg","img/object_images/stove01.jpg","img/object_images/helmet02.jpg","1","1","0","1","0","0","0.439166500000283","0.684322000015527","0.624748700007331","1","1","1","1","1","1","1","1","2"
"260012","img/object_images/helmet02.jpg","img/object_images/microphone03.jpg","img/object_images/towels01.jpg","0","1","1","0","1","0","0.624748700007331","0.439166500000283","0.880724100017687","1","1","1","1","1","1","2","1","1"
"260012","img/object_images/towels01.jpg","img/object_images/helmet02.jpg","img/object_images/gift_box05.jpg","1","0","1","0","0","0","0.880724100017687","0.624748700007331","0.546315999992657","1","1","1","1","1","1","1","2","1"
"260012","img/object_images/gift_box05.jpg","img/object_images/towels01.jpg","img/object_images/combs01.jpg","1","1","1","0","0","1","0.546315999992657","0.880724100017687","0.874003300006734","1","1","1","1","1","1","1","1","1"
"260012","img/object_images/combs01.jpg","img/object_images/gift_box05.jpg","img/object_images/lock01.jpg","1","1","1","1","0","0","0.874003300006734","0.546315999992657","0.620742900006007","1","1","1","1","1","1","1","1","1"
"260012","img/object_images/lock01.jpg","img/object_images/combs01.jpg","img/object_images/shoes08.jpg","1","1","1","0","1","1","0.620742900006007","0.874003300006734","0.548708200018154","1","1","1","1","1","1","1","1","1"
"260012","img/object_images/shoes08.jpg","img/object_images/lock01.jpg","img/object_images/laptop03.jpg","1","1","1","1","0","1","0.548708200018154","0.620742900006007","0.74345480001648","1","1","1","1","1","1","1","1","1"
"260012","img/object_images/laptop03.jpg","img/object_images/shoes08.jpg","img/object_images/Lint_Roller02.jpg","1","1","1","1","1","0","0.74345480001648","0.548708200018154","0.780624000006355","1","1","1","1","1","1","1","1","1"
"260012","img/object_images/Lint_Roller02.jpg","img/object_images/laptop03.jpg","img/object_images/chair02.jpg","1","1","1","0","1","1","0.780624000006355","0.74345480001648","0.496745500015095","1","1","1","1","1","1","1","1","1"
"260012","img/object_images/chair02.jpg","img/object_images/Lint_Roller02.jpg","img/object_images/spatula02.jpg","1","1","1","1","0","1","0.496745500015095","0.780624000006355","0.803882000007434","1","1","1","1","1","1","1","1","1"
"260012","img/object_images/spatula02.jpg","img/object_images/chair02.jpg","img/object_images/accardion01.jpg","1","1","1","1","1","1","0.803882000007434","0.496745500015095","0.601620600005845","1","1","1","1","1","1","1","1","1"
"260012","img/object_images/accardion01.jpg","img/object_images/spatula02.jpg","img/object_images/Vest02.jpg","1","1","1","1","1","0","0.601620600005845","0.803882000007434","0.721962099982193","1","1","1","1","1","1","1","1","1"
"260012","img/object_images/Vest02.jpg","img/object_images/accardion01.jpg","img/object_images/ball02.jpg","1","1","1","0","1","1","0.721962099982193","0.601620600005845","0.713775600015651","1","1","1","1","1","1","1","1","1"
"260012","img/object_images/ball02.jpg","img/object_images/Vest02.jpg","img/object_images/fan04.jpg","1","1","1","1","0","0","0.713775600015651","0.721962099982193","0.620233699999517","1","1","1","1","1","1","1","1","1"
"260012","img/object_images/fan04.jpg","img/object_images/ball02.jpg",NA,"1","1",NA,"0","1",NA,"0.620233699999517","0.713775600015651",NA,"1","1",NA,"1","1",NA,"1","1",NA
"260012","img/object_images/airfryer01.jpg",NA,"img/object_images/video_game06.jpg","1",NA,"1","0",NA,"0","0.463540199998533",NA,"0.435255299991695","1",NA,"1","1",NA,"1","1",NA,"1"
"260012","img/object_images/video_game06.jpg","img/object_images/airfryer01.jpg","img/object_images/pot01.jpg","1","1","1","0","0","0","0.435255299991695","0.463540199998533","0.471588699991116","1","1","1","1","1","1","1","1","1"
"260012","img/object_images/pot01.jpg","img/object_images/video_game06.jpg","img/object_images/ironing_table02.jpg","1","1","0","0","0","0","0.471588699991116","0.435255299991695","0.303451299987501","1","1","1","1","1","1","1","1","2"
"260012","img/object_images/ironing_table02.jpg","img/object_images/pot01.jpg","img/object_images/couch04.jpg","0","1","1","0","0","1","0.303451299987501","0.471588699991116","0.510700299986638","1","1","1","1","1","1","2","1","1"
"260012","img/object_images/couch04.jpg","img/object_images/ironing_table02.jpg","img/object_images/brief_case01.jpg","1","0","1","1","0","0","0.510700299986638","0.303451299987501","0.529361500026425","1","1","1","1","1","1","1","2","1"
"260012","img/object_images/brief_case01.jpg","img/object_images/couch04.jpg","img/object_images/chair01.jpg","1","1","1","0","1","0","0.529361500026425","0.510700299986638","0.427037100016605","1","1","1","1","1","1","1","1","1"
"260012","img/object_images/chair01.jpg","img/object_images/brief_case01.jpg","img/object_images/soap01.jpg","1","1","1","0","0","0","0.427037100016605","0.529361500026425","0.458691900013946","1","1","1","1","1","1","1","1","1"
"260012","img/object_images/soap01.jpg","img/object_images/chair01.jpg","img/object_images/brief_case02.jpg","1","1","1","0","0","1","0.458691900013946","0.427037100016605","0.430472100008046","1","1","1","1","1","1","1","1","1"
"260012","img/object_images/brief_case02.jpg","img/object_images/soap01.jpg","img/object_images/hat02.jpg","1","1","1","1","0","0","0.430472100008046","0.458691900013946","0.458448199991835","1","1","1","1","1","1","1","1","1"
"260012","img/object_images/hat02.jpg","img/object_images/brief_case02.jpg","img/object_images/basketball_hoop02.jpg","1","1","1","0","1","0","0.458448199991835","0.430472100008046","0.606117900024401","1","1","1","1","1","1","1","1","1"
"260012","img/object_images/basketball_hoop02.jpg","img/object_images/hat02.jpg","img/object_images/guitar01.jpg","1","1","1","0","0","1","0.606117900024401","0.458448199991835","0.430508599994937","1","1","1","1","1","1","1","1","1"
"260012","img/object_images/guitar01.jpg","img/object_images/basketball_hoop02.jpg","img/object_images/tie01.jpg","1","1","1","1","0","0","0.430508599994937","0.606117900024401","0.442646400013473","1","1","1","1","1","1","1","1","1"
"260012","img/object_images/tie01.jpg","img/object_images/guitar01.jpg","img/object_images/Woopie01.jpg","1","1","1","0","1","1","0.442646400013473","0.430508599994937","0.365380700008245","1","1","1","1","1","1","1","1","1"
"260012","img/object_images/Woopie01.jpg","img/object_images/tie01.jpg","img/object_images/drone02.jpg","1","1","1","1","0","0","0.365380700008245","0.442646400013473","0.483681899990188","1","1","1","1","1","1","1","1","1"
"260012","img/object_images/drone02.jpg","img/object_images/Woopie01.jpg","img/object_images/container01.jpg","1","1","0","0","1","0","0.483681899990188","0.365380700008245","0.434642899985192","1","1","1","1","1","1","1","1","1"
"260012","img/object_images/container01.jpg","img/object_images/drone02.jpg","img/object_images/lantern01.jpg","0","1","1","0","0","1","0.434642899985192","0.483681899990188","0.6239593999926","1","1","1","1","1","1","1","1","1"
"260012","img/object_images/lantern01.jpg","img/object_images/container01.jpg","img/object_images/cochlear_implant01.jpg","1","0","1","1","0","0","0.6239593999926","0.434642899985192","0.447887899994384","1","1","1","1","1","1","1","1","1"
"260012","img/object_images/cochlear_implant01.jpg","img/object_images/lantern01.jpg","img/object_images/Recycling01.jpg","1","1","1","0","1","1","0.447887899994384","0.6239593999926","0.401149299985263","1","1","1","1","1","1","1","1","1"
"260012","img/object_images/Recycling01.jpg","img/object_images/cochlear_implant01.jpg","img/object_images/toilet_paper01.jpg","1","1","1","1","0","1","0.401149299985263","0.447887899994384","0.546457299991744","1","1","1","1","1","1","1","1","1"
"260012","img/object_images/toilet_paper01.jpg","img/object_images/Recycling01.jpg","img/object_images/Wisk01.jpg","1","1","1","1","1","1","0.546457299991744","0.401149299985263","0.476361399982125","1","1","1","1","1","1","1","1","1"
"260012","img/object_images/Wisk01.jpg","img/object_images/toilet_paper01.jpg","img/object_images/car02.jpg","1","1","1","1","1","0","0.476361399982125","0.546457299991744","0.490164999995614","1","1","1","1","1","1","1","1","1"
"260012","img/object_images/car02.jpg","img/object_images/Wisk01.jpg","img/object_images/pitcher03.jpg","1","1","1","0","1","1","0.490164999995614","0.476361399982125","0.360775900015142","1","1","1","1","1","1","1","1","1"
"260012","img/object_images/pitcher03.jpg","img/object_images/car02.jpg","img/object_images/gloves05.jpg","1","1","1","1","0","1","0.360775900015142","0.490164999995614","0.380615200003376","1","1","1","1","1","1","1","1","1"
"260012","img/object_images/gloves05.jpg","img/object_images/pitcher03.jpg","img/object_images/toy_train02.jpg","1","1","1","1","1","1","0.380615200003376","0.360775900015142","0.459871500002919","1","1","1","1","1","1","1","1","1"
"260012","img/object_images/toy_train02.jpg","img/object_images/gloves05.jpg","img/object_images/helmet05.jpg","1","1","1","1","1","1","0.459871500002919","0.380615200003376","0.496390099986456","1","1","1","1","1","1","1","1","1"
"260012","img/object_images/helmet05.jpg","img/object_images/toy_train02.jpg","img/object_images/broom01.jpg","1","1","1","1","1","1","0.496390099986456","0.459871500002919","0.568731699982891","1","1","1","1","1","1","1","1","1"
"260012","img/object_images/broom01.jpg","img/object_images/helmet05.jpg","img/object_images/razor03.jpg","1","1","1","1","1","0","0.568731699982891","0.496390099986456","0.517093500006013","1","1","1","1","1","1","1","1","1"
"260012","img/object_images/razor03.jpg","img/object_images/broom01.jpg","img/object_images/decorative02.jpg","1","1","1","0","1","0","0.517093500006013","0.568731699982891","0.587040700018406","1","1","1","1","1","1","1","1","1"
"260012","img/object_images/decorative02.jpg","img/object_images/razor03.jpg","img/object_images/bottle12.jpg","1","1","1","0","0","1","0.587040700018406","0.517093500006013","0.453328900010092","1","1","1","1","1","1","1","1","1"
"260012","img/object_images/bottle12.jpg","img/object_images/decorative02.jpg","img/object_images/lamp01.jpg","1","1","1","1","0","1","0.453328900010092","0.587040700018406","0.437375800014706","1","1","1","1","1","1","1","1","1"
"260012","img/object_images/lamp01.jpg","img/object_images/bottle12.jpg","img/object_images/ball01.jpg","1","1","1","1","1","1","0.437375800014706","0.453328900010092","0.472004900017055","1","1","1","1","1","1","1","1","1"
"260012","img/object_images/ball01.jpg","img/object_images/lamp01.jpg",NA,"1","1",NA,"1","1",NA,"0.472004900017055","0.437375800014706",NA,"1","1",NA,"1","1",NA,"1","1",NA
"260012","img/object_images/Staples01.jpg",NA,"img/object_images/pitcher01.jpg","1",NA,"1","1",NA,"0","0.651121100003365",NA,"0.49830700000166","1",NA,"1","1",NA,"1","1",NA,"1"
"260012","img/object_images/pitcher01.jpg","img/object_images/Staples01.jpg","img/object_images/book03.jpg","1","1","1","0","1","1","0.49830700000166","0.651121100003365","0.39733680000063","1","1","1","1","1","1","1","1","1"
"260012","img/object_images/book03.jpg","img/object_images/pitcher01.jpg","img/object_images/knife04.jpg","1","1","1","1","0","1","0.39733680000063","0.49830700000166","0.307663800020237","1","1","1","1","1","1","1","1","1"
"260012","img/object_images/knife04.jpg","img/object_images/book03.jpg","img/object_images/paint_brush04.jpg","1","1","1","1","1","0","0.307663800020237","0.39733680000063","0.474651800002903","1","1","1","1","1","1","1","1","1"
"260012","img/object_images/paint_brush04.jpg","img/object_images/knife04.jpg","img/object_images/floppy_disk03.jpg","1","1","1","0","1","1","0.474651800002903","0.307663800020237","0.341299400024582","1","1","1","1","1","1","1","1","1"
"260012","img/object_images/floppy_disk03.jpg","img/object_images/paint_brush04.jpg","img/object_images/retainer01.jpg","1","1","1","1","0","0","0.341299400024582","0.474651800002903","0.550916700012749","1","1","1","1","1","1","1","1","1"
"260012","img/object_images/retainer01.jpg","img/object_images/floppy_disk03.jpg","img/object_images/ear_bud01.jpg","1","1","1","0","1","1","0.550916700012749","0.341299400024582","0.494875899981707","1","1","1","1","1","1","1","1","1"
"260012","img/object_images/ear_bud01.jpg","img/object_images/retainer01.jpg","img/object_images/note_book01.jpg","1","1","1","1","0","0","0.494875899981707","0.550916700012749","0.487537499982864","1","1","1","1","1","1","1","1","1"
"260012","img/object_images/note_book01.jpg","img/object_images/ear_bud01.jpg","img/object_images/chess_piece02.jpg","1","1","1","0","1","1","0.487537499982864","0.494875899981707","0.368200900004013","1","1","1","1","1","1","1","1","1"
"260012","img/object_images/chess_piece02.jpg","img/object_images/note_book01.jpg","img/object_images/bottle01.jpg","1","1","1","1","0","0","0.368200900004013","0.487537499982864","0.41254150000168","1","1","1","1","1","1","1","1","1"
"260012","img/object_images/bottle01.jpg","img/object_images/chess_piece02.jpg","img/object_images/pillows01.jpg","1","1","1","0","1","1","0.41254150000168","0.368200900004013","0.37264960000175","1","1","1","1","1","1","1","1","1"
"260012","img/object_images/pillows01.jpg","img/object_images/bottle01.jpg","img/object_images/wire02.jpg","1","1","1","1","0","1","0.37264960000175","0.41254150000168","0.399681599985342","1","1","1","1","1","1","1","1","1"
"260012","img/object_images/wire02.jpg","img/object_images/pillows01.jpg","img/object_images/floppy_disk02.jpg","1","1","0","1","1","0","0.399681599985342","0.37264960000175","0.414371399994707","1","1","1","1","1","1","1","1","2"
"260012","img/object_images/floppy_disk02.jpg","img/object_images/wire02.jpg","img/object_images/motorcycle01.jpg","0","1","1","0","1","1","0.414371399994707","0.399681599985342","0.434945999993943","1","1","1","1","1","1","2","1","1"
"260012","img/object_images/motorcycle01.jpg","img/object_images/floppy_disk02.jpg","img/object_images/microscope01.jpg","1","0","0","1","0","0","0.434945999993943","0.414371399994707","0.431092200014973","1","1","1","1","1","1","1","2","2"
"260012","img/object_images/microscope01.jpg","img/object_images/motorcycle01.jpg","img/object_images/compass01.jpg","0","1","1","0","1","1","0.431092200014973","0.434945999993943","0.418095100001665","1","1","1","1","1","1","2","1","1"
"260012","img/object_images/compass01.jpg","img/object_images/microscope01.jpg","img/object_images/clip03.jpg","1","0","1","1","0","0","0.418095100001665","0.431092200014973","0.516291100007948","1","1","1","1","1","1","1","2","1"
"260012","img/object_images/clip03.jpg","img/object_images/compass01.jpg","img/object_images/knit05.jpg","1","1","1","0","1","1","0.516291100007948","0.418095100001665","0.469204599998193","1","1","1","1","1","1","1","1","1"
"260012","img/object_images/knit05.jpg","img/object_images/clip03.jpg","img/object_images/bell02.jpg","1","1","1","1","0","0","0.469204599998193","0.516291100007948","0.50283500002115","1","1","1","1","1","1","1","1","1"
"260012","img/object_images/bell02.jpg","img/object_images/knit05.jpg","img/object_images/pen03.jpg","1","1","0","0","1","0","0.50283500002115","0.469204599998193","0.556299800024135","1","1","1","1","1","1","1","1","1"
"260012","img/object_images/pen03.jpg","img/object_images/bell02.jpg","img/object_images/crutches02.jpg","0","1","1","0","0","0","0.556299800024135","0.50283500002115","0.469680900016101","1","1","1","1","1","1","1","1","1"
"260012","img/object_images/crutches02.jpg","img/object_images/pen03.jpg","img/object_images/cellphone01.jpg","1","0","1","0","0","1","0.469680900016101","0.556299800024135","0.454211000003852","1","1","1","1","1","1","1","1","1"
"260012","img/object_images/cellphone01.jpg","img/object_images/crutches02.jpg","img/object_images/chair05.jpg","1","1","1","1","0","0","0.454211000003852","0.469680900016101","0.417017500003567","1","1","1","1","1","1","1","1","1"
"260012","img/object_images/chair05.jpg","img/object_images/cellphone01.jpg","img/object_images/Oven01.jpg","1","1","1","0","1","1","0.417017500003567","0.454211000003852","0.442131699994206","1","1","1","1","1","1","1","1","1"
"260012","img/object_images/Oven01.jpg","img/object_images/chair05.jpg","img/object_images/clock02.jpg","1","1","1","1","0","0","0.442131699994206","0.417017500003567","0.489772300003096","1","1","1","1","1","1","1","1","1"
"260012","img/object_images/clock02.jpg","img/object_images/Oven01.jpg","img/object_images/hammer03.jpg","1","1","1","0","1","1","0.489772300003096","0.442131699994206","0.4729036000208","1","1","1","1","1","1","1","1","1"
"260012","img/object_images/hammer03.jpg","img/object_images/clock02.jpg","img/object_images/Thermometer01.jpg","1","1","1","1","0","0","0.4729036000208","0.489772300003096","0.553043000021717","1","1","1","1","1","1","1","1","1"
"260012","img/object_images/Thermometer01.jpg","img/object_images/hammer03.jpg","img/object_images/tv02.jpg","1","1","0","0","1","0","0.553043000021717","0.4729036000208","0.333349699998507","1","1","1","1","1","1","1","1","1"
"260012","img/object_images/tv02.jpg","img/object_images/Thermometer01.jpg","img/object_images/tennis_racket02.jpg","0","1","1","0","0","1","0.333349699998507","0.553043000021717","1.1649075000023","1","1","1","1","1","1","1","1","1"
"260012","img/object_images/tennis_racket02.jpg","img/object_images/tv02.jpg","img/object_images/usb02.jpg","1","0","1","1","0","0","1.1649075000023","0.333349699998507","0.541837800003123","1","1","1","1","1","1","1","1","1"
"260012","img/object_images/usb02.jpg","img/object_images/tennis_racket02.jpg","img/object_images/lid01.jpg","1","1","1","0","1","1","0.541837800003123","1.1649075000023","0.496793600003002","1","1","1","1","1","1","1","1","1"
"260012","img/object_images/lid01.jpg","img/object_images/usb02.jpg",NA,"1","1",NA,"1","0",NA,"0.496793600003002","0.541837800003123",NA,"1","1",NA,"1","1",NA,"1","1",NA
"260012","img/object_images/stereo02.jpg",NA,"img/object_images/knife02.jpg","1",NA,"1","0",NA,"0","0.621528699994087",NA,"0.560742800007574","1",NA,"1","1",NA,"1","1",NA,"1"
"260012","img/object_images/knife02.jpg","img/object_images/stereo02.jpg","img/object_images/knit04.jpg","1","1","1","0","0","1","0.560742800007574","0.621528699994087","0.446326100005535","1","1","1","1","1","1","1","1","1"
"260012","img/object_images/knit04.jpg","img/object_images/knife02.jpg","img/object_images/hand_grip_exerciser01.jpg","1","1","1","1","0","0","0.446326100005535","0.560742800007574","0.364013300015358","1","1","1","1","1","1","1","1","1"
"260012","img/object_images/hand_grip_exerciser01.jpg","img/object_images/knit04.jpg","img/object_images/dresser03.jpg","1","1","1","0","1","0","0.364013300015358","0.446326100005535","0.680005900008837","1","1","1","1","1","1","1","1","1"
"260012","img/object_images/dresser03.jpg","img/object_images/hand_grip_exerciser01.jpg","img/object_images/bottle07.jpg","1","1","1","0","0","1","0.680005900008837","0.364013300015358","0.420856700016884","1","1","1","1","1","1","1","1","1"
"260012","img/object_images/bottle07.jpg","img/object_images/dresser03.jpg","img/object_images/flashlight03.jpg","1","1","1","1","0","0","0.420856700016884","0.680005900008837","0.449246600008337","1","1","1","1","1","1","1","1","1"
"260012","img/object_images/flashlight03.jpg","img/object_images/bottle07.jpg","img/object_images/blender02.jpg","1","1","1","0","1","1","0.449246600008337","0.420856700016884","0.524196399986977","1","1","1","1","1","1","1","1","1"
"260012","img/object_images/blender02.jpg","img/object_images/flashlight03.jpg","img/object_images/mail_box01.jpg","1","1","1","1","0","0","0.524196399986977","0.449246600008337","0.59086810000008","1","1","1","1","1","1","1","1","1"
"260012","img/object_images/mail_box01.jpg","img/object_images/blender02.jpg","img/object_images/shower_head01.jpg","1","1","1","0","1","1","0.59086810000008","0.524196399986977","0.701381099992432","1","1","1","1","1","1","1","1","1"
"260012","img/object_images/shower_head01.jpg","img/object_images/mail_box01.jpg","img/object_images/video_game01.jpg","1","1","1","1","0","1","0.701381099992432","0.59086810000008","0.648259900015546","1","1","1","1","1","1","1","1","1"
"260012","img/object_images/video_game01.jpg","img/object_images/shower_head01.jpg","img/object_images/remote_controller01.jpg","1","1","1","1","1","1","0.648259900015546","0.701381099992432","0.436451300018234","1","1","1","1","1","1","1","1","1"
"260012","img/object_images/remote_controller01.jpg","img/object_images/video_game01.jpg","img/object_images/Statue01.jpg","1","1","1","1","1","1","0.436451300018234","0.648259900015546","0.436663600004977","1","1","1","1","1","1","1","1","1"
"260012","img/object_images/Statue01.jpg","img/object_images/remote_controller01.jpg","img/object_images/boat04.jpg","1","1","1","1","1","0","0.436663600004977","0.436451300018234","0.714034700009506","1","1","1","1","1","1","1","1","1"
"260012","img/object_images/boat04.jpg","img/object_images/Statue01.jpg","img/object_images/phone02.jpg","1","1","1","0","1","1","0.714034700009506","0.436663600004977","0.583274800010258","1","1","1","1","1","1","1","1","1"
"260012","img/object_images/phone02.jpg","img/object_images/boat04.jpg","img/object_images/toy08.jpg","1","1","1","1","0","0","0.583274800010258","0.714034700009506","0.479742199997418","1","1","1","1","1","1","1","1","1"
"260012","img/object_images/toy08.jpg","img/object_images/phone02.jpg","img/object_images/car01.jpg","1","1","1","0","1","1","0.479742199997418","0.583274800010258","0.385758000018541","1","1","1","1","1","1","1","1","1"
"260012","img/object_images/car01.jpg","img/object_images/toy08.jpg","img/object_images/keyboard02.jpg","1","1","1","1","0","1","0.385758000018541","0.479742199997418","0.370020000002114","1","1","1","1","1","1","1","1","1"
"260012","img/object_images/keyboard02.jpg","img/object_images/car01.jpg","img/object_images/paper_cup02.jpg","1","1","1","1","1","1","0.370020000002114","0.385758000018541","0.428630599984899","1","1","1","1","1","1","1","1","1"
"260012","img/object_images/paper_cup02.jpg","img/object_images/keyboard02.jpg","img/object_images/remover01.jpg","1","1","1","1","1","1","0.428630599984899","0.370020000002114","0.395249199995305","1","1","1","1","1","1","1","1","1"
"260012","img/object_images/remover01.jpg","img/object_images/paper_cup02.jpg","img/object_images/basket04.jpg","1","1","0","1","1","1","0.395249199995305","0.428630599984899","0.467999199987389","1","1","1","1","1","1","1","1","2"
"260012","img/object_images/basket04.jpg","img/object_images/remover01.jpg","img/object_images/curtain02.jpg","0","1","0","1","1","0","0.467999199987389","0.395249199995305","0.434903700021096","1","1","1","1","1","1","2","1","1"
"260012","img/object_images/curtain02.jpg","img/object_images/basket04.jpg","img/object_images/jacket04.jpg","0","0","1","0","1","0","0.434903700021096","0.467999199987389","0.445251899975119","1","1","1","1","1","1","1","2","1"
"260012","img/object_images/jacket04.jpg","img/object_images/curtain02.jpg","img/object_images/backpack01.jpg","1","0","1","0","0","0","0.445251899975119","0.434903700021096","0.871277600002941","1","1","1","1","1","1","1","1","1"
"260012","img/object_images/backpack01.jpg","img/object_images/jacket04.jpg","img/object_images/hoverboard01.jpg","1","1","1","0","0","0","0.871277600002941","0.445251899975119","0.41479629999958","1","1","1","1","1","1","1","1","1"
"260012","img/object_images/hoverboard01.jpg","img/object_images/backpack01.jpg","img/object_images/tool18.jpg","1","1","1","0","0","0","0.41479629999958","0.871277600002941","0.487348700000439","1","1","1","1","1","1","1","1","1"
"260012","img/object_images/tool18.jpg","img/object_images/hoverboard01.jpg","img/object_images/kite01.jpg","1","1","1","0","0","1","0.487348700000439","0.41479629999958","0.599676200014073","1","1","1","1","1","1","1","1","1"
"260012","img/object_images/kite01.jpg","img/object_images/tool18.jpg","img/object_images/sponge03.jpg","1","1","1","1","0","1","0.599676200014073","0.487348700000439","0.586151300027268","1","1","1","1","1","1","1","1","1"
"260012","img/object_images/sponge03.jpg","img/object_images/kite01.jpg","img/object_images/camera03.jpg","1","1","1","1","1","0","0.586151300027268","0.599676200014073","0.508840499998769","1","1","1","1","1","1","1","1","1"
"260012","img/object_images/camera03.jpg","img/object_images/sponge03.jpg","img/object_images/gloves02.jpg","1","1","1","0","1","0","0.508840499998769","0.586151300027268","0.545610700006364","1","1","1","1","1","1","1","1","1"
"260012","img/object_images/gloves02.jpg","img/object_images/camera03.jpg","img/object_images/matches02.jpg","1","1","1","0","0","0","0.545610700006364","0.508840499998769","0.471373899985338","1","1","1","1","1","1","1","1","1"
"260012","img/object_images/matches02.jpg","img/object_images/gloves02.jpg","img/object_images/knit03.jpg","1","1","1","0","0","1","0.471373899985338","0.545610700006364","0.393490499991458","1","1","1","1","1","1","1","1","1"
"260012","img/object_images/knit03.jpg","img/object_images/matches02.jpg",NA,"1","1",NA,"1","0",NA,"0.393490499991458","0.471373899985338",NA,"1","1",NA,"1","1",NA,"1","1",NA
"260012","img/object_images/soap03.jpg",NA,"img/object_images/Trowel01.jpg","1",NA,"1","0",NA,"0","0.604710000014165",NA,"0.520140800013905","1",NA,"1","1",NA,"1","1",NA,"1"
"260012","img/object_images/Trowel01.jpg","img/object_images/soap03.jpg","img/object_images/floss02.jpg","1","1","1","0","0","1","0.520140800013905","0.604710000014165","0.384027599997353","1","1","1","1","1","1","1","1","1"
"260012","img/object_images/floss02.jpg","img/object_images/Trowel01.jpg","img/object_images/computer_mouse01.jpg","1","1","1","1","0","1","0.384027599997353","0.520140800013905","0.337510799989104","1","1","1","1","1","1","1","1","1"
"260012","img/object_images/computer_mouse01.jpg","img/object_images/floss02.jpg","img/object_images/hair_brush01.jpg","1","1","1","1","1","1","0.337510799989104","0.384027599997353","0.364553999999771","1","1","1","1","1","1","1","1","1"
"260012","img/object_images/hair_brush01.jpg","img/object_images/computer_mouse01.jpg","img/object_images/video_game03.jpg","1","1","1","1","1","1","0.364553999999771","0.337510799989104","0.378613299981225","1","1","1","1","1","1","1","1","1"
"260012","img/object_images/video_game03.jpg","img/object_images/hair_brush01.jpg","img/object_images/drone01.jpg","1","1","1","1","1","1","0.378613299981225","0.364553999999771","0.484166999987792","1","1","1","1","1","1","1","1","1"
"260012","img/object_images/drone01.jpg","img/object_images/video_game03.jpg","img/object_images/computer_mouse02.jpg","1","1","1","1","1","0","0.484166999987792","0.378613299981225","0.5866357999912","1","1","1","1","1","1","1","1","1"
"260012","img/object_images/computer_mouse02.jpg","img/object_images/drone01.jpg","img/object_images/couch01.jpg","1","1","1","0","1","0","0.5866357999912","0.484166999987792","0.540548099990701","1","1","1","1","1","1","1","1","1"
"260012","img/object_images/couch01.jpg","img/object_images/computer_mouse02.jpg","img/object_images/scarf01.jpg","1","1","1","0","0","1","0.540548099990701","0.5866357999912","0.352689100021962","1","1","1","1","1","1","1","1","1"
"260012","img/object_images/scarf01.jpg","img/object_images/couch01.jpg","img/object_images/fork02.jpg","1","1","1","1","0","0","0.352689100021962","0.540548099990701","0.472599100001389","1","1","1","1","1","1","1","1","1"
"260012","img/object_images/fork02.jpg","img/object_images/scarf01.jpg","img/object_images/skate_board01.jpg","1","1","1","0","1","0","0.472599100001389","0.352689100021962","0.445543200010434","1","1","1","1","1","1","1","1","1"
"260012","img/object_images/skate_board01.jpg","img/object_images/fork02.jpg","img/object_images/egg_slicer01.jpg","1","1","1","0","0","1","0.445543200010434","0.472599100001389","0.318515399994794","1","1","1","1","1","1","1","1","1"
"260012","img/object_images/egg_slicer01.jpg","img/object_images/skate_board01.jpg","img/object_images/clip04.jpg","1","1","1","1","0","1","0.318515399994794","0.445543200010434","0.437014100025408","1","1","1","1","1","1","1","1","1"
"260012","img/object_images/clip04.jpg","img/object_images/egg_slicer01.jpg","img/object_images/pen01.jpg","1","1","1","1","1","0","0.437014100025408","0.318515399994794","0.449692400026834","1","1","1","1","1","1","1","1","1"
"260012","img/object_images/pen01.jpg","img/object_images/clip04.jpg","img/object_images/box03.jpg","1","1","1","0","1","0","0.449692400026834","0.437014100025408","0.488469800009625","1","1","1","1","1","1","1","1","1"
"260012","img/object_images/box03.jpg","img/object_images/pen01.jpg","img/object_images/chair06.jpg","1","1","1","0","0","0","0.488469800009625","0.449692400026834","0.465841700002784","1","1","1","1","1","1","1","1","1"
"260012","img/object_images/chair06.jpg","img/object_images/box03.jpg","img/object_images/airfryer02.jpg","1","1","1","0","0","1","0.465841700002784","0.488469800009625","0.482468200003495","1","1","1","1","1","1","1","1","1"
"260012","img/object_images/airfryer02.jpg","img/object_images/chair06.jpg","img/object_images/bell03.jpg","1","1","1","1","0","0","0.482468200003495","0.465841700002784","0.465916699991794","1","1","1","1","1","1","1","1","1"
"260012","img/object_images/bell03.jpg","img/object_images/airfryer02.jpg","img/object_images/toothbrush01.jpg","1","1","1","0","1","0","0.465916699991794","0.482468200003495","0.448387100012042","1","1","1","1","1","1","1","1","1"
"260012","img/object_images/toothbrush01.jpg","img/object_images/bell03.jpg","img/object_images/book02.jpg","1","1","1","0","0","1","0.448387100012042","0.465916699991794","0.448955500003649","1","1","1","1","1","1","1","1","1"
"260012","img/object_images/book02.jpg","img/object_images/toothbrush01.jpg","img/object_images/shoes12.jpg","1","1","1","1","0","1","0.448955500003649","0.448387100012042","0.413179399998626","1","1","1","1","1","1","1","1","2"
"260012","img/object_images/shoes12.jpg","img/object_images/book02.jpg","img/object_images/rock02.jpg","1","1","1","1","1","0","0.413179399998626","0.448955500003649","0.471957300003851","1","1","1","1","1","1","2","1","1"
"260012","img/object_images/rock02.jpg","img/object_images/shoes12.jpg","img/object_images/blender01.jpg","1","1","0","0","1","0","0.471957300003851","0.413179399998626","0.34766440000385","1","1","1","1","1","1","1","2","1"
"260012","img/object_images/blender01.jpg","img/object_images/rock02.jpg","img/object_images/tool06.jpg","0","1","1","0","0","0","0.34766440000385","0.471957300003851","0.627088000008371","1","1","1","1","1","1","1","1","1"
"260012","img/object_images/tool06.jpg","img/object_images/blender01.jpg","img/object_images/toy01.jpg","1","0","1","0","0","1","0.627088000008371","0.34766440000385","0.473903999984032","1","1","1","1","1","1","1","1","1"
"260012","img/object_images/toy01.jpg","img/object_images/tool06.jpg","img/object_images/mail_box02.jpg","1","1","1","1","0","1","0.473903999984032","0.627088000008371","0.43418899999233","1","1","1","1","1","1","1","1","1"
"260012","img/object_images/mail_box02.jpg","img/object_images/toy01.jpg","img/object_images/bag_pipes01.jpg","1","1","0","1","1","1","0.43418899999233","0.473903999984032","0.367155499989167","1","1","1","1","1","1","1","1","1"
"260012","img/object_images/bag_pipes01.jpg","img/object_images/mail_box02.jpg","img/object_images/tripod01.jpg","0","1","1","1","1","1","0.367155499989167","0.43418899999233","0.458387499995297","1","1","1","1","1","1","1","1","1"
"260012","img/object_images/tripod01.jpg","img/object_images/bag_pipes01.jpg","img/object_images/Violin01.jpg","1","0","1","1","1","0","0.458387499995297","0.367155499989167","0.520853399997577","1","1","1","1","1","1","1","1","1"
"260012","img/object_images/Violin01.jpg","img/object_images/tripod01.jpg","img/object_images/pitcher09.jpg","1","1","1","0","1","1","0.520853399997577","0.458387499995297","0.448760900006164","1","1","1","1","1","1","1","1","1"
"260012","img/object_images/pitcher09.jpg","img/object_images/Violin01.jpg","img/object_images/chain01.jpg","1","1","1","1","0","0","0.448760900006164","0.520853399997577","0.417051600001287","1","1","1","1","1","1","1","1","1"
"260012","img/object_images/chain01.jpg","img/object_images/pitcher09.jpg",NA,"1","1",NA,"0","1",NA,"0.417051600001287","0.448760900006164",NA,"1","1",NA,"1","1",NA,"1","1",NA
"260012","img/object_images/razor02.jpg",NA,"img/object_images/video_game02.jpg","1",NA,"1","1",NA,"1","0.51584730000468",NA,"0.404066899995087","1",NA,"1","1",NA,"1","1",NA,"1"
"260012","img/object_images/video_game02.jpg","img/object_images/razor02.jpg","img/object_images/pen06.jpg","1","1","1","1","1","0","0.404066899995087","0.51584730000468","0.562489400006598","1","1","1","1","1","1","1","1","1"
"260012","img/object_images/pen06.jpg","img/object_images/video_game02.jpg","img/object_images/board01.jpg","1","1","1","0","1","1","0.562489400006598","0.404066899995087","0.458999599999515","1","1","1","1","1","1","1","1","1"
"260012","img/object_images/board01.jpg","img/object_images/pen06.jpg","img/object_images/perfume01.jpg","1","1","1","1","0","0","0.458999599999515","0.562489400006598","0.48229960000026","1","1","1","1","1","1","1","1","1"
"260012","img/object_images/perfume01.jpg","img/object_images/board01.jpg","img/object_images/camera05.jpg","1","1","1","0","1","0","0.48229960000026","0.458999599999515","0.514022000017576","1","1","1","1","1","1","1","1","1"
"260012","img/object_images/camera05.jpg","img/object_images/perfume01.jpg","img/object_images/bag04.jpg","1","1","1","0","0","0","0.514022000017576","0.48229960000026","0.470195200003218","1","1","1","1","1","1","1","1","1"
"260012","img/object_images/bag04.jpg","img/object_images/camera05.jpg","img/object_images/duster01.jpg","1","1","1","0","0","0","0.470195200003218","0.514022000017576","0.429973999998765","1","1","1","1","1","1","1","1","1"
"260012","img/object_images/duster01.jpg","img/object_images/bag04.jpg","img/object_images/vase02.jpg","1","1","1","0","0","1","0.429973999998765","0.470195200003218","0.462533599988092","1","1","1","1","1","1","1","1","1"
"260012","img/object_images/vase02.jpg","img/object_images/duster01.jpg","img/object_images/lemon_squeezer01.jpg","1","1","1","1","0","1","0.462533599988092","0.429973999998765","0.45897559999139","1","1","1","1","1","1","1","1","1"
"260012","img/object_images/lemon_squeezer01.jpg","img/object_images/vase02.jpg","img/object_images/ruler02.jpg","1","1","1","1","1","1","0.45897559999139","0.462533599988092","0.426503599999705","1","1","1","1","1","1","1","1","1"
"260012","img/object_images/ruler02.jpg","img/object_images/lemon_squeezer01.jpg","img/object_images/knife01.jpg","1","1","1","1","1","1","0.426503599999705","0.45897559999139","0.570340200007195","1","1","1","1","1","1","1","1","1"
"260012","img/object_images/knife01.jpg","img/object_images/ruler02.jpg","img/object_images/socks01.jpg","1","1","1","1","1","1","0.570340200007195","0.426503599999705","0.509660699986853","1","1","1","1","1","1","1","1","1"
"260012","img/object_images/socks01.jpg","img/object_images/knife01.jpg","img/object_images/hammer02.jpg","1","1","1","1","1","0","0.509660699986853","0.570340200007195","0.50702530000126","1","1","1","1","1","1","1","1","1"
"260012","img/object_images/hammer02.jpg","img/object_images/socks01.jpg","img/object_images/spray_can01.jpg","1","1","1","0","1","0","0.50702530000126","0.509660699986853","0.469455699989339","1","1","1","1","1","1","1","1","1"
"260012","img/object_images/spray_can01.jpg","img/object_images/hammer02.jpg","img/object_images/bow_tie03.jpg","1","1","1","0","0","1","0.469455699989339","0.50702530000126","0.371186200005468","1","1","1","1","1","1","1","1","1"
"260012","img/object_images/bow_tie03.jpg","img/object_images/spray_can01.jpg","img/object_images/sink_filter01 (1).jpg","1","1","1","1","0","0","0.371186200005468","0.469455699989339","0.490219600003911","1","1","1","1","1","1","1","1","1"
"260012","img/object_images/sink_filter01 (1).jpg","img/object_images/bow_tie03.jpg","img/object_images/sign02.jpg","1","1","0","0","1","0","0.490219600003911","0.371186200005468","0.521798400004627","1","1","1","1","1","1","1","1","1"
"260012","img/object_images/sign02.jpg","img/object_images/sink_filter01 (1).jpg","img/object_images/dust_pan01.jpg","0","1","1","0","0","1","0.521798400004627","0.490219600003911","0.535708799987333","1","1","1","1","1","1","1","1","1"
"260012","img/object_images/dust_pan01.jpg","img/object_images/sign02.jpg","img/object_images/floss01.jpg","1","0","1","1","0","1","0.535708799987333","0.521798400004627","0.413663200015435","1","1","1","1","1","1","1","1","1"
"260012","img/object_images/floss01.jpg","img/object_images/dust_pan01.jpg","img/object_images/pan03.jpg","1","1","1","1","1","1","0.413663200015435","0.535708799987333","0.456309400004102","1","1","1","1","1","1","1","1","1"
"260012","img/object_images/pan03.jpg","img/object_images/floss01.jpg","img/object_images/hat09.jpg","1","1","0","1","1","0","0.456309400004102","0.413663200015435","0.331689800019376","1","1","1","1","1","1","1","1","1"
"260012","img/object_images/hat09.jpg","img/object_images/pan03.jpg","img/object_images/tool13.jpg","0","1","1","0","1","1","0.331689800019376","0.456309400004102","0.483905800007051","1","1","1","1","1","1","1","1","1"
"260012","img/object_images/tool13.jpg","img/object_images/hat09.jpg","img/object_images/hat13.jpg","1","0","1","1","0","1","0.483905800007051","0.331689800019376","0.347357199992985","1","1","1","1","1","1","1","1","1"
"260012","img/object_images/hat13.jpg","img/object_images/tool13.jpg","img/object_images/Candle_Holder01.jpg","1","1","1","1","1","0","0.347357199992985","0.483905800007051","0.435095799999544","1","1","1","1","1","1","1","1","1"
"260012","img/object_images/Candle_Holder01.jpg","img/object_images/hat13.jpg","img/object_images/tool20.jpg","1","1","1","0","1","0","0.435095799999544","0.347357199992985","0.511498700012453","1","1","1","1","1","1","1","1","1"
"260012","img/object_images/tool20.jpg","img/object_images/Candle_Holder01.jpg","img/object_images/Confetti 01.jpg","1","1","1","0","0","0","0.511498700012453","0.435095799999544","0.459671800024807","1","1","1","1","1","1","1","1","1"
"260012","img/object_images/Confetti 01.jpg","img/object_images/tool20.jpg","img/object_images/glasses03.jpg","1","1","1","0","0","0","0.459671800024807","0.511498700012453","0.531146599998465","1","1","1","1","1","1","1","1","1"
"260012","img/object_images/glasses03.jpg","img/object_images/Confetti 01.jpg","img/object_images/office_supplies01.jpg","1","1","1","0","0","1","0.531146599998465","0.459671800024807","0.482409999996889","1","1","1","1","1","1","1","1","1"
"260012","img/object_images/office_supplies01.jpg","img/object_images/glasses03.jpg","img/object_images/candle02.jpg","1","1","1","1","0","0","0.482409999996889","0.531146599998465","0.561597399995662","1","1","1","1","1","1","1","1","1"
"260012","img/object_images/candle02.jpg","img/object_images/office_supplies01.jpg","img/object_images/cup01.jpg","1","1","1","0","1","0","0.561597399995662","0.482409999996889","0.437374500004807","1","1","1","1","1","1","1","1","1"
"260012","img/object_images/cup01.jpg","img/object_images/candle02.jpg","img/object_images/clipboard01.jpg","1","1","1","0","0","1","0.437374500004807","0.561597399995662","0.522115300002042","1","1","1","1","1","1","1","1","1"
"260012","img/object_images/clipboard01.jpg","img/object_images/cup01.jpg",NA,"1","1",NA,"1","0",NA,"0.522115300002042","0.437374500004807",NA,"1","1",NA,"1","1",NA,"1","1",NA
"260012","img/object_images/gift_box02.jpg",NA,"img/object_images/measuring_tape02.jpg","1",NA,"1","1",NA,"1","0.790153100009775",NA,"0.41783900000155","1",NA,"1","1",NA,"1","1",NA,"1"
"260012","img/object_images/measuring_tape02.jpg","img/object_images/gift_box02.jpg","img/object_images/Screws01.jpg","1","1","1","1","1","1","0.41783900000155","0.790153100009775","0.445519700006116","1","1","1","1","1","1","1","1","1"
"260012","img/object_images/Screws01.jpg","img/object_images/measuring_tape02.jpg","img/object_images/Witchhat01.jpg","1","1","1","1","1","1","0.445519700006116","0.41783900000155","0.363098100002389","1","1","1","1","1","1","1","1","1"
"260012","img/object_images/Witchhat01.jpg","img/object_images/Screws01.jpg","img/object_images/jacket03.jpg","1","1","1","1","1","0","0.363098100002389","0.445519700006116","0.477794799982803","1","1","1","1","1","1","1","1","1"
"260012","img/object_images/jacket03.jpg","img/object_images/Witchhat01.jpg","img/object_images/pitcher02.jpg","1","1","1","0","1","1","0.477794799982803","0.363098100002389","0.371512500016252","1","1","1","1","1","1","1","1","1"
"260012","img/object_images/pitcher02.jpg","img/object_images/jacket03.jpg","img/object_images/gift_box03.jpg","1","1","1","1","0","0","0.371512500016252","0.477794799982803","0.487731300003361","1","1","1","1","1","1","1","1","1"
"260012","img/object_images/gift_box03.jpg","img/object_images/pitcher02.jpg","img/object_images/lawn_mower01.jpg","1","1","1","0","1","1","0.487731300003361","0.371512500016252","0.403709100006381","1","1","1","1","1","1","1","1","1"
"260012","img/object_images/lawn_mower01.jpg","img/object_images/gift_box03.jpg","img/object_images/clip02.jpg","1","1","1","1","0","1","0.403709100006381","0.487731300003361","0.382397100009257","1","1","1","1","1","1","1","1","1"
"260012","img/object_images/clip02.jpg","img/object_images/lawn_mower01.jpg","img/object_images/coloring_pencil01.jpg","1","1","1","1","1","1","0.382397100009257","0.403709100006381","0.356328800000483","1","1","1","1","1","1","1","1","1"
"260012","img/object_images/coloring_pencil01.jpg","img/object_images/clip02.jpg","img/object_images/paper_cup01.jpg","1","1","1","1","1","0","0.356328800000483","0.382397100009257","0.390052200003993","1","1","1","1","1","1","1","1","1"
"260012","img/object_images/paper_cup01.jpg","img/object_images/coloring_pencil01.jpg","img/object_images/camera07.jpg","1","1","0","0","1","1","0.390052200003993","0.356328800000483","0.375505400006659","1","1","1","1","1","1","1","1","2"
"260012","img/object_images/camera07.jpg","img/object_images/paper_cup01.jpg","img/object_images/bow_tie02.jpg","0","1","1","1","0","0","0.375505400006659","0.390052200003993","0.614344000001438","1","1","1","1","1","1","2","1","1"
"260012","img/object_images/bow_tie02.jpg","img/object_images/camera07.jpg","img/object_images/bath_tub01.jpg","1","0","1","0","1","0","0.614344000001438","0.375505400006659","0.474804700003006","1","1","1","1","1","1","1","2","1"
"260012","img/object_images/bath_tub01.jpg","img/object_images/bow_tie02.jpg","img/object_images/ironing_table01.jpg","1","1","1","0","0","0","0.474804700003006","0.614344000001438","0.486958599998616","1","1","1","1","1","1","1","1","1"
"260012","img/object_images/ironing_table01.jpg","img/object_images/bath_tub01.jpg","img/object_images/balloon01.jpg","1","1","1","0","0","0","0.486958599998616","0.474804700003006","0.617487900017295","1","1","1","1","1","1","1","1","1"
"260012","img/object_images/balloon01.jpg","img/object_images/ironing_table01.jpg","img/object_images/handkerchief01.jpg","1","1","1","0","0","0","0.617487900017295","0.486958599998616","0.569166900007986","1","1","1","1","1","1","1","1","1"
"260012","img/object_images/handkerchief01.jpg","img/object_images/balloon01.jpg","img/object_images/sleeping_bag01.jpg","1","1","1","0","0","0","0.569166900007986","0.617487900017295","0.444898999994621","1","1","1","1","1","1","1","1","1"
"260012","img/object_images/sleeping_bag01.jpg","img/object_images/handkerchief01.jpg","img/object_images/fork03.jpg","1","1","1","0","0","1","0.444898999994621","0.569166900007986","0.374560500000371","1","1","1","1","1","1","1","1","1"
"260012","img/object_images/fork03.jpg","img/object_images/sleeping_bag01.jpg","img/object_images/wallet02.jpg","1","1","1","1","0","1","0.374560500000371","0.444898999994621","0.414780700026313","1","1","1","1","1","1","1","1","1"
"260012","img/object_images/wallet02.jpg","img/object_images/fork03.jpg","img/object_images/dresser04.jpg","1","1","1","1","1","0","0.414780700026313","0.374560500000371","0.455543999996735","1","1","1","1","1","1","1","1","1"
"260012","img/object_images/dresser04.jpg","img/object_images/wallet02.jpg","img/object_images/funnel01.jpg","1","1","0","0","1","0","0.455543999996735","0.414780700026313","0.32763580000028","1","1","1","1","1","1","1","1","1"
"260012","img/object_images/funnel01.jpg","img/object_images/dresser04.jpg","img/object_images/jewelry01.jpg","0","1","1","0","0","1","0.32763580000028","0.455543999996735","0.359996399987722","1","1","1","1","1","1","1","1","1"
"260012","img/object_images/jewelry01.jpg","img/object_images/funnel01.jpg","img/object_images/socks02.jpg","1","0","1","1","0","0","0.359996399987722","0.32763580000028","0.473942000011448","1","1","1","1","1","1","1","1","1"
"260012","img/object_images/socks02.jpg","img/object_images/jewelry01.jpg","img/object_images/grater01.jpg","1","1","1","0","1","1","0.473942000011448","0.359996399987722","0.444622499984689","1","1","1","1","1","1","1","1","1"
"260012","img/object_images/grater01.jpg","img/object_images/socks02.jpg","img/object_images/vga_port 01.jpg","1","1","1","1","0","0","0.444622499984689","0.473942000011448","0.446259999996983","1","1","1","1","1","1","1","1","1"
"260012","img/object_images/vga_port 01.jpg","img/object_images/grater01.jpg","img/object_images/lock04.jpg","1","1","1","0","1","1","0.446259999996983","0.444622499984689","0.381718700024066","1","1","1","1","1","1","1","1","1"
"260012","img/object_images/lock04.jpg","img/object_images/vga_port 01.jpg","img/object_images/bow_tie01.jpg","1","1","1","1","0","0","0.381718700024066","0.446259999996983","0.442758900026092","1","1","1","1","1","1","1","1","1"
"260012","img/object_images/bow_tie01.jpg","img/object_images/lock04.jpg","img/object_images/gift_box01.jpg","1","1","1","0","1","1","0.442758900026092","0.381718700024066","0.45188780000899","1","1","1","1","1","1","1","1","1"
"260012","img/object_images/gift_box01.jpg","img/object_images/bow_tie01.jpg","img/object_images/couch03.jpg","1","1","1","1","0","0","0.45188780000899","0.442758900026092","0.478233000001637","1","1","1","1","1","1","1","1","1"
"260012","img/object_images/couch03.jpg","img/object_images/gift_box01.jpg","img/object_images/hammer01.jpg","1","1","1","0","1","0","0.478233000001637","0.45188780000899","0.413567599985981","1","1","1","1","1","1","1","1","1"
"260012","img/object_images/hammer01.jpg","img/object_images/couch03.jpg","img/object_images/golf_ball03.jpg","1","1","1","0","0","1","0.413567599985981","0.478233000001637","0.434794999979204","1","1","1","1","1","1","1","1","1"
"260012","img/object_images/golf_ball03.jpg","img/object_images/hammer01.jpg",NA,"1","1",NA,"1","0",NA,"0.434794999979204","0.413567599985981",NA,"1","1",NA,"1","1",NA,"1","1",NA
"260012","img/object_images/tv01.jpg",NA,"img/object_images/WitchHat02.jpg","1",NA,"1","0",NA,"1","0.712295899982564",NA,"0.379661700018914","1",NA,"1","1",NA,"1","1",NA,"1"
"260012","img/object_images/WitchHat02.jpg","img/object_images/tv01.jpg","img/object_images/toaster02.jpg","1","1","1","1","0","1","0.379661700018914","0.712295899982564","0.368741699989187","1","1","1","1","1","1","1","1","1"
"260012","img/object_images/toaster02.jpg","img/object_images/WitchHat02.jpg","img/object_images/satellite01.jpg","1","1","1","1","1","0","0.368741699989187","0.379661700018914","0.440527099999599","1","1","1","1","1","1","1","1","1"
"260012","img/object_images/satellite01.jpg","img/object_images/toaster02.jpg","img/object_images/ice_tray03.jpg","1","1","1","0","1","1","0.440527099999599","0.368741699989187","0.380187699978705","1","1","1","1","1","1","1","1","1"
"260012","img/object_images/ice_tray03.jpg","img/object_images/satellite01.jpg","img/object_images/dress03.jpg","1","1","1","1","0","1","0.380187699978705","0.440527099999599","0.362754800007679","1","1","1","1","1","1","1","1","1"
"260012","img/object_images/dress03.jpg","img/object_images/ice_tray03.jpg","img/object_images/binoculars03.jpg","1","1","1","1","1","1","0.362754800007679","0.380187699978705","0.421770100016147","1","1","1","1","1","1","1","1","1"
"260012","img/object_images/binoculars03.jpg","img/object_images/dress03.jpg","img/object_images/car04.jpg","1","1","1","1","1","0","0.421770100016147","0.362754800007679","0.428099000011571","1","1","1","1","1","1","1","1","1"
"260012","img/object_images/car04.jpg","img/object_images/binoculars03.jpg","img/object_images/fan05.jpg","1","1","1","0","1","0","0.428099000011571","0.421770100016147","0.474102799984394","1","1","1","1","1","1","1","1","1"
"260012","img/object_images/fan05.jpg","img/object_images/car04.jpg","img/object_images/cards01.jpg","1","1","0","0","0","0","0.474102799984394","0.428099000011571","0.432229700003518","1","1","1","1","1","1","1","1","2"
"260012","img/object_images/cards01.jpg","img/object_images/fan05.jpg","img/object_images/chair04.jpg","0","1","1","0","0","1","0.432229700003518","0.474102799984394","0.422790800017538","1","1","1","1","1","1","2","1","1"
"260012","img/object_images/chair04.jpg","img/object_images/cards01.jpg","img/object_images/tool11.jpg","1","0","1","1","0","1","0.422790800017538","0.432229700003518","0.388007500005187","1","1","1","1","1","1","1","2","1"
"260012","img/object_images/tool11.jpg","img/object_images/chair04.jpg","img/object_images/lemon_squeezer02.jpg","1","1","1","1","1","1","0.388007500005187","0.422790800017538","0.407780200010166","1","1","1","1","1","1","1","1","1"
"260012","img/object_images/lemon_squeezer02.jpg","img/object_images/tool11.jpg","img/object_images/key02.jpg","1","1","1","1","1","1","0.407780200010166","0.388007500005187","0.415156600007322","1","1","1","1","1","1","1","1","1"
"260012","img/object_images/key02.jpg","img/object_images/lemon_squeezer02.jpg","img/object_images/mask01.jpg","1","1","1","1","1","0","0.415156600007322","0.407780200010166","0.454534999997122","1","1","1","1","1","1","1","1","1"
"260012","img/object_images/mask01.jpg","img/object_images/key02.jpg","img/object_images/razor01.jpg","1","1","1","0","1","0","0.454534999997122","0.415156600007322","0.477006500004791","1","1","1","1","1","1","1","1","1"
"260012","img/object_images/razor01.jpg","img/object_images/mask01.jpg","img/object_images/MeasuringCup01.jpg","1","1","1","0","0","1","0.477006500004791","0.454534999997122","0.38963709998643","1","1","1","1","1","1","1","1","1"
"260012","img/object_images/MeasuringCup01.jpg","img/object_images/razor01.jpg","img/object_images/shoes10.jpg","1","1","1","1","0","0","0.38963709998643","0.477006500004791","0.482092900027055","1","1","1","1","1","1","1","1","1"
"260012","img/object_images/shoes10.jpg","img/object_images/MeasuringCup01.jpg","img/object_images/bag06.jpg","1","1","1","0","1","1","0.482092900027055","0.38963709998643","0.495813999994425","1","1","1","1","1","1","1","1","1"
"260012","img/object_images/bag06.jpg","img/object_images/shoes10.jpg","img/object_images/cutting_board01.jpg","1","1","1","1","0","1","0.495813999994425","0.482092900027055","0.379877100000158","1","1","1","1","1","1","1","1","1"
"260012","img/object_images/cutting_board01.jpg","img/object_images/bag06.jpg","img/object_images/yarn02.jpg","1","1","1","1","1","0","0.379877100000158","0.495813999994425","0.427527799998643","1","1","1","1","1","1","1","1","1"
"260012","img/object_images/yarn02.jpg","img/object_images/cutting_board01.jpg","img/object_images/car03.jpg","1","1","1","0","1","0","0.427527799998643","0.379877100000158","0.554985299997497","1","1","1","1","1","1","1","1","1"
"260012","img/object_images/car03.jpg","img/object_images/yarn02.jpg","img/object_images/screwdriver01.jpg","1","1","1","0","0","0","0.554985299997497","0.427527799998643","0.464028399990639","1","1","1","1","1","1","1","1","1"
"260012","img/object_images/screwdriver01.jpg","img/object_images/car03.jpg","img/object_images/shower_head03.jpg","1","1","1","0","0","1","0.464028399990639","0.554985299997497","0.452556700009154","1","1","1","1","1","1","1","1","1"
"260012","img/object_images/shower_head03.jpg","img/object_images/screwdriver01.jpg","img/object_images/jewel01.jpg","1","1","1","1","0","0","0.452556700009154","0.464028399990639","0.575550100009423","1","1","1","1","1","1","1","1","1"
"260012","img/object_images/jewel01.jpg","img/object_images/shower_head03.jpg","img/object_images/belt01.jpg","1","1","1","0","1","0","0.575550100009423","0.452556700009154","0.457875699998112","1","1","1","1","1","1","1","1","1"
"260012","img/object_images/belt01.jpg","img/object_images/jewel01.jpg","img/object_images/ribbon01.jpg","1","1","1","0","0","0","0.457875699998112","0.575550100009423","0.39704250000068","1","1","1","1","1","1","1","1","1"
"260012","img/object_images/ribbon01.jpg","img/object_images/belt01.jpg","img/object_images/hair_brush05.jpg","1","1","1","0","0","1","0.39704250000068","0.457875699998112","0.390386000013677","1","1","1","1","1","1","1","1","1"
"260012","img/object_images/hair_brush05.jpg","img/object_images/ribbon01.jpg","img/object_images/ladle02.jpg","1","1","1","1","0","0","0.390386000013677","0.39704250000068","0.469781000021612","1","1","1","1","1","1","1","1","1"
"260012","img/object_images/ladle02.jpg","img/object_images/hair_brush05.jpg","img/object_images/jewelry07.jpg","1","1","1","0","1","1","0.469781000021612","0.390386000013677","0.390240100008668","1","1","1","1","1","1","1","1","1"
"260012","img/object_images/jewelry07.jpg","img/object_images/ladle02.jpg","img/object_images/slinky_toy01.jpg","1","1","1","1","0","1","0.390240100008668","0.469781000021612","0.353004300006432","1","1","1","1","1","1","1","1","1"
"260012","img/object_images/slinky_toy01.jpg","img/object_images/jewelry07.jpg","img/object_images/rock03.jpg","1","1","1","1","1","0","0.353004300006432","0.390240100008668","0.434435200004373","1","1","1","1","1","1","1","1","1"
"260012","img/object_images/rock03.jpg","img/object_images/slinky_toy01.jpg",NA,"1","1",NA,"0","1",NA,"0.434435200004373","0.353004300006432",NA,"1","1",NA,"1","1",NA,"1","1",NA
"260012","img/object_images/pot01 (1).jpg",NA,"img/object_images/dart01.jpg","1",NA,"1","0",NA,"0","0.481179000023985",NA,"0.464205700001912","1",NA,"1","1",NA,"1","1",NA,"1"
"260012","img/object_images/dart01.jpg","img/object_images/pot01 (1).jpg","img/object_images/ornament01.jpg","1","1","1","0","0","1","0.464205700001912","0.481179000023985","0.422752299986314","1","1","1","1","1","1","1","1","1"
"260012","img/object_images/ornament01.jpg","img/object_images/dart01.jpg","img/object_images/toy03.jpg","1","1","1","1","0","1","0.422752299986314","0.464205700001912","0.410814900009427","1","1","1","1","1","1","1","1","1"
"260012","img/object_images/toy03.jpg","img/object_images/ornament01.jpg","img/object_images/bird_house02.jpg","1","1","1","1","1","1","0.410814900009427","0.422752299986314","0.421050999982981","1","1","1","1","1","1","1","1","1"
"260012","img/object_images/bird_house02.jpg","img/object_images/toy03.jpg","img/object_images/sink01.jpg","1","1","1","1","1","0","0.421050999982981","0.410814900009427","0.446146200003568","1","1","1","1","1","1","1","1","1"
"260012","img/object_images/sink01.jpg","img/object_images/bird_house02.jpg","img/object_images/judge_gavel01.jpg","1","1","1","0","1","1","0.446146200003568","0.421050999982981","0.406798900017748","1","1","1","1","1","1","1","1","1"
"260012","img/object_images/judge_gavel01.jpg","img/object_images/sink01.jpg","img/object_images/Stool01.jpg","1","1","1","1","0","0","0.406798900017748","0.446146200003568","0.409079100005329","1","1","1","1","1","1","1","1","1"
"260012","img/object_images/Stool01.jpg","img/object_images/judge_gavel01.jpg","img/object_images/bow01.jpg","1","1","1","0","1","1","0.409079100005329","0.406798900017748","0.352056200004881","1","1","1","1","1","1","1","1","1"
"260012","img/object_images/bow01.jpg","img/object_images/Stool01.jpg","img/object_images/stapler.jpg","1","1","1","1","0","1","0.352056200004881","0.409079100005329","0.408717700018315","1","1","1","1","1","1","1","1","1"
"260012","img/object_images/stapler.jpg","img/object_images/bow01.jpg","img/object_images/toy04.jpg","1","1","1","1","1","0","0.408717700018315","0.352056200004881","0.417497800022829","1","1","1","1","1","1","1","1","1"
"260012","img/object_images/toy04.jpg","img/object_images/stapler.jpg","img/object_images/shovel03.jpg","1","1","1","0","1","1","0.417497800022829","0.408717700018315","0.424070500012022","1","1","1","1","1","1","1","1","1"
"260012","img/object_images/shovel03.jpg","img/object_images/toy04.jpg","img/object_images/frisbee01.jpg","1","1","1","1","0","1","0.424070500012022","0.417497800022829","0.417807699996047","1","1","1","1","1","1","1","1","1"
"260012","img/object_images/frisbee01.jpg","img/object_images/shovel03.jpg","img/object_images/towel02.jpg","1","1","1","1","1","1","0.417807699996047","0.424070500012022","0.429532999987714","1","1","1","1","1","1","1","1","1"
"260012","img/object_images/towel02.jpg","img/object_images/frisbee01.jpg","img/object_images/fridge03.jpg","1","1","1","1","1","0","0.429532999987714","0.417807699996047","0.47187720000511","1","1","1","1","1","1","1","1","1"
"260012","img/object_images/fridge03.jpg","img/object_images/towel02.jpg","img/object_images/Ring02.jpg","1","1","0","0","1","0","0.47187720000511","0.429532999987714","0.41062989999773","1","1","1","1","1","1","1","1","1"
"260012","img/object_images/Ring02.jpg","img/object_images/fridge03.jpg","img/object_images/tool09.jpg","0","1","0","0","0","1","0.41062989999773","0.47187720000511","0.396619400009513","1","1","1","1","1","1","1","1","2"
"260012","img/object_images/tool09.jpg","img/object_images/Ring02.jpg","img/object_images/Tin01.jpg","0","0","1","1","0","1","0.396619400009513","0.41062989999773","0.492307999986224","1","1","1","1","1","1","2","1","1"
"260012","img/object_images/Tin01.jpg","img/object_images/tool09.jpg","img/object_images/bottle05.jpg","1","0","1","1","1","0","0.492307999986224","0.396619400009513","0.44184439998935","1","1","1","1","1","1","1","2","1"
"260012","img/object_images/bottle05.jpg","img/object_images/Tin01.jpg","img/object_images/mirror01.jpg","1","1","1","0","1","1","0.44184439998935","0.492307999986224","0.514308399986476","1","1","1","1","1","1","1","1","1"
"260012","img/object_images/mirror01.jpg","img/object_images/bottle05.jpg","img/object_images/watch01.jpg","1","1","0","1","0","0","0.514308399986476","0.44184439998935","0.456344300007913","1","1","1","1","1","1","1","1","2"
"260012","img/object_images/watch01.jpg","img/object_images/mirror01.jpg","img/object_images/guitar02.jpg","0","1","1","0","1","0","0.456344300007913","0.514308399986476","0.441957900009584","1","1","1","1","1","1","2","1","1"
"260012","img/object_images/guitar02.jpg","img/object_images/watch01.jpg","img/object_images/acoustic_capo01.jpg","1","0","1","0","0","1","0.441957900009584","0.456344300007913","0.42094090001774","1","1","1","1","1","1","1","2","1"
"260012","img/object_images/acoustic_capo01.jpg","img/object_images/guitar02.jpg","img/object_images/MetalWire01.jpg","1","1","1","1","0","0","0.42094090001774","0.441957900009584","0.423885600030189","1","1","1","1","1","1","1","1","1"
"260012","img/object_images/MetalWire01.jpg","img/object_images/acoustic_capo01.jpg","img/object_images/helmet01.jpg","1","1","1","0","1","0","0.423885600030189","0.42094090001774","0.44666759998654","1","1","1","1","1","1","1","1","1"
"260012","img/object_images/helmet01.jpg","img/object_images/MetalWire01.jpg","img/object_images/outlet01.jpg","1","1","1","0","0","0","0.44666759998654","0.423885600030189","0.485152500012191","1","1","1","1","1","1","1","1","1"
"260012","img/object_images/outlet01.jpg","img/object_images/helmet01.jpg","img/object_images/video_game07.jpg","1","1","0","0","0","1","0.485152500012191","0.44666759998654","0.337151000014273","1","1","1","1","1","1","1","1","1"
"260012","img/object_images/video_game07.jpg","img/object_images/outlet01.jpg","img/object_images/crown02.jpg","0","1","1","1","0","1","0.337151000014273","0.485152500012191","0.454609499982325","1","1","1","1","1","1","1","1","1"
"260012","img/object_images/crown02.jpg","img/object_images/video_game07.jpg","img/object_images/Vacuum01.jpg","1","0","1","1","1","0","0.454609499982325","0.337151000014273","0.50728479999816","1","1","1","1","1","1","1","1","1"
"260012","img/object_images/Vacuum01.jpg","img/object_images/crown02.jpg","img/object_images/jewel04.jpg","1","1","1","0","1","0","0.50728479999816","0.454609499982325","0.497938300017267","1","1","1","1","1","1","1","1","1"
"260012","img/object_images/jewel04.jpg","img/object_images/Vacuum01.jpg","img/object_images/tool02.jpg","1","1","1","0","0","1","0.497938300017267","0.50728479999816","0.493245199992089","1","1","1","1","1","1","1","1","1"
"260012","img/object_images/tool02.jpg","img/object_images/jewel04.jpg","img/object_images/gauze01.jpg","1","1","1","1","0","0","0.493245199992089","0.497938300017267","0.368723999999929","1","1","1","1","1","1","1","1","1"
"260012","img/object_images/gauze01.jpg","img/object_images/tool02.jpg",NA,"1","1",NA,"0","1",NA,"0.368723999999929","0.493245199992089",NA,"1","1",NA,"1","1",NA,"1","1",NA
"260012","img/object_images/bottle06.jpg",NA,"img/object_images/bucket01.jpg","1",NA,"1","0",NA,"1","0.577055900008418",NA,"0.35801990001346","1",NA,"1","1",NA,"1","1",NA,"1"
"260012","img/object_images/bucket01.jpg","img/object_images/bottle06.jpg","img/object_images/origami01.jpg","1","1","1","1","0","1","0.35801990001346","0.577055900008418","0.321296900016023","1","1","1","1","1","1","1","1","1"
"260012","img/object_images/origami01.jpg","img/object_images/bucket01.jpg","img/object_images/belt03.jpg","1","1","1","1","1","0","0.321296900016023","0.35801990001346","0.448498099984135","1","1","1","1","1","1","1","1","1"
"260012","img/object_images/belt03.jpg","img/object_images/origami01.jpg","img/object_images/scale02.jpg","1","1","1","0","1","0","0.448498099984135","0.321296900016023","0.368327300006058","1","1","1","1","1","1","1","1","1"
"260012","img/object_images/scale02.jpg","img/object_images/belt03.jpg","img/object_images/badminton01.jpg","1","1","1","0","0","1","0.368327300006058","0.448498099984135","0.326535200001672","1","1","1","1","1","1","1","1","1"
"260012","img/object_images/badminton01.jpg","img/object_images/scale02.jpg","img/object_images/dice01.jpg","1","1","1","1","0","0","0.326535200001672","0.368327300006058","0.391439099999843","1","1","1","1","1","1","1","1","1"
"260012","img/object_images/dice01.jpg","img/object_images/badminton01.jpg","img/object_images/frame01.jpg","1","1","1","0","1","1","0.391439099999843","0.326535200001672","0.419883800001116","1","1","1","1","1","1","1","1","1"
"260012","img/object_images/frame01.jpg","img/object_images/dice01.jpg","img/object_images/usb03.jpg","1","1","0","1","0","0","0.419883800001116","0.391439099999843","0.33361580001656","1","1","1","1","1","1","1","1","1"
"260012","img/object_images/usb03.jpg","img/object_images/frame01.jpg","img/object_images/headset02.jpg","0","1","0","0","1","0","0.33361580001656","0.419883800001116","0.327279799996177","1","1","1","1","1","1","1","1","1"
"260012","img/object_images/headset02.jpg","img/object_images/usb03.jpg","img/object_images/Safe01.jpg","0","0","1","0","0","1","0.327279799996177","0.33361580001656","0.435336800001096","1","1","1","1","1","1","1","1","1"
"260012","img/object_images/Safe01.jpg","img/object_images/headset02.jpg","img/object_images/TreeSlice01.jpg","1","0","1","1","0","1","0.435336800001096","0.327279799996177","0.363470499985851","1","1","1","1","1","1","1","1","1"
"260012","img/object_images/TreeSlice01.jpg","img/object_images/Safe01.jpg","img/object_images/piano03.jpg","1","1","1","1","1","0","0.363470499985851","0.435336800001096","0.471970700018574","1","1","1","1","1","1","1","1","1"
"260012","img/object_images/piano03.jpg","img/object_images/TreeSlice01.jpg","img/object_images/fan01.jpg","1","1","1","0","1","0","0.471970700018574","0.363470499985851","0.522661900002277","1","1","1","1","1","1","1","1","1"
"260012","img/object_images/fan01.jpg","img/object_images/piano03.jpg","img/object_images/egg_basket01.jpg","1","1","1","0","0","1","0.522661900002277","0.471970700018574","0.40160109999124","1","1","1","1","1","1","1","1","1"
"260012","img/object_images/egg_basket01.jpg","img/object_images/fan01.jpg","img/object_images/note_book02.jpg","1","1","1","1","0","0","0.40160109999124","0.522661900002277","0.479986599995755","1","1","1","1","1","1","1","1","1"
"260012","img/object_images/note_book02.jpg","img/object_images/egg_basket01.jpg","img/object_images/joystick03.jpg","1","1","0","0","1","1","0.479986599995755","0.40160109999124","0.468645100016147","1","1","1","1","1","1","1","1","2"
"260012","img/object_images/joystick03.jpg","img/object_images/note_book02.jpg","img/object_images/nut_cracker01.jpg","0","1","1","1","0","1","0.468645100016147","0.479986599995755","0.53455490001943","1","1","1","1","1","1","2","1","1"
"260012","img/object_images/nut_cracker01.jpg","img/object_images/joystick03.jpg","img/object_images/tennis_racket01.jpg","1","0","1","1","1","1","0.53455490001943","0.468645100016147","0.477838100021472","1","1","1","1","1","1","1","2","1"
"260012","img/object_images/tennis_racket01.jpg","img/object_images/nut_cracker01.jpg","img/object_images/Shoes05.jpg","1","1","1","1","1","0","0.477838100021472","0.53455490001943","0.907427500002086","1","1","1","1","1","1","1","1","1"
"260012","img/object_images/Shoes05.jpg","img/object_images/tennis_racket01.jpg","img/object_images/yoga_mat01.jpg","1","1","1","0","1","0","0.907427500002086","0.477838100021472","0.508392400020966","1","1","1","1","1","1","1","1","1"
"260012","img/object_images/yoga_mat01.jpg","img/object_images/Shoes05.jpg","img/object_images/bookmark01.jpg","1","1","1","0","0","0","0.508392400020966","0.907427500002086","0.413212199986447","1","1","1","1","1","1","1","1","1"
"260012","img/object_images/bookmark01.jpg","img/object_images/yoga_mat01.jpg","img/object_images/trumpet01.jpg","1","1","0","0","0","0","0.413212199986447","0.508392400020966","0.536542000016198","1","1","1","1","1","1","1","1","2"
"260012","img/object_images/trumpet01.jpg","img/object_images/bookmark01.jpg","img/object_images/jewel02.jpg","0","1","1","0","0","0","0.536542000016198","0.413212199986447","0.408484699990368","1","1","1","1","1","1","2","1","1"
"260012","img/object_images/jewel02.jpg","img/object_images/trumpet01.jpg","img/object_images/helmet03.jpg","1","0","1","0","0","1","0.408484699990368","0.536542000016198","0.430173200002173","1","1","1","1","1","1","1","2","1"
"260012","img/object_images/helmet03.jpg","img/object_images/jewel02.jpg","img/object_images/Eyeliner01.jpg","1","1","1","1","0","1","0.430173200002173","0.408484699990368","0.443392899993341","1","1","1","1","1","1","1","1","1"
"260012","img/object_images/Eyeliner01.jpg","img/object_images/helmet03.jpg","img/object_images/ToolBag01.jpg","1","1","0","1","1","0","0.443392899993341","0.430173200002173","0.830291200021747","1","1","1","1","1","1","1","1","1"
"260012","img/object_images/ToolBag01.jpg","img/object_images/Eyeliner01.jpg","img/object_images/water_gun01.jpg","0","1","1","0","1","1","0.830291200021747","0.443392899993341","0.48165699999663","1","1","1","1","1","1","1","1","1"
"260012","img/object_images/water_gun01.jpg","img/object_images/ToolBag01.jpg","img/object_images/phone04.jpg","1","0","1","1","0","1","0.48165699999663","0.830291200021747","0.408491699985461","1","1","1","1","1","1","1","1","1"
"260012","img/object_images/phone04.jpg","img/object_images/water_gun01.jpg","img/object_images/lock03.jpg","1","1","1","1","1","1","0.408491699985461","0.48165699999663","0.416585099999793","1","1","1","1","1","1","1","1","1"
"260012","img/object_images/lock03.jpg","img/object_images/phone04.jpg","img/object_images/shovel01.jpg","1","1","1","1","1","0","0.416585099999793","0.408491699985461","0.432431699999142","1","1","1","1","1","1","1","1","1"
"260012","img/object_images/shovel01.jpg","img/object_images/lock03.jpg","img/object_images/pitcher07.jpg","1","1","1","0","1","1","0.432431699999142","0.416585099999793","0.471011400019052","1","1","1","1","1","1","1","1","1"
"260012","img/object_images/pitcher07.jpg","img/object_images/shovel01.jpg",NA,"1","1",NA,"1","0",NA,"0.471011400019052","0.432431699999142",NA,"1","1",NA,"1","1",NA,"1","1",NA
"260012","img/object_images/purse01.jpg",NA,"img/object_images/exfoliater_brush01.jpg","1",NA,"1","1",NA,"0","0.402296199987177",NA,"0.461257700022543","1",NA,"1","1",NA,"1","1",NA,"1"
"260012","img/object_images/exfoliater_brush01.jpg","img/object_images/purse01.jpg","img/object_images/hole_puncher01.jpg","1","1","1","0","1","1","0.461257700022543","0.402296199987177","0.397085900011007","1","1","1","1","1","1","1","1","1"
"260012","img/object_images/hole_puncher01.jpg","img/object_images/exfoliater_brush01.jpg","img/object_images/Traffic Sign 01.jpg","1","1","1","1","0","0","0.397085900011007","0.461257700022543","0.428967799991369","1","1","1","1","1","1","1","1","1"
"260012","img/object_images/Traffic Sign 01.jpg","img/object_images/hole_puncher01.jpg","img/object_images/fire_extinguisher01.jpg","1","1","1","0","1","0","0.428967799991369","0.397085900011007","0.332754400005797","1","1","1","1","1","1","1","1","1"
"260012","img/object_images/fire_extinguisher01.jpg","img/object_images/Traffic Sign 01.jpg","img/object_images/tool07.jpg","1","1","0","0","0","0","0.332754400005797","0.428967799991369","0.355790600006003","1","1","1","1","1","1","1","1","2"
"260012","img/object_images/tool07.jpg","img/object_images/fire_extinguisher01.jpg","img/object_images/speaker01.jpg","0","1","1","0","0","1","0.355790600006003","0.332754400005797","0.429010600026231","1","1","1","1","1","1","2","1","1"
"260012","img/object_images/speaker01.jpg","img/object_images/tool07.jpg","img/object_images/handcuffs01.jpg","1","0","1","1","0","0","0.429010600026231","0.355790600006003","0.426523500005715","1","1","1","1","1","1","1","2","1"
"260012","img/object_images/handcuffs01.jpg","img/object_images/speaker01.jpg","img/object_images/cellphone02.jpg","1","1","1","0","1","1","0.426523500005715","0.429010600026231","0.428075700008776","1","1","1","1","1","1","1","1","1"
"260012","img/object_images/cellphone02.jpg","img/object_images/handcuffs01.jpg","img/object_images/jewelry09.jpg","1","1","1","1","0","1","0.428075700008776","0.426523500005715","0.366093899996486","1","1","1","1","1","1","1","1","1"
"260012","img/object_images/jewelry09.jpg","img/object_images/cellphone02.jpg","img/object_images/Sprayer01.jpg","1","1","1","1","1","0","0.366093899996486","0.428075700008776","0.493737600016175","1","1","1","1","1","1","1","1","1"
"260012","img/object_images/Sprayer01.jpg","img/object_images/jewelry09.jpg","img/object_images/pan01.jpg","1","1","1","0","1","1","0.493737600016175","0.366093899996486","0.401593199989293","1","1","1","1","1","1","1","1","2"
"260012","img/object_images/pan01.jpg","img/object_images/Sprayer01.jpg","img/object_images/gift_box04.jpg","1","1","1","1","0","0","0.401593199989293","0.493737600016175","0.614445100014564","1","1","1","1","1","1","2","1","1"
"260012","img/object_images/gift_box04.jpg","img/object_images/pan01.jpg","img/object_images/Kitchen_Towel.jpg","1","1","1","0","1","0","0.614445100014564","0.401593199989293","0.44857680000132","1","1","1","1","1","1","1","2","1"
"260012","img/object_images/Kitchen_Towel.jpg","img/object_images/gift_box04.jpg","img/object_images/basket02.jpg","1","1","1","0","0","0","0.44857680000132","0.614445100014564","0.514915000007022","1","1","1","1","1","1","1","1","1"
"260012","img/object_images/basket02.jpg","img/object_images/Kitchen_Towel.jpg","img/object_images/tray01.jpg","1","1","1","0","0","1","0.514915000007022","0.44857680000132","0.354898200021125","1","1","1","1","1","1","1","1","1"
"260012","img/object_images/tray01.jpg","img/object_images/basket02.jpg","img/object_images/lighter01.jpg","1","1","1","1","0","1","0.354898200021125","0.514915000007022","0.41769000000204","1","1","1","1","1","1","1","1","1"
"260012","img/object_images/lighter01.jpg","img/object_images/tray01.jpg","img/object_images/ring03.jpg","1","1","1","1","1","1","0.41769000000204","0.354898200021125","0.357031499996083","1","1","1","1","1","1","1","1","1"
"260012","img/object_images/ring03.jpg","img/object_images/lighter01.jpg","img/object_images/blanket01.jpg","1","1","1","1","1","1","0.357031499996083","0.41769000000204","0.398851699981606","1","1","1","1","1","1","1","1","1"
"260012","img/object_images/blanket01.jpg","img/object_images/ring03.jpg","img/object_images/glasses06.jpg","1","1","0","1","1","1","0.398851699981606","0.357031499996083","0.382557700009784","1","1","1","1","1","1","1","1","2"
"260012","img/object_images/glasses06.jpg","img/object_images/blanket01.jpg","img/object_images/tool08.jpg","0","1","1","1","1","0","0.382557700009784","0.398851699981606","0.416958600020735","1","1","1","1","1","1","2","1","1"
"260012","img/object_images/tool08.jpg","img/object_images/glasses06.jpg","img/object_images/glasses07.jpg","1","0","1","0","1","1","0.416958600020735","0.382557700009784","0.355722900014371","1","1","1","1","1","1","1","2","1"
"260012","img/object_images/glasses07.jpg","img/object_images/tool08.jpg","img/object_images/book01.jpg","1","1","1","1","0","1","0.355722900014371","0.416958600020735","0.373168999998597","1","1","1","1","1","1","1","1","1"
"260012","img/object_images/book01.jpg","img/object_images/glasses07.jpg","img/object_images/colander01.jpg","1","1","1","1","1","0","0.373168999998597","0.355722900014371","0.489583300019149","1","1","1","1","1","1","1","1","1"
"260012","img/object_images/colander01.jpg","img/object_images/book01.jpg","img/object_images/Pottery01.jpg","1","1","1","0","1","0","0.489583300019149","0.373168999998597","0.52177049999591","1","1","1","1","1","1","1","1","1"
"260012","img/object_images/Pottery01.jpg","img/object_images/colander01.jpg","img/object_images/bicycle_lock01.jpg","1","1","0","0","0","0","0.52177049999591","0.489583300019149","0.394153500004904","1","1","1","1","1","1","1","1","2"
"260012","img/object_images/bicycle_lock01.jpg","img/object_images/Pottery01.jpg","img/object_images/cup03.jpg","0","1","1","0","0","1","0.394153500004904","0.52177049999591","0.4712863000168","1","1","1","1","1","1","2","1","1"
"260012","img/object_images/cup03.jpg","img/object_images/bicycle_lock01.jpg","img/object_images/hair_clips01.jpg","1","0","1","1","0","1","0.4712863000168","0.394153500004904","0.414030000014463","1","1","1","1","1","1","1","2","1"
"260012","img/object_images/hair_clips01.jpg","img/object_images/cup03.jpg","img/object_images/faucet01.jpg","1","1","0","1","1","0","0.414030000014463","0.4712863000168","0.553886900015641","1","1","1","1","1","1","1","1","2"
"260012","img/object_images/faucet01.jpg","img/object_images/hair_clips01.jpg","img/object_images/projector01.jpg","0","1","1","0","1","0","0.553886900015641","0.414030000014463","0.58601009999984","1","1","1","1","1","1","2","1","1"
"260012","img/object_images/projector01.jpg","img/object_images/faucet01.jpg","img/object_images/yo_yo01.jpg","1","0","1","0","0","0","0.58601009999984","0.553886900015641","0.499966400006087","1","1","1","1","1","1","1","2","1"
"260012","img/object_images/yo_yo01.jpg","img/object_images/projector01.jpg","img/object_images/TrashCan02.jpg","1","1","1","0","0","1","0.499966400006087","0.58601009999984","0.464180000009947","1","1","1","1","1","1","1","1","1"
"260012","img/object_images/TrashCan02.jpg","img/object_images/yo_yo01.jpg",NA,"1","1",NA,"1","0",NA,"0.464180000009947","0.499966400006087",NA,"1","1",NA,"1","1",NA,"1","1",NA
"260012","img/object_images/hot_air_balloon02.jpg",NA,"img/object_images/bicycle01.jpg","0",NA,"1","0",NA,"1",NA,NA,"0.503696300002048","0",NA,"1","0",NA,"1","0",NA,"1"
"260012","img/object_images/bicycle01.jpg","img/object_images/hot_air_balloon02.jpg","img/object_images/dog_leash01.jpg","1","0","0","1","0","0","0.503696300002048",NA,"0.388669500011019","1","0","1","1","0","1","1","0","2"
"260012","img/object_images/dog_leash01.jpg","img/object_images/bicycle01.jpg","img/object_images/tool19.jpg","0","1","1","0","1","1","0.388669500011019","0.503696300002048","0.38722860001144","1","1","1","1","1","1","2","1","1"
"260012","img/object_images/tool19.jpg","img/object_images/dog_leash01.jpg","img/object_images/bean_bag02.jpg","1","0","1","1","0","1","0.38722860001144","0.388669500011019","0.452712500002235","1","1","1","1","1","1","1","2","1"
"260012","img/object_images/bean_bag02.jpg","img/object_images/tool19.jpg","img/object_images/piggy_bank01.jpg","1","1","1","1","1","1","0.452712500002235","0.38722860001144","0.338795199990273","1","1","1","1","1","1","1","1","1"
"260012","img/object_images/piggy_bank01.jpg","img/object_images/bean_bag02.jpg","img/object_images/cellphone03.jpg","1","1","1","1","1","0","0.338795199990273","0.452712500002235","0.639003500022227","1","1","1","1","1","1","1","1","1"
"260012","img/object_images/cellphone03.jpg","img/object_images/piggy_bank01.jpg","img/object_images/wagon_cart03.jpg","1","1","1","0","1","1","0.639003500022227","0.338795199990273","0.432625599991297","1","1","1","1","1","1","1","1","1"
"260012","img/object_images/wagon_cart03.jpg","img/object_images/cellphone03.jpg","img/object_images/boat02.jpg","1","1","1","1","0","1","0.432625599991297","0.639003500022227","0.404701699997531","1","1","1","1","1","1","1","1","1"
"260012","img/object_images/boat02.jpg","img/object_images/wagon_cart03.jpg","img/object_images/bottle02.jpg","1","1","1","1","1","1","0.404701699997531","0.432625599991297","0.319622800016077","1","1","1","1","1","1","1","1","1"
"260012","img/object_images/bottle02.jpg","img/object_images/boat02.jpg","img/object_images/camera_lens01.jpg","1","1","1","1","1","1","0.319622800016077","0.404701699997531","0.448446300026262","1","1","1","1","1","1","1","1","1"
"260012","img/object_images/camera_lens01.jpg","img/object_images/bottle02.jpg","img/object_images/perfume02.jpg","1","1","0","1","1","0","0.448446300026262","0.319622800016077","0.425650599994697","1","1","1","1","1","1","1","1","1"
"260012","img/object_images/perfume02.jpg","img/object_images/camera_lens01.jpg","img/object_images/boat_toy10.jpg","0","1","1","0","1","0","0.425650599994697","0.448446300026262","0.44899040000746","1","1","1","1","1","1","1","1","1"
"260012","img/object_images/boat_toy10.jpg","img/object_images/perfume02.jpg","img/object_images/fan02.jpg","1","0","1","0","0","0","0.44899040000746","0.425650599994697","0.529898300010245","1","1","1","1","1","1","1","1","1"
"260012","img/object_images/fan02.jpg","img/object_images/boat_toy10.jpg","img/object_images/chair03.jpg","1","1","1","0","0","0","0.529898300010245","0.44899040000746","0.471180799999274","1","1","1","1","1","1","1","1","1"
"260012","img/object_images/chair03.jpg","img/object_images/fan02.jpg","img/object_images/toaster01.jpg","1","1","0","0","0","1","0.471180799999274","0.529898300010245",NA,"1","1","0","1","1","0","1","1","0"
"260012","img/object_images/toaster01.jpg","img/object_images/chair03.jpg","img/object_images/audio_port01.jpg","0","1","1","1","0","1",NA,"0.471180799999274","0.443076700001256","0","1","1","0","1","1","0","1","1"
"260012","img/object_images/audio_port01.jpg","img/object_images/toaster01.jpg","img/object_images/hat06.jpg","1","0","1","1","1","0","0.443076700001256",NA,"0.471917899994878","1","0","1","1","0","1","1","0","1"
"260012","img/object_images/hat06.jpg","img/object_images/audio_port01.jpg","img/object_images/bottle10.jpg","1","1","1","0","1","1","0.471917899994878","0.443076700001256","0.411626600020099","1","1","1","1","1","1","1","1","1"
"260012","img/object_images/bottle10.jpg","img/object_images/hat06.jpg","img/object_images/coloring_pencil02.jpg","1","1","1","1","0","0","0.411626600020099","0.471917899994878","0.365577300020959","1","1","1","1","1","1","1","1","1"
"260012","img/object_images/coloring_pencil02.jpg","img/object_images/bottle10.jpg","img/object_images/tie02.jpg","1","1","0","0","1","0","0.365577300020959","0.411626600020099","0.426697899994906","1","1","1","1","1","1","1","1","2"
"260012","img/object_images/tie02.jpg","img/object_images/coloring_pencil02.jpg","img/object_images/helmet04.jpg","0","1","1","0","0","1","0.426697899994906","0.365577300020959","0.491096000012476","1","1","1","1","1","1","2","1","1"
"260012","img/object_images/helmet04.jpg","img/object_images/tie02.jpg","img/object_images/bottle09.jpg","1","0","1","1","0","0","0.491096000012476","0.426697899994906","0.45888369999011","1","1","1","1","1","1","1","2","1"
"260012","img/object_images/bottle09.jpg","img/object_images/helmet04.jpg","img/object_images/WoodBox01.jpg","1","1","1","0","1","0","0.45888369999011","0.491096000012476","0.368254900007742","1","1","1","1","1","1","1","1","1"
"260012","img/object_images/WoodBox01.jpg","img/object_images/bottle09.jpg","img/object_images/shoes07.jpg","1","1","1","0","0","0","0.368254900007742","0.45888369999011","0.435780100000557","1","1","1","1","1","1","1","1","1"
"260012","img/object_images/shoes07.jpg","img/object_images/WoodBox01.jpg","img/object_images/purse04.jpg","1","1","1","0","0","1","0.435780100000557","0.368254900007742","0.378719800006365","1","1","1","1","1","1","1","1","1"
"260012","img/object_images/purse04.jpg","img/object_images/shoes07.jpg","img/object_images/scoreboard01.jpg","1","1","1","1","0","1","0.378719800006365","0.435780100000557","0.404213900008472","1","1","1","1","1","1","1","1","1"
"260012","img/object_images/scoreboard01.jpg","img/object_images/purse04.jpg","img/object_images/pen05.jpg","1","1","0","1","1","0","0.404213900008472","0.378719800006365","0.915650900016772","1","1","1","1","1","1","1","1","1"
"260012","img/object_images/pen05.jpg","img/object_images/scoreboard01.jpg","img/object_images/toilet_paper_dispenser01.jpg","0","1","1","0","1","1","0.915650900016772","0.404213900008472","0.460271200019633","1","1","1","1","1","1","1","1","1"
"260012","img/object_images/toilet_paper_dispenser01.jpg","img/object_images/pen05.jpg","img/object_images/water_scooter01.jpg","1","0","1","1","0","1","0.460271200019633","0.915650900016772","0.352187799988315","1","1","1","1","1","1","1","1","1"
"260012","img/object_images/water_scooter01.jpg","img/object_images/toilet_paper_dispenser01.jpg","img/object_images/knit01.jpg","1","1","1","1","1","0","0.352187799988315","0.460271200019633","0.436086100002285","1","1","1","1","1","1","1","1","1"
"260012","img/object_images/knit01.jpg","img/object_images/water_scooter01.jpg","img/object_images/flask01.jpg","1","1","1","0","1","0","0.436086100002285","0.352187799988315","0.579682000010507","1","1","1","1","1","1","1","1","1"
"260012","img/object_images/flask01.jpg","img/object_images/knit01.jpg",NA,"1","1",NA,"0","0",NA,"0.579682000010507","0.436086100002285",NA,"1","1",NA,"1","1",NA,"1","1",NA
