"participant_id","object","surpAcc","memory_surp_responses","memory_surp_rt","keep_surp_memory_trial_based_on_rt","surp_block_num","exclude_block","number_of_surp_resp_items_used","num_blocks_excluded"
"260004","img/object_images/microphone03.jpg","1","s","3.10727959987707",1,1,0,2,0
"260004","img/object_images/Thermometer01.jpg","1","s","2.36576619977131",1,1,0,2,0
"260004","img/object_images/guitar02.jpg","1","s","1.17729949997738",1,1,0,2,0
"260004","img/object_images/scarf01.jpg","1","k","1.3549764000345",1,1,0,2,0
"260004","img/object_images/sink01.jpg","1","k","1.62325639999472",1,1,0,2,0
"260004","img/object_images/boat04.jpg","0","s","1.26694149989635",1,1,0,2,0
"260004","img/object_images/tv01.jpg","1","s","1.75739610008895",1,1,0,2,0
"260004","img/object_images/ToolBag01.jpg","1","s","1.61410360014997",1,1,0,2,0
"260004","img/object_images/WoodBox01.jpg","1","s","1.82162289996631",1,1,0,2,0
"260004","img/object_images/hair_brush02.jpg","0","k","1.51583420019597",1,1,0,2,0
"260004","img/object_images/bottle05.jpg","1","k","1.22087610000744",1,1,0,2,0
"260004","img/object_images/cellphone03.jpg","0","s","1.56247689994052",1,1,0,2,0
"260004","img/object_images/ornament01.jpg","1","s","2.26477790018544",1,1,0,2,0
"260004","img/object_images/crown02.jpg","1","k","1.57819989998825",1,1,0,2,0
"260004","img/object_images/matches02.jpg","0","s","1.88512490014546",1,1,0,2,0
"260004","img/object_images/pen03.jpg","1","s","1.17071840004064",1,1,0,2,0
"260004","img/object_images/book03.jpg","1","k","1.23835900006816",1,1,0,2,0
"260004","img/object_images/Traffic Sign 01.jpg","0","s","1.92010860005394",1,1,0,2,0
"260004","img/object_images/pot01.jpg","1","k","1.69455080013722",1,1,0,2,0
"260004","img/object_images/purse04.jpg","1","s","2.8986106000375",1,1,0,2,0
"260004","img/object_images/MetalWire01.jpg","0","s","1.69485470000654",1,1,0,2,0
"260004","img/object_images/brief_case02.jpg","1","k","1.99757799995132",1,1,0,2,0
"260004","img/object_images/video_game02.jpg","1","k","1.20003789989278",1,1,0,2,0
"260004","img/object_images/knife02.jpg","1","k","1.31131290015765",1,1,0,2,0
"260004","img/object_images/toaster01.jpg","1","k","1.20500619988889",1,1,0,2,0
"260004","img/object_images/knife01.jpg","1","s","1.27699810010381",1,1,0,2,0
"260004","img/object_images/key02.jpg","0","k","1.48259670007974",1,1,0,2,0
"260004","img/object_images/jewel04.jpg","1","s","1.02944259997457",1,1,0,2,0
"260004","img/object_images/Lint_Roller02.jpg","1","k","1.94590690010227",1,1,0,2,0
"260004","img/object_images/accardion01.jpg","1","s","3.17021900019608",1,1,0,2,0
"260004","img/object_images/dress03.jpg","1","s","3.47867690003477",1,1,0,2,0
"260004","img/object_images/ruler02.jpg","1","k","1.09702809993178",1,1,0,2,0
"260004","img/object_images/perfume02.jpg","0","k","5.13125810003839",1,1,0,2,0
"260004","img/object_images/fan01.jpg","0","s","3.53608880005777",1,1,0,2,0
"260004","img/object_images/flashlight03.jpg","1","k","1.19381460011937",1,1,0,2,0
"260004","img/object_images/razor01.jpg","1","s","1.17510350001976",1,1,0,2,0
"260004","img/object_images/bow_tie03.jpg","0","s","1.49272289988585",1,1,0,2,0
"260004","img/object_images/knife04.jpg","1","k","2.14512180001475",1,1,0,2,0
"260004","img/object_images/Vest02.jpg","0","s","1.38786199991591",1,1,0,2,0
"260004","img/object_images/vase01.jpg","0","s","1.50060380017385",1,1,0,2,0
"260004","img/object_images/clip02.jpg","1","s","1.16845789994113",1,1,0,2,0
"260004","img/object_images/pitcher02.jpg","1","s","0.937728600110859",1,1,0,2,0
"260004","img/object_images/knit05.jpg","1","s","8.34440009994432",1,1,0,2,0
"260004","img/object_images/mask01.jpg","0","k","1.77190910000354",1,1,0,2,0
"260004","img/object_images/bow_tie01.jpg","1","k","1.13847999996506",1,1,0,2,0
"260004","img/object_images/shower_head01.jpg","0","s","1.03206760017201",1,1,0,2,0
"260004","img/object_images/bird_house02.jpg","1","s","0.882721999892965",1,1,0,2,0
"260004","img/object_images/broom01.jpg","1","s","2.1768460997846",1,1,0,2,0
"260004","img/object_images/note_book02.jpg","0","k","2.00150980008766",1,2,0,2,0
"260004","img/object_images/boat_toy10.jpg","1","s","2.74897280009463",1,2,0,2,0
"260004","img/object_images/ball02.jpg","0","s","1.34878639993258",1,2,0,2,0
"260004","img/object_images/gift_box02.jpg","1","s","1.58945399988443",1,2,0,2,0
"260004","img/object_images/pan01.jpg","0","s","2.58776100003161",1,2,0,2,0
"260004","img/object_images/ear_bud01.jpg","0","k","1.82483799988404",1,2,0,2,0
"260004","img/object_images/robe01.jpg","1","s","1.77644080016762",1,2,0,2,0
"260004","img/object_images/gauze01.jpg","1","k","1.59993809997104",1,2,0,2,0
"260004","img/object_images/surf_board01.jpg","1","s","1.72479090001434",1,2,0,2,0
"260004","img/object_images/retainer01.jpg","1","s","1.11572999996133",1,2,0,2,0
"260004","img/object_images/acoustic_capo01.jpg","1","k","1.20003359997645",1,2,0,2,0
"260004","img/object_images/airfryer01.jpg","0","s","1.51947800000198",1,2,0,2,0
"260004","img/object_images/WitchHat02.jpg","1","k","1.01283599995077",1,2,0,2,0
"260004","img/object_images/TreeSlice01.jpg","1","s","6.466048900038",1,2,0,2,0
"260004","img/object_images/glasses03.jpg","1","k","1.6344891001936",1,2,0,2,0
"260004","img/object_images/tool07.jpg","0","s","3.64134020009078",1,2,0,2,0
"260004","img/object_images/lemon_squeezer02.jpg","1","k","1.55887389997952",1,2,0,2,0
"260004","img/object_images/curtain02.jpg","1","k","1.75046050013043",1,2,0,2,0
"260004","img/object_images/board01.jpg","0","k","2.36695679998957",1,2,0,2,0
"260004","img/object_images/projector01.jpg","0","k","2.17685710010119",1,2,0,2,0
"260004","img/object_images/trash_can05.jpg","1","s","2.02562429988757",1,2,0,2,0
"260004","img/object_images/hole_puncher01.jpg","1","s","2.49262109980918",1,2,0,2,0
"260004","img/object_images/pitcher01.jpg","1","s","1.63324610004202",1,2,0,2,0
"260004","img/object_images/clip04.jpg","1","s","3.25904699997045",1,2,0,2,0
"260004","img/object_images/Witchhat01.jpg","0","k","1.47849079989828",1,2,0,2,0
"260004","img/object_images/wallet02.jpg","1","k","1.52609780011699",1,2,0,2,0
"260004","img/object_images/tool11.jpg","0","k","1.64509889995679",1,2,0,2,0
"260004","img/object_images/ironing_table01.jpg","1","k","1.91312770009972",1,2,0,2,0
"260004","img/object_images/dice01.jpg","1","k","1.54865879984573",1,2,0,2,0
"260004","img/object_images/pen05.jpg","0","k","2.39770510001108",1,2,0,2,0
"260004","img/object_images/ice_tray03.jpg","1","k","1.22998609999195",1,2,0,2,0
"260004","img/object_images/backpack01.jpg","1","s","1.48237280012108",1,2,0,2,0
"260004","img/object_images/mail_box02.jpg","1","k","1.1859162999317",1,2,0,2,0
"260004","img/object_images/tripod01.jpg","1","s","1.68138570012525",1,2,0,2,0
"260004","img/object_images/toothbrush01.jpg","1","s","1.68257430009544",1,2,0,2,0
"260004","img/object_images/lemon_squeezer01.jpg","1","s","0.712800099980086",1,2,0,2,0
"260004","img/object_images/knit01.jpg","0","s","2.07468080008402",1,2,0,2,0
"260004","img/object_images/vase02.jpg","1","s","0.911528000142425",1,2,0,2,0
"260004","img/object_images/bath_tub01.jpg","1","k","0.913726600119844",1,2,0,2,0
"260004","img/object_images/crutches02.jpg","0","k","1.78853529994376",1,2,0,2,0
"260004","img/object_images/microscope01.jpg","0","k","1.68950790003873",1,2,0,2,0
"260004","img/object_images/slinky_toy01.jpg","1","s","1.20547719998285",1,2,0,2,0
"260004","img/object_images/tie02.jpg","1","k","1.38411630014889",1,2,0,2,0
"260004","img/object_images/soap01.jpg","1","s","2.05560269998387",1,2,0,2,0
"260004","img/object_images/pen01.jpg","1","s","0.913698900025338",1,2,0,2,0
"260004","img/object_images/helmet01.jpg","1","s","1.5908484000247",1,2,0,2,0
"260004","img/object_images/hat13.jpg","1","k","3.05932580004446",1,2,0,2,0
"260004","img/object_images/hammer03.jpg","1","s","1.28409150009975",1,2,0,2,0
"260004","img/object_images/bag04.jpg","0","k","5.62140850001015",1,3,0,2,0
"260004","img/object_images/candle02.jpg","0","s","1.61468379991129",1,3,0,2,0
"260004","img/object_images/audio_port01.jpg","1","k","1.18136140005663",1,3,0,2,0
"260004","img/object_images/dog_leash01.jpg","0","s","1.56717630010098",1,3,0,2,0
"260004","img/object_images/hoverboard01.jpg","1","s","1.15286540007219",1,3,0,2,0
"260004","img/object_images/bucket02.jpg","1","s","3.05194879998453",1,3,0,2,0
"260004","img/object_images/water_gun01.jpg","1","k","1.20866749994457",1,3,0,2,0
"260004","img/object_images/gloves05.jpg","0","s","1.30666000000201",1,3,0,2,0
"260004","img/object_images/toy03.jpg","0","k","2.53337289998308",1,3,0,2,0
"260004","img/object_images/camera05.jpg","1","s","0.736435200087726",1,3,0,2,0
"260004","img/object_images/stereo02.jpg","1","k","1.08989960001782",1,3,0,2,0
"260004","img/object_images/basket02.jpg","1","k","2.6082090002019",1,3,0,2,0
"260004","img/object_images/clock02.jpg","1","s","1.3997331999708",1,3,0,2,0
"260004","img/object_images/TrashCan02.jpg","1","s","0.93166649993509",1,3,0,2,0
"260004","img/object_images/origami01.jpg","1","s","1.53799650003202",1,3,0,2,0
"260004","img/object_images/toy08.jpg","0","k","1.10354969999753",1,3,0,2,0
"260004","img/object_images/yarn02.jpg","1","s","2.08652400015853",1,3,0,2,0
"260004","img/object_images/video_game06.jpg","1","k","1.8015185999684",1,3,0,2,0
"260004","img/object_images/Tin01.jpg","0","s","1.95767740020528",1,3,0,2,0
"260004","img/object_images/note_book01.jpg","0","k","1.12825780012645",1,3,0,2,0
"260004","img/object_images/MeasuringCup01.jpg","0","s","1.42689240002073",1,3,0,2,0
"260004","img/object_images/Candle_Holder01.jpg","0","k","1.47175840009004",1,3,0,2,0
"260004","img/object_images/bottle02.jpg","1","s","1.6368303000927",1,3,0,2,0
"260004","img/object_images/toy_train02.jpg","1","s","2.78565749991685",1,3,0,2,0
"260004","img/object_images/bottle12.jpg","1","k","1.42638980015181",1,3,0,2,0
"260004","img/object_images/Violin01.jpg","1","s","0.782720600022003",1,3,0,2,0
"260004","img/object_images/tool08.jpg","1","k","2.02453900012188",1,3,0,2,0
"260004","img/object_images/sink_filter01 (1).jpg","1","s","0.690460300073028",1,3,0,2,0
"260004","img/object_images/combs01.jpg","1","k","2.14951479993761",1,3,0,2,0
"260004","img/object_images/exfoliater_brush01.jpg","1","k","1.65066889999434",1,3,0,2,0
"260004","img/object_images/blender01.jpg","1","s","1.24174709990621",1,3,0,2,0
"260004","img/object_images/fan04.jpg","0","s","1.56565270014107",1,3,0,2,0
"260004","img/object_images/spatula02.jpg","1","k","1.06184559990652",1,3,0,2,0
"260004","img/object_images/computer_mouse01.jpg","1","s","1.3048839000985",1,3,0,2,0
"260004","img/object_images/toy01.jpg","1","s","0.786497199907899",1,3,0,2,0
"260004","img/object_images/tool02.jpg","0","k","2.26550980005413",1,3,0,2,0
"260004","img/object_images/book01.jpg","0","k","3.43976610014215",1,3,0,2,0
"260004","img/object_images/backpack03.jpg","0","k","1.28519700001925",1,3,0,2,0
"260004","img/object_images/bookmark01.jpg","1","k","2.05765220010653",1,3,0,2,0
"260004","img/object_images/kite01.jpg","1","k","1.18291359976865",1,3,0,2,0
"260004","img/object_images/Ring02.jpg","1","s","1.56873520021327",1,3,0,2,0
"260004","img/object_images/jewelry01.jpg","1","s","1.83758939988911",1,3,0,2,0
"260004","img/object_images/book02.jpg","1","s","1.36012040008791",1,3,0,2,0
"260004","img/object_images/shovel01.jpg","1","k","1.57303979992867",1,3,0,2,0
"260004","img/object_images/trumpet01.jpg","0","k","1.34395230002701",1,3,0,2,0
"260004","img/object_images/lock03.jpg","1","s","1.9013888000045",1,3,0,2,0
"260004","img/object_images/sleeping_bag01.jpg","1","k","1.26912650000304",1,3,0,2,0
"260004","img/object_images/floppy_disk02.jpg","0","k","2.16945510008372",1,3,0,2,0
"260004","img/object_images/cards01.jpg","0","k","2.0637396001257",1,4,0,2,0
"260004","img/object_images/bow01.jpg","1","s","0.89345630002208",1,4,0,2,0
"260004","img/object_images/bottle09.jpg","0","k","1.28211369994096",1,4,0,2,0
"260004","img/object_images/brief_case01.jpg","1","k","2.28759019984864",1,4,0,2,0
"260004","img/object_images/hair_brush05.jpg","1","k","1.10638080001809",1,4,0,2,0
"260004","img/object_images/flask01.jpg","0","k","1.69915249990299",1,4,0,2,0
"260004","img/object_images/container01.jpg","1","k","2.4300382998772",1,4,0,2,0
"260004","img/object_images/bottle01.jpg","0","s","2.47417699988",1,4,0,2,0
"260004","img/object_images/piggy_bank01.jpg","1","s","0.828627299983054",1,4,0,2,0
"260004","img/object_images/bag_pipes01.jpg","0","k","2.24408309999853",1,4,0,2,0
"260004","img/object_images/colander01.jpg","0","s","1.2963160998188",1,4,0,2,0
"260004","img/object_images/chess_piece02.jpg","0","s","1.46598029998131",1,4,0,2,0
"260004","img/object_images/hammer01.jpg","1","s","1.33674150006846",1,4,0,2,0
"260004","img/object_images/hat02.jpg","1","k","0.968802399933338",1,4,0,2,0
"260004","img/object_images/pitcher05.jpg","1","s","2.6906889998354",1,4,0,2,0
"260004","img/object_images/jewel02.jpg","0","s","1.76301750005223",1,4,0,2,0
"260004","img/object_images/knit03.jpg","0","s","1.34895020001568",1,4,0,2,0
"260004","img/object_images/guitar01.jpg","1","s","1.3753132999409",1,4,0,2,0
"260004","img/object_images/basket04.jpg","0","s","1.63060769997537",1,4,0,2,0
"260004","img/object_images/golf_ball03.jpg","1","s","2.02230780012906",1,4,0,2,0
"260004","img/object_images/chain01.jpg","1","s","1.40692630014382",1,4,0,2,0
"260004","img/object_images/joystick03.jpg","1","s","1.46438819984905",1,4,0,2,0
"260004","img/object_images/water_scooter01.jpg","0","k","1.78627689997666",1,4,0,2,0
"260004","img/object_images/chair05.jpg","0","k","1.15008440008387",1,4,0,2,0
"260004","img/object_images/couch03.jpg","1","s","1.60513180005364",1,4,0,2,0
"260004","img/object_images/ball01.jpg","1","k","1.64368259999901",1,4,0,2,0
"260004","img/object_images/video_game07.jpg","1","s","1.89159220014699",1,4,0,2,0
"260004","img/object_images/tool18.jpg","0","s","1.24887630017474",1,4,0,2,0
"260004","img/object_images/Wisk01.jpg","1","s","2.13765279995278",1,4,0,2,0
"260004","img/object_images/bean_bag02.jpg","1","k","1.41722010006197",1,4,0,2,0
"260004","img/object_images/Pottery01.jpg","1","s","2.27950899978168",1,4,0,2,0
"260004","img/object_images/judge_gavel01.jpg","1","s","1.06447780015878",1,4,0,2,0
"260004","img/object_images/mirror01.jpg","1","s","0.96845049993135",1,4,0,2,0
"260004","img/object_images/lighter01.jpg","1","k","1.38819669978693",1,4,0,2,0
"260004","img/object_images/speaker01.jpg","0","s","1.59840020001866",1,4,0,2,0
"260004","img/object_images/Staples01.jpg","1","s","1.69020349998027",1,4,0,2,0
"260004","img/object_images/Trowel01.jpg","1","k","1.27117819990963",1,4,0,2,0
"260004","img/object_images/bicycle_lock01.jpg","0","k","1.50672909989953",1,4,0,2,0
"260004","img/object_images/Statue01.jpg","0","s","1.3827802001033",1,4,0,2,0
"260004","img/object_images/motorcycle01.jpg","0","s","1.17773799994029",1,4,0,2,0
"260004","img/object_images/handcuffs01.jpg","0","k","0.999949800083414",1,4,0,2,0
"260004","img/object_images/chair02.jpg","1","s","1.70134500018321",1,4,0,2,0
"260004","img/object_images/yo_yo01.jpg","1","s","0.889548299834132",1,4,0,2,0
"260004","img/object_images/Woopie01.jpg","0","s","2.05466989986598",1,4,0,2,0
"260004","img/object_images/egg_slicer01.jpg","1","k","1.25599580002017",1,4,0,2,0
"260004","img/object_images/jacket04.jpg","1","k","1.53327520005405",1,4,0,2,0
"260004","img/object_images/usb03.jpg","1","k","1.30478439992294",1,4,0,2,0
"260004","img/object_images/lamp01.jpg","0","s","1.35234550014138",1,4,0,2,0
"260004","img/object_images/tennis_racket01.jpg","1","k","2.03691279981285",1,5,0,2,0
"260004","img/object_images/grater01.jpg","0","s","1.87412199983373",1,5,0,2,0
"260004","img/object_images/lawn_mower01.jpg","1","s","1.18713589990512",1,5,0,2,0
"260004","img/object_images/pitcher09.jpg","1","s","0.76607000012882",1,5,0,2,0
"260004","img/object_images/watch01.jpg","1","s","1.98677070019767",1,5,0,2,0
"260004","img/object_images/vga_port 01.jpg","1","k","2.2439862000756",1,5,0,2,0
"260004","img/object_images/toy04.jpg","0","s","1.94992000004277",1,5,0,2,0
"260004","img/object_images/shoes10.jpg","1","k","1.17917579994537",1,5,0,2,0
"260004","img/object_images/helmet05.jpg","1","k","2.86264710011892",1,5,0,2,0
"260004","img/object_images/pitcher03.jpg","1","s","1.45417429995723",1,5,0,2,0
"260004","img/object_images/video_game01.jpg","1","s","1.20361169986427",1,5,0,2,0
"260004","img/object_images/paint_brush04.jpg","0","s","1.24429639987648",1,5,0,2,0
"260004","img/object_images/fan05.jpg","0","k","1.79098649998195",1,5,0,2,0
"260004","img/object_images/helmet03.jpg","1","s","1.19886140013114",1,5,0,2,0
"260004","img/object_images/phone02.jpg","0","s","1.08241329994053",1,5,0,2,0
"260004","img/object_images/laptop01.jpg","1","s","1.32752389996313",1,5,0,2,0
"260004","img/object_images/hammer02.jpg","1","k","1.45800159987994",1,5,0,2,0
"260004","img/object_images/razor02.jpg","1","s","1.8584537000861",1,5,0,2,0
"260004","img/object_images/lock04.jpg","1","k","1.71102970000356",1,5,0,2,0
"260004","img/object_images/Kitchen_Towel.jpg","1","k","1.28772039990872",1,5,0,2,0
"260004","img/object_images/lid01.jpg","1","s","2.14167470019311",1,5,0,2,0
"260004","img/object_images/bow_tie02.jpg","1","k","1.22934409999289",1,5,0,2,0
"260004","img/object_images/car04.jpg","1","s","1.48733690008521",1,5,0,2,0
"260004","img/object_images/office_supplies01.jpg","0","k","1.94456310011446",1,5,0,2,0
"260004","img/object_images/badminton01.jpg","1","s","1.49889310006984",1,5,0,2,0
"260004","img/object_images/coloring_pencil01.jpg","0","s","1.60291409981437",1,5,0,2,0
"260004","img/object_images/tool13.jpg","0","s","2.04173709987663",1,5,0,2,0
"260004","img/object_images/clip03.jpg","0","k","2.24575030012056",1,5,0,2,0
"260004","img/object_images/camera07.jpg","0","s","0.997041800059378",1,5,0,2,0
"260004","img/object_images/couch04.jpg","1","s","1.50924529996701",1,5,0,2,0
"260004","img/object_images/shoes08.jpg","1","k","0.879558900138363",1,5,0,2,0
"260004","img/object_images/coloring_pencil02.jpg","0","k","1.83441950008273",1,5,0,2,0
"260004","img/object_images/sign02.jpg","1","s","0.959755500080064",1,5,0,2,0
"260004","img/object_images/faucet01.jpg","1","k","2.28109930013306",1,5,0,2,0
"260004","img/object_images/socks01.jpg","1","k","1.39184439997189",1,5,0,2,0
"260004","img/object_images/jewel01.jpg","1","k","1.25005090003833",1,5,0,2,0
"260004","img/object_images/headset02.jpg","0","s","1.75917039997876",1,5,0,2,0
"260004","img/object_images/bag06.jpg","1","s","1.53075540019199",1,5,0,2,0
"260004","img/object_images/bell03.jpg","1","s","0.959077999927104",1,5,0,2,0
"260004","img/object_images/Vacuum01.jpg","0","k","1.13675999990664",1,5,0,2,0
"260004","img/object_images/socks02.jpg","1","s","1.06376950000413",1,5,0,2,0
"260004","img/object_images/binoculars03.jpg","0","s","1.83280030009337",1,5,0,2,0
"260004","img/object_images/jewelry09.jpg","1","s","0.821219000034034",1,5,0,2,0
"260004","img/object_images/dresser03.jpg","1","k","2.07949839998037",1,5,0,2,0
"260004","img/object_images/balloon01.jpg","1","k","0.92747880006209",1,5,0,2,0
"260004","img/object_images/bottle10.jpg","1","s","1.44812380010262",1,5,0,2,0
"260004","img/object_images/lock01.jpg","1","s","1.47429729998112",1,5,0,2,0
"260004","img/object_images/tie01.jpg","1","s","0.718417000025511",1,5,0,2,0
"260004","img/object_images/toaster02.jpg","0","s","1.95686060003936",1,6,0,2,0
"260004","img/object_images/chair04.jpg","1","s","1.28573379991576",1,6,0,2,0
"260004","img/object_images/remote_controller01.jpg","0","s","1.6356166000478",1,6,0,2,0
"260004","img/object_images/gift_box05.jpg","1","s","0.949641600018367",1,6,0,2,0
"260004","img/object_images/jewelry07.jpg","1","s","3.78188149980269",1,6,0,2,0
"260004","img/object_images/ribbon01.jpg","1","k","2.37875839998014",1,6,0,2,0
"260004","img/object_images/trash_can03.jpg","1","k","1.54302840004675",1,6,0,2,0
"260004","img/object_images/fridge03.jpg","1","s","0.838845399906859",1,6,0,2,0
"260004","img/object_images/hot_air_balloon02.jpg","0","s","1.21755439997651",1,6,0,2,0
"260004","img/object_images/funnel01.jpg","1","k","1.28429870004766",1,6,0,2,0
"260004","img/object_images/glasses07.jpg","0","k","0.91756680002436",1,6,0,2,0
"260004","img/object_images/pitcher07.jpg","1","k","1.29076710017398",1,6,0,2,0
"260004","img/object_images/spray_can01.jpg","0","s","2.03783589997329",1,6,0,2,0
"260004","img/object_images/piano03.jpg","1","s","1.73706530011259",1,6,0,2,0
"260004","img/object_images/Sprayer01.jpg","1","s","1.424115100177",1,6,0,2,0
"260004","img/object_images/hand_grip_exerciser01.jpg","1","k","2.14940400002524",1,6,0,2,0
"260004","img/object_images/hair_brush01.jpg","0","k","2.64704519999214",1,6,0,2,0
"260004","img/object_images/blender02.jpg","1","s","2.14947389997542",1,6,0,2,0
"260004","img/object_images/umbrella01.jpg","0","s","1.39214479993097",1,6,0,2,0
"260004","img/object_images/rock02.jpg","1","k","1.16027130000293",1,6,0,2,0
"260004","img/object_images/keyboard02.jpg","0","s","1.11498320009559",1,6,0,2,0
"260004","img/object_images/scale02.jpg","1","s","1.45083230012096",1,6,0,2,0
"260004","img/object_images/paper_cup02.jpg","1","s","1.39870389993303",1,6,0,2,0
"260004","img/object_images/hair_dryer01.jpg","1","k","1.26331169996411",1,6,0,2,0
"260004","img/object_images/paper_cup01.jpg","0","s","1.88958640000783",1,6,0,2,0
"260004","img/object_images/computer_mouse02.jpg","0","s","1.53599829995073",1,6,0,2,0
"260004","img/object_images/usb02.jpg","1","k","1.748337399913",1,6,0,2,0
"260004","img/object_images/tool19.jpg","0","s","1.39719759998843",1,6,0,2,0
"260004","img/object_images/ironing_table02.jpg","0","s","1.69632200011984",1,6,0,2,0
"260004","img/object_images/shower_head03.jpg","1","k","1.08203359995969",1,6,0,2,0
"260004","img/object_images/car02.jpg","1","k","1.63654570002109",1,6,0,2,0
"260004","img/object_images/soap03.jpg","0","k","1.15420980006456",1,6,0,2,0
"260004","img/object_images/tray01.jpg","0","s","0.771049500210211",1,6,0,2,0
"260004","img/object_images/cup03.jpg","0","s","1.36111069982871",1,6,0,2,0
"260004","img/object_images/perfume01.jpg","1","k","1.14439909998327",1,6,0,2,0
"260004","img/object_images/cutting_board01.jpg","1","k","1.55842539994046",1,6,0,2,0
"260004","img/object_images/jewel03.jpg","0","s","0.632986600045115",1,6,0,2,0
"260004","img/object_images/drone02.jpg","0","k","0.957100899890065",1,6,0,2,0
"260004","img/object_images/shoes07.jpg","1","s","1.46557949995622",1,6,0,2,0
"260004","img/object_images/belt01.jpg","1","k","0.945837000152096",1,6,0,2,0
"260004","img/object_images/toy05.jpg","1","k","1.07014179998077",1,6,0,2,0
"260004","img/object_images/shoes12.jpg","0","k","0.922273400006816",1,6,0,2,0
"260004","img/object_images/purse01.jpg","0","s","1.3604037000332",1,6,0,2,0
"260004","img/object_images/tool06.jpg","1","k","1.39073250000365",1,6,0,2,0
"260004","img/object_images/fork02.jpg","1","s","1.82450039987452",1,6,0,2,0
"260004","img/object_images/bucket01.jpg","1","k","1.60218179994263",1,6,0,2,0
"260004","img/object_images/Eyeliner01.jpg","1","k","1.12520070001483",1,6,0,2,0
"260004","img/object_images/camera_lens01.jpg","1","k","4.82754590013064",1,6,0,2,0
"260004","img/object_images/rock03.jpg","1","k","1.76548330020159",1,7,0,2,0
"260004","img/object_images/ring03.jpg","1","s","1.16128759994172",1,7,0,2,0
"260004","img/object_images/camera03.jpg","1","k","1.18009719997644",1,7,0,2,0
"260004","img/object_images/bottle06.jpg","0","k","0.966633999953046",1,7,0,2,0
"260004","img/object_images/tennis_racket02.jpg","1","s","0.624996700091287",1,7,0,2,0
"260004","img/object_images/mail_box01.jpg","0","k","0.942821600008756",1,7,0,2,0
"260004","img/object_images/fan02.jpg","1","s","0.862267199903727",1,7,0,2,0
"260004","img/object_images/car03.jpg","1","k","0.82061820011586",1,7,0,2,0
"260004","img/object_images/box03.jpg","1","s","0.986383899813518",1,7,0,2,0
"260004","img/object_images/basketball_hoop02.jpg","0","s","0.968065000139177",1,7,0,2,0
"260004","img/object_images/pen06.jpg","1","s","0.917719400022179",1,7,0,2,0
"260004","img/object_images/Stool01.jpg","0","k","0.965082299895585",1,7,0,2,0
"260004","img/object_images/decorative02.jpg","1","s","0.963463400024921",1,7,0,2,0
"260004","img/object_images/wire02.jpg","1","k","1.09525460004807",1,7,0,2,0
"260004","img/object_images/handkerchief01.jpg","1","k","1.27925690007396",1,7,0,2,0
"260004","img/object_images/compass01.jpg","0","k","1.03550940006971",1,7,0,2,0
"260004","img/object_images/fork03.jpg","0","k","1.10073890001513",1,7,0,2,0
"260004","img/object_images/glasses06.jpg","1","s","0.759555900003761",1,7,0,2,0
"260004","img/object_images/towels01.jpg","1","s","1.55934730009176",1,7,0,2,0
"260004","img/object_images/chair03.jpg","1","s","1.96975630009547",1,7,0,2,0
"260004","img/object_images/duster01.jpg","1","k","2.38508339994587",1,7,0,2,0
"260004","img/object_images/hat09.jpg","1","s","0.922836699988693",1,7,0,2,0
"260004","img/object_images/screwdriver01.jpg","1","k","2.14633359992877",1,7,0,2,0
"260004","img/object_images/bell02.jpg","0","k","1.25938140018843",1,7,0,2,0
"260004","img/object_images/clipboard01.jpg","1","k","1.20974120008759",1,7,0,2,0
"260004","img/object_images/car01.jpg","1","s","1.22605410008691",1,7,0,2,0
"260004","img/object_images/cup01.jpg","0","s","1.72263119998388",1,7,0,2,0
"260004","img/object_images/floss02.jpg","0","k","1.30773120000958",1,7,0,2,0
"260004","img/object_images/chair06.jpg","1","s","0.641719100065529",1,7,0,2,0
"260004","img/object_images/stapler.jpg","1","s","1.16350430017337",1,7,0,2,0
"260004","img/object_images/measuring_tape02.jpg","0","s","0.922217299928889",1,7,0,2,0
"260004","img/object_images/video_game03.jpg","1","k","1.23627190012485",1,7,0,2,0
"260004","img/object_images/boat02.jpg","1","k","1.32289489987306",1,7,0,2,0
"260004","img/object_images/yoga_mat01.jpg","1","k","1.10822109994479",1,7,0,2,0
"260004","img/object_images/outlet01.jpg","0","s","1.28599989996292",1,7,0,2,0
"260004","img/object_images/Oven01.jpg","1","k","1.37952839978971",1,7,0,2,0
"260004","img/object_images/cochlear_implant01.jpg","0","k","0.982462999876589",1,7,0,2,0
"260004","img/object_images/Confetti 01.jpg","1","s","0.790924599859864",1,7,0,2,0
"260004","img/object_images/tv02.jpg","1","s","1.50068179983646",1,7,0,2,0
"260004","img/object_images/remover01.jpg","1","k","1.26821339991875",1,7,0,2,0
"260004","img/object_images/jacket03.jpg","1","k","1.25917420000769",1,7,0,2,0
"260004","img/object_images/hair_clips01.jpg","1","k","2.0388338000048",1,7,0,2,0
"260004","img/object_images/gloves02.jpg","1","s","1.34958679997362",1,7,0,2,0
"260004","img/object_images/bicycle01.jpg","1","k","1.04363880003802",1,7,0,2,0
"260004","img/object_images/stove01.jpg","1","s","0.893135299906135",1,7,0,2,0
"260004","img/object_images/frame01.jpg","0","k","0.969815999967977",1,7,0,2,0
"260004","img/object_images/razor03.jpg","1","s","0.690499200019985",1,7,0,2,0
"260004","img/object_images/towel02.jpg","1","s","1.04732319992036",1,7,0,2,0
"260004","img/object_images/Screws01.jpg","0","s","1.28802850004286",1,8,0,2,0
"260004","img/object_images/laptop03.jpg","1","k","0.812436799984425",1,8,0,2,0
"260004","img/object_images/Shoes05.jpg","1","s","1.71350789978169",1,8,0,2,0
"260004","img/object_images/tool20.jpg","0","k","1.17417220002972",1,8,0,2,0
"260004","img/object_images/egg_basket01.jpg","1","k","1.18085519992746",1,8,0,2,0
"260004","img/object_images/phone04.jpg","1","k","1.3437548999209",1,8,0,2,0
"260004","img/object_images/pan03.jpg","1","k","1.21674730000086",1,8,0,2,0
"260004","img/object_images/calculator01.jpg","1","k","1.49662300013006",1,8,0,2,0
"260004","img/object_images/gift_box01.jpg","1","s","1.58901479979977",1,8,0,2,0
"260004","img/object_images/helmet02.jpg","0","k","1.14397639990784",1,8,0,2,0
"260004","img/object_images/Recycling01.jpg","1","k","1.01296110008843",1,8,0,2,0
"260004","img/object_images/frisbee01.jpg","1","k","0.987304699840024",1,8,0,2,0
"260004","img/object_images/dust_pan01.jpg","1","k","1.07935380004346",1,8,0,2,0
"260004","img/object_images/couch01.jpg","0","s","1.28588339989074",1,8,0,2,0
"260004","img/object_images/belt03.jpg","0","s","0.830332099925727",1,8,0,2,0
"260004","img/object_images/cellphone01.jpg","1","k","0.678180299932137",1,8,0,2,0
"260004","img/object_images/airfryer02.jpg","1","s","1.86207660008222",1,8,0,2,0
"260004","img/object_images/gift_box03.jpg","0","k","1.18301149993204",1,8,0,2,0
"260004","img/object_images/toilet_paper01.jpg","0","s","0.786583999870345",1,8,0,2,0
"260004","img/object_images/Safe01.jpg","0","s","1.82320910017006",1,8,0,2,0
"260004","img/object_images/scoreboard01.jpg","1","s","1.01579380012117",1,8,0,2,0
"260004","img/object_images/skate_board01.jpg","0","k","1.24932399997488",1,8,0,2,0
"260004","img/object_images/satellite01.jpg","1","k","2.1075836000964",1,8,0,2,0
"260004","img/object_images/floppy_disk03.jpg","0","s","2.03367329994217",1,8,0,2,0
"260004","img/object_images/cellphone02.jpg","0","s","1.13544830004685",1,8,0,2,0
"260004","img/object_images/wagon_cart03.jpg","1","s","0.757519300095737",1,8,0,2,0
"260004","img/object_images/gift_box04.jpg","1","s","0.774483300046995",1,8,0,2,0
"260004","img/object_images/sponge03.jpg","0","s","1.49822170007974",1,8,0,2,0
"260004","img/object_images/tool09.jpg","1","s","0.963259699987248",1,8,0,2,0
"260004","img/object_images/bottle07.jpg","1","k","1.16015219991095",1,8,0,2,0
"260004","img/object_images/chair01.jpg","1","k","1.56411470007151",1,8,0,2,0
"260004","img/object_images/pot01 (1).jpg","1","k","1.25129000004381",1,8,0,2,0
"260004","img/object_images/nut_cracker01.jpg","0","s","0.976599799934775",1,8,0,2,0
"260004","img/object_images/knit04.jpg","1","k","1.22098179999739",1,8,0,2,0
"260004","img/object_images/drone01.jpg","1","s","1.92588589992374",1,8,0,2,0
"260004","img/object_images/floss01.jpg","0","k","2.12650800007395",1,8,0,2,0
"260004","img/object_images/dresser04.jpg","1","s","1.39656149991788",1,8,0,2,0
"260004","img/object_images/pillows01.jpg","0","k","1.14808430010453",1,8,0,2,0
"260004","img/object_images/toilet_paper_dispenser01.jpg","0","s","0.910917100030929",1,8,0,2,0
"260004","img/object_images/shovel03.jpg","0","s","0.763090000022203",1,8,0,2,0
"260004","img/object_images/fire_extinguisher01.jpg","0","s","1.00384300015867",1,8,0,2,0
"260004","img/object_images/helmet04.jpg","1","k","1.4098537999671",1,8,0,2,0
"260004","img/object_images/chess_piece01.jpg","1","k","2.7438033001963",1,8,0,2,0
"260004","img/object_images/dart01.jpg","1","s","1.17051999992691",1,8,0,2,0
"260004","img/object_images/ladle02.jpg","0","s","1.03764490014873",1,8,0,2,0
"260004","img/object_images/blanket01.jpg","0","k","1.04360440000892",1,8,0,2,0
"260004","img/object_images/lantern01.jpg","0","s","1.92454489995725",1,8,0,2,0
"260004","img/object_images/hat06.jpg","1","s","1.96610379987396",1,8,0,2,0
