"participant_id","current_trial_object","pre_trial_object","post_trial_object","current_trial_accuracy","pre_trial_accuracy","post_trial_accuracy","current_trial_congruency","pre_trial_congruency","post_trial_congruency","current_trial_rt","pre_trial_rt","post_trial_rt","current_trial_responded","pre_trial_responded","post_trial_responded","current_trial_legitResponse","pre_trial_legitResponse","post_trial_legitResponse","current_trial_resp_nums","pre_trial_resp_nums","post_trial_resp_nums"
"260016","img/object_images/belt03.jpg",NA,"img/object_images/fan01.jpg","1",NA,"1","0",NA,"0","0.635683999978937",NA,"0.589619300037157","1",NA,"1","1",NA,"1","1",NA,"1"
"260016","img/object_images/fan01.jpg","img/object_images/belt03.jpg","img/object_images/tennis_racket01.jpg","1","1","1","0","0","1","0.589619300037157","0.635683999978937","0.486292500048876","1","1","1","1","1","1","1","1","1"
"260016","img/object_images/tennis_racket01.jpg","img/object_images/fan01.jpg","img/object_images/TreeSlice01.jpg","1","1","1","1","0","1","0.486292500048876","0.589619300037157","0.440096899983473","1","1","1","1","1","1","1","1","1"
"260016","img/object_images/TreeSlice01.jpg","img/object_images/tennis_racket01.jpg","img/object_images/badminton01.jpg","1","1","1","1","1","1","0.440096899983473","0.486292500048876","0.432138800038956","1","1","1","1","1","1","1","1","1"
"260016","img/object_images/badminton01.jpg","img/object_images/TreeSlice01.jpg","img/object_images/frame01.jpg","1","1","1","1","1","1","0.432138800038956","0.440096899983473","0.456900399993174","1","1","1","1","1","1","1","1","1"
"260016","img/object_images/frame01.jpg","img/object_images/badminton01.jpg","img/object_images/bookmark01.jpg","1","1","1","1","1","0","0.456900399993174","0.432138800038956","0.567824200028554","1","1","1","1","1","1","1","1","1"
"260016","img/object_images/bookmark01.jpg","img/object_images/frame01.jpg","img/object_images/note_book02.jpg","1","1","1","0","1","0","0.567824200028554","0.456900399993174","0.470771200023592","1","1","1","1","1","1","1","1","1"
"260016","img/object_images/note_book02.jpg","img/object_images/bookmark01.jpg","img/object_images/bucket01.jpg","1","1","1","0","0","1","0.470771200023592","0.567824200028554","0.445665300008841","1","1","1","1","1","1","1","1","1"
"260016","img/object_images/bucket01.jpg","img/object_images/note_book02.jpg","img/object_images/Eyeliner01.jpg","1","1","1","1","0","1","0.445665300008841","0.470771200023592","0.478240700031165","1","1","1","1","1","1","1","1","1"
"260016","img/object_images/Eyeliner01.jpg","img/object_images/bucket01.jpg","img/object_images/headset02.jpg","1","1","1","1","1","0","0.478240700031165","0.445665300008841","0.452212199976202","1","1","1","1","1","1","1","1","1"
"260016","img/object_images/headset02.jpg","img/object_images/Eyeliner01.jpg","img/object_images/scale02.jpg","1","1","1","0","1","0","0.452212199976202","0.478240700031165","0.559755099995527","1","1","1","1","1","1","1","1","1"
"260016","img/object_images/scale02.jpg","img/object_images/headset02.jpg","img/object_images/ToolBag01.jpg","1","1","1","0","0","0","0.559755099995527","0.452212199976202","0.577101200004108","1","1","1","1","1","1","1","1","1"
"260016","img/object_images/ToolBag01.jpg","img/object_images/scale02.jpg","img/object_images/water_gun01.jpg","1","1","1","0","0","1","0.577101200004108","0.559755099995527","0.472408300032839","1","1","1","1","1","1","1","1","1"
"260016","img/object_images/water_gun01.jpg","img/object_images/ToolBag01.jpg","img/object_images/nut_cracker01.jpg","1","1","1","1","0","1","0.472408300032839","0.577101200004108","0.620147000008728","1","1","1","1","1","1","1","1","1"
"260016","img/object_images/nut_cracker01.jpg","img/object_images/water_gun01.jpg","img/object_images/yoga_mat01.jpg","1","1","1","1","1","0","0.620147000008728","0.472408300032839","0.499021200055722","1","1","1","1","1","1","1","1","1"
"260016","img/object_images/yoga_mat01.jpg","img/object_images/nut_cracker01.jpg","img/object_images/Shoes05.jpg","1","1","1","0","1","0","0.499021200055722","0.620147000008728","0.53514880000148","1","1","1","1","1","1","1","1","1"
"260016","img/object_images/Shoes05.jpg","img/object_images/yoga_mat01.jpg","img/object_images/jewel02.jpg","1","1","1","0","0","0","0.53514880000148","0.499021200055722","0.497343100025319","1","1","1","1","1","1","1","1","1"
"260016","img/object_images/jewel02.jpg","img/object_images/Shoes05.jpg","img/object_images/piano03.jpg","1","1","1","0","0","0","0.497343100025319","0.53514880000148","0.507815600023605","1","1","1","1","1","1","1","1","1"
"260016","img/object_images/piano03.jpg","img/object_images/jewel02.jpg","img/object_images/pitcher07.jpg","1","1","1","0","0","1","0.507815600023605","0.497343100025319","0.471191799966618","1","1","1","1","1","1","1","1","1"
"260016","img/object_images/pitcher07.jpg","img/object_images/piano03.jpg","img/object_images/joystick03.jpg","1","1","1","1","0","1","0.471191799966618","0.507815600023605","0.40063770004781","1","1","1","1","1","1","1","1","1"
"260016","img/object_images/joystick03.jpg","img/object_images/pitcher07.jpg","img/object_images/origami01.jpg","1","1","1","1","1","1","0.40063770004781","0.471191799966618","0.461293899978045","1","1","1","1","1","1","1","1","1"
"260016","img/object_images/origami01.jpg","img/object_images/joystick03.jpg","img/object_images/bottle06.jpg","1","1","1","1","1","0","0.461293899978045","0.40063770004781","0.587612100003753","1","1","1","1","1","1","1","1","1"
"260016","img/object_images/bottle06.jpg","img/object_images/origami01.jpg","img/object_images/egg_basket01.jpg","1","1","1","0","1","1","0.587612100003753","0.461293899978045","0.451142999983858","1","1","1","1","1","1","1","1","1"
"260016","img/object_images/egg_basket01.jpg","img/object_images/bottle06.jpg","img/object_images/Safe01.jpg","1","1","1","1","0","1","0.451142999983858","0.587612100003753","0.518582300050184","1","1","1","1","1","1","1","1","1"
"260016","img/object_images/Safe01.jpg","img/object_images/egg_basket01.jpg","img/object_images/trumpet01.jpg","1","1","1","1","1","0","0.518582300050184","0.451142999983858","0.512486099964008","1","1","1","1","1","1","1","1","1"
"260016","img/object_images/trumpet01.jpg","img/object_images/Safe01.jpg","img/object_images/usb03.jpg","1","1","1","0","1","0","0.512486099964008","0.518582300050184","0.660457900026813","1","1","1","1","1","1","1","1","1"
"260016","img/object_images/usb03.jpg","img/object_images/trumpet01.jpg","img/object_images/dice01.jpg","1","1","1","0","0","0","0.660457900026813","0.512486099964008","0.495907200034708","1","1","1","1","1","1","1","1","1"
"260016","img/object_images/dice01.jpg","img/object_images/usb03.jpg","img/object_images/phone04.jpg","1","1","1","0","0","1","0.495907200034708","0.660457900026813","0.453036599967163","1","1","1","1","1","1","1","1","1"
"260016","img/object_images/phone04.jpg","img/object_images/dice01.jpg","img/object_images/shovel01.jpg","1","1","1","1","0","0","0.453036599967163","0.495907200034708","0.491390000039246","1","1","1","1","1","1","1","1","1"
"260016","img/object_images/shovel01.jpg","img/object_images/phone04.jpg","img/object_images/helmet03.jpg","1","1","1","0","1","1","0.491390000039246","0.453036599967163","0.437295100011397","1","1","1","1","1","1","1","1","1"
"260016","img/object_images/helmet03.jpg","img/object_images/shovel01.jpg","img/object_images/lock03.jpg","1","1","1","1","0","1","0.437295100011397","0.491390000039246","0.461290100007318","1","1","1","1","1","1","1","1","1"
"260016","img/object_images/lock03.jpg","img/object_images/helmet03.jpg",NA,"1","1",NA,"1","1",NA,"0.461290100007318","0.437295100011397",NA,"1","1",NA,"1","1",NA,"1","1",NA
"260016","img/object_images/fire_extinguisher01.jpg",NA,"img/object_images/lighter01.jpg","1",NA,"1","0",NA,"1","0.438624100002926",NA,"0.35675740003353","1",NA,"1","1",NA,"1","1",NA,"1"
"260016","img/object_images/lighter01.jpg","img/object_images/fire_extinguisher01.jpg","img/object_images/glasses07.jpg","1","1","1","1","0","1","0.35675740003353","0.438624100002926","0.344665799988434","1","1","1","1","1","1","1","1","1"
"260016","img/object_images/glasses07.jpg","img/object_images/lighter01.jpg","img/object_images/book01.jpg","1","1","1","1","1","1","0.344665799988434","0.35675740003353","0.332890099962242","1","1","1","1","1","1","1","1","1"
"260016","img/object_images/book01.jpg","img/object_images/glasses07.jpg","img/object_images/Traffic Sign 01.jpg","1","1","0","1","1","0","0.332890099962242","0.344665799988434","0.376082300033886","1","1","1","1","1","1","1","1","2"
"260016","img/object_images/Traffic Sign 01.jpg","img/object_images/book01.jpg","img/object_images/Pottery01.jpg","0","1","1","0","1","0","0.376082300033886","0.332890099962242","0.507396700035315","1","1","1","1","1","1","2","1","1"
"260016","img/object_images/Pottery01.jpg","img/object_images/Traffic Sign 01.jpg","img/object_images/gift_box04.jpg","1","0","1","0","0","0","0.507396700035315","0.376082300033886","0.492544700042345","1","1","1","1","1","1","1","2","1"
"260016","img/object_images/gift_box04.jpg","img/object_images/Pottery01.jpg","img/object_images/pan01.jpg","1","1","1","0","0","1","0.492544700042345","0.507396700035315","0.478026500029955","1","1","1","1","1","1","1","1","1"
"260016","img/object_images/pan01.jpg","img/object_images/gift_box04.jpg","img/object_images/purse01.jpg","1","1","1","1","0","1","0.478026500029955","0.492544700042345","0.42012560000876","1","1","1","1","1","1","1","1","1"
"260016","img/object_images/purse01.jpg","img/object_images/pan01.jpg","img/object_images/tool07.jpg","1","1","1","1","1","0","0.42012560000876","0.478026500029955","0.423273899999913","1","1","1","1","1","1","1","1","1"
"260016","img/object_images/tool07.jpg","img/object_images/purse01.jpg","img/object_images/tray01.jpg","1","1","1","0","1","1","0.423273899999913","0.42012560000876","0.378546499996446","1","1","1","1","1","1","1","1","1"
"260016","img/object_images/tray01.jpg","img/object_images/tool07.jpg","img/object_images/Sprayer01.jpg","1","1","0","1","0","0","0.378546499996446","0.423273899999913","0.418339299969375","1","1","1","1","1","1","1","1","1"
"260016","img/object_images/Sprayer01.jpg","img/object_images/tray01.jpg","img/object_images/jewelry09.jpg","0","1","1","0","1","1","0.418339299969375","0.378546499996446","0.413470199971926","1","1","1","1","1","1","1","1","1"
"260016","img/object_images/jewelry09.jpg","img/object_images/Sprayer01.jpg","img/object_images/TrashCan02.jpg","1","0","1","1","0","1","0.413470199971926","0.418339299969375","0.434392900031526","1","1","1","1","1","1","1","1","1"
"260016","img/object_images/TrashCan02.jpg","img/object_images/jewelry09.jpg","img/object_images/cup03.jpg","1","1","1","1","1","1","0.434392900031526","0.413470199971926","0.353189999994356","1","1","1","1","1","1","1","1","1"
"260016","img/object_images/cup03.jpg","img/object_images/TrashCan02.jpg","img/object_images/hole_puncher01.jpg","1","1","1","1","1","1","0.353189999994356","0.434392900031526","0.397980500012636","1","1","1","1","1","1","1","1","1"
"260016","img/object_images/hole_puncher01.jpg","img/object_images/cup03.jpg","img/object_images/exfoliater_brush01.jpg","1","1","1","1","1","0","0.397980500012636","0.353189999994356","0.562200899992604","1","1","1","1","1","1","1","1","1"
"260016","img/object_images/exfoliater_brush01.jpg","img/object_images/hole_puncher01.jpg","img/object_images/bicycle_lock01.jpg","1","1","1","0","1","0","0.562200899992604","0.397980500012636","0.608160000003409","1","1","1","1","1","1","1","1","1"
"260016","img/object_images/bicycle_lock01.jpg","img/object_images/exfoliater_brush01.jpg","img/object_images/speaker01.jpg","1","1","1","0","0","1","0.608160000003409","0.562200899992604","0.405068500025664","1","1","1","1","1","1","1","1","1"
"260016","img/object_images/speaker01.jpg","img/object_images/bicycle_lock01.jpg","img/object_images/handcuffs01.jpg","1","1","1","1","0","0","0.405068500025664","0.608160000003409","0.481103500002064","1","1","1","1","1","1","1","1","1"
"260016","img/object_images/handcuffs01.jpg","img/object_images/speaker01.jpg","img/object_images/glasses06.jpg","1","1","1","0","1","1","0.481103500002064","0.405068500025664","0.381369300012011","1","1","1","1","1","1","1","1","1"
"260016","img/object_images/glasses06.jpg","img/object_images/handcuffs01.jpg","img/object_images/basket02.jpg","1","1","1","1","0","0","0.381369300012011","0.481103500002064","0.463161299994681","1","1","1","1","1","1","1","1","1"
"260016","img/object_images/basket02.jpg","img/object_images/glasses06.jpg","img/object_images/tool08.jpg","1","1","1","0","1","0","0.463161299994681","0.381369300012011","0.460668999992777","1","1","1","1","1","1","1","1","1"
"260016","img/object_images/tool08.jpg","img/object_images/basket02.jpg","img/object_images/hair_clips01.jpg","1","1","1","0","0","1","0.460668999992777","0.463161299994681","0.388826399983372","1","1","1","1","1","1","1","1","1"
"260016","img/object_images/hair_clips01.jpg","img/object_images/tool08.jpg","img/object_images/colander01.jpg","1","1","1","1","0","0","0.388826399983372","0.460668999992777","0.387032700004056","1","1","1","1","1","1","1","1","1"
"260016","img/object_images/colander01.jpg","img/object_images/hair_clips01.jpg","img/object_images/faucet01.jpg","1","1","1","0","1","0","0.387032700004056","0.388826399983372","0.400063700042665","1","1","1","1","1","1","1","1","1"
"260016","img/object_images/faucet01.jpg","img/object_images/colander01.jpg","img/object_images/cellphone02.jpg","1","1","1","0","0","1","0.400063700042665","0.387032700004056","0.458090799977072","1","1","1","1","1","1","1","1","1"
"260016","img/object_images/cellphone02.jpg","img/object_images/faucet01.jpg","img/object_images/yo_yo01.jpg","1","1","1","1","0","0","0.458090799977072","0.400063700042665","0.426664000027813","1","1","1","1","1","1","1","1","1"
"260016","img/object_images/yo_yo01.jpg","img/object_images/cellphone02.jpg","img/object_images/blanket01.jpg","1","1","1","0","1","1","0.426664000027813","0.458090799977072","0.37423580000177","1","1","1","1","1","1","1","1","1"
"260016","img/object_images/blanket01.jpg","img/object_images/yo_yo01.jpg","img/object_images/Kitchen_Towel.jpg","1","1","1","1","0","0","0.37423580000177","0.426664000027813","0.508092499978375","1","1","1","1","1","1","1","1","1"
"260016","img/object_images/Kitchen_Towel.jpg","img/object_images/blanket01.jpg","img/object_images/projector01.jpg","1","1","1","0","1","0","0.508092499978375","0.37423580000177","0.460354599985294","1","1","1","1","1","1","1","1","1"
"260016","img/object_images/projector01.jpg","img/object_images/Kitchen_Towel.jpg","img/object_images/ring03.jpg","1","1","1","0","0","1","0.460354599985294","0.508092499978375","0.396275200007949","1","1","1","1","1","1","1","1","1"
"260016","img/object_images/ring03.jpg","img/object_images/projector01.jpg",NA,"1","1",NA,"1","0",NA,"0.396275200007949","0.460354599985294",NA,"1","1",NA,"1","1",NA,"1","1",NA
"260016","img/object_images/car04.jpg",NA,"img/object_images/toaster02.jpg","1",NA,"1","0",NA,"1","0.859802500053775",NA,"0.407816399994772","1",NA,"1","1",NA,"1","1",NA,"1"
"260016","img/object_images/toaster02.jpg","img/object_images/car04.jpg","img/object_images/key02.jpg","1","1","1","1","0","1","0.407816399994772","0.859802500053775","0.496442199975718","1","1","1","1","1","1","1","1","1"
"260016","img/object_images/key02.jpg","img/object_images/toaster02.jpg","img/object_images/shower_head03.jpg","1","1","1","1","1","1","0.496442199975718","0.407816399994772","0.383943699998781","1","1","1","1","1","1","1","1","1"
"260016","img/object_images/shower_head03.jpg","img/object_images/key02.jpg","img/object_images/ribbon01.jpg","1","1","1","1","1","0","0.383943699998781","0.496442199975718","0.384503100009169","1","1","1","1","1","1","1","1","1"
"260016","img/object_images/ribbon01.jpg","img/object_images/shower_head03.jpg","img/object_images/bag06.jpg","1","1","1","0","1","1","0.384503100009169","0.383943699998781","0.366531300009228","1","1","1","1","1","1","1","1","1"
"260016","img/object_images/bag06.jpg","img/object_images/ribbon01.jpg","img/object_images/chair04.jpg","1","1","1","1","0","1","0.366531300009228","0.384503100009169","0.411431599990465","1","1","1","1","1","1","1","1","1"
"260016","img/object_images/chair04.jpg","img/object_images/bag06.jpg","img/object_images/screwdriver01.jpg","1","1","1","1","1","0","0.411431599990465","0.366531300009228","0.492229800031055","1","1","1","1","1","1","1","1","1"
"260016","img/object_images/screwdriver01.jpg","img/object_images/chair04.jpg","img/object_images/razor01.jpg","1","1","1","0","1","0","0.492229800031055","0.411431599990465","0.420942600001581","1","1","1","1","1","1","1","1","1"
"260016","img/object_images/razor01.jpg","img/object_images/screwdriver01.jpg","img/object_images/belt01.jpg","1","1","1","0","0","0","0.420942600001581","0.492229800031055","0.496847899979912","1","1","1","1","1","1","1","1","1"
"260016","img/object_images/belt01.jpg","img/object_images/razor01.jpg","img/object_images/rock03.jpg","1","1","0","0","0","0","0.496847899979912","0.420942600001581","0.355230599991046","1","1","1","1","1","1","1","1","2"
"260016","img/object_images/rock03.jpg","img/object_images/belt01.jpg","img/object_images/jewel01.jpg","0","1","1","0","0","0","0.355230599991046","0.496847899979912","0.474312799982727","1","1","1","1","1","1","2","1","1"
"260016","img/object_images/jewel01.jpg","img/object_images/rock03.jpg","img/object_images/fan05.jpg","1","0","1","0","0","0","0.474312799982727","0.355230599991046","0.503470900002867","1","1","1","1","1","1","1","2","1"
"260016","img/object_images/fan05.jpg","img/object_images/jewel01.jpg","img/object_images/lemon_squeezer02.jpg","1","1","1","0","0","1","0.503470900002867","0.474312799982727","0.436151099973358","1","1","1","1","1","1","1","1","1"
"260016","img/object_images/lemon_squeezer02.jpg","img/object_images/fan05.jpg","img/object_images/hair_brush05.jpg","1","1","1","1","0","1","0.436151099973358","0.503470900002867","0.440230600012001","1","1","1","1","1","1","1","1","1"
"260016","img/object_images/hair_brush05.jpg","img/object_images/lemon_squeezer02.jpg","img/object_images/jewelry07.jpg","1","1","1","1","1","1","0.440230600012001","0.436151099973358","0.374273399997037","1","1","1","1","1","1","1","1","1"
"260016","img/object_images/jewelry07.jpg","img/object_images/hair_brush05.jpg","img/object_images/WitchHat02.jpg","1","1","1","1","1","1","0.374273399997037","0.440230600012001","0.403196400031447","1","1","1","1","1","1","1","1","1"
"260016","img/object_images/WitchHat02.jpg","img/object_images/jewelry07.jpg","img/object_images/yarn02.jpg","1","1","1","1","1","0","0.403196400031447","0.374273399997037","0.412526700005401","1","1","1","1","1","1","1","1","1"
"260016","img/object_images/yarn02.jpg","img/object_images/WitchHat02.jpg","img/object_images/cards01.jpg","1","1","1","0","1","0","0.412526700005401","0.403196400031447","0.463542400044389","1","1","1","1","1","1","1","1","1"
"260016","img/object_images/cards01.jpg","img/object_images/yarn02.jpg","img/object_images/ladle02.jpg","1","1","1","0","0","0","0.463542400044389","0.412526700005401","0.452506700006779","1","1","1","1","1","1","1","1","1"
"260016","img/object_images/ladle02.jpg","img/object_images/cards01.jpg","img/object_images/mask01.jpg","1","1","1","0","0","0","0.452506700006779","0.463542400044389","0.519672200025525","1","1","1","1","1","1","1","1","1"
"260016","img/object_images/mask01.jpg","img/object_images/ladle02.jpg","img/object_images/shoes10.jpg","1","1","1","0","0","0","0.519672200025525","0.452506700006779","0.421453699993435","1","1","1","1","1","1","1","1","1"
"260016","img/object_images/shoes10.jpg","img/object_images/mask01.jpg","img/object_images/MeasuringCup01.jpg","1","1","1","0","0","1","0.421453699993435","0.519672200025525","0.423396300000604","1","1","1","1","1","1","1","1","1"
"260016","img/object_images/MeasuringCup01.jpg","img/object_images/shoes10.jpg","img/object_images/slinky_toy01.jpg","1","1","1","1","0","1","0.423396300000604","0.421453699993435","0.449323199980427","1","1","1","1","1","1","1","1","1"
"260016","img/object_images/slinky_toy01.jpg","img/object_images/MeasuringCup01.jpg","img/object_images/binoculars03.jpg","1","1","1","1","1","1","0.449323199980427","0.423396300000604","0.499783799983561","1","1","1","1","1","1","1","1","1"
"260016","img/object_images/binoculars03.jpg","img/object_images/slinky_toy01.jpg","img/object_images/tool11.jpg","1","1","1","1","1","1","0.499783799983561","0.449323199980427","0.416340199997649","1","1","1","1","1","1","1","1","1"
"260016","img/object_images/tool11.jpg","img/object_images/binoculars03.jpg","img/object_images/dress03.jpg","1","1","1","1","1","1","0.416340199997649","0.499783799983561","0.447668100008741","1","1","1","1","1","1","1","1","1"
"260016","img/object_images/dress03.jpg","img/object_images/tool11.jpg","img/object_images/satellite01.jpg","1","1","1","1","1","0","0.447668100008741","0.416340199997649","0.554004899982829","1","1","1","1","1","1","1","1","1"
"260016","img/object_images/satellite01.jpg","img/object_images/dress03.jpg","img/object_images/tv01.jpg","1","1","1","0","1","0","0.554004899982829","0.447668100008741","0.498344500025269","1","1","1","1","1","1","1","1","1"
"260016","img/object_images/tv01.jpg","img/object_images/satellite01.jpg","img/object_images/ice_tray03.jpg","1","1","1","0","0","1","0.498344500025269","0.554004899982829","0.45986180001637","1","1","1","1","1","1","1","1","1"
"260016","img/object_images/ice_tray03.jpg","img/object_images/tv01.jpg","img/object_images/cutting_board01.jpg","1","1","1","1","0","1","0.45986180001637","0.498344500025269","0.506204700039234","1","1","1","1","1","1","1","1","1"
"260016","img/object_images/cutting_board01.jpg","img/object_images/ice_tray03.jpg","img/object_images/car03.jpg","1","1","1","1","1","0","0.506204700039234","0.45986180001637","0.539683400013018","1","1","1","1","1","1","1","1","1"
"260016","img/object_images/car03.jpg","img/object_images/cutting_board01.jpg",NA,"1","1",NA,"0","1",NA,"0.539683400013018","0.506204700039234",NA,"1","1",NA,"1","1",NA,"1","1",NA
"260016","img/object_images/paper_cup02.jpg",NA,"img/object_images/bottle07.jpg","1",NA,"1","1",NA,"1","0.438675599987619",NA,"0.398554799961857","1",NA,"1","1",NA,"1","1",NA,"1"
"260016","img/object_images/bottle07.jpg","img/object_images/paper_cup02.jpg","img/object_images/sponge03.jpg","1","1","1","1","1","1","0.398554799961857","0.438675599987619","0.455887400021311","1","1","1","1","1","1","1","1","1"
"260016","img/object_images/sponge03.jpg","img/object_images/bottle07.jpg","img/object_images/curtain02.jpg","1","1","1","1","1","0","0.455887400021311","0.398554799961857","0.39888420002535","1","1","1","1","1","1","1","1","1"
"260016","img/object_images/curtain02.jpg","img/object_images/sponge03.jpg","img/object_images/kite01.jpg","1","1","1","0","1","1","0.39888420002535","0.455887400021311","0.345026099996176","1","1","1","1","1","1","1","1","1"
"260016","img/object_images/kite01.jpg","img/object_images/curtain02.jpg","img/object_images/boat04.jpg","1","1","1","1","0","0","0.345026099996176","0.39888420002535","0.43766689999029","1","1","1","1","1","1","1","1","1"
"260016","img/object_images/boat04.jpg","img/object_images/kite01.jpg","img/object_images/phone02.jpg","1","1","1","0","1","1","0.43766689999029","0.345026099996176","0.348719400004484","1","1","1","1","1","1","1","1","1"
"260016","img/object_images/phone02.jpg","img/object_images/boat04.jpg","img/object_images/flashlight03.jpg","1","1","1","1","0","0","0.348719400004484","0.43766689999029","0.600828299997374","1","1","1","1","1","1","1","1","1"
"260016","img/object_images/flashlight03.jpg","img/object_images/phone02.jpg","img/object_images/car01.jpg","1","1","1","0","1","1","0.600828299997374","0.348719400004484","0.425473000039347","1","1","1","1","1","1","1","1","1"
"260016","img/object_images/car01.jpg","img/object_images/flashlight03.jpg","img/object_images/backpack01.jpg","1","1","0","1","0","0","0.425473000039347","0.600828299997374","0.491648900031578","1","1","1","1","1","1","1","1","1"
"260016","img/object_images/backpack01.jpg","img/object_images/car01.jpg","img/object_images/jacket04.jpg","0","1","1","0","1","0","0.491648900031578","0.425473000039347","0.446291900007054","1","1","1","1","1","1","1","1","1"
"260016","img/object_images/jacket04.jpg","img/object_images/backpack01.jpg","img/object_images/toy08.jpg","1","0","1","0","0","0","0.446291900007054","0.491648900031578","0.453960699960589","1","1","1","1","1","1","1","1","1"
"260016","img/object_images/toy08.jpg","img/object_images/jacket04.jpg","img/object_images/blender02.jpg","1","1","1","0","0","1","0.453960699960589","0.446291900007054","0.388378500007093","1","1","1","1","1","1","1","1","1"
"260016","img/object_images/blender02.jpg","img/object_images/toy08.jpg","img/object_images/Statue01.jpg","1","1","1","1","0","1","0.388378500007093","0.453960699960589","0.436029899981804","1","1","1","1","1","1","1","1","1"
"260016","img/object_images/Statue01.jpg","img/object_images/blender02.jpg","img/object_images/knit04.jpg","1","1","1","1","1","1","0.436029899981804","0.388378500007093","0.421067800023593","1","1","1","1","1","1","1","1","1"
"260016","img/object_images/knit04.jpg","img/object_images/Statue01.jpg","img/object_images/mail_box01.jpg","1","1","1","1","1","0","0.421067800023593","0.436029899981804","0.523827900004108","1","1","1","1","1","1","1","1","1"
"260016","img/object_images/mail_box01.jpg","img/object_images/knit04.jpg","img/object_images/dresser03.jpg","1","1","1","0","1","0","0.523827900004108","0.421067800023593","0.444365000003017","1","1","1","1","1","1","1","1","1"
"260016","img/object_images/dresser03.jpg","img/object_images/mail_box01.jpg","img/object_images/remover01.jpg","1","1","1","0","0","1","0.444365000003017","0.523827900004108","0.402178100019228","1","1","1","1","1","1","1","1","1"
"260016","img/object_images/remover01.jpg","img/object_images/dresser03.jpg","img/object_images/tool18.jpg","1","1","1","1","0","0","0.402178100019228","0.444365000003017","0.444365100003779","1","1","1","1","1","1","1","1","1"
"260016","img/object_images/tool18.jpg","img/object_images/remover01.jpg","img/object_images/camera03.jpg","1","1","1","0","1","0","0.444365100003779","0.402178100019228","0.396138500014786","1","1","1","1","1","1","1","1","1"
"260016","img/object_images/camera03.jpg","img/object_images/tool18.jpg","img/object_images/remote_controller01.jpg","1","1","1","0","0","1","0.396138500014786","0.444365100003779","0.518317100009881","1","1","1","1","1","1","1","1","1"
"260016","img/object_images/remote_controller01.jpg","img/object_images/camera03.jpg","img/object_images/matches02.jpg","1","1","1","1","0","0","0.518317100009881","0.396138500014786","0.479164599964861","1","1","1","1","1","1","1","1","1"
"260016","img/object_images/matches02.jpg","img/object_images/remote_controller01.jpg","img/object_images/stereo02.jpg","1","1","1","0","1","0","0.479164599964861","0.518317100009881","0.464965000050142","1","1","1","1","1","1","1","1","1"
"260016","img/object_images/stereo02.jpg","img/object_images/matches02.jpg","img/object_images/hoverboard01.jpg","1","1","1","0","0","0","0.464965000050142","0.479164599964861","0.492178100044839","1","1","1","1","1","1","1","1","1"
"260016","img/object_images/hoverboard01.jpg","img/object_images/stereo02.jpg","img/object_images/basket04.jpg","1","1","1","0","0","1","0.492178100044839","0.464965000050142","0.457240199961234","1","1","1","1","1","1","1","1","1"
"260016","img/object_images/basket04.jpg","img/object_images/hoverboard01.jpg","img/object_images/hand_grip_exerciser01.jpg","1","1","1","1","0","0","0.457240199961234","0.492178100044839","0.539179000013974","1","1","1","1","1","1","1","1","1"
"260016","img/object_images/hand_grip_exerciser01.jpg","img/object_images/basket04.jpg","img/object_images/shower_head01.jpg","1","1","1","0","1","1","0.539179000013974","0.457240199961234","0.460274199955165","1","1","1","1","1","1","1","1","1"
"260016","img/object_images/shower_head01.jpg","img/object_images/hand_grip_exerciser01.jpg","img/object_images/knit03.jpg","1","1","1","1","0","1","0.460274199955165","0.539179000013974","0.511426899989601","1","1","1","1","1","1","1","1","1"
"260016","img/object_images/knit03.jpg","img/object_images/shower_head01.jpg","img/object_images/gloves02.jpg","1","1","1","1","1","0","0.511426899989601","0.460274199955165","0.47275630000513","1","1","1","1","1","1","1","1","1"
"260016","img/object_images/gloves02.jpg","img/object_images/knit03.jpg","img/object_images/keyboard02.jpg","1","1","1","0","1","1","0.47275630000513","0.511426899989601","0.384270099981222","1","1","1","1","1","1","1","1","1"
"260016","img/object_images/keyboard02.jpg","img/object_images/gloves02.jpg","img/object_images/knife02.jpg","1","1","1","1","0","0","0.384270099981222","0.47275630000513","0.439042500045616","1","1","1","1","1","1","1","1","1"
"260016","img/object_images/knife02.jpg","img/object_images/keyboard02.jpg","img/object_images/video_game01.jpg","1","1","1","0","1","1","0.439042500045616","0.384270099981222","0.33006370003568","1","1","1","1","1","1","1","1","1"
"260016","img/object_images/video_game01.jpg","img/object_images/knife02.jpg",NA,"1","1",NA,"1","0",NA,"0.33006370003568","0.439042500045616",NA,"1","1",NA,"1","1",NA,"1","1",NA
"260016","img/object_images/bag04.jpg",NA,"img/object_images/dust_pan01.jpg","0",NA,"1","0",NA,"1","0.620517799980007",NA,"0.44707140000537","1",NA,"1","1",NA,"1","1",NA,"1"
"260016","img/object_images/dust_pan01.jpg","img/object_images/bag04.jpg","img/object_images/camera05.jpg","1","0","0","1","0","0","0.44707140000537","0.620517799980007","0.434531300037634","1","1","1","1","1","1","1","1","1"
"260016","img/object_images/camera05.jpg","img/object_images/dust_pan01.jpg","img/object_images/hat09.jpg","0","1","1","0","1","0","0.434531300037634","0.44707140000537","0.514238699979614","1","1","1","1","1","1","1","1","1"
"260016","img/object_images/hat09.jpg","img/object_images/camera05.jpg","img/object_images/lemon_squeezer01.jpg","1","0","1","0","0","1","0.514238699979614","0.434531300037634","0.393640600028448","1","1","1","1","1","1","1","1","1"
"260016","img/object_images/lemon_squeezer01.jpg","img/object_images/hat09.jpg","img/object_images/perfume01.jpg","1","1","1","1","0","0","0.393640600028448","0.514238699979614","0.533231499954127","1","1","1","1","1","1","1","1","1"
"260016","img/object_images/perfume01.jpg","img/object_images/lemon_squeezer01.jpg","img/object_images/pan03.jpg","1","1","1","0","1","1","0.533231499954127","0.393640600028448","0.45389270002488","1","1","1","1","1","1","1","1","1"
"260016","img/object_images/pan03.jpg","img/object_images/perfume01.jpg","img/object_images/Candle_Holder01.jpg","1","1","1","1","0","0","0.45389270002488","0.533231499954127","0.381935600016732","1","1","1","1","1","1","1","1","1"
"260016","img/object_images/Candle_Holder01.jpg","img/object_images/pan03.jpg","img/object_images/razor02.jpg","1","1","1","0","1","1","0.381935600016732","0.45389270002488","0.352848399954382","1","1","1","1","1","1","1","1","1"
"260016","img/object_images/razor02.jpg","img/object_images/Candle_Holder01.jpg","img/object_images/tool20.jpg","1","1","1","1","0","0","0.352848399954382","0.381935600016732","0.411568299983628","1","1","1","1","1","1","1","1","1"
"260016","img/object_images/tool20.jpg","img/object_images/razor02.jpg","img/object_images/video_game02.jpg","1","1","1","0","1","1","0.411568299983628","0.352848399954382","0.372886799974367","1","1","1","1","1","1","1","1","1"
"260016","img/object_images/video_game02.jpg","img/object_images/tool20.jpg","img/object_images/hat13.jpg","1","1","1","1","0","1","0.372886799974367","0.411568299983628","0.348898299969733","1","1","1","1","1","1","1","1","1"
"260016","img/object_images/hat13.jpg","img/object_images/video_game02.jpg","img/object_images/office_supplies01.jpg","1","1","1","1","1","1","0.348898299969733","0.372886799974367","0.457572499988601","1","1","1","1","1","1","1","1","1"
"260016","img/object_images/office_supplies01.jpg","img/object_images/hat13.jpg","img/object_images/duster01.jpg","1","1","0","1","1","0","0.457572499988601","0.348898299969733","0.41882760002045","1","1","1","1","1","1","1","1","1"
"260016","img/object_images/duster01.jpg","img/object_images/office_supplies01.jpg","img/object_images/sign02.jpg","0","1","1","0","1","0","0.41882760002045","0.457572499988601","0.466829299984965","1","1","1","1","1","1","1","1","1"
"260016","img/object_images/sign02.jpg","img/object_images/duster01.jpg","img/object_images/pen06.jpg","1","0","1","0","0","0","0.466829299984965","0.41882760002045","0.517165800032672","1","1","1","1","1","1","1","1","1"
"260016","img/object_images/pen06.jpg","img/object_images/sign02.jpg","img/object_images/tool13.jpg","1","1","1","0","0","1","0.517165800032672","0.466829299984965","0.441313000046648","1","1","1","1","1","1","1","1","1"
"260016","img/object_images/tool13.jpg","img/object_images/pen06.jpg","img/object_images/bow_tie03.jpg","1","1","1","1","0","1","0.441313000046648","0.517165800032672","0.418623300036415","1","1","1","1","1","1","1","1","1"
"260016","img/object_images/bow_tie03.jpg","img/object_images/tool13.jpg","img/object_images/clipboard01.jpg","1","1","1","1","1","1","0.418623300036415","0.441313000046648","0.388286800007336","1","1","1","1","1","1","1","1","1"
"260016","img/object_images/clipboard01.jpg","img/object_images/bow_tie03.jpg","img/object_images/board01.jpg","1","1","1","1","1","1","0.388286800007336","0.418623300036415","0.369148100027815","1","1","1","1","1","1","1","1","1"
"260016","img/object_images/board01.jpg","img/object_images/clipboard01.jpg","img/object_images/cup01.jpg","1","1","1","1","1","0","0.369148100027815","0.388286800007336","0.442640999972355","1","1","1","1","1","1","1","1","1"
"260016","img/object_images/cup01.jpg","img/object_images/board01.jpg","img/object_images/candle02.jpg","1","1","1","0","1","0","0.442640999972355","0.369148100027815","0.474707600020338","1","1","1","1","1","1","1","1","1"
"260016","img/object_images/candle02.jpg","img/object_images/cup01.jpg","img/object_images/ruler02.jpg","1","1","1","0","0","1","0.474707600020338","0.442640999972355","0.414928600017447","1","1","1","1","1","1","1","1","1"
"260016","img/object_images/ruler02.jpg","img/object_images/candle02.jpg","img/object_images/spray_can01.jpg","1","1","1","1","0","0","0.414928600017447","0.474707600020338","0.491966400004458","1","1","1","1","1","1","1","1","1"
"260016","img/object_images/spray_can01.jpg","img/object_images/ruler02.jpg","img/object_images/Confetti 01.jpg","1","1","1","0","1","0","0.491966400004458","0.414928600017447","0.391801599995233","1","1","1","1","1","1","1","1","1"
"260016","img/object_images/Confetti 01.jpg","img/object_images/spray_can01.jpg","img/object_images/socks01.jpg","1","1","1","0","0","1","0.391801599995233","0.491966400004458","0.379627499962226","1","1","1","1","1","1","1","1","1"
"260016","img/object_images/socks01.jpg","img/object_images/Confetti 01.jpg","img/object_images/knife01.jpg","1","1","1","1","0","1","0.379627499962226","0.391801599995233","0.514192200032994","1","1","1","1","1","1","1","1","1"
"260016","img/object_images/knife01.jpg","img/object_images/socks01.jpg","img/object_images/vase02.jpg","1","1","1","1","1","1","0.514192200032994","0.379627499962226","0.361460399988573","1","1","1","1","1","1","1","1","1"
"260016","img/object_images/vase02.jpg","img/object_images/knife01.jpg","img/object_images/sink_filter01 (1).jpg","1","1","1","1","1","0","0.361460399988573","0.514192200032994","0.459097899962217","1","1","1","1","1","1","1","1","1"
"260016","img/object_images/sink_filter01 (1).jpg","img/object_images/vase02.jpg","img/object_images/floss01.jpg","1","1","1","0","1","1","0.459097899962217","0.361460399988573","0.342887600010727","1","1","1","1","1","1","1","1","1"
"260016","img/object_images/floss01.jpg","img/object_images/sink_filter01 (1).jpg","img/object_images/hammer02.jpg","1","1","1","1","0","0","0.342887600010727","0.459097899962217","0.464331900002435","1","1","1","1","1","1","1","1","1"
"260016","img/object_images/hammer02.jpg","img/object_images/floss01.jpg","img/object_images/glasses03.jpg","1","1","1","0","1","0","0.464331900002435","0.342887600010727","0.422185899980832","1","1","1","1","1","1","1","1","1"
"260016","img/object_images/glasses03.jpg","img/object_images/hammer02.jpg",NA,"1","1",NA,"0","0",NA,"0.422185899980832","0.464331900002435",NA,"1","1",NA,"1","1",NA,"1","1",NA
"260016","img/object_images/bell03.jpg",NA,"img/object_images/Trowel01.jpg","1",NA,"1","0",NA,"0","0.744337000011001",NA,"0.459307599987369","1",NA,"1","1",NA,"1","1",NA,"1"
"260016","img/object_images/Trowel01.jpg","img/object_images/bell03.jpg","img/object_images/skate_board01.jpg","1","1","1","0","0","0","0.459307599987369","0.744337000011001","0.464417800016236","1","1","1","1","1","1","1","1","1"
"260016","img/object_images/skate_board01.jpg","img/object_images/Trowel01.jpg","img/object_images/egg_slicer01.jpg","1","1","1","0","0","1","0.464417800016236","0.459307599987369","0.433385399985127","1","1","1","1","1","1","1","1","1"
"260016","img/object_images/egg_slicer01.jpg","img/object_images/skate_board01.jpg","img/object_images/drone01.jpg","1","1","1","1","0","1","0.433385399985127","0.464417800016236","0.408894499996677","1","1","1","1","1","1","1","1","1"
"260016","img/object_images/drone01.jpg","img/object_images/egg_slicer01.jpg","img/object_images/tripod01.jpg","1","1","1","1","1","1","0.408894499996677","0.433385399985127","0.382674499996938","1","1","1","1","1","1","1","1","1"
"260016","img/object_images/tripod01.jpg","img/object_images/drone01.jpg","img/object_images/hair_brush01.jpg","1","1","1","1","1","1","0.382674499996938","0.408894499996677","0.404226600017864","1","1","1","1","1","1","1","1","1"
"260016","img/object_images/hair_brush01.jpg","img/object_images/tripod01.jpg","img/object_images/bag_pipes01.jpg","1","1","1","1","1","1","0.404226600017864","0.382674499996938","0.403775200014934","1","1","1","1","1","1","1","1","1"
"260016","img/object_images/bag_pipes01.jpg","img/object_images/hair_brush01.jpg","img/object_images/computer_mouse01.jpg","1","1","1","1","1","1","0.403775200014934","0.404226600017864","0.33490100002382","1","1","1","1","1","1","1","1","1"
"260016","img/object_images/computer_mouse01.jpg","img/object_images/bag_pipes01.jpg","img/object_images/tool06.jpg","1","1","1","1","1","0","0.33490100002382","0.403775200014934","0.489565399999265","1","1","1","1","1","1","1","1","1"
"260016","img/object_images/tool06.jpg","img/object_images/computer_mouse01.jpg","img/object_images/rock02.jpg","1","1","0","0","1","0","0.489565399999265","0.33490100002382","0.429594500048552","1","1","1","1","1","1","1","1","1"
"260016","img/object_images/rock02.jpg","img/object_images/tool06.jpg","img/object_images/airfryer02.jpg","0","1","1","0","0","1","0.429594500048552","0.489565399999265","0.445509599987418","1","1","1","1","1","1","1","1","1"
"260016","img/object_images/airfryer02.jpg","img/object_images/rock02.jpg","img/object_images/shoes12.jpg","1","0","1","1","0","1","0.445509599987418","0.429594500048552","0.412653699982911","1","1","1","1","1","1","1","1","1"
"260016","img/object_images/shoes12.jpg","img/object_images/airfryer02.jpg","img/object_images/chair06.jpg","1","1","1","1","1","0","0.412653699982911","0.445509599987418","0.502313199976925","1","1","1","1","1","1","1","1","1"
"260016","img/object_images/chair06.jpg","img/object_images/shoes12.jpg","img/object_images/scarf01.jpg","1","1","1","0","1","1","0.502313199976925","0.412653699982911","0.480769100016914","1","1","1","1","1","1","1","1","1"
"260016","img/object_images/scarf01.jpg","img/object_images/chair06.jpg","img/object_images/video_game03.jpg","1","1","1","1","0","1","0.480769100016914","0.502313199976925","0.364499400020577","1","1","1","1","1","1","1","1","1"
"260016","img/object_images/video_game03.jpg","img/object_images/scarf01.jpg","img/object_images/clip04.jpg","1","1","1","1","1","1","0.364499400020577","0.480769100016914","0.429439499974251","1","1","1","1","1","1","1","1","1"
"260016","img/object_images/clip04.jpg","img/object_images/video_game03.jpg","img/object_images/toy01.jpg","1","1","1","1","1","1","0.429439499974251","0.364499400020577","0.449761700001545","1","1","1","1","1","1","1","1","1"
"260016","img/object_images/toy01.jpg","img/object_images/clip04.jpg","img/object_images/blender01.jpg","1","1","1","1","1","0","0.449761700001545","0.429439499974251","0.386317599972244","1","1","1","1","1","1","1","1","1"
"260016","img/object_images/blender01.jpg","img/object_images/toy01.jpg","img/object_images/pen01.jpg","1","1","1","0","1","0","0.386317599972244","0.449761700001545","0.510491100023501","1","1","1","1","1","1","1","1","1"
"260016","img/object_images/pen01.jpg","img/object_images/blender01.jpg","img/object_images/floss02.jpg","1","1","1","0","0","1","0.510491100023501","0.386317599972244","0.483937999990303","1","1","1","1","1","1","1","1","1"
"260016","img/object_images/floss02.jpg","img/object_images/pen01.jpg","img/object_images/computer_mouse02.jpg","1","1","1","1","0","0","0.483937999990303","0.510491100023501","0.528881500009447","1","1","1","1","1","1","1","1","1"
"260016","img/object_images/computer_mouse02.jpg","img/object_images/floss02.jpg","img/object_images/book02.jpg","1","1","1","0","1","1","0.528881500009447","0.483937999990303","0.410199999983888","1","1","1","1","1","1","1","1","1"
"260016","img/object_images/book02.jpg","img/object_images/computer_mouse02.jpg","img/object_images/Violin01.jpg","1","1","1","1","0","0","0.410199999983888","0.528881500009447","0.460309299989603","1","1","1","1","1","1","1","1","1"
"260016","img/object_images/Violin01.jpg","img/object_images/book02.jpg","img/object_images/couch01.jpg","1","1","1","0","1","0","0.460309299989603","0.410199999983888","0.36477579997154","1","1","1","1","1","1","1","1","1"
"260016","img/object_images/couch01.jpg","img/object_images/Violin01.jpg","img/object_images/box03.jpg","1","1","0","0","0","0","0.36477579997154","0.460309299989603","0.556185800000094","1","1","1","1","1","1","1","1","2"
"260016","img/object_images/box03.jpg","img/object_images/couch01.jpg","img/object_images/soap03.jpg","0","1","1","0","0","0","0.556185800000094","0.36477579997154","0.763604900042992","1","1","1","1","1","1","2","1","1"
"260016","img/object_images/soap03.jpg","img/object_images/box03.jpg","img/object_images/fork02.jpg","1","0","1","0","0","0","0.763604900042992","0.556185800000094","0.383943399996497","1","1","1","1","1","1","1","2","1"
"260016","img/object_images/fork02.jpg","img/object_images/soap03.jpg","img/object_images/pitcher09.jpg","1","1","1","0","0","1","0.383943399996497","0.763604900042992","0.437075899972115","1","1","1","1","1","1","1","1","1"
"260016","img/object_images/pitcher09.jpg","img/object_images/fork02.jpg","img/object_images/mail_box02.jpg","1","1","1","1","0","1","0.437075899972115","0.383943399996497","0.429727200011257","1","1","1","1","1","1","1","1","1"
"260016","img/object_images/mail_box02.jpg","img/object_images/pitcher09.jpg","img/object_images/toothbrush01.jpg","1","1","1","1","1","0","0.429727200011257","0.437075899972115","0.45995510002831","1","1","1","1","1","1","1","1","1"
"260016","img/object_images/toothbrush01.jpg","img/object_images/mail_box02.jpg","img/object_images/chain01.jpg","1","1","1","0","1","0","0.45995510002831","0.429727200011257","0.473637300019618","1","1","1","1","1","1","1","1","1"
"260016","img/object_images/chain01.jpg","img/object_images/toothbrush01.jpg",NA,"1","1",NA,"0","0",NA,"0.473637300019618","0.45995510002831",NA,"1","1",NA,"1","1",NA,"1","1",NA
"260016","img/object_images/acoustic_capo01.jpg",NA,"img/object_images/guitar02.jpg","1",NA,"1","1",NA,"0","0.397448900039308",NA,"0.494160300004296","1",NA,"1","1",NA,"1","1",NA,"1"
"260016","img/object_images/guitar02.jpg","img/object_images/acoustic_capo01.jpg","img/object_images/towel02.jpg","1","1","1","0","1","1","0.494160300004296","0.397448900039308","0.406063499976881","1","1","1","1","1","1","1","1","1"
"260016","img/object_images/towel02.jpg","img/object_images/guitar02.jpg","img/object_images/jewel04.jpg","1","1","1","1","0","0","0.406063499976881","0.494160300004296","0.421094400051516","1","1","1","1","1","1","1","1","1"
"260016","img/object_images/jewel04.jpg","img/object_images/towel02.jpg","img/object_images/frisbee01.jpg","1","1","1","0","1","1","0.421094400051516","0.406063499976881","0.345270900055766","1","1","1","1","1","1","1","1","1"
"260016","img/object_images/frisbee01.jpg","img/object_images/jewel04.jpg","img/object_images/outlet01.jpg","1","1","1","1","0","0","0.345270900055766","0.421094400051516","0.360601199965458","1","1","1","1","1","1","1","1","1"
"260016","img/object_images/outlet01.jpg","img/object_images/frisbee01.jpg","img/object_images/shovel03.jpg","1","1","1","0","1","1","0.360601199965458","0.345270900055766","0.353217200026847","1","1","1","1","1","1","1","1","1"
"260016","img/object_images/shovel03.jpg","img/object_images/outlet01.jpg","img/object_images/bird_house02.jpg","1","1","1","1","0","1","0.353217200026847","0.360601199965458","0.356669300002977","1","1","1","1","1","1","1","1","1"
"260016","img/object_images/bird_house02.jpg","img/object_images/shovel03.jpg","img/object_images/bottle05.jpg","1","1","1","1","1","0","0.356669300002977","0.353217200026847","0.496657699986827","1","1","1","1","1","1","1","1","1"
"260016","img/object_images/bottle05.jpg","img/object_images/bird_house02.jpg","img/object_images/bow01.jpg","1","1","1","0","1","1","0.496657699986827","0.356669300002977","0.368268200021703","1","1","1","1","1","1","1","1","1"
"260016","img/object_images/bow01.jpg","img/object_images/bottle05.jpg","img/object_images/mirror01.jpg","1","1","1","1","0","1","0.368268200021703","0.496657699986827","0.37028149998514","1","1","1","1","1","1","1","1","1"
"260016","img/object_images/mirror01.jpg","img/object_images/bow01.jpg","img/object_images/fridge03.jpg","1","1","1","1","1","0","0.37028149998514","0.368268200021703","0.462608299974818","1","1","1","1","1","1","1","1","1"
"260016","img/object_images/fridge03.jpg","img/object_images/mirror01.jpg","img/object_images/tool09.jpg","1","1","1","0","1","1","0.462608299974818","0.37028149998514","0.395591799984686","1","1","1","1","1","1","1","1","1"
"260016","img/object_images/tool09.jpg","img/object_images/fridge03.jpg","img/object_images/tool02.jpg","1","1","1","1","0","1","0.395591799984686","0.462608299974818","0.426740100025199","1","1","1","1","1","1","1","1","1"
"260016","img/object_images/tool02.jpg","img/object_images/tool09.jpg","img/object_images/crown02.jpg","1","1","1","1","1","1","0.426740100025199","0.395591799984686","0.409712300053798","1","1","1","1","1","1","1","1","1"
"260016","img/object_images/crown02.jpg","img/object_images/tool02.jpg","img/object_images/Ring02.jpg","1","1","1","1","1","0","0.409712300053798","0.426740100025199","0.37067139998544","1","1","1","1","1","1","1","1","1"
"260016","img/object_images/Ring02.jpg","img/object_images/crown02.jpg","img/object_images/toy03.jpg","1","1","1","0","1","1","0.37067139998544","0.409712300053798","0.36833420000039","1","1","1","1","1","1","1","1","1"
"260016","img/object_images/toy03.jpg","img/object_images/Ring02.jpg","img/object_images/MetalWire01.jpg","1","1","0","1","0","0","0.36833420000039","0.37067139998544","0.399772399978247","1","1","1","1","1","1","1","1","1"
"260016","img/object_images/MetalWire01.jpg","img/object_images/toy03.jpg","img/object_images/Tin01.jpg","0","1","1","0","1","1","0.399772399978247","0.36833420000039","0.59118510002736","1","1","1","1","1","1","1","1","1"
"260016","img/object_images/Tin01.jpg","img/object_images/MetalWire01.jpg","img/object_images/sink01.jpg","1","0","1","1","0","0","0.59118510002736","0.399772399978247","0.427970299962908","1","1","1","1","1","1","1","1","1"
"260016","img/object_images/sink01.jpg","img/object_images/Tin01.jpg","img/object_images/ornament01.jpg","1","1","1","0","1","1","0.427970299962908","0.59118510002736","0.391130100004375","1","1","1","1","1","1","1","1","1"
"260016","img/object_images/ornament01.jpg","img/object_images/sink01.jpg","img/object_images/Stool01.jpg","1","1","1","1","0","0","0.391130100004375","0.427970299962908","0.419970599992666","1","1","1","1","1","1","1","1","1"
"260016","img/object_images/Stool01.jpg","img/object_images/ornament01.jpg","img/object_images/video_game07.jpg","1","1","1","0","1","1","0.419970599992666","0.391130100004375","0.406331300036982","1","1","1","1","1","1","1","1","1"
"260016","img/object_images/video_game07.jpg","img/object_images/Stool01.jpg","img/object_images/toy04.jpg","1","1","1","1","0","0","0.406331300036982","0.419970599992666","0.446634799998719","1","1","1","1","1","1","1","1","1"
"260016","img/object_images/toy04.jpg","img/object_images/video_game07.jpg","img/object_images/Vacuum01.jpg","1","1","0","0","1","0","0.446634799998719","0.406331300036982","0.487312699959148","1","1","1","1","1","1","1","1","1"
"260016","img/object_images/Vacuum01.jpg","img/object_images/toy04.jpg","img/object_images/judge_gavel01.jpg","0","1","1","0","0","1","0.487312699959148","0.446634799998719","0.489407599961851","1","1","1","1","1","1","1","1","1"
"260016","img/object_images/judge_gavel01.jpg","img/object_images/Vacuum01.jpg","img/object_images/gauze01.jpg","1","0","1","1","0","0","0.489407599961851","0.487312699959148","0.687726000032853","1","1","1","1","1","1","1","1","1"
"260016","img/object_images/gauze01.jpg","img/object_images/judge_gavel01.jpg","img/object_images/helmet01.jpg","1","1","1","0","1","0","0.687726000032853","0.489407599961851","0.503675199986901","1","1","1","1","1","1","1","1","1"
"260016","img/object_images/helmet01.jpg","img/object_images/gauze01.jpg","img/object_images/stapler.jpg","1","1","1","0","0","1","0.503675199986901","0.687726000032853","0.418983500043396","1","1","1","1","1","1","1","1","1"
"260016","img/object_images/stapler.jpg","img/object_images/helmet01.jpg","img/object_images/dart01.jpg","1","1","1","1","0","0","0.418983500043396","0.503675199986901","0.428621400031261","1","1","1","1","1","1","1","1","1"
"260016","img/object_images/dart01.jpg","img/object_images/stapler.jpg","img/object_images/pot01 (1).jpg","1","1","1","0","1","0","0.428621400031261","0.418983500043396","0.492898500000592","1","1","1","1","1","1","1","1","1"
"260016","img/object_images/pot01 (1).jpg","img/object_images/dart01.jpg","img/object_images/watch01.jpg","1","1","1","0","0","0","0.492898500000592","0.428621400031261","0.500090899993666","1","1","1","1","1","1","1","1","1"
"260016","img/object_images/watch01.jpg","img/object_images/pot01 (1).jpg",NA,"1","1",NA,"0","0",NA,"0.500090899993666","0.492898500000592",NA,"1","1",NA,"1","1",NA,"1","1",NA
"260016","img/object_images/vga_port 01.jpg",NA,"img/object_images/socks02.jpg","1",NA,"1","0",NA,"0","0.672504700021818",NA,"0.55386179999914","1",NA,"1","1",NA,"1","1",NA,"1"
"260016","img/object_images/socks02.jpg","img/object_images/vga_port 01.jpg","img/object_images/coloring_pencil01.jpg","1","1","1","0","0","1","0.55386179999914","0.672504700021818","0.655200699984562","1","1","1","1","1","1","1","1","1"
"260016","img/object_images/coloring_pencil01.jpg","img/object_images/socks02.jpg","img/object_images/handkerchief01.jpg","1","1","1","1","0","0","0.655200699984562","0.55386179999914","0.537876799993683","1","1","1","1","1","1","1","1","1"
"260016","img/object_images/handkerchief01.jpg","img/object_images/coloring_pencil01.jpg","img/object_images/gift_box02.jpg","1","1","1","0","1","1","0.537876799993683","0.655200699984562","0.462878199992701","1","1","1","1","1","1","1","1","1"
"260016","img/object_images/gift_box02.jpg","img/object_images/handkerchief01.jpg","img/object_images/camera07.jpg","1","1","1","1","0","1","0.462878199992701","0.537876799993683","0.34648540004855","1","1","1","1","1","1","1","1","1"
"260016","img/object_images/camera07.jpg","img/object_images/gift_box02.jpg","img/object_images/bath_tub01.jpg","1","1","1","1","1","0","0.34648540004855","0.462878199992701","0.410287300008349","1","1","1","1","1","1","1","1","1"
"260016","img/object_images/bath_tub01.jpg","img/object_images/camera07.jpg","img/object_images/bow_tie01.jpg","1","1","1","0","1","0","0.410287300008349","0.34648540004855","0.551293200056534","1","1","1","1","1","1","1","1","1"
"260016","img/object_images/bow_tie01.jpg","img/object_images/bath_tub01.jpg","img/object_images/clip02.jpg","1","1","1","0","0","1","0.551293200056534","0.410287300008349","0.477139300026465","1","1","1","1","1","1","1","1","1"
"260016","img/object_images/clip02.jpg","img/object_images/bow_tie01.jpg","img/object_images/bow_tie02.jpg","1","1","1","1","0","0","0.477139300026465","0.551293200056534","0.614906699978746","1","1","1","1","1","1","1","1","1"
"260016","img/object_images/bow_tie02.jpg","img/object_images/clip02.jpg","img/object_images/grater01.jpg","1","1","1","0","1","1","0.614906699978746","0.477139300026465","0.469315900001675","1","1","1","1","1","1","1","1","1"
"260016","img/object_images/grater01.jpg","img/object_images/bow_tie02.jpg","img/object_images/Witchhat01.jpg","1","1","1","1","0","1","0.469315900001675","0.614906699978746","0.44833619997371","1","1","1","1","1","1","1","1","1"
"260016","img/object_images/Witchhat01.jpg","img/object_images/grater01.jpg","img/object_images/measuring_tape02.jpg","1","1","1","1","1","1","0.44833619997371","0.469315900001675","0.44892539997818","1","1","1","1","1","1","1","1","1"
"260016","img/object_images/measuring_tape02.jpg","img/object_images/Witchhat01.jpg","img/object_images/lock04.jpg","1","1","1","1","1","1","0.44892539997818","0.44833619997371","0.442876800021622","1","1","1","1","1","1","1","1","1"
"260016","img/object_images/lock04.jpg","img/object_images/measuring_tape02.jpg","img/object_images/ironing_table01.jpg","1","1","1","1","1","0","0.442876800021622","0.44892539997818","0.523254600004293","1","1","1","1","1","1","1","1","1"
"260016","img/object_images/ironing_table01.jpg","img/object_images/lock04.jpg","img/object_images/wallet02.jpg","1","1","1","0","1","1","0.523254600004293","0.442876800021622","0.421611700032372","1","1","1","1","1","1","1","1","1"
"260016","img/object_images/wallet02.jpg","img/object_images/ironing_table01.jpg","img/object_images/funnel01.jpg","1","1","1","1","0","0","0.421611700032372","0.523254600004293","0.488643300021067","1","1","1","1","1","1","1","1","1"
"260016","img/object_images/funnel01.jpg","img/object_images/wallet02.jpg","img/object_images/lawn_mower01.jpg","1","1","1","0","1","1","0.488643300021067","0.421611700032372","0.465121400018688","1","1","1","1","1","1","1","1","1"
"260016","img/object_images/lawn_mower01.jpg","img/object_images/funnel01.jpg","img/object_images/balloon01.jpg","1","1","1","1","0","0","0.465121400018688","0.488643300021067","0.61374820000492","1","1","1","1","1","1","1","1","1"
"260016","img/object_images/balloon01.jpg","img/object_images/lawn_mower01.jpg","img/object_images/couch03.jpg","1","1","1","0","1","0","0.61374820000492","0.465121400018688","0.60593910003081","1","1","1","1","1","1","1","1","1"
"260016","img/object_images/couch03.jpg","img/object_images/balloon01.jpg","img/object_images/gift_box01.jpg","1","1","1","0","0","1","0.60593910003081","0.61374820000492","0.521737700037193","1","1","1","1","1","1","1","1","1"
"260016","img/object_images/gift_box01.jpg","img/object_images/couch03.jpg","img/object_images/dresser04.jpg","1","1","1","1","0","0","0.521737700037193","0.60593910003081","0.419188499974552","1","1","1","1","1","1","1","1","1"
"260016","img/object_images/dresser04.jpg","img/object_images/gift_box01.jpg","img/object_images/gift_box03.jpg","1","1","1","0","1","0","0.419188499974552","0.521737700037193","0.501111800025683","1","1","1","1","1","1","1","1","1"
"260016","img/object_images/gift_box03.jpg","img/object_images/dresser04.jpg","img/object_images/paper_cup01.jpg","1","1","0","0","0","0","0.501111800025683","0.419188499974552","0.423089699994307","1","1","1","1","1","1","1","1","2"
"260016","img/object_images/paper_cup01.jpg","img/object_images/gift_box03.jpg","img/object_images/Screws01.jpg","0","1","1","0","0","1","0.423089699994307","0.501111800025683","0.411617600009777","1","1","1","1","1","1","2","1","1"
"260016","img/object_images/Screws01.jpg","img/object_images/paper_cup01.jpg","img/object_images/golf_ball03.jpg","1","0","1","1","0","1","0.411617600009777","0.423089699994307","0.466727600025479","1","1","1","1","1","1","1","2","1"
"260016","img/object_images/golf_ball03.jpg","img/object_images/Screws01.jpg","img/object_images/sleeping_bag01.jpg","1","1","1","1","1","0","0.466727600025479","0.411617600009777","0.629894000012428","1","1","1","1","1","1","1","1","1"
"260016","img/object_images/sleeping_bag01.jpg","img/object_images/golf_ball03.jpg","img/object_images/jacket03.jpg","1","1","1","0","1","0","0.629894000012428","0.466727600025479","0.555597400001716","1","1","1","1","1","1","1","1","1"
"260016","img/object_images/jacket03.jpg","img/object_images/sleeping_bag01.jpg","img/object_images/fork03.jpg","1","1","1","0","0","1","0.555597400001716","0.629894000012428","0.43022939999355","1","1","1","1","1","1","1","1","1"
"260016","img/object_images/fork03.jpg","img/object_images/jacket03.jpg","img/object_images/jewelry01.jpg","1","1","1","1","0","1","0.43022939999355","0.555597400001716","0.485163700010162","1","1","1","1","1","1","1","1","1"
"260016","img/object_images/jewelry01.jpg","img/object_images/fork03.jpg","img/object_images/pitcher02.jpg","1","1","1","1","1","1","0.485163700010162","0.43022939999355","0.436540000024252","1","1","1","1","1","1","1","1","1"
"260016","img/object_images/pitcher02.jpg","img/object_images/jewelry01.jpg","img/object_images/hammer01.jpg","1","1","1","1","1","0","0.436540000024252","0.485163700010162","0.399058300012257","1","1","1","1","1","1","1","1","1"
"260016","img/object_images/hammer01.jpg","img/object_images/pitcher02.jpg",NA,"1","1",NA,"0","1",NA,"0.399058300012257","0.436540000024252",NA,"1","1",NA,"1","1",NA,"1","1",NA
"260016","img/object_images/coloring_pencil02.jpg",NA,"img/object_images/hat06.jpg","1",NA,"1","0",NA,"0","0.478945899987593",NA,"0.424876100034453","1",NA,"1","1",NA,"1","1",NA,"1"
"260016","img/object_images/hat06.jpg","img/object_images/coloring_pencil02.jpg","img/object_images/WoodBox01.jpg","1","1","1","0","0","0","0.424876100034453","0.478945899987593","0.448847500025295","1","1","1","1","1","1","1","1","1"
"260016","img/object_images/WoodBox01.jpg","img/object_images/hat06.jpg","img/object_images/audio_port01.jpg","1","1","1","0","0","1","0.448847500025295","0.424876100034453","0.430515100015327","1","1","1","1","1","1","1","1","1"
"260016","img/object_images/audio_port01.jpg","img/object_images/WoodBox01.jpg","img/object_images/pen05.jpg","1","1","1","1","0","0","0.430515100015327","0.448847500025295","0.355669699958526","1","1","1","1","1","1","1","1","1"
"260016","img/object_images/pen05.jpg","img/object_images/audio_port01.jpg","img/object_images/chair03.jpg","1","1","1","0","1","0","0.355669699958526","0.430515100015327","0.457737499964423","1","1","1","1","1","1","1","1","1"
"260016","img/object_images/chair03.jpg","img/object_images/pen05.jpg","img/object_images/purse04.jpg","1","1","1","0","0","1","0.457737499964423","0.355669699958526","0.446878399990965","1","1","1","1","1","1","1","1","1"
"260016","img/object_images/purse04.jpg","img/object_images/chair03.jpg","img/object_images/dog_leash01.jpg","1","1","0","1","0","0","0.446878399990965","0.457737499964423","0.404949199990369","1","1","1","1","1","1","1","1","1"
"260016","img/object_images/dog_leash01.jpg","img/object_images/purse04.jpg","img/object_images/shoes07.jpg","0","1","1","0","1","0","0.404949199990369","0.446878399990965","0.482140900043305","1","1","1","1","1","1","1","1","1"
"260016","img/object_images/shoes07.jpg","img/object_images/dog_leash01.jpg","img/object_images/bottle09.jpg","1","0","1","0","0","0","0.482140900043305","0.404949199990369","0.49711070000194","1","1","1","1","1","1","1","1","1"
"260016","img/object_images/bottle09.jpg","img/object_images/shoes07.jpg","img/object_images/fan02.jpg","1","1","1","0","0","0","0.49711070000194","0.482140900043305","0.503271499997936","1","1","1","1","1","1","1","1","1"
"260016","img/object_images/fan02.jpg","img/object_images/bottle09.jpg","img/object_images/water_scooter01.jpg","1","1","1","0","0","1","0.503271499997936","0.49711070000194","0.456140499969479","1","1","1","1","1","1","1","1","1"
"260016","img/object_images/water_scooter01.jpg","img/object_images/fan02.jpg","img/object_images/toaster01.jpg","1","1","1","1","0","1","0.456140499969479","0.503271499997936","0.373755300010089","1","1","1","1","1","1","1","1","1"
"260016","img/object_images/toaster01.jpg","img/object_images/water_scooter01.jpg","img/object_images/perfume02.jpg","1","1","1","1","1","0","0.373755300010089","0.456140499969479","0.433744499983732","1","1","1","1","1","1","1","1","1"
"260016","img/object_images/perfume02.jpg","img/object_images/toaster01.jpg","img/object_images/cellphone03.jpg","1","1","1","0","1","0","0.433744499983732","0.373755300010089","0.595327300019562","1","1","1","1","1","1","1","1","1"
"260016","img/object_images/cellphone03.jpg","img/object_images/perfume02.jpg","img/object_images/piggy_bank01.jpg","1","1","1","0","0","1","0.595327300019562","0.433744499983732","0.374305100005586","1","1","1","1","1","1","1","1","1"
"260016","img/object_images/piggy_bank01.jpg","img/object_images/cellphone03.jpg","img/object_images/toilet_paper_dispenser01.jpg","1","1","1","1","0","1","0.374305100005586","0.595327300019562","0.402332500030752","1","1","1","1","1","1","1","1","1"
"260016","img/object_images/toilet_paper_dispenser01.jpg","img/object_images/piggy_bank01.jpg","img/object_images/tie02.jpg","1","1","1","1","1","0","0.402332500030752","0.374305100005586","0.39029260003008","1","1","1","1","1","1","1","1","1"
"260016","img/object_images/tie02.jpg","img/object_images/toilet_paper_dispenser01.jpg","img/object_images/camera_lens01.jpg","1","1","1","0","1","1","0.39029260003008","0.402332500030752","0.615217499958817","1","1","1","1","1","1","1","1","1"
"260016","img/object_images/camera_lens01.jpg","img/object_images/tie02.jpg","img/object_images/helmet04.jpg","1","1","1","1","0","1","0.615217499958817","0.39029260003008","0.4721744999988","1","1","1","1","1","1","1","1","1"
"260016","img/object_images/helmet04.jpg","img/object_images/camera_lens01.jpg","img/object_images/hot_air_balloon02.jpg","1","1","1","1","1","0","0.4721744999988","0.615217499958817","0.456853199983016","1","1","1","1","1","1","1","1","1"
"260016","img/object_images/hot_air_balloon02.jpg","img/object_images/helmet04.jpg","img/object_images/boat02.jpg","1","1","1","0","1","1","0.456853199983016","0.4721744999988","0.373017299978528","1","1","1","1","1","1","1","1","1"
"260016","img/object_images/boat02.jpg","img/object_images/hot_air_balloon02.jpg","img/object_images/bicycle01.jpg","1","1","1","1","0","1","0.373017299978528","0.456853199983016","0.338383900059853","1","1","1","1","1","1","1","1","1"
"260016","img/object_images/bicycle01.jpg","img/object_images/boat02.jpg","img/object_images/boat_toy10.jpg","1","1","1","1","1","0","0.338383900059853","0.373017299978528","0.465167599963024","1","1","1","1","1","1","1","1","1"
"260016","img/object_images/boat_toy10.jpg","img/object_images/bicycle01.jpg","img/object_images/bean_bag02.jpg","1","1","1","0","1","1","0.465167599963024","0.338383900059853","0.463195900025312","1","1","1","1","1","1","1","1","1"
"260016","img/object_images/bean_bag02.jpg","img/object_images/boat_toy10.jpg","img/object_images/scoreboard01.jpg","1","1","1","1","0","1","0.463195900025312","0.465167599963024","0.425340900023002","1","1","1","1","1","1","1","1","1"
"260016","img/object_images/scoreboard01.jpg","img/object_images/bean_bag02.jpg","img/object_images/tool19.jpg","1","1","1","1","1","1","0.425340900023002","0.463195900025312","0.382965700002387","1","1","1","1","1","1","1","1","1"
"260016","img/object_images/tool19.jpg","img/object_images/scoreboard01.jpg","img/object_images/bottle10.jpg","1","1","1","1","1","1","0.382965700002387","0.425340900023002","0.573896099987905","1","1","1","1","1","1","1","1","1"
"260016","img/object_images/bottle10.jpg","img/object_images/tool19.jpg","img/object_images/wagon_cart03.jpg","1","1","1","1","1","1","0.573896099987905","0.382965700002387","0.491953299962915","1","1","1","1","1","1","1","1","1"
"260016","img/object_images/wagon_cart03.jpg","img/object_images/bottle10.jpg","img/object_images/flask01.jpg","1","1","1","1","1","0","0.491953299962915","0.573896099987905","0.456957200018223","1","1","1","1","1","1","1","1","1"
"260016","img/object_images/flask01.jpg","img/object_images/wagon_cart03.jpg","img/object_images/knit01.jpg","1","1","1","0","1","0","0.456957200018223","0.491953299962915","0.395117199979722","1","1","1","1","1","1","1","1","1"
"260016","img/object_images/knit01.jpg","img/object_images/flask01.jpg","img/object_images/bottle02.jpg","1","1","1","0","0","1","0.395117199979722","0.456957200018223","0.374584299977869","1","1","1","1","1","1","1","1","1"
"260016","img/object_images/bottle02.jpg","img/object_images/knit01.jpg",NA,"1","1",NA,"1","0",NA,"0.374584299977869","0.395117199979722",NA,"1","1",NA,"1","1",NA,"1","1",NA
"260016","img/object_images/backpack03.jpg",NA,"img/object_images/trash_can05.jpg","1",NA,"1","1",NA,"1","0.32003630005056",NA,"0.417707499989774","1",NA,"1","1",NA,"1","1",NA,"1"
"260016","img/object_images/trash_can05.jpg","img/object_images/backpack03.jpg","img/object_images/chair02.jpg","1","1","1","1","1","1","0.417707499989774","0.32003630005056","0.41327530000126","1","1","1","1","1","1","1","1","1"
"260016","img/object_images/chair02.jpg","img/object_images/trash_can05.jpg","img/object_images/surf_board01.jpg","1","1","1","1","1","1","0.41327530000126","0.417707499989774","0.376199999998789","1","1","1","1","1","1","1","1","1"
"260016","img/object_images/surf_board01.jpg","img/object_images/chair02.jpg","img/object_images/Lint_Roller02.jpg","1","1","0","1","1","0","0.376199999998789","0.41327530000126","0.315105999994557","1","1","1","1","1","1","1","1","1"
"260016","img/object_images/Lint_Roller02.jpg","img/object_images/surf_board01.jpg","img/object_images/bucket02.jpg","0","1","1","0","1","1","0.315105999994557","0.376199999998789","0.378403400012758","1","1","1","1","1","1","1","1","1"
"260016","img/object_images/bucket02.jpg","img/object_images/Lint_Roller02.jpg","img/object_images/chess_piece01.jpg","1","0","1","1","0","0","0.378403400012758","0.315105999994557","0.474596899992321","1","1","1","1","1","1","1","1","1"
"260016","img/object_images/chess_piece01.jpg","img/object_images/bucket02.jpg","img/object_images/hair_dryer01.jpg","1","1","1","0","1","0","0.474596899992321","0.378403400012758","0.405209099990316","1","1","1","1","1","1","1","1","1"
"260016","img/object_images/hair_dryer01.jpg","img/object_images/chess_piece01.jpg","img/object_images/microphone03.jpg","1","1","1","0","0","1","0.405209099990316","0.474596899992321","0.423095799982548","1","1","1","1","1","1","1","1","1"
"260016","img/object_images/microphone03.jpg","img/object_images/hair_dryer01.jpg","img/object_images/helmet02.jpg","1","1","1","1","0","0","0.423095799982548","0.405209099990316","0.486934199987445","1","1","1","1","1","1","1","1","1"
"260016","img/object_images/helmet02.jpg","img/object_images/microphone03.jpg","img/object_images/combs01.jpg","1","1","1","0","1","1","0.486934199987445","0.423095799982548","0.379724900005385","1","1","1","1","1","1","1","1","1"
"260016","img/object_images/combs01.jpg","img/object_images/helmet02.jpg","img/object_images/umbrella01.jpg","1","1","1","1","0","0","0.379724900005385","0.486934199987445","0.530180000001565","1","1","1","1","1","1","1","1","1"
"260016","img/object_images/umbrella01.jpg","img/object_images/combs01.jpg","img/object_images/hair_brush02.jpg","1","1","1","0","1","0","0.530180000001565","0.379724900005385","0.484211899980437","1","1","1","1","1","1","1","1","1"
"260016","img/object_images/hair_brush02.jpg","img/object_images/umbrella01.jpg","img/object_images/pitcher05.jpg","1","1","1","0","0","0","0.484211899980437","0.530180000001565","0.454190100019332","1","1","1","1","1","1","1","1","1"
"260016","img/object_images/pitcher05.jpg","img/object_images/hair_brush02.jpg","img/object_images/Vest02.jpg","1","1","1","0","0","0","0.454190100019332","0.484211899980437","0.565447400033008","1","1","1","1","1","1","1","1","1"
"260016","img/object_images/Vest02.jpg","img/object_images/pitcher05.jpg","img/object_images/gift_box05.jpg","1","1","1","0","0","0","0.565447400033008","0.454190100019332","0.440598400018644","1","1","1","1","1","1","1","1","1"
"260016","img/object_images/gift_box05.jpg","img/object_images/Vest02.jpg","img/object_images/trash_can03.jpg","1","1","1","0","0","1","0.440598400018644","0.565447400033008","0.420151399972383","1","1","1","1","1","1","1","1","1"
"260016","img/object_images/trash_can03.jpg","img/object_images/gift_box05.jpg","img/object_images/laptop03.jpg","1","1","1","1","0","1","0.420151399972383","0.440598400018644","0.399956200039014","1","1","1","1","1","1","1","1","1"
"260016","img/object_images/laptop03.jpg","img/object_images/trash_can03.jpg","img/object_images/shoes08.jpg","1","1","1","1","1","1","0.399956200039014","0.420151399972383","0.433435300015844","1","1","1","1","1","1","1","1","1"
"260016","img/object_images/shoes08.jpg","img/object_images/laptop03.jpg","img/object_images/toy05.jpg","1","1","0","1","1","0","0.433435300015844","0.399956200039014","0.355781099991873","1","1","1","1","1","1","1","1","1"
"260016","img/object_images/toy05.jpg","img/object_images/shoes08.jpg","img/object_images/accardion01.jpg","0","1","1","0","1","1","0.355781099991873","0.433435300015844","0.43937720003305","1","1","1","1","1","1","1","1","1"
"260016","img/object_images/accardion01.jpg","img/object_images/toy05.jpg","img/object_images/jewel03.jpg","1","0","1","1","0","1","0.43937720003305","0.355781099991873","0.383124399988446","1","1","1","1","1","1","1","1","1"
"260016","img/object_images/jewel03.jpg","img/object_images/accardion01.jpg","img/object_images/ball02.jpg","1","1","1","1","1","1","0.383124399988446","0.43937720003305","0.37722979998216","1","1","1","1","1","1","1","1","1"
"260016","img/object_images/ball02.jpg","img/object_images/jewel03.jpg","img/object_images/robe01.jpg","1","1","1","1","1","1","0.37722979998216","0.383124399988446","0.390947200008668","1","1","1","1","1","1","1","1","1"
"260016","img/object_images/robe01.jpg","img/object_images/ball02.jpg","img/object_images/calculator01.jpg","1","1","1","1","1","1","0.390947200008668","0.37722979998216","0.412704600021243","1","1","1","1","1","1","1","1","1"
"260016","img/object_images/calculator01.jpg","img/object_images/robe01.jpg","img/object_images/towels01.jpg","1","1","1","1","1","0","0.412704600021243","0.390947200008668","0.50495360000059","1","1","1","1","1","1","1","1","1"
"260016","img/object_images/towels01.jpg","img/object_images/calculator01.jpg","img/object_images/vase01.jpg","1","1","0","0","1","0","0.50495360000059","0.412704600021243","0.459505099977832","1","1","1","1","1","1","1","1","2"
"260016","img/object_images/vase01.jpg","img/object_images/towels01.jpg","img/object_images/fan04.jpg","0","1","1","0","0","0","0.459505099977832","0.50495360000059","0.464844200003427","1","1","1","1","1","1","2","1","1"
"260016","img/object_images/fan04.jpg","img/object_images/vase01.jpg","img/object_images/stove01.jpg","1","0","1","0","0","0","0.464844200003427","0.459505099977832","0.674026000022423","1","1","1","1","1","1","1","2","1"
"260016","img/object_images/stove01.jpg","img/object_images/fan04.jpg","img/object_images/spatula02.jpg","1","1","1","0","0","1","0.674026000022423","0.464844200003427","0.4144004000118","1","1","1","1","1","1","1","1","1"
"260016","img/object_images/spatula02.jpg","img/object_images/stove01.jpg","img/object_images/laptop01.jpg","1","1","1","1","0","0","0.4144004000118","0.674026000022423","0.480398199986666","1","1","1","1","1","1","1","1","1"
"260016","img/object_images/laptop01.jpg","img/object_images/spatula02.jpg","img/object_images/lock01.jpg","1","1","1","0","1","0","0.480398199986666","0.4144004000118","0.505151199991815","1","1","1","1","1","1","1","1","1"
"260016","img/object_images/lock01.jpg","img/object_images/laptop01.jpg",NA,"1","1",NA,"0","0",NA,"0.505151199991815","0.480398199986666",NA,"1","1",NA,"1","1",NA,"1","1",NA
"260016","img/object_images/bottle01.jpg",NA,"img/object_images/pillows01.jpg","1",NA,"1","0",NA,"1","0.452467299997807",NA,"0.450682300026528","1",NA,"1","1",NA,"1","1",NA,"1"
"260016","img/object_images/pillows01.jpg","img/object_images/bottle01.jpg","img/object_images/lid01.jpg","1","1","1","1","0","1","0.450682300026528","0.452467299997807","0.403526399983093","1","1","1","1","1","1","1","1","1"
"260016","img/object_images/lid01.jpg","img/object_images/pillows01.jpg","img/object_images/knit05.jpg","1","1","1","1","1","1","0.403526399983093","0.450682300026528","0.409304200031329","1","1","1","1","1","1","1","1","1"
"260016","img/object_images/knit05.jpg","img/object_images/lid01.jpg","img/object_images/floppy_disk02.jpg","1","1","1","1","1","0","0.409304200031329","0.403526399983093","0.554468400019687","1","1","1","1","1","1","1","1","1"
"260016","img/object_images/floppy_disk02.jpg","img/object_images/knit05.jpg","img/object_images/floppy_disk03.jpg","1","1","1","0","1","1","0.554468400019687","0.409304200031329","0.476021700014826","1","1","1","1","1","1","1","1","1"
"260016","img/object_images/floppy_disk03.jpg","img/object_images/floppy_disk02.jpg","img/object_images/ear_bud01.jpg","1","1","1","1","0","1","0.476021700014826","0.554468400019687","0.416955200023949","1","1","1","1","1","1","1","1","1"
"260016","img/object_images/ear_bud01.jpg","img/object_images/floppy_disk03.jpg","img/object_images/pen03.jpg","1","1","1","1","1","0","0.416955200023949","0.476021700014826","0.365210800024215","1","1","1","1","1","1","1","1","1"
"260016","img/object_images/pen03.jpg","img/object_images/ear_bud01.jpg","img/object_images/knife04.jpg","1","1","1","0","1","1","0.365210800024215","0.416955200023949","0.42989910003962","1","1","1","1","1","1","1","1","1"
"260016","img/object_images/knife04.jpg","img/object_images/pen03.jpg","img/object_images/Staples01.jpg","1","1","1","1","0","1","0.42989910003962","0.365210800024215","0.418985900003463","1","1","1","1","1","1","1","1","1"
"260016","img/object_images/Staples01.jpg","img/object_images/knife04.jpg","img/object_images/clip03.jpg","1","1","1","1","1","0","0.418985900003463","0.42989910003962","0.589129500032868","1","1","1","1","1","1","1","1","1"
"260016","img/object_images/clip03.jpg","img/object_images/Staples01.jpg","img/object_images/cellphone01.jpg","1","1","1","0","1","1","0.589129500032868","0.418985900003463","0.482109700038563","1","1","1","1","1","1","1","1","1"
"260016","img/object_images/cellphone01.jpg","img/object_images/clip03.jpg","img/object_images/book03.jpg","1","1","1","1","0","1","0.482109700038563","0.589129500032868","0.408400500018615","1","1","1","1","1","1","1","1","1"
"260016","img/object_images/book03.jpg","img/object_images/cellphone01.jpg","img/object_images/bell02.jpg","1","1","1","1","1","0","0.408400500018615","0.482109700038563","0.463224400009494","1","1","1","1","1","1","1","1","1"
"260016","img/object_images/bell02.jpg","img/object_images/book03.jpg","img/object_images/pitcher01.jpg","1","1","1","0","1","0","0.463224400009494","0.408400500018615","0.405540100007784","1","1","1","1","1","1","1","1","1"
"260016","img/object_images/pitcher01.jpg","img/object_images/bell02.jpg","img/object_images/hammer03.jpg","1","1","1","0","0","1","0.405540100007784","0.463224400009494","0.410791100002825","1","1","1","1","1","1","1","1","1"
"260016","img/object_images/hammer03.jpg","img/object_images/pitcher01.jpg","img/object_images/chair05.jpg","1","1","1","1","0","0","0.410791100002825","0.405540100007784","0.431302000011783","1","1","1","1","1","1","1","1","1"
"260016","img/object_images/chair05.jpg","img/object_images/hammer03.jpg","img/object_images/compass01.jpg","1","1","1","0","1","1","0.431302000011783","0.410791100002825","0.408641899994109","1","1","1","1","1","1","1","1","1"
"260016","img/object_images/compass01.jpg","img/object_images/chair05.jpg","img/object_images/wire02.jpg","1","1","1","1","0","1","0.408641899994109","0.431302000011783","0.430270100012422","1","1","1","1","1","1","1","1","1"
"260016","img/object_images/wire02.jpg","img/object_images/compass01.jpg","img/object_images/usb02.jpg","1","1","1","1","1","0","0.430270100012422","0.408641899994109","0.440819900017232","1","1","1","1","1","1","1","1","1"
"260016","img/object_images/usb02.jpg","img/object_images/wire02.jpg","img/object_images/tv02.jpg","1","1","0","0","1","0","0.440819900017232","0.430270100012422","0.470674699987285","1","1","1","1","1","1","1","1","1"
"260016","img/object_images/tv02.jpg","img/object_images/usb02.jpg","img/object_images/motorcycle01.jpg","0","1","1","0","0","1","0.470674699987285","0.440819900017232","0.500513599952683","1","1","1","1","1","1","1","1","1"
"260016","img/object_images/motorcycle01.jpg","img/object_images/tv02.jpg","img/object_images/paint_brush04.jpg","1","0","1","1","0","0","0.500513599952683","0.470674699987285","0.457197000039741","1","1","1","1","1","1","1","1","1"
"260016","img/object_images/paint_brush04.jpg","img/object_images/motorcycle01.jpg","img/object_images/note_book01.jpg","1","1","1","0","1","0","0.457197000039741","0.500513599952683","0.426982500008307","1","1","1","1","1","1","1","1","1"
"260016","img/object_images/note_book01.jpg","img/object_images/paint_brush04.jpg","img/object_images/crutches02.jpg","1","1","1","0","0","0","0.426982500008307","0.457197000039741","0.521024100016803","1","1","1","1","1","1","1","1","1"
"260016","img/object_images/crutches02.jpg","img/object_images/note_book01.jpg","img/object_images/retainer01.jpg","1","1","1","0","0","0","0.521024100016803","0.426982500008307","0.527279300033115","1","1","1","1","1","1","1","1","1"
"260016","img/object_images/retainer01.jpg","img/object_images/crutches02.jpg","img/object_images/Thermometer01.jpg","1","1","1","0","0","0","0.527279300033115","0.521024100016803","0.441990000021178","1","1","1","1","1","1","1","1","1"
"260016","img/object_images/Thermometer01.jpg","img/object_images/retainer01.jpg","img/object_images/chess_piece02.jpg","1","1","1","0","0","1","0.441990000021178","0.527279300033115","0.496642100042664","1","1","1","1","1","1","1","1","1"
"260016","img/object_images/chess_piece02.jpg","img/object_images/Thermometer01.jpg","img/object_images/clock02.jpg","1","1","1","1","0","0","0.496642100042664","0.441990000021178","0.455900600005407","1","1","1","1","1","1","1","1","1"
"260016","img/object_images/clock02.jpg","img/object_images/chess_piece02.jpg","img/object_images/microscope01.jpg","1","1","1","0","1","0","0.455900600005407","0.496642100042664","0.593850200006273","1","1","1","1","1","1","1","1","1"
"260016","img/object_images/microscope01.jpg","img/object_images/clock02.jpg","img/object_images/tennis_racket02.jpg","1","1","1","0","0","1","0.593850200006273","0.455900600005407","0.413827800017316","1","1","1","1","1","1","1","1","1"
"260016","img/object_images/tennis_racket02.jpg","img/object_images/microscope01.jpg","img/object_images/Oven01.jpg","1","1","1","1","0","1","0.413827800017316","0.593850200006273","0.468458799994551","1","1","1","1","1","1","1","1","1"
"260016","img/object_images/Oven01.jpg","img/object_images/tennis_racket02.jpg",NA,"1","1",NA,"1","1",NA,"0.468458799994551","0.413827800017316",NA,"1","1",NA,"1","1",NA,"1","1",NA
"260016","img/object_images/toilet_paper01.jpg",NA,"img/object_images/Wisk01.jpg","1",NA,"1","1",NA,"1","0.417254399973899",NA,"0.366694899974391","1",NA,"1","1",NA,"1","1",NA,"1"
"260016","img/object_images/Wisk01.jpg","img/object_images/toilet_paper01.jpg","img/object_images/airfryer01.jpg","1","1","1","1","1","0","0.366694899974391","0.417254399973899","0.433806999993976","1","1","1","1","1","1","1","1","1"
"260016","img/object_images/airfryer01.jpg","img/object_images/Wisk01.jpg","img/object_images/razor03.jpg","1","1","1","0","1","0","0.433806999993976","0.366694899974391","0.351331300043967","1","1","1","1","1","1","1","1","1"
"260016","img/object_images/razor03.jpg","img/object_images/airfryer01.jpg","img/object_images/car02.jpg","1","1","1","0","0","0","0.351331300043967","0.433806999993976","0.38581929996144","1","1","1","1","1","1","1","1","1"
"260016","img/object_images/car02.jpg","img/object_images/razor03.jpg","img/object_images/helmet05.jpg","1","1","1","0","0","1","0.38581929996144","0.351331300043967","0.330224999983329","1","1","1","1","1","1","1","1","1"
"260016","img/object_images/helmet05.jpg","img/object_images/car02.jpg","img/object_images/container01.jpg","1","1","1","1","0","0","0.330224999983329","0.38581929996144","0.469715099956375","1","1","1","1","1","1","1","1","1"
"260016","img/object_images/container01.jpg","img/object_images/helmet05.jpg","img/object_images/decorative02.jpg","1","1","1","0","1","0","0.469715099956375","0.330224999983329","0.361009299987927","1","1","1","1","1","1","1","1","1"
"260016","img/object_images/decorative02.jpg","img/object_images/container01.jpg","img/object_images/Recycling01.jpg","1","1","1","0","0","1","0.361009299987927","0.469715099956375","0.443662400008179","1","1","1","1","1","1","1","1","1"
"260016","img/object_images/Recycling01.jpg","img/object_images/decorative02.jpg","img/object_images/Woopie01.jpg","1","1","1","1","0","1","0.443662400008179","0.361009299987927","0.395742899971083","1","1","1","1","1","1","1","1","1"
"260016","img/object_images/Woopie01.jpg","img/object_images/Recycling01.jpg","img/object_images/hat02.jpg","1","1","1","1","1","0","0.395742899971083","0.443662400008179","0.426597300043795","1","1","1","1","1","1","1","1","1"
"260016","img/object_images/hat02.jpg","img/object_images/Woopie01.jpg","img/object_images/pitcher03.jpg","1","1","1","0","1","1","0.426597300043795","0.395742899971083","0.326906500034966","1","1","1","1","1","1","1","1","1"
"260016","img/object_images/pitcher03.jpg","img/object_images/hat02.jpg","img/object_images/cochlear_implant01.jpg","1","1","1","1","0","0","0.326906500034966","0.426597300043795","0.446264300029725","1","1","1","1","1","1","1","1","1"
"260016","img/object_images/cochlear_implant01.jpg","img/object_images/pitcher03.jpg","img/object_images/tie01.jpg","1","1","0","0","1","0","0.446264300029725","0.326906500034966","0.399642699980177","1","1","1","1","1","1","1","1","2"
"260016","img/object_images/tie01.jpg","img/object_images/cochlear_implant01.jpg","img/object_images/brief_case01.jpg","0","1","1","0","0","0","0.399642699980177","0.446264300029725","0.535735099983867","1","1","1","1","1","1","2","1","1"
"260016","img/object_images/brief_case01.jpg","img/object_images/tie01.jpg","img/object_images/chair01.jpg","1","0","1","0","0","0","0.535735099983867","0.399642699980177","0.490996100008488","1","1","1","1","1","1","1","2","1"
"260016","img/object_images/chair01.jpg","img/object_images/brief_case01.jpg","img/object_images/pot01.jpg","1","1","1","0","0","0","0.490996100008488","0.535735099983867","0.518303900025785","1","1","1","1","1","1","1","1","1"
"260016","img/object_images/pot01.jpg","img/object_images/chair01.jpg","img/object_images/soap01.jpg","1","1","1","0","0","0","0.518303900025785","0.490996100008488","0.499823399994057","1","1","1","1","1","1","1","1","1"
"260016","img/object_images/soap01.jpg","img/object_images/pot01.jpg","img/object_images/ironing_table02.jpg","1","1","1","0","0","0","0.499823399994057","0.518303900025785","0.510102600033861","1","1","1","1","1","1","1","1","1"
"260016","img/object_images/ironing_table02.jpg","img/object_images/soap01.jpg","img/object_images/guitar01.jpg","1","1","1","0","0","1","0.510102600033861","0.499823399994057","0.380280399986077","1","1","1","1","1","1","1","1","1"
"260016","img/object_images/guitar01.jpg","img/object_images/ironing_table02.jpg","img/object_images/toy_train02.jpg","1","1","1","1","0","1","0.380280399986077","0.510102600033861","0.519388500018977","1","1","1","1","1","1","1","1","1"
"260016","img/object_images/toy_train02.jpg","img/object_images/guitar01.jpg","img/object_images/broom01.jpg","1","1","1","1","1","1","0.519388500018977","0.380280399986077","0.470237200031988","1","1","1","1","1","1","1","1","1"
"260016","img/object_images/broom01.jpg","img/object_images/toy_train02.jpg","img/object_images/ball01.jpg","1","1","1","1","1","1","0.470237200031988","0.519388500018977","0.485043600026984","1","1","1","1","1","1","1","1","1"
"260016","img/object_images/ball01.jpg","img/object_images/broom01.jpg","img/object_images/lantern01.jpg","1","1","1","1","1","1","0.485043600026984","0.470237200031988","0.44262929999968","1","1","1","1","1","1","1","1","1"
"260016","img/object_images/lantern01.jpg","img/object_images/ball01.jpg","img/object_images/video_game06.jpg","1","1","1","1","1","0","0.44262929999968","0.485043600026984","0.461928400036413","1","1","1","1","1","1","1","1","1"
"260016","img/object_images/video_game06.jpg","img/object_images/lantern01.jpg","img/object_images/brief_case02.jpg","1","1","1","0","1","1","0.461928400036413","0.44262929999968","0.426570699957665","1","1","1","1","1","1","1","1","1"
"260016","img/object_images/brief_case02.jpg","img/object_images/video_game06.jpg","img/object_images/couch04.jpg","1","1","1","1","0","1","0.426570699957665","0.461928400036413","0.452387300028931","1","1","1","1","1","1","1","1","1"
"260016","img/object_images/couch04.jpg","img/object_images/brief_case02.jpg","img/object_images/basketball_hoop02.jpg","1","1","1","1","1","0","0.452387300028931","0.426570699957665","0.38896479998948","1","1","1","1","1","1","1","1","1"
"260016","img/object_images/basketball_hoop02.jpg","img/object_images/couch04.jpg","img/object_images/drone02.jpg","1","1","1","0","1","0","0.38896479998948","0.452387300028931","0.385460900026374","1","1","1","1","1","1","1","1","1"
"260016","img/object_images/drone02.jpg","img/object_images/basketball_hoop02.jpg","img/object_images/bottle12.jpg","1","1","1","0","0","1","0.385460900026374","0.38896479998948","0.404372800025158","1","1","1","1","1","1","1","1","1"
"260016","img/object_images/bottle12.jpg","img/object_images/drone02.jpg","img/object_images/gloves05.jpg","1","1","1","1","0","1","0.404372800025158","0.385460900026374","0.367698399990331","1","1","1","1","1","1","1","1","1"
"260016","img/object_images/gloves05.jpg","img/object_images/bottle12.jpg","img/object_images/lamp01.jpg","1","1","1","1","1","1","0.367698399990331","0.404372800025158","0.413326399982907","1","1","1","1","1","1","1","1","1"
"260016","img/object_images/lamp01.jpg","img/object_images/gloves05.jpg",NA,"1","1",NA,"1","1",NA,"0.413326399982907","0.367698399990331",NA,"1","1",NA,"1","1",NA,"1","1",NA
