"participant_id","current_trial_object","pre_trial_object","post_trial_object","current_trial_accuracy","pre_trial_accuracy","post_trial_accuracy","current_trial_congruency","pre_trial_congruency","post_trial_congruency","current_trial_rt","pre_trial_rt","post_trial_rt","current_trial_responded","pre_trial_responded","post_trial_responded","current_trial_legitResponse","pre_trial_legitResponse","post_trial_legitResponse","current_trial_resp_nums","pre_trial_resp_nums","post_trial_resp_nums"
"260054","img/object_images/container01.jpg",NA,"img/object_images/pot01.jpg","1",NA,"1","0",NA,"0","0.519637400022475",NA,"0.505739100015489","1",NA,"1","1",NA,"1","1",NA,"1"
"260054","img/object_images/pot01.jpg","img/object_images/container01.jpg","img/object_images/lamp01.jpg","1","1","1","0","0","1","0.505739100015489","0.519637400022475","0.449021999986144","1","1","1","1","1","1","1","1","1"
"260054","img/object_images/lamp01.jpg","img/object_images/pot01.jpg","img/object_images/soap01.jpg","1","1","1","1","0","0","0.449021999986144","0.505739100015489","0.483533200022066","1","1","1","1","1","1","1","1","1"
"260054","img/object_images/soap01.jpg","img/object_images/lamp01.jpg","img/object_images/chair01.jpg","1","1","1","0","1","0","0.483533200022066","0.449021999986144","0.412043299991638","1","1","1","1","1","1","1","1","1"
"260054","img/object_images/chair01.jpg","img/object_images/soap01.jpg","img/object_images/video_game06.jpg","1","1","1","0","0","0","0.412043299991638","0.483533200022066","0.417147600004682","1","1","1","1","1","1","1","1","1"
"260054","img/object_images/video_game06.jpg","img/object_images/chair01.jpg","img/object_images/couch04.jpg","1","1","1","0","0","1","0.417147600004682","0.412043299991638","0.379474199988181","1","1","1","1","1","1","1","1","1"
"260054","img/object_images/couch04.jpg","img/object_images/video_game06.jpg","img/object_images/drone02.jpg","1","1","1","1","0","0","0.379474199988181","0.417147600004682","0.448043800017331","1","1","1","1","1","1","1","1","1"
"260054","img/object_images/drone02.jpg","img/object_images/couch04.jpg","img/object_images/helmet05.jpg","1","1","1","0","1","1","0.448043800017331","0.379474199988181","0.404765299987048","1","1","1","1","1","1","1","1","1"
"260054","img/object_images/helmet05.jpg","img/object_images/drone02.jpg","img/object_images/gloves05.jpg","1","1","1","1","0","1","0.404765299987048","0.448043800017331","0.32517419999931","1","1","1","1","1","1","1","1","1"
"260054","img/object_images/gloves05.jpg","img/object_images/helmet05.jpg","img/object_images/broom01.jpg","1","1","1","1","1","1","0.32517419999931","0.404765299987048","0.380053000000771","1","1","1","1","1","1","1","1","1"
"260054","img/object_images/broom01.jpg","img/object_images/gloves05.jpg","img/object_images/basketball_hoop02.jpg","1","1","1","1","1","0","0.380053000000771","0.32517419999931","0.396009000018239","1","1","1","1","1","1","1","1","1"
"260054","img/object_images/basketball_hoop02.jpg","img/object_images/broom01.jpg","img/object_images/hat02.jpg","1","1","1","0","1","0","0.396009000018239","0.380053000000771","0.40254820001428","1","1","1","1","1","1","1","1","1"
"260054","img/object_images/hat02.jpg","img/object_images/basketball_hoop02.jpg","img/object_images/Recycling01.jpg","1","1","1","0","0","1","0.40254820001428","0.396009000018239","0.399260000005597","1","1","1","1","1","1","1","1","1"
"260054","img/object_images/Recycling01.jpg","img/object_images/hat02.jpg","img/object_images/ironing_table02.jpg","1","1","0","1","0","0","0.399260000005597","0.40254820001428","0.401200800028164","1","1","1","1","1","1","1","1","1"
"260054","img/object_images/ironing_table02.jpg","img/object_images/Recycling01.jpg","img/object_images/brief_case02.jpg","0","1","1","0","1","1","0.401200800028164","0.399260000005597","0.406927700008964","1","1","1","1","1","1","1","1","1"
"260054","img/object_images/brief_case02.jpg","img/object_images/ironing_table02.jpg","img/object_images/Woopie01.jpg","1","0","1","1","0","1","0.406927700008964","0.401200800028164","0.516903299983824","1","1","1","1","1","1","1","1","1"
"260054","img/object_images/Woopie01.jpg","img/object_images/brief_case02.jpg","img/object_images/guitar01.jpg","1","1","1","1","1","1","0.516903299983824","0.406927700008964","0.476082300010603","1","1","1","1","1","1","1","1","1"
"260054","img/object_images/guitar01.jpg","img/object_images/Woopie01.jpg","img/object_images/razor03.jpg","1","1","0","1","1","0","0.476082300010603","0.516903299983824","0.518063800001983","1","1","1","1","1","1","1","1","1"
"260054","img/object_images/razor03.jpg","img/object_images/guitar01.jpg","img/object_images/pitcher03.jpg","0","1","1","0","1","1","0.518063800001983","0.476082300010603","0.458844399981899","1","1","1","1","1","1","1","1","1"
"260054","img/object_images/pitcher03.jpg","img/object_images/razor03.jpg","img/object_images/brief_case01.jpg","1","0","1","1","0","0","0.458844399981899","0.518063800001983","0.459297599998536","1","1","1","1","1","1","1","1","1"
"260054","img/object_images/brief_case01.jpg","img/object_images/pitcher03.jpg","img/object_images/lantern01.jpg","1","1","1","0","1","1","0.459297599998536","0.458844399981899","0.39521099999547","1","1","1","1","1","1","1","1","1"
"260054","img/object_images/lantern01.jpg","img/object_images/brief_case01.jpg","img/object_images/airfryer01.jpg","1","1","1","1","0","0","0.39521099999547","0.459297599998536","0.487284600007115","1","1","1","1","1","1","1","1","1"
"260054","img/object_images/airfryer01.jpg","img/object_images/lantern01.jpg","img/object_images/tie01.jpg","1","1","1","0","1","0","0.487284600007115","0.39521099999547","0.539112700003898","1","1","1","1","1","1","1","1","1"
"260054","img/object_images/tie01.jpg","img/object_images/airfryer01.jpg","img/object_images/decorative02.jpg","1","1","1","0","0","0","0.539112700003898","0.487284600007115","0.555210699996678","1","1","1","1","1","1","1","1","1"
"260054","img/object_images/decorative02.jpg","img/object_images/tie01.jpg","img/object_images/cochlear_implant01.jpg","1","1","1","0","0","0","0.555210699996678","0.539112700003898","0.450830699992366","1","1","1","1","1","1","1","1","1"
"260054","img/object_images/cochlear_implant01.jpg","img/object_images/decorative02.jpg","img/object_images/bottle12.jpg","1","1","1","0","0","1","0.450830699992366","0.555210699996678","0.40001770001254","1","1","1","1","1","1","1","1","1"
"260054","img/object_images/bottle12.jpg","img/object_images/cochlear_implant01.jpg","img/object_images/car02.jpg","1","1","0","1","0","0","0.40001770001254","0.450830699992366","0.460458000015933","1","1","1","1","1","1","1","1","1"
"260054","img/object_images/car02.jpg","img/object_images/bottle12.jpg","img/object_images/toilet_paper01.jpg","0","1","1","0","1","1","0.460458000015933","0.40001770001254","0.467492900002981","1","1","1","1","1","1","1","1","1"
"260054","img/object_images/toilet_paper01.jpg","img/object_images/car02.jpg","img/object_images/ball01.jpg","1","0","1","1","0","1","0.467492900002981","0.460458000015933","0.38286220000009","1","1","1","1","1","1","1","1","1"
"260054","img/object_images/ball01.jpg","img/object_images/toilet_paper01.jpg","img/object_images/toy_train02.jpg","1","1","1","1","1","1","0.38286220000009","0.467492900002981","0.392077299999073","1","1","1","1","1","1","1","1","1"
"260054","img/object_images/toy_train02.jpg","img/object_images/ball01.jpg","img/object_images/Wisk01.jpg","1","1","1","1","1","1","0.392077299999073","0.38286220000009","0.295134599989979","1","1","1","1","1","1","1","1","1"
"260054","img/object_images/Wisk01.jpg","img/object_images/toy_train02.jpg",NA,"1","1",NA,"1","1",NA,"0.295134599989979","0.392077299999073",NA,"1","1",NA,"1","1",NA,"1","1",NA
"260054","img/object_images/shovel03.jpg",NA,"img/object_images/dart01.jpg","1",NA,"1","1",NA,"0","0.304919799993513",NA,"0.38463449999108","1",NA,"1","1",NA,"1","1",NA,"1"
"260054","img/object_images/dart01.jpg","img/object_images/shovel03.jpg","img/object_images/tool09.jpg","1","1","1","0","1","1","0.38463449999108","0.304919799993513","0.366682399995625","1","1","1","1","1","1","1","1","1"
"260054","img/object_images/tool09.jpg","img/object_images/dart01.jpg","img/object_images/outlet01.jpg","1","1","0","1","0","0","0.366682399995625","0.38463449999108","0.302549299987732","1","1","1","1","1","1","1","1","1"
"260054","img/object_images/outlet01.jpg","img/object_images/tool09.jpg","img/object_images/Ring02.jpg","0","1","1","0","1","0","0.302549299987732","0.366682399995625","0.430364700005157","1","1","1","1","1","1","1","1","1"
"260054","img/object_images/Ring02.jpg","img/object_images/outlet01.jpg","img/object_images/gauze01.jpg","1","0","1","0","0","0","0.430364700005157","0.302549299987732","0.37077280000085","1","1","1","1","1","1","1","1","1"
"260054","img/object_images/gauze01.jpg","img/object_images/Ring02.jpg","img/object_images/ornament01.jpg","1","1","0","0","0","1","0.37077280000085","0.430364700005157","0.333685399993556","1","1","1","1","1","1","1","1","1"
"260054","img/object_images/ornament01.jpg","img/object_images/gauze01.jpg","img/object_images/MetalWire01.jpg","0","1","1","1","0","0","0.333685399993556","0.37077280000085","0.50980579998577","1","1","1","1","1","1","1","1","1"
"260054","img/object_images/MetalWire01.jpg","img/object_images/ornament01.jpg","img/object_images/bow01.jpg","1","0","1","0","1","1","0.50980579998577","0.333685399993556","0.341930499998853","1","1","1","1","1","1","1","1","1"
"260054","img/object_images/bow01.jpg","img/object_images/MetalWire01.jpg","img/object_images/tool02.jpg","1","1","1","1","0","1","0.341930499998853","0.50980579998577","0.415440199984005","1","1","1","1","1","1","1","1","1"
"260054","img/object_images/tool02.jpg","img/object_images/bow01.jpg","img/object_images/crown02.jpg","1","1","1","1","1","1","0.415440199984005","0.341930499998853","0.429517100012163","1","1","1","1","1","1","1","1","1"
"260054","img/object_images/crown02.jpg","img/object_images/tool02.jpg","img/object_images/toy03.jpg","1","1","1","1","1","1","0.429517100012163","0.415440199984005","0.518592900014482","1","1","1","1","1","1","1","1","1"
"260054","img/object_images/toy03.jpg","img/object_images/crown02.jpg","img/object_images/bird_house02.jpg","1","1","1","1","1","1","0.518592900014482","0.429517100012163","0.430029400013154","1","1","1","1","1","1","1","1","1"
"260054","img/object_images/bird_house02.jpg","img/object_images/toy03.jpg","img/object_images/acoustic_capo01.jpg","1","1","1","1","1","1","0.430029400013154","0.518592900014482","0.438967499998398","1","1","1","1","1","1","1","1","1"
"260054","img/object_images/acoustic_capo01.jpg","img/object_images/bird_house02.jpg","img/object_images/bottle05.jpg","1","1","1","1","1","0","0.438967499998398","0.430029400013154","0.385506499995245","1","1","1","1","1","1","1","1","1"
"260054","img/object_images/bottle05.jpg","img/object_images/acoustic_capo01.jpg","img/object_images/fridge03.jpg","1","1","1","0","1","0","0.385506499995245","0.438967499998398","0.38014250001288","1","1","1","1","1","1","1","1","1"
"260054","img/object_images/fridge03.jpg","img/object_images/bottle05.jpg","img/object_images/helmet01.jpg","1","1","1","0","0","0","0.38014250001288","0.385506499995245","0.437512700009393","1","1","1","1","1","1","1","1","1"
"260054","img/object_images/helmet01.jpg","img/object_images/fridge03.jpg","img/object_images/judge_gavel01.jpg","1","1","1","0","0","1","0.437512700009393","0.38014250001288","0.455454800016014","1","1","1","1","1","1","1","1","1"
"260054","img/object_images/judge_gavel01.jpg","img/object_images/helmet01.jpg","img/object_images/mirror01.jpg","1","1","1","1","0","1","0.455454800016014","0.437512700009393","0.449074900010601","1","1","1","1","1","1","1","1","1"
"260054","img/object_images/mirror01.jpg","img/object_images/judge_gavel01.jpg","img/object_images/guitar02.jpg","1","1","1","1","1","0","0.449074900010601","0.455454800016014","0.466126499988604","1","1","1","1","1","1","1","1","1"
"260054","img/object_images/guitar02.jpg","img/object_images/mirror01.jpg","img/object_images/toy04.jpg","1","1","1","0","1","0","0.466126499988604","0.449074900010601","0.861796199984383","1","1","1","1","1","1","1","1","1"
"260054","img/object_images/toy04.jpg","img/object_images/guitar02.jpg","img/object_images/Vacuum01.jpg","1","1","0","0","0","0","0.861796199984383","0.466126499988604","1.5625286999857","1","1","1","1","1","1","1","1","1"
"260054","img/object_images/Vacuum01.jpg","img/object_images/toy04.jpg","img/object_images/video_game07.jpg","0","1","1","0","0","1","1.5625286999857","0.861796199984383","0.416941899980884","1","1","1","1","1","1","1","1","1"
"260054","img/object_images/video_game07.jpg","img/object_images/Vacuum01.jpg","img/object_images/watch01.jpg","1","0","0","1","0","0","0.416941899980884","1.5625286999857","0.359963299997617","1","1","1","1","1","1","1","1","1"
"260054","img/object_images/watch01.jpg","img/object_images/video_game07.jpg","img/object_images/Stool01.jpg","0","1","0","0","1","0","0.359963299997617","0.416941899980884","0.42952940001851","1","1","1","1","1","1","1","1","1"
"260054","img/object_images/Stool01.jpg","img/object_images/watch01.jpg","img/object_images/towel02.jpg","0","0","1","0","0","1","0.42952940001851","0.359963299997617","0.422350199980428","1","1","1","1","1","1","1","1","1"
"260054","img/object_images/towel02.jpg","img/object_images/Stool01.jpg","img/object_images/sink01.jpg","1","0","0","1","0","0","0.422350199980428","0.42952940001851","0.401145200012252","1","1","1","1","1","1","1","1","1"
"260054","img/object_images/sink01.jpg","img/object_images/towel02.jpg","img/object_images/jewel04.jpg","0","1","1","0","1","0","0.401145200012252","0.422350199980428","0.383142400009092","1","1","1","1","1","1","1","1","1"
"260054","img/object_images/jewel04.jpg","img/object_images/sink01.jpg","img/object_images/pot01 (1).jpg","1","0","1","0","0","0","0.383142400009092","0.401145200012252","0.38025389998802","1","1","1","1","1","1","1","1","1"
"260054","img/object_images/pot01 (1).jpg","img/object_images/jewel04.jpg","img/object_images/Tin01.jpg","1","1","1","0","0","1","0.38025389998802","0.383142400009092","0.393284299992956","1","1","1","1","1","1","1","1","1"
"260054","img/object_images/Tin01.jpg","img/object_images/pot01 (1).jpg","img/object_images/frisbee01.jpg","1","1","1","1","0","1","0.393284299992956","0.38025389998802","0.410031099978369","1","1","1","1","1","1","1","1","1"
"260054","img/object_images/frisbee01.jpg","img/object_images/Tin01.jpg","img/object_images/stapler.jpg","1","1","1","1","1","1","0.410031099978369","0.393284299992956","0.381583100010175","1","1","1","1","1","1","1","1","1"
"260054","img/object_images/stapler.jpg","img/object_images/frisbee01.jpg",NA,"1","1",NA,"1","1",NA,"0.381583100010175","0.410031099978369",NA,"1","1",NA,"1","1",NA,"1","1",NA
"260054","img/object_images/gift_box03.jpg",NA,"img/object_images/sleeping_bag01.jpg","1",NA,"1","0",NA,"0","0.439690400002291",NA,"0.424636099982308","1",NA,"1","1",NA,"1","1",NA,"1"
"260054","img/object_images/sleeping_bag01.jpg","img/object_images/gift_box03.jpg","img/object_images/lock04.jpg","1","1","1","0","0","1","0.424636099982308","0.439690400002291","0.412685300019803","1","1","1","1","1","1","1","1","1"
"260054","img/object_images/lock04.jpg","img/object_images/sleeping_bag01.jpg","img/object_images/socks02.jpg","1","1","1","1","0","0","0.412685300019803","0.424636099982308","0.493313899991335","1","1","1","1","1","1","1","1","1"
"260054","img/object_images/socks02.jpg","img/object_images/lock04.jpg","img/object_images/funnel01.jpg","1","1","1","0","1","0","0.493313899991335","0.412685300019803","0.454133199993521","1","1","1","1","1","1","1","1","1"
"260054","img/object_images/funnel01.jpg","img/object_images/socks02.jpg","img/object_images/bath_tub01.jpg","1","1","1","0","0","0","0.454133199993521","0.493313899991335","0.423162999999477","1","1","1","1","1","1","1","1","1"
"260054","img/object_images/bath_tub01.jpg","img/object_images/funnel01.jpg","img/object_images/wallet02.jpg","1","1","1","0","0","1","0.423162999999477","0.454133199993521","0.313148399989586","1","1","1","1","1","1","1","1","1"
"260054","img/object_images/wallet02.jpg","img/object_images/bath_tub01.jpg","img/object_images/hammer01.jpg","1","1","1","1","0","0","0.313148399989586","0.423162999999477","0.429182799998671","1","1","1","1","1","1","1","1","1"
"260054","img/object_images/hammer01.jpg","img/object_images/wallet02.jpg","img/object_images/jacket03.jpg","1","1","1","0","1","0","0.429182799998671","0.313148399989586","0.338664699986111","1","1","1","1","1","1","1","1","1"
"260054","img/object_images/jacket03.jpg","img/object_images/hammer01.jpg","img/object_images/ironing_table01.jpg","1","1","0","0","0","0","0.338664699986111","0.429182799998671","0.279876900021918","1","1","1","1","1","1","1","1","1"
"260054","img/object_images/ironing_table01.jpg","img/object_images/jacket03.jpg","img/object_images/Screws01.jpg","0","1","1","0","0","1","0.279876900021918","0.338664699986111","0.367155499989167","1","1","1","1","1","1","1","1","1"
"260054","img/object_images/Screws01.jpg","img/object_images/ironing_table01.jpg","img/object_images/jewelry01.jpg","1","0","1","1","0","1","0.367155499989167","0.279876900021918","0.428870100004133","1","1","1","1","1","1","1","1","1"
"260054","img/object_images/jewelry01.jpg","img/object_images/Screws01.jpg","img/object_images/measuring_tape02.jpg","1","1","1","1","1","1","0.428870100004133","0.367155499989167","0.327055800007656","1","1","1","1","1","1","1","1","1"
"260054","img/object_images/measuring_tape02.jpg","img/object_images/jewelry01.jpg","img/object_images/vga_port 01.jpg","1","1","1","1","1","0","0.327055800007656","0.428870100004133","0.425857299997006","1","1","1","1","1","1","1","1","1"
"260054","img/object_images/vga_port 01.jpg","img/object_images/measuring_tape02.jpg","img/object_images/clip02.jpg","1","1","1","0","1","1","0.425857299997006","0.327055800007656","0.356784800009336","1","1","1","1","1","1","1","1","1"
"260054","img/object_images/clip02.jpg","img/object_images/vga_port 01.jpg","img/object_images/gift_box01.jpg","1","1","1","1","0","1","0.356784800009336","0.425857299997006","0.203136099997209","1","1","1","1","1","1","1","1","1"
"260054","img/object_images/gift_box01.jpg","img/object_images/clip02.jpg","img/object_images/handkerchief01.jpg","1","1","0","1","1","0","0.203136099997209","0.356784800009336","0.340646800003015","1","1","1","1","1","1","1","1","1"
"260054","img/object_images/handkerchief01.jpg","img/object_images/gift_box01.jpg","img/object_images/golf_ball03.jpg","0","1","1","0","1","1","0.340646800003015","0.203136099997209","0.366630100004841","1","1","1","1","1","1","1","1","1"
"260054","img/object_images/golf_ball03.jpg","img/object_images/handkerchief01.jpg","img/object_images/lawn_mower01.jpg","1","0","1","1","0","1","0.366630100004841","0.340646800003015","0.367904500017175","1","1","1","1","1","1","1","1","1"
"260054","img/object_images/lawn_mower01.jpg","img/object_images/golf_ball03.jpg","img/object_images/dresser04.jpg","1","1","1","1","1","0","0.367904500017175","0.366630100004841","0.445070299989311","1","1","1","1","1","1","1","1","1"
"260054","img/object_images/dresser04.jpg","img/object_images/lawn_mower01.jpg","img/object_images/bow_tie02.jpg","1","1","1","0","1","0","0.445070299989311","0.367904500017175","0.352444900025148","1","1","1","1","1","1","1","1","1"
"260054","img/object_images/bow_tie02.jpg","img/object_images/dresser04.jpg","img/object_images/camera07.jpg","1","1","1","0","0","1","0.352444900025148","0.445070299989311","0.416116099979263","1","1","1","1","1","1","1","1","1"
"260054","img/object_images/camera07.jpg","img/object_images/bow_tie02.jpg","img/object_images/bow_tie01.jpg","1","1","0","1","0","0","0.416116099979263","0.352444900025148","0.363685699994676","1","1","1","1","1","1","1","1","1"
"260054","img/object_images/bow_tie01.jpg","img/object_images/camera07.jpg","img/object_images/paper_cup01.jpg","0","1","1","0","1","0","0.363685699994676","0.416116099979263","0.383524600008968","1","1","1","1","1","1","1","1","1"
"260054","img/object_images/paper_cup01.jpg","img/object_images/bow_tie01.jpg","img/object_images/balloon01.jpg","1","0","1","0","0","0","0.383524600008968","0.363685699994676","0.390239899978042","1","1","1","1","1","1","1","1","1"
"260054","img/object_images/balloon01.jpg","img/object_images/paper_cup01.jpg","img/object_images/gift_box02.jpg","1","1","1","0","0","1","0.390239899978042","0.383524600008968","0.397190899995621","1","1","1","1","1","1","1","1","1"
"260054","img/object_images/gift_box02.jpg","img/object_images/balloon01.jpg","img/object_images/Witchhat01.jpg","1","1","1","1","0","1","0.397190899995621","0.390239899978042","0.26209890001337","1","1","1","1","1","1","1","1","1"
"260054","img/object_images/Witchhat01.jpg","img/object_images/gift_box02.jpg","img/object_images/pitcher02.jpg","1","1","1","1","1","1","0.26209890001337","0.397190899995621","0.301704400015296","1","1","1","1","1","1","1","1","1"
"260054","img/object_images/pitcher02.jpg","img/object_images/Witchhat01.jpg","img/object_images/fork03.jpg","1","1","1","1","1","1","0.301704400015296","0.26209890001337","0.299551800009795","1","1","1","1","1","1","1","1","1"
"260054","img/object_images/fork03.jpg","img/object_images/pitcher02.jpg","img/object_images/coloring_pencil01.jpg","1","1","1","1","1","1","0.299551800009795","0.301704400015296","0.373323500010883","1","1","1","1","1","1","1","1","1"
"260054","img/object_images/coloring_pencil01.jpg","img/object_images/fork03.jpg","img/object_images/couch03.jpg","1","1","0","1","1","0","0.373323500010883","0.299551800009795","0.352478099986911","1","1","1","1","1","1","1","1","1"
"260054","img/object_images/couch03.jpg","img/object_images/coloring_pencil01.jpg","img/object_images/grater01.jpg","0","1","0","0","1","1","0.352478099986911","0.373323500010883",NA,"1","1","0","1","1","0","1","1","0"
"260054","img/object_images/grater01.jpg","img/object_images/couch03.jpg",NA,"0","0",NA,"1","0",NA,NA,"0.352478099986911",NA,"0","1",NA,"0","1",NA,"0","1",NA
"260054","img/object_images/MeasuringCup01.jpg",NA,"img/object_images/key02.jpg","1",NA,"0","1",NA,"1","0.491509900020901",NA,"0.338319500006037","1",NA,"1","1",NA,"1","1",NA,"1"
"260054","img/object_images/key02.jpg","img/object_images/MeasuringCup01.jpg","img/object_images/tv01.jpg","0","1","1","1","1","0","0.338319500006037","0.491509900020901","0.459017299988773","1","1","1","1","1","1","1","1","1"
"260054","img/object_images/tv01.jpg","img/object_images/key02.jpg","img/object_images/tool11.jpg","1","0","1","0","1","1","0.459017299988773","0.338319500006037","0.369716999994125","1","1","1","1","1","1","1","1","1"
"260054","img/object_images/tool11.jpg","img/object_images/tv01.jpg","img/object_images/shoes10.jpg","1","1","0","1","0","0","0.369716999994125","0.459017299988773","0.353273400018224","1","1","1","1","1","1","1","1","1"
"260054","img/object_images/shoes10.jpg","img/object_images/tool11.jpg","img/object_images/shower_head03.jpg","0","1","1","0","1","1","0.353273400018224","0.369716999994125","0.405841400002828","1","1","1","1","1","1","1","1","1"
"260054","img/object_images/shower_head03.jpg","img/object_images/shoes10.jpg","img/object_images/cutting_board01.jpg","1","0","1","1","0","1","0.405841400002828","0.353273400018224","0.334314400010044","1","1","1","1","1","1","1","1","1"
"260054","img/object_images/cutting_board01.jpg","img/object_images/shower_head03.jpg","img/object_images/satellite01.jpg","1","1","1","1","1","0","0.334314400010044","0.405841400002828","0.457680899999104","1","1","1","1","1","1","1","1","1"
"260054","img/object_images/satellite01.jpg","img/object_images/cutting_board01.jpg","img/object_images/binoculars03.jpg","1","1","1","0","1","1","0.457680899999104","0.334314400010044","0.336733999982243","1","1","1","1","1","1","1","1","1"
"260054","img/object_images/binoculars03.jpg","img/object_images/satellite01.jpg","img/object_images/bag06.jpg","1","1","1","1","0","1","0.336733999982243","0.457680899999104","0.395380500005558","1","1","1","1","1","1","1","1","1"
"260054","img/object_images/bag06.jpg","img/object_images/binoculars03.jpg","img/object_images/jewel01.jpg","1","1","1","1","1","0","0.395380500005558","0.336733999982243","0.452600100019481","1","1","1","1","1","1","1","1","1"
"260054","img/object_images/jewel01.jpg","img/object_images/bag06.jpg","img/object_images/chair04.jpg","1","1","1","0","1","1","0.452600100019481","0.395380500005558","0.412105600000359","1","1","1","1","1","1","1","1","1"
"260054","img/object_images/chair04.jpg","img/object_images/jewel01.jpg","img/object_images/dress03.jpg","1","1","1","1","0","1","0.412105600000359","0.452600100019481","0.409714399982477","1","1","1","1","1","1","1","1","1"
"260054","img/object_images/dress03.jpg","img/object_images/chair04.jpg","img/object_images/fan05.jpg","1","1","1","1","1","0","0.409714399982477","0.412105600000359","0.318299999984447","1","1","1","1","1","1","1","1","1"
"260054","img/object_images/fan05.jpg","img/object_images/dress03.jpg","img/object_images/cards01.jpg","1","1","1","0","1","0","0.318299999984447","0.409714399982477","0.433465200010687","1","1","1","1","1","1","1","1","1"
"260054","img/object_images/cards01.jpg","img/object_images/fan05.jpg","img/object_images/slinky_toy01.jpg","1","1","1","0","0","1","0.433465200010687","0.318299999984447","0.352485100011108","1","1","1","1","1","1","1","1","1"
"260054","img/object_images/slinky_toy01.jpg","img/object_images/cards01.jpg","img/object_images/car04.jpg","1","1","0","1","0","0","0.352485100011108","0.433465200010687","0.39574479998555","1","1","1","1","1","1","1","1","1"
"260054","img/object_images/car04.jpg","img/object_images/slinky_toy01.jpg","img/object_images/rock03.jpg","0","1","0","0","1","0","0.39574479998555","0.352485100011108","0.353284799988614","1","1","1","1","1","1","1","1","1"
"260054","img/object_images/rock03.jpg","img/object_images/car04.jpg","img/object_images/jewelry07.jpg","0","0","1","0","0","1","0.353284799988614","0.39574479998555","0.419968800008064","1","1","1","1","1","1","1","1","1"
"260054","img/object_images/jewelry07.jpg","img/object_images/rock03.jpg","img/object_images/WitchHat02.jpg","1","0","1","1","0","1","0.419968800008064","0.353284799988614","0.375113799993414","1","1","1","1","1","1","1","1","1"
"260054","img/object_images/WitchHat02.jpg","img/object_images/jewelry07.jpg","img/object_images/lemon_squeezer02.jpg","1","1","1","1","1","1","0.375113799993414","0.419968800008064","0.335601500002667","1","1","1","1","1","1","1","1","1"
"260054","img/object_images/lemon_squeezer02.jpg","img/object_images/WitchHat02.jpg","img/object_images/car03.jpg","1","1","1","1","1","0","0.335601500002667","0.375113799993414","0.767396499984898","1","1","1","1","1","1","1","1","1"
"260054","img/object_images/car03.jpg","img/object_images/lemon_squeezer02.jpg","img/object_images/yarn02.jpg","1","1","0","0","1","0","0.767396499984898","0.335601500002667","0.413299500010908","1","1","1","1","1","1","1","1","1"
"260054","img/object_images/yarn02.jpg","img/object_images/car03.jpg","img/object_images/razor01.jpg","0","1","1","0","0","0","0.413299500010908","0.767396499984898","0.421426499990048","1","1","1","1","1","1","1","1","1"
"260054","img/object_images/razor01.jpg","img/object_images/yarn02.jpg","img/object_images/mask01.jpg","1","0","1","0","0","0","0.421426499990048","0.413299500010908","0.447864200017648","1","1","1","1","1","1","1","1","1"
"260054","img/object_images/mask01.jpg","img/object_images/razor01.jpg","img/object_images/belt01.jpg","1","1","1","0","0","0","0.447864200017648","0.421426499990048","0.405506499984767","1","1","1","1","1","1","1","1","1"
"260054","img/object_images/belt01.jpg","img/object_images/mask01.jpg","img/object_images/ribbon01.jpg","1","1","1","0","0","0","0.405506499984767","0.447864200017648","0.434298200008925","1","1","1","1","1","1","1","1","1"
"260054","img/object_images/ribbon01.jpg","img/object_images/belt01.jpg","img/object_images/ladle02.jpg","1","1","1","0","0","0","0.434298200008925","0.405506499984767","0.410380200017244","1","1","1","1","1","1","1","1","1"
"260054","img/object_images/ladle02.jpg","img/object_images/ribbon01.jpg","img/object_images/ice_tray03.jpg","1","1","1","0","0","1","0.410380200017244","0.434298200008925","0.350757800013525","1","1","1","1","1","1","1","1","1"
"260054","img/object_images/ice_tray03.jpg","img/object_images/ladle02.jpg","img/object_images/hair_brush05.jpg","1","1","1","1","0","1","0.350757800013525","0.410380200017244","0.405808099982096","1","1","1","1","1","1","1","1","1"
"260054","img/object_images/hair_brush05.jpg","img/object_images/ice_tray03.jpg","img/object_images/toaster02.jpg","1","1","0","1","1","1","0.405808099982096","0.350757800013525","0.37420399999246","1","1","1","1","1","1","1","1","2"
"260054","img/object_images/toaster02.jpg","img/object_images/hair_brush05.jpg","img/object_images/screwdriver01.jpg","0","1","1","1","1","0","0.37420399999246","0.405808099982096","0.470135500014294","1","1","1","1","1","1","2","1","1"
"260054","img/object_images/screwdriver01.jpg","img/object_images/toaster02.jpg",NA,"1","0",NA,"0","1",NA,"0.470135500014294","0.37420399999246",NA,"1","1",NA,"1","1",NA,"1","2",NA
"260054","img/object_images/toy08.jpg",NA,"img/object_images/sponge03.jpg","1",NA,"1","0",NA,"1","0.434535399981542",NA,"0.358760000002803","1",NA,"1","1",NA,"1","1",NA,"1"
"260054","img/object_images/sponge03.jpg","img/object_images/toy08.jpg","img/object_images/bottle07.jpg","1","1","1","1","0","1","0.358760000002803","0.434535399981542","0.328109199996106","1","1","1","1","1","1","1","1","1"
"260054","img/object_images/bottle07.jpg","img/object_images/sponge03.jpg","img/object_images/stereo02.jpg","1","1","1","1","1","0","0.328109199996106","0.358760000002803","0.38440680000349","1","1","1","1","1","1","1","1","1"
"260054","img/object_images/stereo02.jpg","img/object_images/bottle07.jpg","img/object_images/hoverboard01.jpg","1","1","1","0","1","0","0.38440680000349","0.328109199996106","0.289932800020324","1","1","1","1","1","1","1","1","1"
"260054","img/object_images/hoverboard01.jpg","img/object_images/stereo02.jpg","img/object_images/hand_grip_exerciser01.jpg","1","1","1","0","0","0","0.289932800020324","0.38440680000349","0.316970000014408","1","1","1","1","1","1","1","1","1"
"260054","img/object_images/hand_grip_exerciser01.jpg","img/object_images/hoverboard01.jpg","img/object_images/backpack01.jpg","1","1","0","0","0","0","0.316970000014408","0.289932800020324","0.294991100003244","1","1","1","1","1","1","1","1","1"
"260054","img/object_images/backpack01.jpg","img/object_images/hand_grip_exerciser01.jpg","img/object_images/keyboard02.jpg","0","1","1","0","0","1","0.294991100003244","0.316970000014408","0.394080700003542","1","1","1","1","1","1","1","1","1"
"260054","img/object_images/keyboard02.jpg","img/object_images/backpack01.jpg","img/object_images/video_game01.jpg","1","0","1","1","0","1","0.394080700003542","0.294991100003244","0.40236370000639","1","1","1","1","1","1","1","1","1"
"260054","img/object_images/video_game01.jpg","img/object_images/keyboard02.jpg","img/object_images/curtain02.jpg","1","1","1","1","1","0","0.40236370000639","0.394080700003542","0.405939100019168","1","1","1","1","1","1","1","1","1"
"260054","img/object_images/curtain02.jpg","img/object_images/video_game01.jpg","img/object_images/boat04.jpg","1","1","1","0","1","0","0.405939100019168","0.40236370000639","0.437597100011772","1","1","1","1","1","1","1","1","1"
"260054","img/object_images/boat04.jpg","img/object_images/curtain02.jpg","img/object_images/basket04.jpg","1","1","1","0","0","1","0.437597100011772","0.405939100019168","0.281270900013624","1","1","1","1","1","1","1","1","1"
"260054","img/object_images/basket04.jpg","img/object_images/boat04.jpg","img/object_images/remover01.jpg","1","1","0","1","0","1","0.281270900013624","0.437597100011772","0.325459000014234","1","1","1","1","1","1","1","1","1"
"260054","img/object_images/remover01.jpg","img/object_images/basket04.jpg","img/object_images/kite01.jpg","0","1","1","1","1","1","0.325459000014234","0.281270900013624","0.43747400000575","1","1","1","1","1","1","1","1","1"
"260054","img/object_images/kite01.jpg","img/object_images/remover01.jpg","img/object_images/Statue01.jpg","1","0","1","1","1","1","0.43747400000575","0.325459000014234","0.440153100003954","1","1","1","1","1","1","1","1","1"
"260054","img/object_images/Statue01.jpg","img/object_images/kite01.jpg","img/object_images/camera03.jpg","1","1","0","1","1","0","0.440153100003954","0.43747400000575","0.397640700015472","1","1","1","1","1","1","1","1","2"
"260054","img/object_images/camera03.jpg","img/object_images/Statue01.jpg","img/object_images/car01.jpg","0","1","1","0","1","1","0.397640700015472","0.440153100003954","0.519914000004064","1","1","1","1","1","1","2","1","1"
"260054","img/object_images/car01.jpg","img/object_images/camera03.jpg","img/object_images/knife02.jpg","1","0","1","1","0","0","0.519914000004064","0.397640700015472","0.342799800011562","1","1","1","1","1","1","1","2","1"
"260054","img/object_images/knife02.jpg","img/object_images/car01.jpg","img/object_images/flashlight03.jpg","1","1","1","0","1","0","0.342799800011562","0.519914000004064","0.333922100020573","1","1","1","1","1","1","1","1","1"
"260054","img/object_images/flashlight03.jpg","img/object_images/knife02.jpg","img/object_images/tool18.jpg","1","1","1","0","0","0","0.333922100020573","0.342799800011562","0.502812799997628","1","1","1","1","1","1","1","1","1"
"260054","img/object_images/tool18.jpg","img/object_images/flashlight03.jpg","img/object_images/knit03.jpg","1","1","0","0","0","1","0.502812799997628","0.333922100020573","0.279964699991979","1","1","1","1","1","1","1","1","1"
"260054","img/object_images/knit03.jpg","img/object_images/tool18.jpg","img/object_images/phone02.jpg","0","1","1","1","0","1","0.279964699991979","0.502812799997628","0.418381099996623","1","1","1","1","1","1","1","1","1"
"260054","img/object_images/phone02.jpg","img/object_images/knit03.jpg","img/object_images/remote_controller01.jpg","1","0","1","1","1","1","0.418381099996623","0.279964699991979","0.50503130001016","1","1","1","1","1","1","1","1","1"
"260054","img/object_images/remote_controller01.jpg","img/object_images/phone02.jpg","img/object_images/dresser03.jpg","1","1","0","1","1","0","0.50503130001016","0.418381099996623","0.392370700021274","1","1","1","1","1","1","1","1","1"
"260054","img/object_images/dresser03.jpg","img/object_images/remote_controller01.jpg","img/object_images/blender02.jpg","0","1","1","0","1","1","0.392370700021274","0.50503130001016","0.35321489998023","1","1","1","1","1","1","1","1","1"
"260054","img/object_images/blender02.jpg","img/object_images/dresser03.jpg","img/object_images/gloves02.jpg","1","0","0","1","0","0","0.35321489998023","0.392370700021274","0.410691299999598","1","1","1","1","1","1","1","1","1"
"260054","img/object_images/gloves02.jpg","img/object_images/blender02.jpg","img/object_images/jacket04.jpg","0","1","1","0","1","0","0.410691299999598","0.35321489998023","0.449400700017577","1","1","1","1","1","1","1","1","1"
"260054","img/object_images/jacket04.jpg","img/object_images/gloves02.jpg","img/object_images/mail_box01.jpg","1","0","1","0","0","0","0.449400700017577","0.410691299999598","0.393131599994376","1","1","1","1","1","1","1","1","1"
"260054","img/object_images/mail_box01.jpg","img/object_images/jacket04.jpg","img/object_images/matches02.jpg","1","1","0","0","0","0","0.393131599994376","0.449400700017577","0.377396600000793","1","1","1","1","1","1","1","1","2"
"260054","img/object_images/matches02.jpg","img/object_images/mail_box01.jpg","img/object_images/knit04.jpg","0","1","1","0","0","1","0.377396600000793","0.393131599994376","0.373100299999351","1","1","1","1","1","1","2","1","1"
"260054","img/object_images/knit04.jpg","img/object_images/matches02.jpg","img/object_images/shower_head01.jpg","1","0","1","1","0","1","0.373100299999351","0.377396600000793","0.370201500016265","1","1","1","1","1","1","1","2","1"
"260054","img/object_images/shower_head01.jpg","img/object_images/knit04.jpg","img/object_images/paper_cup02.jpg","1","1","1","1","1","1","0.370201500016265","0.373100299999351","0.394926300010411","1","1","1","1","1","1","1","1","1"
"260054","img/object_images/paper_cup02.jpg","img/object_images/shower_head01.jpg",NA,"1","1",NA,"1","1",NA,"0.394926300010411","0.370201500016265",NA,"1","1",NA,"1","1",NA,"1","1",NA
"260054","img/object_images/laptop01.jpg",NA,"img/object_images/towels01.jpg","1",NA,"0","0",NA,"0","0.401190600008704",NA,"0.389237399998819","1",NA,"1","1",NA,"1","1",NA,"1"
"260054","img/object_images/towels01.jpg","img/object_images/laptop01.jpg","img/object_images/chair02.jpg","0","1","1","0","0","1","0.389237399998819","0.401190600008704","0.361835500021698","1","1","1","1","1","1","1","1","1"
"260054","img/object_images/chair02.jpg","img/object_images/towels01.jpg","img/object_images/Vest02.jpg","1","0","0","1","0","0","0.361835500021698","0.389237399998819","0.240485599992098","1","1","1","1","1","1","1","1","1"
"260054","img/object_images/Vest02.jpg","img/object_images/chair02.jpg","img/object_images/Lint_Roller02.jpg","0","1","1","0","1","0","0.240485599992098","0.361835500021698","0.326915899990126","1","1","1","1","1","1","1","1","1"
"260054","img/object_images/Lint_Roller02.jpg","img/object_images/Vest02.jpg","img/object_images/spatula02.jpg","1","0","1","0","0","1","0.326915899990126","0.240485599992098","0.372245100006694","1","1","1","1","1","1","1","1","1"
"260054","img/object_images/spatula02.jpg","img/object_images/Lint_Roller02.jpg","img/object_images/fan04.jpg","1","1","0","1","0","0","0.372245100006694","0.326915899990126","0.333745000010822","1","1","1","1","1","1","1","1","1"
"260054","img/object_images/fan04.jpg","img/object_images/spatula02.jpg","img/object_images/accardion01.jpg","0","1","1","0","1","1","0.333745000010822","0.372245100006694","0.39446909999242","1","1","1","1","1","1","1","1","1"
"260054","img/object_images/accardion01.jpg","img/object_images/fan04.jpg","img/object_images/bucket02.jpg","1","0","1","1","0","1","0.39446909999242","0.333745000010822","0.308366600016598","1","1","1","1","1","1","1","1","1"
"260054","img/object_images/bucket02.jpg","img/object_images/accardion01.jpg","img/object_images/jewel03.jpg","1","1","1","1","1","1","0.308366600016598","0.39446909999242","0.38914530002512","1","1","1","1","1","1","1","1","1"
"260054","img/object_images/jewel03.jpg","img/object_images/bucket02.jpg","img/object_images/trash_can03.jpg","1","1","1","1","1","1","0.38914530002512","0.308366600016598","0.347592000005534","1","1","1","1","1","1","1","1","1"
"260054","img/object_images/trash_can03.jpg","img/object_images/jewel03.jpg","img/object_images/shoes08.jpg","1","1","0","1","1","1","0.347592000005534","0.38914530002512","0.341339400009019","1","1","1","1","1","1","1","1","1"
"260054","img/object_images/shoes08.jpg","img/object_images/trash_can03.jpg","img/object_images/vase01.jpg","0","1","0","1","1","0","0.341339400009019","0.347592000005534","0.291973599989433","1","1","1","1","1","1","1","1","1"
"260054","img/object_images/vase01.jpg","img/object_images/shoes08.jpg","img/object_images/hair_brush02.jpg","0","0","1","0","1","0","0.291973599989433","0.341339400009019","0.502973700000439","1","1","1","1","1","1","1","1","1"
"260054","img/object_images/hair_brush02.jpg","img/object_images/vase01.jpg","img/object_images/trash_can05.jpg","1","0","1","0","0","1","0.502973700000439","0.291973599989433","0.350487499992596","1","1","1","1","1","1","1","1","1"
"260054","img/object_images/trash_can05.jpg","img/object_images/hair_brush02.jpg","img/object_images/lock01.jpg","1","1","0","1","0","0","0.350487499992596","0.502973700000439","0.320898900012253","1","1","1","1","1","1","1","1","1"
"260054","img/object_images/lock01.jpg","img/object_images/trash_can05.jpg","img/object_images/stove01.jpg","0","1","0","0","1","0","0.320898900012253","0.350487499992596","0.388682200020412","1","1","1","1","1","1","1","1","1"
"260054","img/object_images/stove01.jpg","img/object_images/lock01.jpg","img/object_images/pitcher05.jpg","0","0","1","0","0","0","0.388682200020412","0.320898900012253","0.647355799999787","1","1","1","1","1","1","1","1","1"
"260054","img/object_images/pitcher05.jpg","img/object_images/stove01.jpg","img/object_images/gift_box05.jpg","1","0","1","0","0","0","0.647355799999787","0.388682200020412","0.456055599992396","1","1","1","1","1","1","1","1","1"
"260054","img/object_images/gift_box05.jpg","img/object_images/pitcher05.jpg","img/object_images/helmet02.jpg","1","1","1","0","0","0","0.456055599992396","0.647355799999787","0.373663600010332","1","1","1","1","1","1","1","1","1"
"260054","img/object_images/helmet02.jpg","img/object_images/gift_box05.jpg","img/object_images/robe01.jpg","1","1","1","0","0","1","0.373663600010332","0.456055599992396","0.335460700007388","1","1","1","1","1","1","1","1","1"
"260054","img/object_images/robe01.jpg","img/object_images/helmet02.jpg","img/object_images/surf_board01.jpg","1","1","0","1","0","1","0.335460700007388","0.373663600010332","0.424695099995006","1","1","1","1","1","1","1","1","1"
"260054","img/object_images/surf_board01.jpg","img/object_images/robe01.jpg","img/object_images/combs01.jpg","0","1","0","1","1","1","0.424695099995006","0.335460700007388","0.367456799984211","1","1","1","1","1","1","1","1","1"
"260054","img/object_images/combs01.jpg","img/object_images/surf_board01.jpg","img/object_images/calculator01.jpg","0","0","1","1","1","1","0.367456799984211","0.424695099995006","0.386048599990318","1","1","1","1","1","1","1","1","1"
"260054","img/object_images/calculator01.jpg","img/object_images/combs01.jpg","img/object_images/ball02.jpg","1","0","1","1","1","1","0.386048599990318","0.367456799984211","0.360387100023217","1","1","1","1","1","1","1","1","1"
"260054","img/object_images/ball02.jpg","img/object_images/calculator01.jpg","img/object_images/chess_piece01.jpg","1","1","1","1","1","0","0.360387100023217","0.386048599990318","0.497052300022915","1","1","1","1","1","1","1","1","1"
"260054","img/object_images/chess_piece01.jpg","img/object_images/ball02.jpg","img/object_images/hair_dryer01.jpg","1","1","1","0","1","0","0.497052300022915","0.360387100023217","0.372581800009357","1","1","1","1","1","1","1","1","1"
"260054","img/object_images/hair_dryer01.jpg","img/object_images/chess_piece01.jpg","img/object_images/backpack03.jpg","1","1","1","0","0","1","0.372581800009357","0.497052300022915","0.381102899991674","1","1","1","1","1","1","1","1","1"
"260054","img/object_images/backpack03.jpg","img/object_images/hair_dryer01.jpg","img/object_images/umbrella01.jpg","1","1","1","1","0","0","0.381102899991674","0.372581800009357","0.308832700015046","1","1","1","1","1","1","1","1","1"
"260054","img/object_images/umbrella01.jpg","img/object_images/backpack03.jpg","img/object_images/microphone03.jpg","1","1","1","0","1","1","0.308832700015046","0.381102899991674","0.400602200010326","1","1","1","1","1","1","1","1","1"
"260054","img/object_images/microphone03.jpg","img/object_images/umbrella01.jpg","img/object_images/laptop03.jpg","1","1","1","1","0","1","0.400602200010326","0.308832700015046","0.30382999998983","1","1","1","1","1","1","1","1","1"
"260054","img/object_images/laptop03.jpg","img/object_images/microphone03.jpg","img/object_images/toy05.jpg","1","1","1","1","1","0","0.30382999998983","0.400602200010326","0.307258699991507","1","1","1","1","1","1","1","1","1"
"260054","img/object_images/toy05.jpg","img/object_images/laptop03.jpg",NA,"1","1",NA,"0","1",NA,"0.307258699991507","0.30382999998983",NA,"1","1",NA,"1","1",NA,"1","1",NA
"260054","img/object_images/candle02.jpg",NA,"img/object_images/sink_filter01 (1).jpg","1",NA,"1","0",NA,"0","0.489846899989061",NA,"0.405885700020008","1",NA,"1","1",NA,"1","1",NA,"1"
"260054","img/object_images/sink_filter01 (1).jpg","img/object_images/candle02.jpg","img/object_images/razor02.jpg","1","1","1","0","0","1","0.405885700020008","0.489846899989061","0.33169269998325","1","1","1","1","1","1","1","1","1"
"260054","img/object_images/razor02.jpg","img/object_images/sink_filter01 (1).jpg","img/object_images/dust_pan01.jpg","1","1","1","1","0","1","0.33169269998325","0.405885700020008","0.401802100008354","1","1","1","1","1","1","1","1","1"
"260054","img/object_images/dust_pan01.jpg","img/object_images/razor02.jpg","img/object_images/tool20.jpg","1","1","1","1","1","0","0.401802100008354","0.33169269998325","0.465258400014136","1","1","1","1","1","1","1","1","1"
"260054","img/object_images/tool20.jpg","img/object_images/dust_pan01.jpg","img/object_images/office_supplies01.jpg","1","1","1","0","1","1","0.465258400014136","0.401802100008354","0.326831899990793","1","1","1","1","1","1","1","1","1"
"260054","img/object_images/office_supplies01.jpg","img/object_images/tool20.jpg","img/object_images/knife01.jpg","1","1","1","1","0","1","0.326831899990793","0.465258400014136","0.350052099995082","1","1","1","1","1","1","1","1","1"
"260054","img/object_images/knife01.jpg","img/object_images/office_supplies01.jpg","img/object_images/floss01.jpg","1","1","1","1","1","1","0.350052099995082","0.326831899990793","0.453088100010063","1","1","1","1","1","1","1","1","1"
"260054","img/object_images/floss01.jpg","img/object_images/knife01.jpg","img/object_images/sign02.jpg","1","1","0","1","1","0","0.453088100010063","0.350052099995082","0.279663900000742","1","1","1","1","1","1","1","1","1"
"260054","img/object_images/sign02.jpg","img/object_images/floss01.jpg","img/object_images/Candle_Holder01.jpg","0","1","0","0","1","0","0.279663900000742","0.453088100010063","0.362447799998336","1","1","1","1","1","1","1","1","1"
"260054","img/object_images/Candle_Holder01.jpg","img/object_images/sign02.jpg","img/object_images/cup01.jpg","0","0","1","0","0","0","0.362447799998336","0.279663900000742","0.401755700004287","1","1","1","1","1","1","1","1","1"
"260054","img/object_images/cup01.jpg","img/object_images/Candle_Holder01.jpg","img/object_images/glasses03.jpg","1","0","1","0","0","0","0.401755700004287","0.362447799998336","0.378979300003266","1","1","1","1","1","1","1","1","1"
"260054","img/object_images/glasses03.jpg","img/object_images/cup01.jpg","img/object_images/vase02.jpg","1","1","1","0","0","1","0.378979300003266","0.401755700004287","0.40081900000223","1","1","1","1","1","1","1","1","1"
"260054","img/object_images/vase02.jpg","img/object_images/glasses03.jpg","img/object_images/ruler02.jpg","1","1","1","1","0","1","0.40081900000223","0.378979300003266","0.345556199987186","1","1","1","1","1","1","1","1","1"
"260054","img/object_images/ruler02.jpg","img/object_images/vase02.jpg","img/object_images/camera05.jpg","1","1","1","1","1","0","0.345556199987186","0.40081900000223","0.345198600029107","1","1","1","1","1","1","1","1","1"
"260054","img/object_images/camera05.jpg","img/object_images/ruler02.jpg","img/object_images/tool13.jpg","1","1","1","0","1","1","0.345198600029107","0.345556199987186","0.39726110000629","1","1","1","1","1","1","1","1","1"
"260054","img/object_images/tool13.jpg","img/object_images/camera05.jpg","img/object_images/socks01.jpg","1","1","1","1","0","1","0.39726110000629","0.345198600029107","0.40175960000488","1","1","1","1","1","1","1","1","1"
"260054","img/object_images/socks01.jpg","img/object_images/tool13.jpg","img/object_images/video_game02.jpg","1","1","1","1","1","1","0.40175960000488","0.39726110000629","0.316943899990292","1","1","1","1","1","1","1","1","1"
"260054","img/object_images/video_game02.jpg","img/object_images/socks01.jpg","img/object_images/hammer02.jpg","1","1","1","1","1","0","0.316943899990292","0.40175960000488","0.457078199979151","1","1","1","1","1","1","1","1","1"
"260054","img/object_images/hammer02.jpg","img/object_images/video_game02.jpg","img/object_images/bow_tie03.jpg","1","1","1","0","1","1","0.457078199979151","0.316943899990292","0.301790199999232","1","1","1","1","1","1","1","1","1"
"260054","img/object_images/bow_tie03.jpg","img/object_images/hammer02.jpg","img/object_images/clipboard01.jpg","1","1","1","1","0","1","0.301790199999232","0.457078199979151","0.343532999977469","1","1","1","1","1","1","1","1","1"
"260054","img/object_images/clipboard01.jpg","img/object_images/bow_tie03.jpg","img/object_images/spray_can01.jpg","1","1","1","1","1","0","0.343532999977469","0.301790199999232","0.309293099999195","1","1","1","1","1","1","1","1","1"
"260054","img/object_images/spray_can01.jpg","img/object_images/clipboard01.jpg","img/object_images/duster01.jpg","1","1","0","0","1","0","0.309293099999195","0.343532999977469","0.347705100022722","1","1","1","1","1","1","1","1","1"
"260054","img/object_images/duster01.jpg","img/object_images/spray_can01.jpg","img/object_images/pen06.jpg","0","1","1","0","0","0","0.347705100022722","0.309293099999195","0.407292499992764","1","1","1","1","1","1","1","1","1"
"260054","img/object_images/pen06.jpg","img/object_images/duster01.jpg","img/object_images/lemon_squeezer01.jpg","1","0","1","0","0","1","0.407292499992764","0.347705100022722","0.370052699989174","1","1","1","1","1","1","1","1","1"
"260054","img/object_images/lemon_squeezer01.jpg","img/object_images/pen06.jpg","img/object_images/board01.jpg","1","1","1","1","0","1","0.370052699989174","0.407292499992764","0.56404470000416","1","1","1","1","1","1","1","1","1"
"260054","img/object_images/board01.jpg","img/object_images/lemon_squeezer01.jpg","img/object_images/hat13.jpg","1","1","0","1","1","1","0.56404470000416","0.370052699989174","0.351901499991072","1","1","1","1","1","1","1","1","1"
"260054","img/object_images/hat13.jpg","img/object_images/board01.jpg","img/object_images/perfume01.jpg","0","1","1","1","1","0","0.351901499991072","0.56404470000416","0.412283100013155","1","1","1","1","1","1","1","1","1"
"260054","img/object_images/perfume01.jpg","img/object_images/hat13.jpg","img/object_images/bag04.jpg","1","0","0","0","1","0","0.412283100013155","0.351901499991072","0.366935300000478","1","1","1","1","1","1","1","1","1"
"260054","img/object_images/bag04.jpg","img/object_images/perfume01.jpg","img/object_images/pan03.jpg","0","1","1","0","0","1","0.366935300000478","0.412283100013155","0.406031000020448","1","1","1","1","1","1","1","1","1"
"260054","img/object_images/pan03.jpg","img/object_images/bag04.jpg","img/object_images/hat09.jpg","1","0","1","1","0","0","0.406031000020448","0.366935300000478","0.394239899993408","1","1","1","1","1","1","1","1","1"
"260054","img/object_images/hat09.jpg","img/object_images/pan03.jpg","img/object_images/Confetti 01.jpg","1","1","1","0","1","0","0.394239899993408","0.406031000020448","0.479123099998105","1","1","1","1","1","1","1","1","1"
"260054","img/object_images/Confetti 01.jpg","img/object_images/hat09.jpg",NA,"1","1",NA,"0","0",NA,"0.479123099998105","0.394239899993408",NA,"1","1",NA,"1","1",NA,"1","1",NA
"260054","img/object_images/blender01.jpg",NA,"img/object_images/soap03.jpg","1",NA,"1","0",NA,"0","0.528103899996495",NA,"0.442265300021973","1",NA,"1","1",NA,"1","1",NA,"1"
"260054","img/object_images/soap03.jpg","img/object_images/blender01.jpg","img/object_images/skate_board01.jpg","1","1","1","0","0","0","0.442265300021973","0.528103899996495","0.385832500003744","1","1","1","1","1","1","1","1","1"
"260054","img/object_images/skate_board01.jpg","img/object_images/soap03.jpg","img/object_images/scarf01.jpg","1","1","1","0","0","1","0.385832500003744","0.442265300021973","0.455543599993689","1","1","1","1","1","1","1","1","1"
"260054","img/object_images/scarf01.jpg","img/object_images/skate_board01.jpg","img/object_images/pitcher09.jpg","1","1","1","1","0","1","0.455543599993689","0.385832500003744","0.377977700001793","1","1","1","1","1","1","1","1","1"
"260054","img/object_images/pitcher09.jpg","img/object_images/scarf01.jpg","img/object_images/tool06.jpg","1","1","1","1","1","0","0.377977700001793","0.455543599993689","0.427163799991831","1","1","1","1","1","1","1","1","1"
"260054","img/object_images/tool06.jpg","img/object_images/pitcher09.jpg","img/object_images/pen01.jpg","1","1","0","0","1","0","0.427163799991831","0.377977700001793","0.291934799985029","1","1","1","1","1","1","1","1","1"
"260054","img/object_images/pen01.jpg","img/object_images/tool06.jpg","img/object_images/toy01.jpg","0","1","0","0","0","1","0.291934799985029","0.427163799991831","0.410465299995849","1","1","1","1","1","1","1","1","1"
"260054","img/object_images/toy01.jpg","img/object_images/pen01.jpg","img/object_images/drone01.jpg","0","0","1","1","0","1","0.410465299995849","0.291934799985029","0.358038900012616","1","1","1","1","1","1","1","1","1"
"260054","img/object_images/drone01.jpg","img/object_images/toy01.jpg","img/object_images/video_game03.jpg","1","0","1","1","1","1","0.358038900012616","0.410465299995849","0.327273800008697","1","1","1","1","1","1","1","1","1"
"260054","img/object_images/video_game03.jpg","img/object_images/drone01.jpg","img/object_images/hair_brush01.jpg","1","1","1","1","1","1","0.327273800008697","0.358038900012616","0.403710399987176","1","1","1","1","1","1","1","1","1"
"260054","img/object_images/hair_brush01.jpg","img/object_images/video_game03.jpg","img/object_images/Violin01.jpg","1","1","1","1","1","0","0.403710399987176","0.327273800008697","0.425075100007234","1","1","1","1","1","1","1","1","1"
"260054","img/object_images/Violin01.jpg","img/object_images/hair_brush01.jpg","img/object_images/bell03.jpg","1","1","1","0","1","0","0.425075100007234","0.403710399987176","0.427675000013551","1","1","1","1","1","1","1","1","1"
"260054","img/object_images/bell03.jpg","img/object_images/Violin01.jpg","img/object_images/egg_slicer01.jpg","1","1","1","0","0","1","0.427675000013551","0.425075100007234","0.335987500002375","1","1","1","1","1","1","1","1","1"
"260054","img/object_images/egg_slicer01.jpg","img/object_images/bell03.jpg","img/object_images/toothbrush01.jpg","1","1","1","1","0","0","0.335987500002375","0.427675000013551","0.383416399999987","1","1","1","1","1","1","1","1","1"
"260054","img/object_images/toothbrush01.jpg","img/object_images/egg_slicer01.jpg","img/object_images/bag_pipes01.jpg","1","1","1","0","1","1","0.383416399999987","0.335987500002375","0.399650300008943","1","1","1","1","1","1","1","1","1"
"260054","img/object_images/bag_pipes01.jpg","img/object_images/toothbrush01.jpg","img/object_images/clip04.jpg","1","1","1","1","0","1","0.399650300008943","0.383416399999987","0.400898099993356","1","1","1","1","1","1","1","1","1"
"260054","img/object_images/clip04.jpg","img/object_images/bag_pipes01.jpg","img/object_images/airfryer02.jpg","1","1","1","1","1","1","0.400898099993356","0.399650300008943","0.324549799988745","1","1","1","1","1","1","1","1","1"
"260054","img/object_images/airfryer02.jpg","img/object_images/clip04.jpg","img/object_images/chair06.jpg","1","1","1","1","1","0","0.324549799988745","0.400898099993356","0.458542399981525","1","1","1","1","1","1","1","1","1"
"260054","img/object_images/chair06.jpg","img/object_images/airfryer02.jpg","img/object_images/fork02.jpg","1","1","1","0","1","0","0.458542399981525","0.324549799988745","0.426488800003426","1","1","1","1","1","1","1","1","1"
"260054","img/object_images/fork02.jpg","img/object_images/chair06.jpg","img/object_images/book02.jpg","1","1","1","0","0","1","0.426488800003426","0.458542399981525","0.36534550000215","1","1","1","1","1","1","1","1","1"
"260054","img/object_images/book02.jpg","img/object_images/fork02.jpg","img/object_images/box03.jpg","1","1","0","1","0","0","0.36534550000215","0.426488800003426","0.341782800009241","1","1","1","1","1","1","1","1","1"
"260054","img/object_images/box03.jpg","img/object_images/book02.jpg","img/object_images/couch01.jpg","0","1","1","0","1","0","0.341782800009241","0.36534550000215","0.452823400002671","1","1","1","1","1","1","1","1","1"
"260054","img/object_images/couch01.jpg","img/object_images/box03.jpg","img/object_images/tripod01.jpg","1","0","1","0","0","1","0.452823400002671","0.341782800009241","0.399025000020629","1","1","1","1","1","1","1","1","1"
"260054","img/object_images/tripod01.jpg","img/object_images/couch01.jpg","img/object_images/computer_mouse02.jpg","1","1","1","1","0","0","0.399025000020629","0.452823400002671","0.39898749999702","1","1","1","1","1","1","1","1","1"
"260054","img/object_images/computer_mouse02.jpg","img/object_images/tripod01.jpg","img/object_images/rock02.jpg","1","1","1","0","1","0","0.39898749999702","0.399025000020629","0.461262299999362","1","1","1","1","1","1","1","1","1"
"260054","img/object_images/rock02.jpg","img/object_images/computer_mouse02.jpg","img/object_images/mail_box02.jpg","1","1","1","0","0","1","0.461262299999362","0.39898749999702","0.384538500016788","1","1","1","1","1","1","1","1","1"
"260054","img/object_images/mail_box02.jpg","img/object_images/rock02.jpg","img/object_images/shoes12.jpg","1","1","1","1","0","1","0.384538500016788","0.461262299999362","0.456372799992096","1","1","1","1","1","1","1","1","1"
"260054","img/object_images/shoes12.jpg","img/object_images/mail_box02.jpg","img/object_images/floss02.jpg","1","1","1","1","1","1","0.456372799992096","0.384538500016788","0.701976800017292","1","1","1","1","1","1","1","1","1"
"260054","img/object_images/floss02.jpg","img/object_images/shoes12.jpg","img/object_images/computer_mouse01.jpg","1","1","1","1","1","1","0.701976800017292","0.456372799992096","0.331997000001138","1","1","1","1","1","1","1","1","1"
"260054","img/object_images/computer_mouse01.jpg","img/object_images/floss02.jpg","img/object_images/Trowel01.jpg","1","1","1","1","1","0","0.331997000001138","0.701976800017292","0.499431200005347","1","1","1","1","1","1","1","1","1"
"260054","img/object_images/Trowel01.jpg","img/object_images/computer_mouse01.jpg","img/object_images/chain01.jpg","1","1","1","0","1","0","0.499431200005347","0.331997000001138","0.34921040001791","1","1","1","1","1","1","1","1","1"
"260054","img/object_images/chain01.jpg","img/object_images/Trowel01.jpg",NA,"1","1",NA,"0","0",NA,"0.34921040001791","0.499431200005347",NA,"1","1",NA,"1","1",NA,"1","1",NA
"260054","img/object_images/pen03.jpg",NA,"img/object_images/chair05.jpg","1",NA,"1","0",NA,"0","0.38430849998258",NA,"0.375405300001148","1",NA,"1","1",NA,"1","1",NA,"1"
"260054","img/object_images/chair05.jpg","img/object_images/pen03.jpg","img/object_images/compass01.jpg","1","1","0","0","0","1","0.375405300001148","0.38430849998258","0.251143100002082","1","1","1","1","1","1","1","1","1"
"260054","img/object_images/compass01.jpg","img/object_images/chair05.jpg","img/object_images/note_book01.jpg","0","1","1","1","0","0","0.251143100002082","0.375405300001148","0.378326700010803","1","1","1","1","1","1","1","1","1"
"260054","img/object_images/note_book01.jpg","img/object_images/compass01.jpg","img/object_images/tennis_racket02.jpg","1","0","1","0","1","1","0.378326700010803","0.251143100002082","0.40578650002135","1","1","1","1","1","1","1","1","1"
"260054","img/object_images/tennis_racket02.jpg","img/object_images/note_book01.jpg","img/object_images/microscope01.jpg","1","1","1","1","0","0","0.40578650002135","0.378326700010803","0.411006799986353","1","1","1","1","1","1","1","1","1"
"260054","img/object_images/microscope01.jpg","img/object_images/tennis_racket02.jpg","img/object_images/crutches02.jpg","1","1","1","0","1","0","0.411006799986353","0.40578650002135","0.429391899990151","1","1","1","1","1","1","1","1","1"
"260054","img/object_images/crutches02.jpg","img/object_images/microscope01.jpg","img/object_images/ear_bud01.jpg","1","1","1","0","0","1","0.429391899990151","0.411006799986353","0.373146400030237","1","1","1","1","1","1","1","1","1"
"260054","img/object_images/ear_bud01.jpg","img/object_images/crutches02.jpg","img/object_images/wire02.jpg","1","1","1","1","0","1","0.373146400030237","0.429391899990151","0.376252499991097","1","1","1","1","1","1","1","1","1"
"260054","img/object_images/wire02.jpg","img/object_images/ear_bud01.jpg","img/object_images/floppy_disk02.jpg","1","1","1","1","1","0","0.376252499991097","0.373146400030237","0.34986069999286","1","1","1","1","1","1","1","1","1"
"260054","img/object_images/floppy_disk02.jpg","img/object_images/wire02.jpg","img/object_images/chess_piece02.jpg","1","1","1","0","1","1","0.34986069999286","0.376252499991097","0.408945100003621","1","1","1","1","1","1","1","1","1"
"260054","img/object_images/chess_piece02.jpg","img/object_images/floppy_disk02.jpg","img/object_images/lid01.jpg","1","1","1","1","0","1","0.408945100003621","0.34986069999286","0.336239700001897","1","1","1","1","1","1","1","1","1"
"260054","img/object_images/lid01.jpg","img/object_images/chess_piece02.jpg","img/object_images/usb02.jpg","1","1","1","1","1","0","0.336239700001897","0.408945100003621","0.483232400001725","1","1","1","1","1","1","1","1","1"
"260054","img/object_images/usb02.jpg","img/object_images/lid01.jpg","img/object_images/clock02.jpg","1","1","1","0","1","0","0.483232400001725","0.336239700001897","0.399663799995324","1","1","1","1","1","1","1","1","1"
"260054","img/object_images/clock02.jpg","img/object_images/usb02.jpg","img/object_images/floppy_disk03.jpg","1","1","1","0","0","1","0.399663799995324","0.483232400001725","0.466191499988781","1","1","1","1","1","1","1","1","1"
"260054","img/object_images/floppy_disk03.jpg","img/object_images/clock02.jpg","img/object_images/knife04.jpg","1","1","1","1","0","1","0.466191499988781","0.399663799995324","0.337862899992615","1","1","1","1","1","1","1","1","1"
"260054","img/object_images/knife04.jpg","img/object_images/floppy_disk03.jpg","img/object_images/cellphone01.jpg","1","1","1","1","1","1","0.337862899992615","0.466191499988781","0.414221300015924","1","1","1","1","1","1","1","1","1"
"260054","img/object_images/cellphone01.jpg","img/object_images/knife04.jpg","img/object_images/pillows01.jpg","1","1","1","1","1","1","0.414221300015924","0.337862899992615","0.317690299998503","1","1","1","1","1","1","1","1","1"
"260054","img/object_images/pillows01.jpg","img/object_images/cellphone01.jpg","img/object_images/knit05.jpg","1","1","1","1","1","1","0.317690299998503","0.414221300015924","0.31572350001079","1","1","1","1","1","1","1","1","1"
"260054","img/object_images/knit05.jpg","img/object_images/pillows01.jpg","img/object_images/tv02.jpg","1","1","0","1","1","0","0.31572350001079","0.317690299998503","0.392364300001646","1","1","1","1","1","1","1","1","1"
"260054","img/object_images/tv02.jpg","img/object_images/knit05.jpg","img/object_images/Staples01.jpg","0","1","1","0","1","1","0.392364300001646","0.31572350001079","0.397951399994781","1","1","1","1","1","1","1","1","1"
"260054","img/object_images/Staples01.jpg","img/object_images/tv02.jpg","img/object_images/Thermometer01.jpg","1","0","1","1","0","0","0.397951399994781","0.392364300001646","0.707827800011728","1","1","1","1","1","1","1","1","1"
"260054","img/object_images/Thermometer01.jpg","img/object_images/Staples01.jpg","img/object_images/paint_brush04.jpg","1","1","0","0","1","0","0.707827800011728","0.397951399994781","0.405521700013196","1","1","1","1","1","1","1","1","1"
"260054","img/object_images/paint_brush04.jpg","img/object_images/Thermometer01.jpg","img/object_images/book03.jpg","0","1","1","0","0","1","0.405521700013196","0.707827800011728","0.40305530000478","1","1","1","1","1","1","1","1","1"
"260054","img/object_images/book03.jpg","img/object_images/paint_brush04.jpg","img/object_images/bell02.jpg","1","0","1","1","0","0","0.40305530000478","0.405521700013196","0.444626200012863","1","1","1","1","1","1","1","1","1"
"260054","img/object_images/bell02.jpg","img/object_images/book03.jpg","img/object_images/Oven01.jpg","1","1","1","0","1","1","0.444626200012863","0.40305530000478","0.370591099985177","1","1","1","1","1","1","1","1","1"
"260054","img/object_images/Oven01.jpg","img/object_images/bell02.jpg","img/object_images/clip03.jpg","1","1","1","1","0","0","0.370591099985177","0.444626200012863","0.412634399981471","1","1","1","1","1","1","1","1","1"
"260054","img/object_images/clip03.jpg","img/object_images/Oven01.jpg","img/object_images/motorcycle01.jpg","1","1","1","0","1","1","0.412634399981471","0.370591099985177","0.348725700023351","1","1","1","1","1","1","1","1","1"
"260054","img/object_images/motorcycle01.jpg","img/object_images/clip03.jpg","img/object_images/pitcher01.jpg","1","1","1","1","0","0","0.348725700023351","0.412634399981471","0.423570699989796","1","1","1","1","1","1","1","1","1"
"260054","img/object_images/pitcher01.jpg","img/object_images/motorcycle01.jpg","img/object_images/bottle01.jpg","1","1","1","0","1","0","0.423570699989796","0.348725700023351","0.302132600016193","1","1","1","1","1","1","1","1","1"
"260054","img/object_images/bottle01.jpg","img/object_images/pitcher01.jpg","img/object_images/hammer03.jpg","1","1","1","0","0","1","0.302132600016193","0.423570699989796","0.354236299986951","1","1","1","1","1","1","1","1","1"
"260054","img/object_images/hammer03.jpg","img/object_images/bottle01.jpg","img/object_images/retainer01.jpg","1","1","1","1","0","0","0.354236299986951","0.302132600016193","0.489864400005899","1","1","1","1","1","1","1","1","1"
"260054","img/object_images/retainer01.jpg","img/object_images/hammer03.jpg",NA,"1","1",NA,"0","1",NA,"0.489864400005899","0.354236299986951",NA,"1","1",NA,"1","1",NA,"1","1",NA
"260054","img/object_images/Kitchen_Towel.jpg",NA,"img/object_images/colander01.jpg","1",NA,"0","0",NA,"0","0.40796360000968",NA,"0.352273399999831","1",NA,"1","1",NA,"1","1",NA,"1"
"260054","img/object_images/colander01.jpg","img/object_images/Kitchen_Towel.jpg","img/object_images/cellphone02.jpg","0","1","1","0","0","1","0.352273399999831","0.40796360000968","0.32970380000188","1","1","1","1","1","1","1","1","1"
"260054","img/object_images/cellphone02.jpg","img/object_images/colander01.jpg","img/object_images/glasses06.jpg","1","0","1","1","0","1","0.32970380000188","0.352273399999831","0.372065600007773","1","1","1","1","1","1","1","1","1"
"260054","img/object_images/glasses06.jpg","img/object_images/cellphone02.jpg","img/object_images/bicycle_lock01.jpg","1","1","1","1","1","0","0.372065600007773","0.32970380000188","0.381308100011665","1","1","1","1","1","1","1","1","1"
"260054","img/object_images/bicycle_lock01.jpg","img/object_images/glasses06.jpg","img/object_images/yo_yo01.jpg","1","1","1","0","1","0","0.381308100011665","0.372065600007773","0.320188100013183","1","1","1","1","1","1","1","1","1"
"260054","img/object_images/yo_yo01.jpg","img/object_images/bicycle_lock01.jpg","img/object_images/glasses07.jpg","1","1","1","0","0","1","0.320188100013183","0.381308100011665","0.374039300018921","1","1","1","1","1","1","1","1","1"
"260054","img/object_images/glasses07.jpg","img/object_images/yo_yo01.jpg","img/object_images/Pottery01.jpg","1","1","1","1","0","0","0.374039300018921","0.320188100013183","0.347808099992108","1","1","1","1","1","1","1","1","1"
"260054","img/object_images/Pottery01.jpg","img/object_images/glasses07.jpg","img/object_images/tool08.jpg","1","1","1","0","1","0","0.347808099992108","0.374039300018921","0.338421499996912","1","1","1","1","1","1","1","1","1"
"260054","img/object_images/tool08.jpg","img/object_images/Pottery01.jpg","img/object_images/basket02.jpg","1","1","0","0","0","0","0.338421499996912","0.347808099992108","0.322663200000534","1","1","1","1","1","1","1","1","1"
"260054","img/object_images/basket02.jpg","img/object_images/tool08.jpg","img/object_images/book01.jpg","0","1","1","0","0","1","0.322663200000534","0.338421499996912","0.560495100013213","1","1","1","1","1","1","1","1","1"
"260054","img/object_images/book01.jpg","img/object_images/basket02.jpg","img/object_images/blanket01.jpg","1","0","1","1","0","1","0.560495100013213","0.322663200000534","0.349494199996116","1","1","1","1","1","1","1","1","1"
"260054","img/object_images/blanket01.jpg","img/object_images/book01.jpg","img/object_images/speaker01.jpg","1","1","1","1","1","1","0.349494199996116","0.560495100013213","0.392250100005185","1","1","1","1","1","1","1","1","1"
"260054","img/object_images/speaker01.jpg","img/object_images/blanket01.jpg","img/object_images/TrashCan02.jpg","1","1","1","1","1","1","0.392250100005185","0.349494199996116","0.393302699987544","1","1","1","1","1","1","1","1","1"
"260054","img/object_images/TrashCan02.jpg","img/object_images/speaker01.jpg","img/object_images/Sprayer01.jpg","1","1","1","1","1","0","0.393302699987544","0.392250100005185","0.336624200019287","1","1","1","1","1","1","1","1","1"
"260054","img/object_images/Sprayer01.jpg","img/object_images/TrashCan02.jpg","img/object_images/tool07.jpg","1","1","1","0","1","0","0.336624200019287","0.393302699987544","0.385117199999513","1","1","1","1","1","1","1","1","1"
"260054","img/object_images/tool07.jpg","img/object_images/Sprayer01.jpg","img/object_images/tray01.jpg","1","1","1","0","0","1","0.385117199999513","0.336624200019287","0.363554699986707","1","1","1","1","1","1","1","1","1"
"260054","img/object_images/tray01.jpg","img/object_images/tool07.jpg","img/object_images/exfoliater_brush01.jpg","1","1","0","1","0","0","0.363554699986707","0.385117199999513","0.358322199987015","1","1","1","1","1","1","1","1","1"
"260054","img/object_images/exfoliater_brush01.jpg","img/object_images/tray01.jpg","img/object_images/jewelry09.jpg","0","1","1","0","1","1","0.358322199987015","0.363554699986707","0.346930500003509","1","1","1","1","1","1","1","1","1"
"260054","img/object_images/jewelry09.jpg","img/object_images/exfoliater_brush01.jpg","img/object_images/purse01.jpg","1","0","1","1","0","1","0.346930500003509","0.358322199987015","0.327231200004462","1","1","1","1","1","1","1","1","1"
"260054","img/object_images/purse01.jpg","img/object_images/jewelry09.jpg","img/object_images/Traffic Sign 01.jpg","1","1","0","1","1","0","0.327231200004462","0.346930500003509","0.341894899989711","1","1","1","1","1","1","1","1","1"
"260054","img/object_images/Traffic Sign 01.jpg","img/object_images/purse01.jpg","img/object_images/hair_clips01.jpg","0","1","1","0","1","1","0.341894899989711","0.327231200004462","0.330212500004563","1","1","1","1","1","1","1","1","1"
"260054","img/object_images/hair_clips01.jpg","img/object_images/Traffic Sign 01.jpg","img/object_images/cup03.jpg","1","0","1","1","0","1","0.330212500004563","0.341894899989711","0.352819100022316","1","1","1","1","1","1","1","1","1"
"260054","img/object_images/cup03.jpg","img/object_images/hair_clips01.jpg","img/object_images/fire_extinguisher01.jpg","1","1","0","1","1","0","0.352819100022316","0.330212500004563","0.26781089999713","1","1","1","1","1","1","1","1","1"
"260054","img/object_images/fire_extinguisher01.jpg","img/object_images/cup03.jpg","img/object_images/faucet01.jpg","0","1","0","0","1","0","0.26781089999713","0.352819100022316","0.400388199981535","1","1","1","1","1","1","1","1","1"
"260054","img/object_images/faucet01.jpg","img/object_images/fire_extinguisher01.jpg","img/object_images/pan01.jpg","0","0","1","0","0","1","0.400388199981535","0.26781089999713","0.350215399987064","1","1","1","1","1","1","1","1","1"
"260054","img/object_images/pan01.jpg","img/object_images/faucet01.jpg","img/object_images/hole_puncher01.jpg","1","0","1","1","0","1","0.350215399987064","0.400388199981535","0.334738300007302","1","1","1","1","1","1","1","1","1"
"260054","img/object_images/hole_puncher01.jpg","img/object_images/pan01.jpg","img/object_images/projector01.jpg","1","1","0","1","1","0","0.334738300007302","0.350215399987064","0.361867600004189","1","1","1","1","1","1","1","1","1"
"260054","img/object_images/projector01.jpg","img/object_images/hole_puncher01.jpg","img/object_images/lighter01.jpg","0","1","1","0","1","1","0.361867600004189","0.334738300007302","0.408702300017467","1","1","1","1","1","1","1","1","1"
"260054","img/object_images/lighter01.jpg","img/object_images/projector01.jpg","img/object_images/ring03.jpg","1","0","1","1","0","1","0.408702300017467","0.361867600004189","0.340197099983925","1","1","1","1","1","1","1","1","1"
"260054","img/object_images/ring03.jpg","img/object_images/lighter01.jpg","img/object_images/handcuffs01.jpg","1","1","1","1","1","0","0.340197099983925","0.408702300017467","0.382044900004985","1","1","1","1","1","1","1","1","1"
"260054","img/object_images/handcuffs01.jpg","img/object_images/ring03.jpg","img/object_images/gift_box04.jpg","1","1","1","0","1","0","0.382044900004985","0.340197099983925","0.440758700016886","1","1","1","1","1","1","1","1","1"
"260054","img/object_images/gift_box04.jpg","img/object_images/handcuffs01.jpg",NA,"1","1",NA,"0","0",NA,"0.440758700016886","0.382044900004985",NA,"1","1",NA,"1","1",NA,"1","1",NA
"260054","img/object_images/bicycle01.jpg",NA,"img/object_images/boat02.jpg","1",NA,"1","1",NA,"1","0.449860499997158",NA,"0.314925999991829","1",NA,"1","1",NA,"1","1",NA,"1"
"260054","img/object_images/boat02.jpg","img/object_images/bicycle01.jpg","img/object_images/WoodBox01.jpg","1","1","0","1","1","0","0.314925999991829","0.449860499997158","0.346107000019401","1","1","1","1","1","1","1","1","1"
"260054","img/object_images/WoodBox01.jpg","img/object_images/boat02.jpg","img/object_images/scoreboard01.jpg","0","1","1","0","1","1","0.346107000019401","0.314925999991829","0.340690900018672","1","1","1","1","1","1","1","1","1"
"260054","img/object_images/scoreboard01.jpg","img/object_images/WoodBox01.jpg","img/object_images/toaster01.jpg","1","0","1","1","0","1","0.340690900018672","0.346107000019401","0.405762099981075","1","1","1","1","1","1","1","1","1"
"260054","img/object_images/toaster01.jpg","img/object_images/scoreboard01.jpg","img/object_images/toilet_paper_dispenser01.jpg","1","1","1","1","1","1","0.405762099981075","0.340690900018672","0.316148599988082","1","1","1","1","1","1","1","1","1"
"260054","img/object_images/toilet_paper_dispenser01.jpg","img/object_images/toaster01.jpg","img/object_images/tool19.jpg","1","1","1","1","1","1","0.316148599988082","0.405762099981075","0.392211300000781","1","1","1","1","1","1","1","1","1"
"260054","img/object_images/tool19.jpg","img/object_images/toilet_paper_dispenser01.jpg","img/object_images/purse04.jpg","1","1","1","1","1","1","0.392211300000781","0.316148599988082","0.402404199994635","1","1","1","1","1","1","1","1","1"
"260054","img/object_images/purse04.jpg","img/object_images/tool19.jpg","img/object_images/bottle10.jpg","1","1","1","1","1","1","0.402404199994635","0.392211300000781","0.343127000000095","1","1","1","1","1","1","1","1","1"
"260054","img/object_images/bottle10.jpg","img/object_images/purse04.jpg","img/object_images/hat06.jpg","1","1","0","1","1","0","0.343127000000095","0.402404199994635","0.33856940001715","1","1","1","1","1","1","1","1","1"
"260054","img/object_images/hat06.jpg","img/object_images/bottle10.jpg","img/object_images/boat_toy10.jpg","0","1","0","0","1","0","0.33856940001715","0.343127000000095","0.368199199991068","1","1","1","1","1","1","1","1","1"
"260054","img/object_images/boat_toy10.jpg","img/object_images/hat06.jpg","img/object_images/helmet04.jpg","0","0","1","0","0","1","0.368199199991068","0.33856940001715","0.367409600003157","1","1","1","1","1","1","1","1","1"
"260054","img/object_images/helmet04.jpg","img/object_images/boat_toy10.jpg","img/object_images/tie02.jpg","1","0","1","1","0","0","0.367409600003157","0.368199199991068","0.360531199985417","1","1","1","1","1","1","1","1","1"
"260054","img/object_images/tie02.jpg","img/object_images/helmet04.jpg","img/object_images/water_scooter01.jpg","1","1","0","0","1","1","0.360531199985417","0.367409600003157","0.345650100003695","1","1","1","1","1","1","1","1","1"
"260054","img/object_images/water_scooter01.jpg","img/object_images/tie02.jpg","img/object_images/piggy_bank01.jpg","0","1","1","1","0","1","0.345650100003695","0.360531199985417","0.33667570000398","1","1","1","1","1","1","1","1","1"
"260054","img/object_images/piggy_bank01.jpg","img/object_images/water_scooter01.jpg","img/object_images/dog_leash01.jpg","1","0","0","1","1","0","0.33667570000398","0.345650100003695","0.268374699982814","1","1","1","1","1","1","1","1","1"
"260054","img/object_images/dog_leash01.jpg","img/object_images/piggy_bank01.jpg","img/object_images/flask01.jpg","0","1","1","0","1","0","0.268374699982814","0.33667570000398","0.413849300006405","1","1","1","1","1","1","1","1","1"
"260054","img/object_images/flask01.jpg","img/object_images/dog_leash01.jpg","img/object_images/audio_port01.jpg","1","0","0","0","0","1","0.413849300006405","0.268374699982814","0.237363300024299","1","1","1","1","1","1","1","1","1"
"260054","img/object_images/audio_port01.jpg","img/object_images/flask01.jpg","img/object_images/chair03.jpg","0","1","1","1","0","0","0.237363300024299","0.413849300006405","0.370070799981477","1","1","1","1","1","1","1","1","1"
"260054","img/object_images/chair03.jpg","img/object_images/audio_port01.jpg","img/object_images/bottle09.jpg","1","0","1","0","1","0","0.370070799981477","0.237363300024299","0.322201900009532","1","1","1","1","1","1","1","1","1"
"260054","img/object_images/bottle09.jpg","img/object_images/chair03.jpg","img/object_images/fan02.jpg","1","1","0","0","0","0","0.322201900009532","0.370070799981477","0.31289079997805","1","1","1","1","1","1","1","1","1"
"260054","img/object_images/fan02.jpg","img/object_images/bottle09.jpg","img/object_images/knit01.jpg","0","1","1","0","0","0","0.31289079997805","0.322201900009532","0.439100699994015","1","1","1","1","1","1","1","1","1"
"260054","img/object_images/knit01.jpg","img/object_images/fan02.jpg","img/object_images/shoes07.jpg","1","0","0","0","0","0","0.439100699994015","0.31289079997805","0.325163500005146","1","1","1","1","1","1","1","1","1"
"260054","img/object_images/shoes07.jpg","img/object_images/knit01.jpg","img/object_images/bottle02.jpg","0","1","1","0","0","1","0.325163500005146","0.439100699994015","0.384517600003164","1","1","1","1","1","1","1","1","1"
"260054","img/object_images/bottle02.jpg","img/object_images/shoes07.jpg","img/object_images/cellphone03.jpg","1","0","0","1","0","0","0.384517600003164","0.325163500005146","0.300540700001875","1","1","1","1","1","1","1","1","1"
"260054","img/object_images/cellphone03.jpg","img/object_images/bottle02.jpg","img/object_images/wagon_cart03.jpg","0","1","1","0","1","1","0.300540700001875","0.384517600003164","0.325022699980764","1","1","1","1","1","1","1","1","1"
"260054","img/object_images/wagon_cart03.jpg","img/object_images/cellphone03.jpg","img/object_images/perfume02.jpg","1","0","1","1","0","0","0.325022699980764","0.300540700001875","0.416786999994656","1","1","1","1","1","1","1","1","1"
"260054","img/object_images/perfume02.jpg","img/object_images/wagon_cart03.jpg","img/object_images/pen05.jpg","1","1","0","0","1","0","0.416786999994656","0.325022699980764","0.343862400011858","1","1","1","1","1","1","1","1","1"
"260054","img/object_images/pen05.jpg","img/object_images/perfume02.jpg","img/object_images/bean_bag02.jpg","0","1","1","0","0","1","0.343862400011858","0.416786999994656","0.328013599995757","1","1","1","1","1","1","1","1","1"
"260054","img/object_images/bean_bag02.jpg","img/object_images/pen05.jpg","img/object_images/coloring_pencil02.jpg","1","0","0","1","0","0","0.328013599995757","0.343862400011858","0.355310900020413","1","1","1","1","1","1","1","1","1"
"260054","img/object_images/coloring_pencil02.jpg","img/object_images/bean_bag02.jpg","img/object_images/hot_air_balloon02.jpg","0","1","0","0","1","0","0.355310900020413","0.328013599995757","0.391790599998785","1","1","1","1","1","1","1","1","1"
"260054","img/object_images/hot_air_balloon02.jpg","img/object_images/coloring_pencil02.jpg","img/object_images/camera_lens01.jpg","0","0","1","0","0","1","0.391790599998785","0.355310900020413","0.355732500000158","1","1","1","1","1","1","1","1","1"
"260054","img/object_images/camera_lens01.jpg","img/object_images/hot_air_balloon02.jpg",NA,"1","0",NA,"1","0",NA,"0.355732500000158","0.391790599998785",NA,"1","1",NA,"1","1",NA,"1","1",NA
"260054","img/object_images/bucket01.jpg",NA,"img/object_images/water_gun01.jpg","1",NA,"1","1",NA,"1","0.403271599992877",NA,"0.354872000025352","1",NA,"1","1",NA,"1","1",NA,"1"
"260054","img/object_images/water_gun01.jpg","img/object_images/bucket01.jpg","img/object_images/jewel02.jpg","1","1","0","1","1","0","0.354872000025352","0.403271599992877","0.308993500017095","1","1","1","1","1","1","1","1","1"
"260054","img/object_images/jewel02.jpg","img/object_images/water_gun01.jpg","img/object_images/bottle06.jpg","0","1","1","0","1","0","0.308993500017095","0.354872000025352","0.439372000022558","1","1","1","1","1","1","1","1","1"
"260054","img/object_images/bottle06.jpg","img/object_images/jewel02.jpg","img/object_images/pitcher07.jpg","1","0","1","0","0","1","0.439372000022558","0.308993500017095","0.38682620000327","1","1","1","1","1","1","1","1","1"
"260054","img/object_images/pitcher07.jpg","img/object_images/bottle06.jpg","img/object_images/phone04.jpg","1","1","0","1","0","1","0.38682620000327","0.439372000022558","0.238581800018437","1","1","1","1","1","1","1","1","1"
"260054","img/object_images/phone04.jpg","img/object_images/pitcher07.jpg","img/object_images/nut_cracker01.jpg","0","1","1","1","1","1","0.238581800018437","0.38682620000327","0.373743600008311","1","1","1","1","1","1","1","1","1"
"260054","img/object_images/nut_cracker01.jpg","img/object_images/phone04.jpg","img/object_images/trumpet01.jpg","1","0","0","1","1","0","0.373743600008311","0.238581800018437","0.31818159998511","1","1","1","1","1","1","1","1","1"
"260054","img/object_images/trumpet01.jpg","img/object_images/nut_cracker01.jpg","img/object_images/helmet03.jpg","0","1","0","0","1","1","0.31818159998511","0.373743600008311","0.34154690001742","1","1","1","1","1","1","1","1","1"
"260054","img/object_images/helmet03.jpg","img/object_images/trumpet01.jpg","img/object_images/belt03.jpg","0","0","0","1","0","0","0.34154690001742","0.31818159998511","0.327113100007409","1","1","1","1","1","1","1","1","1"
"260054","img/object_images/belt03.jpg","img/object_images/helmet03.jpg","img/object_images/frame01.jpg","0","0","1","0","1","1","0.327113100007409","0.34154690001742","0.34782150000683","1","1","1","1","1","1","1","1","1"
"260054","img/object_images/frame01.jpg","img/object_images/belt03.jpg","img/object_images/shovel01.jpg","1","0","1","1","0","0","0.34782150000683","0.327113100007409","0.506135599978734","1","1","1","1","1","1","1","1","1"
"260054","img/object_images/shovel01.jpg","img/object_images/frame01.jpg","img/object_images/bookmark01.jpg","1","1","1","0","1","0","0.506135599978734","0.34782150000683","0.315419899998233","1","1","1","1","1","1","1","1","1"
"260054","img/object_images/bookmark01.jpg","img/object_images/shovel01.jpg","img/object_images/dice01.jpg","1","1","1","0","0","0","0.315419899998233","0.506135599978734","0.472820900002262","1","1","1","1","1","1","1","1","1"
"260054","img/object_images/dice01.jpg","img/object_images/bookmark01.jpg","img/object_images/joystick03.jpg","1","1","0","0","0","1","0.472820900002262","0.315419899998233","0.350976799993077","1","1","1","1","1","1","1","1","1"
"260054","img/object_images/joystick03.jpg","img/object_images/dice01.jpg","img/object_images/ToolBag01.jpg","0","1","1","1","0","0","0.350976799993077","0.472820900002262","0.412342099996749","1","1","1","1","1","1","1","1","1"
"260054","img/object_images/ToolBag01.jpg","img/object_images/joystick03.jpg","img/object_images/TreeSlice01.jpg","1","0","1","0","1","1","0.412342099996749","0.350976799993077","0.341175799985649","1","1","1","1","1","1","1","1","1"
"260054","img/object_images/TreeSlice01.jpg","img/object_images/ToolBag01.jpg","img/object_images/origami01.jpg","1","1","1","1","0","1","0.341175799985649","0.412342099996749","0.391751099989051","1","1","1","1","1","1","1","1","1"
"260054","img/object_images/origami01.jpg","img/object_images/TreeSlice01.jpg","img/object_images/Safe01.jpg","1","1","1","1","1","1","0.391751099989051","0.341175799985649","0.330853799998295","1","1","1","1","1","1","1","1","1"
"260054","img/object_images/Safe01.jpg","img/object_images/origami01.jpg","img/object_images/note_book02.jpg","1","1","0","1","1","0","0.330853799998295","0.391751099989051","0.356283100001747","1","1","1","1","1","1","1","1","1"
"260054","img/object_images/note_book02.jpg","img/object_images/Safe01.jpg","img/object_images/headset02.jpg","0","1","0","0","1","0","0.356283100001747","0.330853799998295","0.35753440001281","1","1","1","1","1","1","1","1","1"
"260054","img/object_images/headset02.jpg","img/object_images/note_book02.jpg","img/object_images/Shoes05.jpg","0","0","1","0","0","0","0.35753440001281","0.356283100001747","0.356473899999401","1","1","1","1","1","1","1","1","1"
"260054","img/object_images/Shoes05.jpg","img/object_images/headset02.jpg","img/object_images/tennis_racket01.jpg","1","0","1","0","0","1","0.356473899999401","0.35753440001281","0.385945399990305","1","1","1","1","1","1","1","1","1"
"260054","img/object_images/tennis_racket01.jpg","img/object_images/Shoes05.jpg","img/object_images/scale02.jpg","1","1","1","1","0","0","0.385945399990305","0.356473899999401","0.324240899994038","1","1","1","1","1","1","1","1","1"
"260054","img/object_images/scale02.jpg","img/object_images/tennis_racket01.jpg","img/object_images/Eyeliner01.jpg","1","1","1","0","1","1","0.324240899994038","0.385945399990305","0.345489900006214","1","1","1","1","1","1","1","1","1"
"260054","img/object_images/Eyeliner01.jpg","img/object_images/scale02.jpg","img/object_images/fan01.jpg","1","1","0","1","0","0","0.345489900006214","0.324240899994038","0.329054500005441","1","1","1","1","1","1","1","1","1"
"260054","img/object_images/fan01.jpg","img/object_images/Eyeliner01.jpg","img/object_images/egg_basket01.jpg","0","1","1","0","1","1","0.329054500005441","0.345489900006214","0.343937700003153","1","1","1","1","1","1","1","1","1"
"260054","img/object_images/egg_basket01.jpg","img/object_images/fan01.jpg","img/object_images/lock03.jpg","1","0","1","1","0","1","0.343937700003153","0.329054500005441","0.363847900007386","1","1","1","1","1","1","1","1","1"
"260054","img/object_images/lock03.jpg","img/object_images/egg_basket01.jpg","img/object_images/piano03.jpg","1","1","0","1","1","0","0.363847900007386","0.343937700003153","0.391093899990665","1","1","1","1","1","1","1","1","1"
"260054","img/object_images/piano03.jpg","img/object_images/lock03.jpg","img/object_images/yoga_mat01.jpg","0","1","0","0","1","0","0.391093899990665","0.363847900007386","0.2542840000242","1","1","1","1","1","1","1","1","1"
"260054","img/object_images/yoga_mat01.jpg","img/object_images/piano03.jpg","img/object_images/usb03.jpg","0","0","0","0","0","0","0.2542840000242","0.391093899990665","0.325440400018124","1","1","1","1","1","1","1","1","1"
"260054","img/object_images/usb03.jpg","img/object_images/yoga_mat01.jpg","img/object_images/badminton01.jpg","0","0","1","0","0","1","0.325440400018124","0.2542840000242","0.404837300011422","1","1","1","1","1","1","1","1","1"
"260054","img/object_images/badminton01.jpg","img/object_images/usb03.jpg",NA,"1","0",NA,"1","0",NA,"0.404837300011422","0.325440400018124",NA,"1","1",NA,"1","1",NA,"1","1",NA
