"participant_id","current_trial_object","pre_trial_object","post_trial_object","current_trial_accuracy","pre_trial_accuracy","post_trial_accuracy","current_trial_congruency","pre_trial_congruency","post_trial_congruency","current_trial_rt","pre_trial_rt","post_trial_rt","current_trial_responded","pre_trial_responded","post_trial_responded","current_trial_legitResponse","pre_trial_legitResponse","post_trial_legitResponse","current_trial_resp_nums","pre_trial_resp_nums","post_trial_resp_nums"
"260044","img/object_images/guitar01.jpg",NA,"img/object_images/broom01.jpg","1",NA,"1","1",NA,"1","0.742583400104195",NA,"0.632179099833593","1",NA,"1","1",NA,"1","1",NA,"1"
"260044","img/object_images/broom01.jpg","img/object_images/guitar01.jpg","img/object_images/chair01.jpg","1","1","1","1","1","0","0.632179099833593","0.742583400104195","0.895427399780601","1","1","1","1","1","1","1","1","1"
"260044","img/object_images/chair01.jpg","img/object_images/broom01.jpg","img/object_images/tie01.jpg","1","1","1","0","1","0","0.895427399780601","0.632179099833593","0.577920299954712","1","1","1","1","1","1","1","1","1"
"260044","img/object_images/tie01.jpg","img/object_images/chair01.jpg","img/object_images/cochlear_implant01.jpg","1","1","1","0","0","0","0.577920299954712","0.895427399780601","0.641797999851406","1","1","1","1","1","1","1","1","1"
"260044","img/object_images/cochlear_implant01.jpg","img/object_images/tie01.jpg","img/object_images/Recycling01.jpg","1","1","1","0","0","1","0.641797999851406","0.577920299954712","0.550641599809751","1","1","1","1","1","1","1","1","1"
"260044","img/object_images/Recycling01.jpg","img/object_images/cochlear_implant01.jpg","img/object_images/soap01.jpg","1","1","1","1","0","0","0.550641599809751","0.641797999851406","0.612011199817061","1","1","1","1","1","1","1","1","1"
"260044","img/object_images/soap01.jpg","img/object_images/Recycling01.jpg","img/object_images/gloves05.jpg","1","1","1","0","1","1","0.612011199817061","0.550641599809751","0.611364599782974","1","1","1","1","1","1","1","1","1"
"260044","img/object_images/gloves05.jpg","img/object_images/soap01.jpg","img/object_images/couch04.jpg","1","1","1","1","0","1","0.611364599782974","0.612011199817061","0.583102699834853","1","1","1","1","1","1","1","1","1"
"260044","img/object_images/couch04.jpg","img/object_images/gloves05.jpg","img/object_images/lantern01.jpg","1","1","1","1","1","1","0.583102699834853","0.611364599782974","0.541343199787661","1","1","1","1","1","1","1","1","1"
"260044","img/object_images/lantern01.jpg","img/object_images/couch04.jpg","img/object_images/hat02.jpg","1","1","1","1","1","0","0.541343199787661","0.583102699834853","0.623608499998227","1","1","1","1","1","1","1","1","1"
"260044","img/object_images/hat02.jpg","img/object_images/lantern01.jpg","img/object_images/ironing_table02.jpg","1","1","1","0","1","0","0.623608499998227","0.541343199787661","0.542902999790385","1","1","1","1","1","1","1","1","1"
"260044","img/object_images/ironing_table02.jpg","img/object_images/hat02.jpg","img/object_images/basketball_hoop02.jpg","1","1","1","0","0","0","0.542902999790385","0.623608499998227","0.468480799812824","1","1","1","1","1","1","1","1","1"
"260044","img/object_images/basketball_hoop02.jpg","img/object_images/ironing_table02.jpg","img/object_images/Wisk01.jpg","1","1","1","0","0","1","0.468480799812824","0.542902999790385","0.573820399818942","1","1","1","1","1","1","1","1","1"
"260044","img/object_images/Wisk01.jpg","img/object_images/basketball_hoop02.jpg","img/object_images/toy_train02.jpg","1","1","1","1","0","1","0.573820399818942","0.468480799812824","0.558107499964535","1","1","1","1","1","1","1","1","1"
"260044","img/object_images/toy_train02.jpg","img/object_images/Wisk01.jpg","img/object_images/brief_case02.jpg","1","1","1","1","1","1","0.558107499964535","0.573820399818942","0.618115599732846","1","1","1","1","1","1","1","1","1"
"260044","img/object_images/brief_case02.jpg","img/object_images/toy_train02.jpg","img/object_images/Woopie01.jpg","1","1","1","1","1","1","0.618115599732846","0.558107499964535","0.700802599778399","1","1","1","1","1","1","1","1","1"
"260044","img/object_images/Woopie01.jpg","img/object_images/brief_case02.jpg","img/object_images/container01.jpg","1","1","1","1","1","0","0.700802599778399","0.618115599732846","0.550578899914399","1","1","1","1","1","1","1","1","1"
"260044","img/object_images/container01.jpg","img/object_images/Woopie01.jpg","img/object_images/helmet05.jpg","1","1","1","0","1","1","0.550578899914399","0.700802599778399","0.644211999839172","1","1","1","1","1","1","1","1","1"
"260044","img/object_images/helmet05.jpg","img/object_images/container01.jpg","img/object_images/decorative02.jpg","1","1","1","1","0","0","0.644211999839172","0.550578899914399","0.657671600114554","1","1","1","1","1","1","1","1","1"
"260044","img/object_images/decorative02.jpg","img/object_images/helmet05.jpg","img/object_images/drone02.jpg","1","1","1","0","1","0","0.657671600114554","0.644211999839172","0.556714299833402","1","1","1","1","1","1","1","1","1"
"260044","img/object_images/drone02.jpg","img/object_images/decorative02.jpg","img/object_images/toilet_paper01.jpg","1","1","1","0","0","1","0.556714299833402","0.657671600114554","0.672966499812901","1","1","1","1","1","1","1","1","1"
"260044","img/object_images/toilet_paper01.jpg","img/object_images/drone02.jpg","img/object_images/video_game06.jpg","1","1","1","1","0","0","0.672966499812901","0.556714299833402","0.645581999793649","1","1","1","1","1","1","1","1","1"
"260044","img/object_images/video_game06.jpg","img/object_images/toilet_paper01.jpg","img/object_images/pitcher03.jpg","1","1","1","0","1","1","0.645581999793649","0.672966499812901","0.589124199701473","1","1","1","1","1","1","1","1","1"
"260044","img/object_images/pitcher03.jpg","img/object_images/video_game06.jpg","img/object_images/pot01.jpg","1","1","1","1","0","0","0.589124199701473","0.645581999793649","0.548341199988499","1","1","1","1","1","1","1","1","1"
"260044","img/object_images/pot01.jpg","img/object_images/pitcher03.jpg","img/object_images/ball01.jpg","1","1","1","0","1","1","0.548341199988499","0.589124199701473","0.506879199994728","1","1","1","1","1","1","1","1","1"
"260044","img/object_images/ball01.jpg","img/object_images/pot01.jpg","img/object_images/brief_case01.jpg","1","1","1","1","0","0","0.506879199994728","0.548341199988499","0.697293599834666","1","1","1","1","1","1","1","1","1"
"260044","img/object_images/brief_case01.jpg","img/object_images/ball01.jpg","img/object_images/bottle12.jpg","1","1","1","0","1","1","0.697293599834666","0.506879199994728","0.622544199926779","1","1","1","1","1","1","1","1","1"
"260044","img/object_images/bottle12.jpg","img/object_images/brief_case01.jpg","img/object_images/airfryer01.jpg","1","1","1","1","0","0","0.622544199926779","0.697293599834666","0.686588499927893","1","1","1","1","1","1","1","1","1"
"260044","img/object_images/airfryer01.jpg","img/object_images/bottle12.jpg","img/object_images/lamp01.jpg","1","1","1","0","1","1","0.686588499927893","0.622544199926779","0.553458399837837","1","1","1","1","1","1","1","1","1"
"260044","img/object_images/lamp01.jpg","img/object_images/airfryer01.jpg","img/object_images/car02.jpg","1","1","0","1","0","0","0.553458399837837","0.686588499927893","1.14619109989144","1","1","1","1","1","1","1","1","1"
"260044","img/object_images/car02.jpg","img/object_images/lamp01.jpg","img/object_images/razor03.jpg","0","1","1","0","1","0","1.14619109989144","0.553458399837837","0.642526999814436","1","1","1","1","1","1","1","1","1"
"260044","img/object_images/razor03.jpg","img/object_images/car02.jpg",NA,"1","0",NA,"0","0",NA,"0.642526999814436","1.14619109989144",NA,"1","1",NA,"1","1",NA,"1","1",NA
"260044","img/object_images/pillows01.jpg",NA,"img/object_images/chess_piece02.jpg","1",NA,"1","1",NA,"1","0.514727599918842",NA,"0.563909400021657","1",NA,"1","1",NA,"1","1",NA,"1"
"260044","img/object_images/chess_piece02.jpg","img/object_images/pillows01.jpg","img/object_images/knife04.jpg","1","1","1","1","1","1","0.563909400021657","0.514727599918842","0.394154199864715","1","1","1","1","1","1","1","1","1"
"260044","img/object_images/knife04.jpg","img/object_images/chess_piece02.jpg","img/object_images/Staples01.jpg","1","1","1","1","1","1","0.394154199864715","0.563909400021657","0.364741399884224","1","1","1","1","1","1","1","1","1"
"260044","img/object_images/Staples01.jpg","img/object_images/knife04.jpg","img/object_images/clock02.jpg","1","1","1","1","1","0","0.364741399884224","0.394154199864715","0.552851199870929","1","1","1","1","1","1","1","1","1"
"260044","img/object_images/clock02.jpg","img/object_images/Staples01.jpg","img/object_images/lid01.jpg","1","1","1","0","1","1","0.552851199870929","0.364741399884224","0.722197900060564","1","1","1","1","1","1","1","1","1"
"260044","img/object_images/lid01.jpg","img/object_images/clock02.jpg","img/object_images/Oven01.jpg","1","1","1","1","0","1","0.722197900060564","0.552851199870929","0.423322999849916","1","1","1","1","1","1","1","1","1"
"260044","img/object_images/Oven01.jpg","img/object_images/lid01.jpg","img/object_images/bottle01.jpg","1","1","1","1","1","0","0.423322999849916","0.722197900060564","0.580574499908835","1","1","1","1","1","1","1","1","1"
"260044","img/object_images/bottle01.jpg","img/object_images/Oven01.jpg","img/object_images/book03.jpg","1","1","1","0","1","1","0.580574499908835","0.423322999849916","0.422341200057417","1","1","1","1","1","1","1","1","1"
"260044","img/object_images/book03.jpg","img/object_images/bottle01.jpg","img/object_images/retainer01.jpg","1","1","1","1","0","0","0.422341200057417","0.580574499908835","0.512197999749333","1","1","1","1","1","1","1","1","1"
"260044","img/object_images/retainer01.jpg","img/object_images/book03.jpg","img/object_images/cellphone01.jpg","1","1","1","0","1","1","0.512197999749333","0.422341200057417","0.431394099956378","1","1","1","1","1","1","1","1","1"
"260044","img/object_images/cellphone01.jpg","img/object_images/retainer01.jpg","img/object_images/knit05.jpg","1","1","1","1","0","1","0.431394099956378","0.512197999749333","0.471339499810711","1","1","1","1","1","1","1","1","1"
"260044","img/object_images/knit05.jpg","img/object_images/cellphone01.jpg","img/object_images/usb02.jpg","1","1","1","1","1","0","0.471339499810711","0.431394099956378","0.580375699792057","1","1","1","1","1","1","1","1","1"
"260044","img/object_images/usb02.jpg","img/object_images/knit05.jpg","img/object_images/paint_brush04.jpg","1","1","1","0","1","0","0.580375699792057","0.471339499810711","0.501256999792531","1","1","1","1","1","1","1","1","1"
"260044","img/object_images/paint_brush04.jpg","img/object_images/usb02.jpg","img/object_images/Thermometer01.jpg","1","1","1","0","0","0","0.501256999792531","0.580375699792057","0.455784999998286","1","1","1","1","1","1","1","1","1"
"260044","img/object_images/Thermometer01.jpg","img/object_images/paint_brush04.jpg","img/object_images/clip03.jpg","1","1","0","0","0","0","0.455784999998286","0.501256999792531","0.416213699849322","1","1","1","1","1","1","1","1","1"
"260044","img/object_images/clip03.jpg","img/object_images/Thermometer01.jpg","img/object_images/pitcher01.jpg","0","1","1","0","0","0","0.416213699849322","0.455784999998286","0.554520799778402","1","1","1","1","1","1","1","1","1"
"260044","img/object_images/pitcher01.jpg","img/object_images/clip03.jpg","img/object_images/note_book01.jpg","1","0","1","0","0","0","0.554520799778402","0.416213699849322","0.586670799879357","1","1","1","1","1","1","1","1","1"
"260044","img/object_images/note_book01.jpg","img/object_images/pitcher01.jpg","img/object_images/ear_bud01.jpg","1","1","1","0","0","1","0.586670799879357","0.554520799778402","0.483665799954906","1","1","1","1","1","1","1","1","1"
"260044","img/object_images/ear_bud01.jpg","img/object_images/note_book01.jpg","img/object_images/wire02.jpg","1","1","1","1","0","1","0.483665799954906","0.586670799879357","0.556806999724358","1","1","1","1","1","1","1","1","1"
"260044","img/object_images/wire02.jpg","img/object_images/ear_bud01.jpg","img/object_images/compass01.jpg","1","1","1","1","1","1","0.556806999724358","0.483665799954906","0.522602799814194","1","1","1","1","1","1","1","1","1"
"260044","img/object_images/compass01.jpg","img/object_images/wire02.jpg","img/object_images/pen03.jpg","1","1","1","1","1","0","0.522602799814194","0.556806999724358","0.46222409978509","1","1","1","1","1","1","1","1","1"
"260044","img/object_images/pen03.jpg","img/object_images/compass01.jpg","img/object_images/motorcycle01.jpg","1","1","1","0","1","1","0.46222409978509","0.522602799814194","0.450515500037","1","1","1","1","1","1","1","1","1"
"260044","img/object_images/motorcycle01.jpg","img/object_images/pen03.jpg","img/object_images/microscope01.jpg","1","1","1","1","0","0","0.450515500037","0.46222409978509","0.923568999860436","1","1","1","1","1","1","1","1","1"
"260044","img/object_images/microscope01.jpg","img/object_images/motorcycle01.jpg","img/object_images/hammer03.jpg","1","1","1","0","1","1","0.923568999860436","0.450515500037","0.549400599906221","1","1","1","1","1","1","1","1","1"
"260044","img/object_images/hammer03.jpg","img/object_images/microscope01.jpg","img/object_images/floppy_disk03.jpg","1","1","1","1","0","1","0.549400599906221","0.923568999860436","0.48292910004966","1","1","1","1","1","1","1","1","1"
"260044","img/object_images/floppy_disk03.jpg","img/object_images/hammer03.jpg","img/object_images/floppy_disk02.jpg","1","1","0","1","1","0","0.48292910004966","0.549400599906221","0.394638699945062","1","1","1","1","1","1","1","1","1"
"260044","img/object_images/floppy_disk02.jpg","img/object_images/floppy_disk03.jpg","img/object_images/chair05.jpg","0","1","1","0","1","0","0.394638699945062","0.48292910004966","0.61099989968352","1","1","1","1","1","1","1","1","1"
"260044","img/object_images/chair05.jpg","img/object_images/floppy_disk02.jpg","img/object_images/tv02.jpg","1","0","1","0","0","0","0.61099989968352","0.394638699945062","0.652788399718702","1","1","1","1","1","1","1","1","1"
"260044","img/object_images/tv02.jpg","img/object_images/chair05.jpg","img/object_images/crutches02.jpg","1","1","1","0","0","0","0.652788399718702","0.61099989968352","0.491022799862549","1","1","1","1","1","1","1","1","1"
"260044","img/object_images/crutches02.jpg","img/object_images/tv02.jpg","img/object_images/tennis_racket02.jpg","1","1","1","0","0","1","0.491022799862549","0.652788399718702","0.462402999866754","1","1","1","1","1","1","1","1","1"
"260044","img/object_images/tennis_racket02.jpg","img/object_images/crutches02.jpg","img/object_images/bell02.jpg","1","1","1","1","0","0","0.462402999866754","0.491022799862549","0.575004999991506","1","1","1","1","1","1","1","1","1"
"260044","img/object_images/bell02.jpg","img/object_images/tennis_racket02.jpg",NA,"1","1",NA,"0","1",NA,"0.575004999991506","0.462402999866754",NA,"1","1",NA,"1","1",NA,"1","1",NA
"260044","img/object_images/MeasuringCup01.jpg",NA,"img/object_images/key02.jpg","1",NA,"1","1",NA,"1","0.399272699840367",NA,"0.530369599815458","1",NA,"1","1",NA,"1","1",NA,"1"
"260044","img/object_images/key02.jpg","img/object_images/MeasuringCup01.jpg","img/object_images/slinky_toy01.jpg","1","1","1","1","1","1","0.530369599815458","0.399272699840367","0.401445399969816","1","1","1","1","1","1","1","1","1"
"260044","img/object_images/slinky_toy01.jpg","img/object_images/key02.jpg","img/object_images/screwdriver01.jpg","1","1","0","1","1","0","0.401445399969816","0.530369599815458","0.410650699865073","1","1","1","1","1","1","1","1","2"
"260044","img/object_images/screwdriver01.jpg","img/object_images/slinky_toy01.jpg","img/object_images/yarn02.jpg","0","1","1","0","1","0","0.410650699865073","0.401445399969816","0.490616099908948","1","1","1","1","1","1","2","1","1"
"260044","img/object_images/yarn02.jpg","img/object_images/screwdriver01.jpg","img/object_images/mask01.jpg","1","0","1","0","0","0","0.490616099908948","0.410650699865073","0.48307569976896","1","1","1","1","1","1","1","2","1"
"260044","img/object_images/mask01.jpg","img/object_images/yarn02.jpg","img/object_images/ribbon01.jpg","1","1","1","0","0","0","0.48307569976896","0.490616099908948","0.437786699738353","1","1","1","1","1","1","1","1","1"
"260044","img/object_images/ribbon01.jpg","img/object_images/mask01.jpg","img/object_images/car04.jpg","1","1","1","0","0","0","0.437786699738353","0.48307569976896","0.457680999767035","1","1","1","1","1","1","1","1","1"
"260044","img/object_images/car04.jpg","img/object_images/ribbon01.jpg","img/object_images/WitchHat02.jpg","1","1","1","0","0","1","0.457680999767035","0.437786699738353","0.347921599866822","1","1","1","1","1","1","1","1","1"
"260044","img/object_images/WitchHat02.jpg","img/object_images/car04.jpg","img/object_images/rock03.jpg","1","1","1","1","0","0","0.347921599866822","0.457680999767035","0.525863899849355","1","1","1","1","1","1","1","1","1"
"260044","img/object_images/rock03.jpg","img/object_images/WitchHat02.jpg","img/object_images/satellite01.jpg","1","1","1","0","1","0","0.525863899849355","0.347921599866822","0.480519300093874","1","1","1","1","1","1","1","1","1"
"260044","img/object_images/satellite01.jpg","img/object_images/rock03.jpg","img/object_images/binoculars03.jpg","1","1","1","0","0","1","0.480519300093874","0.525863899849355","0.447397199925035","1","1","1","1","1","1","1","1","1"
"260044","img/object_images/binoculars03.jpg","img/object_images/satellite01.jpg","img/object_images/cards01.jpg","1","1","1","1","0","0","0.447397199925035","0.480519300093874","0.423103399807587","1","1","1","1","1","1","1","1","1"
"260044","img/object_images/cards01.jpg","img/object_images/binoculars03.jpg","img/object_images/lemon_squeezer02.jpg","1","1","1","0","1","1","0.423103399807587","0.447397199925035","0.550393199780956","1","1","1","1","1","1","1","1","1"
"260044","img/object_images/lemon_squeezer02.jpg","img/object_images/cards01.jpg","img/object_images/jewel01.jpg","1","1","1","1","0","0","0.550393199780956","0.423103399807587","0.486816399963573","1","1","1","1","1","1","1","1","1"
"260044","img/object_images/jewel01.jpg","img/object_images/lemon_squeezer02.jpg","img/object_images/tool11.jpg","1","1","1","0","1","1","0.486816399963573","0.550393199780956","0.587734800064936","1","1","1","1","1","1","1","1","1"
"260044","img/object_images/tool11.jpg","img/object_images/jewel01.jpg","img/object_images/shoes10.jpg","1","1","1","1","0","0","0.587734800064936","0.486816399963573","0.510211299872026","1","1","1","1","1","1","1","1","1"
"260044","img/object_images/shoes10.jpg","img/object_images/tool11.jpg","img/object_images/ladle02.jpg","1","1","1","0","1","0","0.510211299872026","0.587734800064936","0.449562799884006","1","1","1","1","1","1","1","1","1"
"260044","img/object_images/ladle02.jpg","img/object_images/shoes10.jpg","img/object_images/dress03.jpg","1","1","1","0","0","1","0.449562799884006","0.510211299872026","0.487578499829397","1","1","1","1","1","1","1","1","1"
"260044","img/object_images/dress03.jpg","img/object_images/ladle02.jpg","img/object_images/car03.jpg","1","1","1","1","0","0","0.487578499829397","0.449562799884006","0.458633999805897","1","1","1","1","1","1","1","1","1"
"260044","img/object_images/car03.jpg","img/object_images/dress03.jpg","img/object_images/jewelry07.jpg","1","1","1","0","1","1","0.458633999805897","0.487578499829397","0.407727599842474","1","1","1","1","1","1","1","1","1"
"260044","img/object_images/jewelry07.jpg","img/object_images/car03.jpg","img/object_images/toaster02.jpg","1","1","1","1","0","1","0.407727599842474","0.458633999805897","0.381658599944785","1","1","1","1","1","1","1","1","1"
"260044","img/object_images/toaster02.jpg","img/object_images/jewelry07.jpg","img/object_images/fan05.jpg","1","1","1","1","1","0","0.381658599944785","0.407727599842474","0.448918099980801","1","1","1","1","1","1","1","1","1"
"260044","img/object_images/fan05.jpg","img/object_images/toaster02.jpg","img/object_images/shower_head03.jpg","1","1","1","0","1","1","0.448918099980801","0.381658599944785","0.396388900000602","1","1","1","1","1","1","1","1","1"
"260044","img/object_images/shower_head03.jpg","img/object_images/fan05.jpg","img/object_images/razor01.jpg","1","1","1","1","0","0","0.396388900000602","0.448918099980801","0.401690799975768","1","1","1","1","1","1","1","1","1"
"260044","img/object_images/razor01.jpg","img/object_images/shower_head03.jpg","img/object_images/cutting_board01.jpg","1","1","1","0","1","1","0.401690799975768","0.396388900000602","0.410350599791855","1","1","1","1","1","1","1","1","1"
"260044","img/object_images/cutting_board01.jpg","img/object_images/razor01.jpg","img/object_images/chair04.jpg","1","1","0","1","0","1","0.410350599791855","0.401690799975768","0.394182899734005","1","1","1","1","1","1","1","1","2"
"260044","img/object_images/chair04.jpg","img/object_images/cutting_board01.jpg","img/object_images/belt01.jpg","0","1","1","1","1","0","0.394182899734005","0.410350599791855","0.568296499783173","1","1","1","1","1","1","2","1","1"
"260044","img/object_images/belt01.jpg","img/object_images/chair04.jpg","img/object_images/ice_tray03.jpg","1","0","1","0","1","1","0.568296499783173","0.394182899734005","0.392127299914136","1","1","1","1","1","1","1","2","1"
"260044","img/object_images/ice_tray03.jpg","img/object_images/belt01.jpg","img/object_images/tv01.jpg","1","1","0","1","0","0","0.392127299914136","0.568296499783173","0.421957599930465","1","1","1","1","1","1","1","1","1"
"260044","img/object_images/tv01.jpg","img/object_images/ice_tray03.jpg","img/object_images/hair_brush05.jpg","0","1","1","0","1","1","0.421957599930465","0.392127299914136","0.387448199791834","1","1","1","1","1","1","1","1","1"
"260044","img/object_images/hair_brush05.jpg","img/object_images/tv01.jpg","img/object_images/bag06.jpg","1","0","1","1","0","1","0.387448199791834","0.421957599930465","0.471887599676847","1","1","1","1","1","1","1","1","1"
"260044","img/object_images/bag06.jpg","img/object_images/hair_brush05.jpg",NA,"1","1",NA,"1","1",NA,"0.471887599676847","0.387448199791834",NA,"1","1",NA,"1","1",NA,"1","1",NA
"260044","img/object_images/headset02.jpg",NA,"img/object_images/Eyeliner01.jpg","1",NA,"1","0",NA,"1","0.48065029992722",NA,"0.435020599747077","1",NA,"1","1",NA,"1","1",NA,"1"
"260044","img/object_images/Eyeliner01.jpg","img/object_images/headset02.jpg","img/object_images/lock03.jpg","1","1","1","1","0","1","0.435020599747077","0.48065029992722","0.382027999963611","1","1","1","1","1","1","1","1","1"
"260044","img/object_images/lock03.jpg","img/object_images/Eyeliner01.jpg","img/object_images/water_gun01.jpg","1","1","1","1","1","1","0.382027999963611","0.435020599747077","0.38098939997144","1","1","1","1","1","1","1","1","1"
"260044","img/object_images/water_gun01.jpg","img/object_images/lock03.jpg","img/object_images/note_book02.jpg","1","1","0","1","1","0","0.38098939997144","0.382027999963611","0.315472199814394","1","1","1","1","1","1","1","1","1"
"260044","img/object_images/note_book02.jpg","img/object_images/water_gun01.jpg","img/object_images/bookmark01.jpg","0","1","0","0","1","0","0.315472199814394","0.38098939997144","0.387475800001994","1","1","1","1","1","1","1","1","1"
"260044","img/object_images/bookmark01.jpg","img/object_images/note_book02.jpg","img/object_images/origami01.jpg","0","0","1","0","0","1","0.387475800001994","0.315472199814394","0.461376399965957","1","1","1","1","1","1","1","1","1"
"260044","img/object_images/origami01.jpg","img/object_images/bookmark01.jpg","img/object_images/Safe01.jpg","1","0","1","1","0","1","0.461376399965957","0.387475800001994","0.358670099871233","1","1","1","1","1","1","1","1","1"
"260044","img/object_images/Safe01.jpg","img/object_images/origami01.jpg","img/object_images/usb03.jpg","1","1","0","1","1","0","0.358670099871233","0.461376399965957","0.379941099788994","1","1","1","1","1","1","1","1","2"
"260044","img/object_images/usb03.jpg","img/object_images/Safe01.jpg","img/object_images/badminton01.jpg","0","1","1","0","1","1","0.379941099788994","0.358670099871233","0.51179390004836","1","1","1","1","1","1","2","1","1"
"260044","img/object_images/badminton01.jpg","img/object_images/usb03.jpg","img/object_images/trumpet01.jpg","1","0","1","1","0","0","0.51179390004836","0.379941099788994","0.509735899977386","1","1","1","1","1","1","1","2","1"
"260044","img/object_images/trumpet01.jpg","img/object_images/badminton01.jpg","img/object_images/piano03.jpg","1","1","1","0","1","0","0.509735899977386","0.51179390004836","0.428761699935421","1","1","1","1","1","1","1","1","1"
"260044","img/object_images/piano03.jpg","img/object_images/trumpet01.jpg","img/object_images/phone04.jpg","1","1","1","0","0","1","0.428761699935421","0.509735899977386","0.376851899782196","1","1","1","1","1","1","1","1","1"
"260044","img/object_images/phone04.jpg","img/object_images/piano03.jpg","img/object_images/bottle06.jpg","1","1","1","1","0","0","0.376851899782196","0.428761699935421","0.489542599767447","1","1","1","1","1","1","1","1","1"
"260044","img/object_images/bottle06.jpg","img/object_images/phone04.jpg","img/object_images/helmet03.jpg","1","1","1","0","1","1","0.489542599767447","0.376851899782196","0.489954999880865","1","1","1","1","1","1","1","1","1"
"260044","img/object_images/helmet03.jpg","img/object_images/bottle06.jpg","img/object_images/Shoes05.jpg","1","1","1","1","0","0","0.489954999880865","0.489542599767447","0.483771999832243","1","1","1","1","1","1","1","1","1"
"260044","img/object_images/Shoes05.jpg","img/object_images/helmet03.jpg","img/object_images/dice01.jpg","1","1","1","0","1","0","0.483771999832243","0.489954999880865","0.549283299827948","1","1","1","1","1","1","1","1","1"
"260044","img/object_images/dice01.jpg","img/object_images/Shoes05.jpg","img/object_images/belt03.jpg","1","1","0","0","0","0","0.549283299827948","0.483771999832243","0.465420699911192","1","1","1","1","1","1","1","1","1"
"260044","img/object_images/belt03.jpg","img/object_images/dice01.jpg","img/object_images/joystick03.jpg","0","1","1","0","0","1","0.465420699911192","0.549283299827948","0.564684099750593","1","1","1","1","1","1","1","1","1"
"260044","img/object_images/joystick03.jpg","img/object_images/belt03.jpg","img/object_images/TreeSlice01.jpg","1","0","1","1","0","1","0.564684099750593","0.465420699911192","0.464864199748263","1","1","1","1","1","1","1","1","1"
"260044","img/object_images/TreeSlice01.jpg","img/object_images/joystick03.jpg","img/object_images/jewel02.jpg","1","1","0","1","1","0","0.464864199748263","0.564684099750593","0.499513499904424","1","1","1","1","1","1","1","1","2"
"260044","img/object_images/jewel02.jpg","img/object_images/TreeSlice01.jpg","img/object_images/ToolBag01.jpg","0","1","1","0","1","0","0.499513499904424","0.464864199748263","0.582109599839896","1","1","1","1","1","1","2","1","1"
"260044","img/object_images/ToolBag01.jpg","img/object_images/jewel02.jpg","img/object_images/shovel01.jpg","1","0","1","0","0","0","0.582109599839896","0.499513499904424","0.565068399999291","1","1","1","1","1","1","1","2","1"
"260044","img/object_images/shovel01.jpg","img/object_images/ToolBag01.jpg","img/object_images/yoga_mat01.jpg","1","1","1","0","0","0","0.565068399999291","0.582109599839896","0.447279899846762","1","1","1","1","1","1","1","1","1"
"260044","img/object_images/yoga_mat01.jpg","img/object_images/shovel01.jpg","img/object_images/pitcher07.jpg","1","1","1","0","0","1","0.447279899846762","0.565068399999291","0.46243629977107","1","1","1","1","1","1","1","1","1"
"260044","img/object_images/pitcher07.jpg","img/object_images/yoga_mat01.jpg","img/object_images/tennis_racket01.jpg","1","1","0","1","0","1","0.46243629977107","0.447279899846762","0.416685099713504","1","1","1","1","1","1","1","1","2"
"260044","img/object_images/tennis_racket01.jpg","img/object_images/pitcher07.jpg","img/object_images/scale02.jpg","0","1","1","1","1","0","0.416685099713504","0.46243629977107","0.541334199719131","1","1","1","1","1","1","2","1","1"
"260044","img/object_images/scale02.jpg","img/object_images/tennis_racket01.jpg","img/object_images/egg_basket01.jpg","1","0","1","0","1","1","0.541334199719131","0.416685099713504","0.465708500007167","1","1","1","1","1","1","1","2","1"
"260044","img/object_images/egg_basket01.jpg","img/object_images/scale02.jpg","img/object_images/fan01.jpg","1","1","1","1","0","0","0.465708500007167","0.541334199719131","0.462152899708599","1","1","1","1","1","1","1","1","1"
"260044","img/object_images/fan01.jpg","img/object_images/egg_basket01.jpg","img/object_images/nut_cracker01.jpg","1","1","1","0","1","1","0.462152899708599","0.465708500007167","0.455460899975151","1","1","1","1","1","1","1","1","1"
"260044","img/object_images/nut_cracker01.jpg","img/object_images/fan01.jpg","img/object_images/bucket01.jpg","1","1","1","1","0","1","0.455460899975151","0.462152899708599","0.584502599900588","1","1","1","1","1","1","1","1","1"
"260044","img/object_images/bucket01.jpg","img/object_images/nut_cracker01.jpg","img/object_images/frame01.jpg","1","1","1","1","1","1","0.584502599900588","0.455460899975151","0.526743799913675","1","1","1","1","1","1","1","1","1"
"260044","img/object_images/frame01.jpg","img/object_images/bucket01.jpg",NA,"1","1",NA,"1","1",NA,"0.526743799913675","0.584502599900588",NA,"1","1",NA,"1","1",NA,"1","1",NA
"260044","img/object_images/guitar02.jpg",NA,"img/object_images/frisbee01.jpg","1",NA,"1","0",NA,"1","0.608959899982437",NA,"0.509251399897039","1",NA,"1","1",NA,"1","1",NA,"1"
"260044","img/object_images/frisbee01.jpg","img/object_images/guitar02.jpg","img/object_images/tool02.jpg","1","1","1","1","0","1","0.509251399897039","0.608959899982437","0.433762199943885","1","1","1","1","1","1","1","1","1"
"260044","img/object_images/tool02.jpg","img/object_images/frisbee01.jpg","img/object_images/jewel04.jpg","1","1","1","1","1","0","0.433762199943885","0.509251399897039","0.434383099898696","1","1","1","1","1","1","1","1","1"
"260044","img/object_images/jewel04.jpg","img/object_images/tool02.jpg","img/object_images/shovel03.jpg","1","1","1","0","1","1","0.434383099898696","0.433762199943885","0.369997799862176","1","1","1","1","1","1","1","1","1"
"260044","img/object_images/shovel03.jpg","img/object_images/jewel04.jpg","img/object_images/crown02.jpg","1","1","1","1","0","1","0.369997799862176","0.434383099898696","0.402547699864954","1","1","1","1","1","1","1","1","1"
"260044","img/object_images/crown02.jpg","img/object_images/shovel03.jpg","img/object_images/bird_house02.jpg","1","1","1","1","1","1","0.402547699864954","0.369997799862176","0.50421079993248","1","1","1","1","1","1","1","1","1"
"260044","img/object_images/bird_house02.jpg","img/object_images/crown02.jpg","img/object_images/tool09.jpg","1","1","1","1","1","1","0.50421079993248","0.402547699864954","0.371872900053859","1","1","1","1","1","1","1","1","1"
"260044","img/object_images/tool09.jpg","img/object_images/bird_house02.jpg","img/object_images/sink01.jpg","1","1","0","1","1","0","0.371872900053859","0.50421079993248","0.373620399972424","1","1","1","1","1","1","1","1","1"
"260044","img/object_images/sink01.jpg","img/object_images/tool09.jpg","img/object_images/towel02.jpg","0","1","1","0","1","1","0.373620399972424","0.371872900053859","0.484395399922505","1","1","1","1","1","1","1","1","1"
"260044","img/object_images/towel02.jpg","img/object_images/sink01.jpg","img/object_images/outlet01.jpg","1","0","0","1","0","0","0.484395399922505","0.373620399972424","0.421248399885371","1","1","1","1","1","1","1","1","1"
"260044","img/object_images/outlet01.jpg","img/object_images/towel02.jpg","img/object_images/bow01.jpg","0","1","1","0","1","1","0.421248399885371","0.484395399922505","0.513915399787948","1","1","1","1","1","1","1","1","1"
"260044","img/object_images/bow01.jpg","img/object_images/outlet01.jpg","img/object_images/video_game07.jpg","1","0","1","1","0","1","0.513915399787948","0.421248399885371","0.444989999989048","1","1","1","1","1","1","1","1","1"
"260044","img/object_images/video_game07.jpg","img/object_images/bow01.jpg","img/object_images/Stool01.jpg","1","1","1","1","1","0","0.444989999989048","0.513915399787948","0.511131899897009","1","1","1","1","1","1","1","1","1"
"260044","img/object_images/Stool01.jpg","img/object_images/video_game07.jpg","img/object_images/stapler.jpg","1","1","1","0","1","1","0.511131899897009","0.444989999989048","0.68332829978317","1","1","1","1","1","1","1","1","1"
"260044","img/object_images/stapler.jpg","img/object_images/Stool01.jpg","img/object_images/pot01 (1).jpg","1","1","0","1","0","0","0.68332829978317","0.511131899897009","0.546487299958244","1","1","1","1","1","1","1","1","1"
"260044","img/object_images/pot01 (1).jpg","img/object_images/stapler.jpg","img/object_images/watch01.jpg","0","1","1","0","1","0","0.546487299958244","0.68332829978317","0.503743099980056","1","1","1","1","1","1","1","1","1"
"260044","img/object_images/watch01.jpg","img/object_images/pot01 (1).jpg","img/object_images/judge_gavel01.jpg","1","0","1","0","0","1","0.503743099980056","0.546487299958244","0.394822999835014","1","1","1","1","1","1","1","1","1"
"260044","img/object_images/judge_gavel01.jpg","img/object_images/watch01.jpg","img/object_images/bottle05.jpg","1","1","1","1","0","0","0.394822999835014","0.503743099980056","0.484128899872303","1","1","1","1","1","1","1","1","1"
"260044","img/object_images/bottle05.jpg","img/object_images/judge_gavel01.jpg","img/object_images/toy03.jpg","1","1","1","0","1","1","0.484128899872303","0.394822999835014","0.455505299847573","1","1","1","1","1","1","1","1","1"
"260044","img/object_images/toy03.jpg","img/object_images/bottle05.jpg","img/object_images/MetalWire01.jpg","1","1","1","1","0","0","0.455505299847573","0.484128899872303","0.51833469979465","1","1","1","1","1","1","1","1","1"
"260044","img/object_images/MetalWire01.jpg","img/object_images/toy03.jpg","img/object_images/Vacuum01.jpg","1","1","1","0","1","0","0.51833469979465","0.455505299847573","0.37979399994947","1","1","1","1","1","1","1","1","1"
"260044","img/object_images/Vacuum01.jpg","img/object_images/MetalWire01.jpg","img/object_images/Ring02.jpg","1","1","1","0","0","0","0.37979399994947","0.51833469979465","0.379157099872828","1","1","1","1","1","1","1","1","1"
"260044","img/object_images/Ring02.jpg","img/object_images/Vacuum01.jpg","img/object_images/acoustic_capo01.jpg","1","1","1","0","0","1","0.379157099872828","0.37979399994947","0.459876599721611","1","1","1","1","1","1","1","1","1"
"260044","img/object_images/acoustic_capo01.jpg","img/object_images/Ring02.jpg","img/object_images/mirror01.jpg","1","1","1","1","0","1","0.459876599721611","0.379157099872828","0.783955799881369","1","1","1","1","1","1","1","1","1"
"260044","img/object_images/mirror01.jpg","img/object_images/acoustic_capo01.jpg","img/object_images/ornament01.jpg","1","1","1","1","1","1","0.783955799881369","0.459876599721611","0.48500410001725","1","1","1","1","1","1","1","1","1"
"260044","img/object_images/ornament01.jpg","img/object_images/mirror01.jpg","img/object_images/helmet01.jpg","1","1","0","1","1","0","0.48500410001725","0.783955799881369","0.444418899947777","1","1","1","1","1","1","1","1","1"
"260044","img/object_images/helmet01.jpg","img/object_images/ornament01.jpg","img/object_images/Tin01.jpg","0","1","1","0","1","1","0.444418899947777","0.48500410001725","0.396891699871048","1","1","1","1","1","1","1","1","1"
"260044","img/object_images/Tin01.jpg","img/object_images/helmet01.jpg","img/object_images/toy04.jpg","1","0","1","1","0","0","0.396891699871048","0.444418899947777","0.514236999908462","1","1","1","1","1","1","1","1","1"
"260044","img/object_images/toy04.jpg","img/object_images/Tin01.jpg","img/object_images/gauze01.jpg","1","1","1","0","1","0","0.514236999908462","0.396891699871048","0.445231399964541","1","1","1","1","1","1","1","1","1"
"260044","img/object_images/gauze01.jpg","img/object_images/toy04.jpg","img/object_images/fridge03.jpg","1","1","0","0","0","0","0.445231399964541","0.514236999908462","0.429803799837828","1","1","1","1","1","1","1","1","1"
"260044","img/object_images/fridge03.jpg","img/object_images/gauze01.jpg","img/object_images/dart01.jpg","0","1","1","0","0","0","0.429803799837828","0.445231399964541","0.409223399823532","1","1","1","1","1","1","1","1","1"
"260044","img/object_images/dart01.jpg","img/object_images/fridge03.jpg",NA,"1","0",NA,"0","0",NA,"0.409223399823532","0.429803799837828",NA,"1","1",NA,"1","1",NA,"1","1",NA
"260044","img/object_images/hat13.jpg",NA,"img/object_images/clipboard01.jpg","1",NA,"1","1",NA,"1","0.674120599869639",NA,"0.575990899931639","1",NA,"1","1",NA,"1","1",NA,"1"
"260044","img/object_images/clipboard01.jpg","img/object_images/hat13.jpg","img/object_images/hat09.jpg","1","1","1","1","1","0","0.575990899931639","0.674120599869639","0.496610000031069","1","1","1","1","1","1","1","1","1"
"260044","img/object_images/hat09.jpg","img/object_images/clipboard01.jpg","img/object_images/bow_tie03.jpg","1","1","1","0","1","1","0.496610000031069","0.575990899931639","0.543360999785364","1","1","1","1","1","1","1","1","1"
"260044","img/object_images/bow_tie03.jpg","img/object_images/hat09.jpg","img/object_images/board01.jpg","1","1","1","1","0","1","0.543360999785364","0.496610000031069","0.436834799824283","1","1","1","1","1","1","1","1","1"
"260044","img/object_images/board01.jpg","img/object_images/bow_tie03.jpg","img/object_images/Candle_Holder01.jpg","1","1","0","1","1","0","0.436834799824283","0.543360999785364","0.409352799877524","1","1","1","1","1","1","1","1","1"
"260044","img/object_images/Candle_Holder01.jpg","img/object_images/board01.jpg","img/object_images/glasses03.jpg","0","1","0","0","1","0","0.409352799877524","0.436834799824283","0.434410799760371","1","1","1","1","1","1","1","1","1"
"260044","img/object_images/glasses03.jpg","img/object_images/Candle_Holder01.jpg","img/object_images/tool20.jpg","0","0","0","0","0","0","0.434410799760371","0.409352799877524","0.380672799888998","1","1","1","1","1","1","1","1","1"
"260044","img/object_images/tool20.jpg","img/object_images/glasses03.jpg","img/object_images/hammer02.jpg","0","0","0","0","0","0","0.380672799888998","0.434410799760371","0.411988499807194","1","1","1","1","1","1","1","1","2"
"260044","img/object_images/hammer02.jpg","img/object_images/tool20.jpg","img/object_images/knife01.jpg","0","0","1","0","0","1","0.411988499807194","0.380672799888998","0.412876399932429","1","1","1","1","1","1","2","1","1"
"260044","img/object_images/knife01.jpg","img/object_images/hammer02.jpg","img/object_images/razor02.jpg","1","0","1","1","0","1","0.412876399932429","0.411988499807194","0.391828299732879","1","1","1","1","1","1","1","2","1"
"260044","img/object_images/razor02.jpg","img/object_images/knife01.jpg","img/object_images/dust_pan01.jpg","1","1","1","1","1","1","0.391828299732879","0.412876399932429","0.53268829989247","1","1","1","1","1","1","1","1","1"
"260044","img/object_images/dust_pan01.jpg","img/object_images/razor02.jpg","img/object_images/cup01.jpg","1","1","0","1","1","0","0.53268829989247","0.391828299732879","0.372328999917954","1","1","1","1","1","1","1","1","1"
"260044","img/object_images/cup01.jpg","img/object_images/dust_pan01.jpg","img/object_images/lemon_squeezer01.jpg","0","1","1","0","1","1","0.372328999917954","0.53268829989247","0.444744599750265","1","1","1","1","1","1","1","1","1"
"260044","img/object_images/lemon_squeezer01.jpg","img/object_images/cup01.jpg","img/object_images/socks01.jpg","1","0","1","1","0","1","0.444744599750265","0.372328999917954","0.395227199885994","1","1","1","1","1","1","1","1","1"
"260044","img/object_images/socks01.jpg","img/object_images/lemon_squeezer01.jpg","img/object_images/spray_can01.jpg","1","1","1","1","1","0","0.395227199885994","0.444744599750265","0.574939599726349","1","1","1","1","1","1","1","1","1"
"260044","img/object_images/spray_can01.jpg","img/object_images/socks01.jpg","img/object_images/bag04.jpg","1","1","1","0","1","0","0.574939599726349","0.395227199885994","0.472486000042409","1","1","1","1","1","1","1","1","1"
"260044","img/object_images/bag04.jpg","img/object_images/spray_can01.jpg","img/object_images/Confetti 01.jpg","1","1","0","0","0","0","0.472486000042409","0.574939599726349","0.661750099854544","1","1","1","1","1","1","1","1","1"
"260044","img/object_images/Confetti 01.jpg","img/object_images/bag04.jpg","img/object_images/floss01.jpg","0","1","1","0","0","1","0.661750099854544","0.472486000042409","0.513790199998766","1","1","1","1","1","1","1","1","1"
"260044","img/object_images/floss01.jpg","img/object_images/Confetti 01.jpg","img/object_images/ruler02.jpg","1","0","1","1","0","1","0.513790199998766","0.661750099854544","0.409456099849194","1","1","1","1","1","1","1","1","1"
"260044","img/object_images/ruler02.jpg","img/object_images/floss01.jpg","img/object_images/pen06.jpg","1","1","1","1","1","0","0.409456099849194","0.513790199998766","0.713589899940416","1","1","1","1","1","1","1","1","2"
"260044","img/object_images/pen06.jpg","img/object_images/ruler02.jpg","img/object_images/tool13.jpg","1","1","1","0","1","1","0.713589899940416","0.409456099849194","0.428143299883232","1","1","1","1","1","1","2","1","1"
"260044","img/object_images/tool13.jpg","img/object_images/pen06.jpg","img/object_images/candle02.jpg","1","1","1","1","0","0","0.428143299883232","0.713589899940416","0.551323599880561","1","1","1","1","1","1","1","2","1"
"260044","img/object_images/candle02.jpg","img/object_images/tool13.jpg","img/object_images/camera05.jpg","1","1","1","0","1","0","0.551323599880561","0.428143299883232","0.52404179982841","1","1","1","1","1","1","1","1","1"
"260044","img/object_images/camera05.jpg","img/object_images/candle02.jpg","img/object_images/pan03.jpg","1","1","1","0","0","1","0.52404179982841","0.551323599880561","0.447556799976155","1","1","1","1","1","1","1","1","1"
"260044","img/object_images/pan03.jpg","img/object_images/camera05.jpg","img/object_images/vase02.jpg","1","1","1","1","0","1","0.447556799976155","0.52404179982841","0.400695499731228","1","1","1","1","1","1","1","1","1"
"260044","img/object_images/vase02.jpg","img/object_images/pan03.jpg","img/object_images/video_game02.jpg","1","1","1","1","1","1","0.400695499731228","0.447556799976155","0.414252999937162","1","1","1","1","1","1","1","1","1"
"260044","img/object_images/video_game02.jpg","img/object_images/vase02.jpg","img/object_images/office_supplies01.jpg","1","1","1","1","1","1","0.414252999937162","0.400695499731228","0.618878399953246","1","1","1","1","1","1","1","1","1"
"260044","img/object_images/office_supplies01.jpg","img/object_images/video_game02.jpg","img/object_images/perfume01.jpg","1","1","1","1","1","0","0.618878399953246","0.414252999937162","0.542319599771872","1","1","1","1","1","1","1","1","1"
"260044","img/object_images/perfume01.jpg","img/object_images/office_supplies01.jpg","img/object_images/sign02.jpg","1","1","1","0","1","0","0.542319599771872","0.618878399953246","0.63720399979502","1","1","1","1","1","1","1","1","1"
"260044","img/object_images/sign02.jpg","img/object_images/perfume01.jpg","img/object_images/sink_filter01 (1).jpg","1","1","1","0","0","0","0.63720399979502","0.542319599771872","1.09604369988665","1","1","1","1","1","1","1","1","1"
"260044","img/object_images/sink_filter01 (1).jpg","img/object_images/sign02.jpg","img/object_images/duster01.jpg","1","1","1","0","0","0","1.09604369988665","0.63720399979502","0.492133500054479","1","1","1","1","1","1","1","1","1"
"260044","img/object_images/duster01.jpg","img/object_images/sink_filter01 (1).jpg",NA,"1","1",NA,"0","0",NA,"0.492133500054479","1.09604369988665",NA,"1","1",NA,"1","1",NA,"1","1",NA
"260044","img/object_images/basket04.jpg",NA,"img/object_images/knit03.jpg","1",NA,"1","1",NA,"1","0.460871399845928",NA,"0.407433100044727","1",NA,"1","1",NA,"1","1",NA,"1"
"260044","img/object_images/knit03.jpg","img/object_images/basket04.jpg","img/object_images/hand_grip_exerciser01.jpg","1","1","1","1","1","0","0.407433100044727","0.460871399845928","0.490860699908808","1","1","1","1","1","1","1","1","1"
"260044","img/object_images/hand_grip_exerciser01.jpg","img/object_images/knit03.jpg","img/object_images/curtain02.jpg","1","1","0","0","1","0","0.490860699908808","0.407433100044727","0.436166899977252","1","1","1","1","1","1","1","1","2"
"260044","img/object_images/curtain02.jpg","img/object_images/hand_grip_exerciser01.jpg","img/object_images/blender02.jpg","0","1","1","0","0","1","0.436166899977252","0.490860699908808","0.403211999917403","1","1","1","1","1","1","2","1","1"
"260044","img/object_images/blender02.jpg","img/object_images/curtain02.jpg","img/object_images/paper_cup02.jpg","1","0","1","1","0","1","0.403211999917403","0.436166899977252","0.421665699919686","1","1","1","1","1","1","1","2","1"
"260044","img/object_images/paper_cup02.jpg","img/object_images/blender02.jpg","img/object_images/video_game01.jpg","1","1","1","1","1","1","0.421665699919686","0.403211999917403","0.455662199994549","1","1","1","1","1","1","1","1","1"
"260044","img/object_images/video_game01.jpg","img/object_images/paper_cup02.jpg","img/object_images/car01.jpg","1","1","1","1","1","1","0.455662199994549","0.421665699919686","0.47256389982067","1","1","1","1","1","1","1","1","1"
"260044","img/object_images/car01.jpg","img/object_images/video_game01.jpg","img/object_images/Statue01.jpg","1","1","1","1","1","1","0.47256389982067","0.455662199994549","0.489509899867699","1","1","1","1","1","1","1","1","1"
"260044","img/object_images/Statue01.jpg","img/object_images/car01.jpg","img/object_images/matches02.jpg","1","1","0","1","1","0","0.489509899867699","0.47256389982067","0.611092099919915","1","1","1","1","1","1","1","1","1"
"260044","img/object_images/matches02.jpg","img/object_images/Statue01.jpg","img/object_images/flashlight03.jpg","0","1","1","0","1","0","0.611092099919915","0.489509899867699","0.593146399827674","1","1","1","1","1","1","1","1","1"
"260044","img/object_images/flashlight03.jpg","img/object_images/matches02.jpg","img/object_images/keyboard02.jpg","1","0","1","0","0","1","0.593146399827674","0.611092099919915","0.472573999781162","1","1","1","1","1","1","1","1","1"
"260044","img/object_images/keyboard02.jpg","img/object_images/flashlight03.jpg","img/object_images/remover01.jpg","1","1","1","1","0","1","0.472573999781162","0.593146399827674","0.452717599691823","1","1","1","1","1","1","1","1","1"
"260044","img/object_images/remover01.jpg","img/object_images/keyboard02.jpg","img/object_images/knife02.jpg","1","1","0","1","1","0","0.452717599691823","0.472573999781162","0.340475599979982","1","1","1","1","1","1","1","1","1"
"260044","img/object_images/knife02.jpg","img/object_images/remover01.jpg","img/object_images/remote_controller01.jpg","0","1","1","0","1","1","0.340475599979982","0.452717599691823","0.674528500065207","1","1","1","1","1","1","1","1","1"
"260044","img/object_images/remote_controller01.jpg","img/object_images/knife02.jpg","img/object_images/tool18.jpg","1","0","1","1","0","0","0.674528500065207","0.340475599979982","0.580472599714994","1","1","1","1","1","1","1","1","1"
"260044","img/object_images/tool18.jpg","img/object_images/remote_controller01.jpg","img/object_images/bottle07.jpg","1","1","1","0","1","1","0.580472599714994","0.674528500065207","0.476345799863338","1","1","1","1","1","1","1","1","1"
"260044","img/object_images/bottle07.jpg","img/object_images/tool18.jpg","img/object_images/camera03.jpg","1","1","0","1","0","0","0.476345799863338","0.580472599714994","0.40595979988575","1","1","1","1","1","1","1","1","1"
"260044","img/object_images/camera03.jpg","img/object_images/bottle07.jpg","img/object_images/sponge03.jpg","0","1","1","0","1","1","0.40595979988575","0.476345799863338","0.445155400084332","1","1","1","1","1","1","1","1","1"
"260044","img/object_images/sponge03.jpg","img/object_images/camera03.jpg","img/object_images/knit04.jpg","1","0","1","1","0","1","0.445155400084332","0.40595979988575","0.514981599990278","1","1","1","1","1","1","1","1","1"
"260044","img/object_images/knit04.jpg","img/object_images/sponge03.jpg","img/object_images/mail_box01.jpg","1","1","0","1","1","0","0.514981599990278","0.445155400084332","0.364653299795464","1","1","1","1","1","1","1","1","1"
"260044","img/object_images/mail_box01.jpg","img/object_images/knit04.jpg","img/object_images/kite01.jpg","0","1","1","0","1","1","0.364653299795464","0.514981599990278","0.597547999816015","1","1","1","1","1","1","1","1","1"
"260044","img/object_images/kite01.jpg","img/object_images/mail_box01.jpg","img/object_images/gloves02.jpg","1","0","0","1","0","0","0.597547999816015","0.364653299795464","0.988243399886414","1","1","1","1","1","1","1","1","1"
"260044","img/object_images/gloves02.jpg","img/object_images/kite01.jpg","img/object_images/toy08.jpg","0","1","0","0","1","0","0.988243399886414","0.597547999816015","0.845956099918112","1","1","1","1","1","1","1","1","1"
"260044","img/object_images/toy08.jpg","img/object_images/gloves02.jpg","img/object_images/boat04.jpg","0","0","0","0","0","0","0.845956099918112","0.988243399886414","0.63396089989692","1","1","1","1","1","1","1","1","1"
"260044","img/object_images/boat04.jpg","img/object_images/toy08.jpg","img/object_images/dresser03.jpg","0","0","0","0","0","0","0.63396089989692","0.845956099918112",NA,"1","1","0","1","1","0","1","1","0"
"260044","img/object_images/dresser03.jpg","img/object_images/boat04.jpg","img/object_images/hoverboard01.jpg","0","0","0","0","0","0",NA,"0.63396089989692","0.54110539983958","0","1","1","0","1","1","0","1","1"
"260044","img/object_images/hoverboard01.jpg","img/object_images/dresser03.jpg","img/object_images/shower_head01.jpg","0","0","1","0","0","1","0.54110539983958",NA,"0.588900699978694","1","0","1","1","0","1","1","0","1"
"260044","img/object_images/shower_head01.jpg","img/object_images/hoverboard01.jpg","img/object_images/stereo02.jpg","1","0","1","1","0","0","0.588900699978694","0.54110539983958","0.485814899904653","1","1","1","1","1","1","1","1","1"
"260044","img/object_images/stereo02.jpg","img/object_images/shower_head01.jpg","img/object_images/backpack01.jpg","1","1","1","0","1","0","0.485814899904653","0.588900699978694","0.53388089989312","1","1","1","1","1","1","1","1","1"
"260044","img/object_images/backpack01.jpg","img/object_images/stereo02.jpg","img/object_images/jacket04.jpg","1","1","0","0","0","0","0.53388089989312","0.485814899904653","0.360792899737135","1","1","1","1","1","1","1","1","1"
"260044","img/object_images/jacket04.jpg","img/object_images/backpack01.jpg","img/object_images/phone02.jpg","0","1","1","0","0","1","0.360792899737135","0.53388089989312","0.420799799729139","1","1","1","1","1","1","1","1","1"
"260044","img/object_images/phone02.jpg","img/object_images/jacket04.jpg",NA,"1","0",NA,"1","0",NA,"0.420799799729139","0.360792899737135",NA,"1","1",NA,"1","1",NA,"1","1",NA
"260044","img/object_images/pitcher09.jpg",NA,"img/object_images/chair06.jpg","1",NA,"1","1",NA,"0","0.360187500016764",NA,"0.547284199856222","1",NA,"1","1",NA,"1","1",NA,"1"
"260044","img/object_images/chair06.jpg","img/object_images/pitcher09.jpg","img/object_images/rock02.jpg","1","1","1","0","1","0","0.547284199856222","0.360187500016764","0.505113400053233","1","1","1","1","1","1","1","1","1"
"260044","img/object_images/rock02.jpg","img/object_images/chair06.jpg","img/object_images/chain01.jpg","1","1","1","0","0","0","0.505113400053233","0.547284199856222","0.481794699793682","1","1","1","1","1","1","1","1","1"
"260044","img/object_images/chain01.jpg","img/object_images/rock02.jpg","img/object_images/bell03.jpg","1","1","1","0","0","0","0.481794699793682","0.505113400053233","0.479374000104144","1","1","1","1","1","1","1","1","1"
"260044","img/object_images/bell03.jpg","img/object_images/chain01.jpg","img/object_images/Violin01.jpg","1","1","1","0","0","0","0.479374000104144","0.481794699793682","0.539847899926826","1","1","1","1","1","1","1","1","1"
"260044","img/object_images/Violin01.jpg","img/object_images/bell03.jpg","img/object_images/floss02.jpg","1","1","1","0","0","1","0.539847899926826","0.479374000104144","0.410769999725744","1","1","1","1","1","1","1","1","1"
"260044","img/object_images/floss02.jpg","img/object_images/Violin01.jpg","img/object_images/scarf01.jpg","1","1","1","1","0","1","0.410769999725744","0.539847899926826","0.379436400020495","1","1","1","1","1","1","1","1","1"
"260044","img/object_images/scarf01.jpg","img/object_images/floss02.jpg","img/object_images/toy01.jpg","1","1","1","1","1","1","0.379436400020495","0.410769999725744","0.396932299947366","1","1","1","1","1","1","1","1","1"
"260044","img/object_images/toy01.jpg","img/object_images/scarf01.jpg","img/object_images/computer_mouse01.jpg","1","1","1","1","1","1","0.396932299947366","0.379436400020495","0.411949399858713","1","1","1","1","1","1","1","1","1"
"260044","img/object_images/computer_mouse01.jpg","img/object_images/toy01.jpg","img/object_images/blender01.jpg","1","1","1","1","1","0","0.411949399858713","0.396932299947366","0.515343199949712","1","1","1","1","1","1","1","1","1"
"260044","img/object_images/blender01.jpg","img/object_images/computer_mouse01.jpg","img/object_images/pen01.jpg","1","1","0","0","1","0","0.515343199949712","0.411949399858713","0.286557999905199","1","1","1","1","1","1","1","1","1"
"260044","img/object_images/pen01.jpg","img/object_images/blender01.jpg","img/object_images/couch01.jpg","0","1","1","0","0","0","0.286557999905199","0.515343199949712","0.569161499850452","1","1","1","1","1","1","1","1","1"
"260044","img/object_images/couch01.jpg","img/object_images/pen01.jpg","img/object_images/computer_mouse02.jpg","1","0","1","0","0","0","0.569161499850452","0.286557999905199","0.467815199866891","1","1","1","1","1","1","1","1","1"
"260044","img/object_images/computer_mouse02.jpg","img/object_images/couch01.jpg","img/object_images/airfryer02.jpg","1","1","1","0","0","1","0.467815199866891","0.569161499850452","0.61940939980559","1","1","1","1","1","1","1","1","1"
"260044","img/object_images/airfryer02.jpg","img/object_images/computer_mouse02.jpg","img/object_images/clip04.jpg","1","1","1","1","0","1","0.61940939980559","0.467815199866891","0.531014899956062","1","1","1","1","1","1","1","1","1"
"260044","img/object_images/clip04.jpg","img/object_images/airfryer02.jpg","img/object_images/bag_pipes01.jpg","1","1","1","1","1","1","0.531014899956062","0.61940939980559","0.525399599922821","1","1","1","1","1","1","1","1","1"
"260044","img/object_images/bag_pipes01.jpg","img/object_images/clip04.jpg","img/object_images/hair_brush01.jpg","1","1","1","1","1","1","0.525399599922821","0.531014899956062","0.449822399998084","1","1","1","1","1","1","1","1","1"
"260044","img/object_images/hair_brush01.jpg","img/object_images/bag_pipes01.jpg","img/object_images/toothbrush01.jpg","1","1","1","1","1","0","0.449822399998084","0.525399599922821","0.384268599795178","1","1","1","1","1","1","1","1","1"
"260044","img/object_images/toothbrush01.jpg","img/object_images/hair_brush01.jpg","img/object_images/tool06.jpg","1","1","1","0","1","0","0.384268599795178","0.449822399998084","0.450552499853075","1","1","1","1","1","1","1","1","1"
"260044","img/object_images/tool06.jpg","img/object_images/toothbrush01.jpg","img/object_images/egg_slicer01.jpg","1","1","1","0","0","1","0.450552499853075","0.384268599795178","0.427493099821731","1","1","1","1","1","1","1","1","1"
"260044","img/object_images/egg_slicer01.jpg","img/object_images/tool06.jpg","img/object_images/Trowel01.jpg","1","1","1","1","0","0","0.427493099821731","0.450552499853075","0.47836049972102","1","1","1","1","1","1","1","1","1"
"260044","img/object_images/Trowel01.jpg","img/object_images/egg_slicer01.jpg","img/object_images/mail_box02.jpg","1","1","1","0","1","1","0.47836049972102","0.427493099821731","0.647146799834445","1","1","1","1","1","1","1","1","1"
"260044","img/object_images/mail_box02.jpg","img/object_images/Trowel01.jpg","img/object_images/fork02.jpg","1","1","1","1","0","0","0.647146799834445","0.47836049972102","0.577603299869224","1","1","1","1","1","1","1","1","1"
"260044","img/object_images/fork02.jpg","img/object_images/mail_box02.jpg","img/object_images/video_game03.jpg","1","1","0","0","1","1","0.577603299869224","0.647146799834445","1.0995973998215","1","1","1","1","1","1","1","1","1"
"260044","img/object_images/video_game03.jpg","img/object_images/fork02.jpg","img/object_images/drone01.jpg","0","1","0","1","0","1","1.0995973998215","0.577603299869224","0.848924199817702","1","1","1","1","1","1","1","1","1"
"260044","img/object_images/drone01.jpg","img/object_images/video_game03.jpg","img/object_images/soap03.jpg","0","0","1","1","1","0","0.848924199817702","1.0995973998215","0.512279299786314","1","1","1","1","1","1","1","1","1"
"260044","img/object_images/soap03.jpg","img/object_images/drone01.jpg","img/object_images/shoes12.jpg","1","0","1","0","1","1","0.512279299786314","0.848924199817702","0.459766800049692","1","1","1","1","1","1","1","1","1"
"260044","img/object_images/shoes12.jpg","img/object_images/soap03.jpg","img/object_images/tripod01.jpg","1","1","1","1","0","1","0.459766800049692","0.512279299786314","0.399832399794832","1","1","1","1","1","1","1","1","1"
"260044","img/object_images/tripod01.jpg","img/object_images/shoes12.jpg","img/object_images/book02.jpg","1","1","1","1","1","1","0.399832399794832","0.459766800049692","0.401529899798334","1","1","1","1","1","1","1","1","1"
"260044","img/object_images/book02.jpg","img/object_images/tripod01.jpg","img/object_images/box03.jpg","1","1","0","1","1","0","0.401529899798334","0.399832399794832","0.378867799881846","1","1","1","1","1","1","1","1","1"
"260044","img/object_images/box03.jpg","img/object_images/book02.jpg","img/object_images/skate_board01.jpg","0","1","1","0","1","0","0.378867799881846","0.401529899798334","0.468384099891409","1","1","1","1","1","1","1","1","1"
"260044","img/object_images/skate_board01.jpg","img/object_images/box03.jpg",NA,"1","0",NA,"0","0",NA,"0.468384099891409","0.378867799881846",NA,"1","1",NA,"1","1",NA,"1","1",NA
"260044","img/object_images/audio_port01.jpg",NA,"img/object_images/helmet04.jpg","1",NA,"1","1",NA,"1","0.402103299740702",NA,"0.452698299894109","1",NA,"1","1",NA,"1","1",NA,"1"
"260044","img/object_images/helmet04.jpg","img/object_images/audio_port01.jpg","img/object_images/toaster01.jpg","1","1","1","1","1","1","0.452698299894109","0.402103299740702","0.345861399779096","1","1","1","1","1","1","1","1","1"
"260044","img/object_images/toaster01.jpg","img/object_images/helmet04.jpg","img/object_images/water_scooter01.jpg","1","1","0","1","1","1","0.345861399779096","0.452698299894109","0.317989700008184","1","1","1","1","1","1","1","1","1"
"260044","img/object_images/water_scooter01.jpg","img/object_images/toaster01.jpg","img/object_images/wagon_cart03.jpg","0","1","1","1","1","1","0.317989700008184","0.345861399779096","0.594854899914935","1","1","1","1","1","1","1","1","1"
"260044","img/object_images/wagon_cart03.jpg","img/object_images/water_scooter01.jpg","img/object_images/fan02.jpg","1","0","0","1","1","0","0.594854899914935","0.317989700008184","0.456800699932501","1","1","1","1","1","1","1","1","1"
"260044","img/object_images/fan02.jpg","img/object_images/wagon_cart03.jpg","img/object_images/camera_lens01.jpg","0","1","1","0","1","1","0.456800699932501","0.594854899914935","0.518302399897948","1","1","1","1","1","1","1","1","1"
"260044","img/object_images/camera_lens01.jpg","img/object_images/fan02.jpg","img/object_images/bean_bag02.jpg","1","0","1","1","0","1","0.518302399897948","0.456800699932501","0.402996399905533","1","1","1","1","1","1","1","1","1"
"260044","img/object_images/bean_bag02.jpg","img/object_images/camera_lens01.jpg","img/object_images/piggy_bank01.jpg","1","1","1","1","1","1","0.402996399905533","0.518302399897948","0.347895499784499","1","1","1","1","1","1","1","1","1"
"260044","img/object_images/piggy_bank01.jpg","img/object_images/bean_bag02.jpg","img/object_images/chair03.jpg","1","1","0","1","1","0","0.347895499784499","0.402996399905533","0.470705199986696","1","1","1","1","1","1","1","1","1"
"260044","img/object_images/chair03.jpg","img/object_images/piggy_bank01.jpg","img/object_images/toilet_paper_dispenser01.jpg","0","1","1","0","1","1","0.470705199986696","0.347895499784499","0.619405799778178","1","1","1","1","1","1","1","1","1"
"260044","img/object_images/toilet_paper_dispenser01.jpg","img/object_images/chair03.jpg","img/object_images/purse04.jpg","1","0","0","1","0","1","0.619405799778178","0.470705199986696","0.460408099927008","1","1","1","1","1","1","1","1","2"
"260044","img/object_images/purse04.jpg","img/object_images/toilet_paper_dispenser01.jpg","img/object_images/boat02.jpg","0","1","1","1","1","1","0.460408099927008","0.619405799778178","0.363658999791369","1","1","1","1","1","1","2","1","1"
"260044","img/object_images/boat02.jpg","img/object_images/purse04.jpg","img/object_images/tool19.jpg","1","0","1","1","1","1","0.363658999791369","0.460408099927008","0.540466599864885","1","1","1","1","1","1","1","2","1"
"260044","img/object_images/tool19.jpg","img/object_images/boat02.jpg","img/object_images/bottle02.jpg","1","1","1","1","1","1","0.540466599864885","0.363658999791369","0.441377399954945","1","1","1","1","1","1","1","1","1"
"260044","img/object_images/bottle02.jpg","img/object_images/tool19.jpg","img/object_images/bicycle01.jpg","1","1","1","1","1","1","0.441377399954945","0.540466599864885","0.446813399903476","1","1","1","1","1","1","1","1","1"
"260044","img/object_images/bicycle01.jpg","img/object_images/bottle02.jpg","img/object_images/dog_leash01.jpg","1","1","0","1","1","0","0.446813399903476","0.441377399954945","0.751859599724412","1","1","1","1","1","1","1","1","1"
"260044","img/object_images/dog_leash01.jpg","img/object_images/bicycle01.jpg","img/object_images/scoreboard01.jpg","0","1","1","0","1","1","0.751859599724412","0.446813399903476","0.912761099869385","1","1","1","1","1","1","1","1","1"
"260044","img/object_images/scoreboard01.jpg","img/object_images/dog_leash01.jpg","img/object_images/bottle10.jpg","1","0","1","1","0","1","0.912761099869385","0.751859599724412","0.55321819987148","1","1","1","1","1","1","1","1","1"
"260044","img/object_images/bottle10.jpg","img/object_images/scoreboard01.jpg","img/object_images/perfume02.jpg","1","1","1","1","1","0","0.55321819987148","0.912761099869385","0.562749599805102","1","1","1","1","1","1","1","1","1"
"260044","img/object_images/perfume02.jpg","img/object_images/bottle10.jpg","img/object_images/tie02.jpg","1","1","1","0","1","0","0.562749599805102","0.55321819987148","0.538509199861437","1","1","1","1","1","1","1","1","1"
"260044","img/object_images/tie02.jpg","img/object_images/perfume02.jpg","img/object_images/WoodBox01.jpg","1","1","0","0","0","0","0.538509199861437","0.562749599805102","0.609073999803513","1","1","1","1","1","1","1","1","1"
"260044","img/object_images/WoodBox01.jpg","img/object_images/tie02.jpg","img/object_images/hat06.jpg","0","1","1","0","0","0","0.609073999803513","0.538509199861437","0.506475899834186","1","1","1","1","1","1","1","1","1"
"260044","img/object_images/hat06.jpg","img/object_images/WoodBox01.jpg","img/object_images/cellphone03.jpg","1","0","1","0","0","0","0.506475899834186","0.609073999803513","1.18537949980237","1","1","1","1","1","1","1","1","1"
"260044","img/object_images/cellphone03.jpg","img/object_images/hat06.jpg","img/object_images/bottle09.jpg","1","1","1","0","0","0","1.18537949980237","0.506475899834186","0.446858499897644","1","1","1","1","1","1","1","1","1"
"260044","img/object_images/bottle09.jpg","img/object_images/cellphone03.jpg","img/object_images/coloring_pencil02.jpg","1","1","1","0","0","0","0.446858499897644","1.18537949980237","0.474829300073907","1","1","1","1","1","1","1","1","1"
"260044","img/object_images/coloring_pencil02.jpg","img/object_images/bottle09.jpg","img/object_images/hot_air_balloon02.jpg","1","1","0","0","0","0","0.474829300073907","0.446858499897644","0.610052699921653","1","1","1","1","1","1","1","1","1"
"260044","img/object_images/hot_air_balloon02.jpg","img/object_images/coloring_pencil02.jpg","img/object_images/pen05.jpg","0","1","0","0","0","0","0.610052699921653","0.474829300073907","0.608924699714407","1","1","1","1","1","1","1","1","1"
"260044","img/object_images/pen05.jpg","img/object_images/hot_air_balloon02.jpg","img/object_images/shoes07.jpg","0","0","1","0","0","0","0.608924699714407","0.610052699921653","0.425659899832681","1","1","1","1","1","1","1","1","1"
"260044","img/object_images/shoes07.jpg","img/object_images/pen05.jpg","img/object_images/boat_toy10.jpg","1","0","0","0","0","0","0.425659899832681","0.608924699714407","0.453458999982104","1","1","1","1","1","1","1","1","1"
"260044","img/object_images/boat_toy10.jpg","img/object_images/shoes07.jpg","img/object_images/knit01.jpg","0","1","0","0","0","0","0.453458999982104","0.425659899832681","0.502959399949759","1","1","1","1","1","1","1","1","1"
"260044","img/object_images/knit01.jpg","img/object_images/boat_toy10.jpg","img/object_images/flask01.jpg","0","0","0","0","0","0","0.502959399949759","0.453458999982104","0.542314299847931","1","1","1","1","1","1","1","1","1"
"260044","img/object_images/flask01.jpg","img/object_images/knit01.jpg",NA,"0","0",NA,"0","0",NA,"0.542314299847931","0.502959399949759",NA,"1","1",NA,"1","1",NA,"1","1",NA
"260044","img/object_images/handcuffs01.jpg",NA,"img/object_images/gift_box04.jpg","0",NA,"1","0",NA,"0","0.504412199836224",NA,"0.506811899831519","1",NA,"1","1",NA,"1","1",NA,"1"
"260044","img/object_images/gift_box04.jpg","img/object_images/handcuffs01.jpg","img/object_images/glasses07.jpg","1","0","1","0","0","1","0.506811899831519","0.504412199836224","0.389731699833646","1","1","1","1","1","1","1","1","1"
"260044","img/object_images/glasses07.jpg","img/object_images/gift_box04.jpg","img/object_images/jewelry09.jpg","1","1","1","1","0","1","0.389731699833646","0.506811899831519","0.462180600035936","1","1","1","1","1","1","1","1","1"
"260044","img/object_images/jewelry09.jpg","img/object_images/glasses07.jpg","img/object_images/ring03.jpg","1","1","1","1","1","1","0.462180600035936","0.389731699833646","0.354058899916708","1","1","1","1","1","1","1","1","1"
"260044","img/object_images/ring03.jpg","img/object_images/jewelry09.jpg","img/object_images/bicycle_lock01.jpg","1","1","1","1","1","0","0.354058899916708","0.462180600035936","0.590610499959439","1","1","1","1","1","1","1","1","1"
"260044","img/object_images/bicycle_lock01.jpg","img/object_images/ring03.jpg","img/object_images/Sprayer01.jpg","1","1","1","0","1","0","0.590610499959439","0.354058899916708","0.935949999839068","1","1","1","1","1","1","1","1","1"
"260044","img/object_images/Sprayer01.jpg","img/object_images/bicycle_lock01.jpg","img/object_images/cup03.jpg","1","1","1","0","0","1","0.935949999839068","0.590610499959439","0.578938099788502","1","1","1","1","1","1","1","1","1"
"260044","img/object_images/cup03.jpg","img/object_images/Sprayer01.jpg","img/object_images/hole_puncher01.jpg","1","1","1","1","0","1","0.578938099788502","0.935949999839068","0.364008199889213","1","1","1","1","1","1","1","1","1"
"260044","img/object_images/hole_puncher01.jpg","img/object_images/cup03.jpg","img/object_images/projector01.jpg","1","1","1","1","1","0","0.364008199889213","0.578938099788502","0.467381099937484","1","1","1","1","1","1","1","1","1"
"260044","img/object_images/projector01.jpg","img/object_images/hole_puncher01.jpg","img/object_images/tool08.jpg","1","1","1","0","1","0","0.467381099937484","0.364008199889213","0.519539099885151","1","1","1","1","1","1","1","1","1"
"260044","img/object_images/tool08.jpg","img/object_images/projector01.jpg","img/object_images/blanket01.jpg","1","1","1","0","0","1","0.519539099885151","0.467381099937484","0.872815999900922","1","1","1","1","1","1","1","1","1"
"260044","img/object_images/blanket01.jpg","img/object_images/tool08.jpg","img/object_images/hair_clips01.jpg","1","1","0","1","0","1","0.872815999900922","0.519539099885151","0.867250299779698","1","1","1","1","1","1","1","1","1"
"260044","img/object_images/hair_clips01.jpg","img/object_images/blanket01.jpg","img/object_images/yo_yo01.jpg","0","1","1","1","1","0","0.867250299779698","0.872815999900922","0.505654299864545","1","1","1","1","1","1","1","1","1"
"260044","img/object_images/yo_yo01.jpg","img/object_images/hair_clips01.jpg","img/object_images/book01.jpg","1","0","1","0","1","1","0.505654299864545","0.867250299779698","0.434005699818954","1","1","1","1","1","1","1","1","1"
"260044","img/object_images/book01.jpg","img/object_images/yo_yo01.jpg","img/object_images/tool07.jpg","1","1","1","1","0","0","0.434005699818954","0.505654299864545","0.413440299918875","1","1","1","1","1","1","1","1","1"
"260044","img/object_images/tool07.jpg","img/object_images/book01.jpg","img/object_images/colander01.jpg","1","1","0","0","1","0","0.413440299918875","0.434005699818954","2.40013509988785","1","1","1","1","1","1","1","1","1"
"260044","img/object_images/colander01.jpg","img/object_images/tool07.jpg","img/object_images/tray01.jpg","0","1","1","0","0","1","2.40013509988785","0.413440299918875","0.488708599936217","1","1","1","1","1","1","1","1","1"
"260044","img/object_images/tray01.jpg","img/object_images/colander01.jpg","img/object_images/cellphone02.jpg","1","0","1","1","0","1","0.488708599936217","2.40013509988785","0.432874399702996","1","1","1","1","1","1","1","1","1"
"260044","img/object_images/cellphone02.jpg","img/object_images/tray01.jpg","img/object_images/TrashCan02.jpg","1","1","1","1","1","1","0.432874399702996","0.488708599936217","0.402990199858323","1","1","1","1","1","1","1","1","1"
"260044","img/object_images/TrashCan02.jpg","img/object_images/cellphone02.jpg","img/object_images/Pottery01.jpg","1","1","1","1","1","0","0.402990199858323","0.432874399702996","0.506670499918982","1","1","1","1","1","1","1","1","1"
"260044","img/object_images/Pottery01.jpg","img/object_images/TrashCan02.jpg","img/object_images/purse01.jpg","1","1","1","0","1","1","0.506670499918982","0.402990199858323","0.425946800038218","1","1","1","1","1","1","1","1","1"
"260044","img/object_images/purse01.jpg","img/object_images/Pottery01.jpg","img/object_images/Traffic Sign 01.jpg","1","1","0","1","0","0","0.425946800038218","0.506670499918982","0.38695149985142","1","1","1","1","1","1","1","1","2"
"260044","img/object_images/Traffic Sign 01.jpg","img/object_images/purse01.jpg","img/object_images/lighter01.jpg","0","1","1","0","1","1","0.38695149985142","0.425946800038218","0.410134899895638","1","1","1","1","1","1","2","1","1"
"260044","img/object_images/lighter01.jpg","img/object_images/Traffic Sign 01.jpg","img/object_images/glasses06.jpg","1","0","0","1","0","1","0.410134899895638","0.38695149985142","2.04966089990921","1","1","1","1","1","1","1","2","1"
"260044","img/object_images/glasses06.jpg","img/object_images/lighter01.jpg","img/object_images/speaker01.jpg","0","1","0","1","1","1","2.04966089990921","0.410134899895638","2.69452049979009","1","1","1","1","1","1","1","1","1"
"260044","img/object_images/speaker01.jpg","img/object_images/glasses06.jpg","img/object_images/pan01.jpg","0","0","1","1","1","1","2.69452049979009","2.04966089990921","0.717004500096664","1","1","1","1","1","1","1","1","1"
"260044","img/object_images/pan01.jpg","img/object_images/speaker01.jpg","img/object_images/basket02.jpg","1","0","1","1","1","0","0.717004500096664","2.69452049979009","0.621772199869156","1","1","1","1","1","1","1","1","1"
"260044","img/object_images/basket02.jpg","img/object_images/pan01.jpg","img/object_images/exfoliater_brush01.jpg","1","1","1","0","1","0","0.621772199869156","0.717004500096664","0.519951599882916","1","1","1","1","1","1","1","1","1"
"260044","img/object_images/exfoliater_brush01.jpg","img/object_images/basket02.jpg","img/object_images/Kitchen_Towel.jpg","1","1","1","0","0","0","0.519951599882916","0.621772199869156","0.566680999938399","1","1","1","1","1","1","1","1","1"
"260044","img/object_images/Kitchen_Towel.jpg","img/object_images/exfoliater_brush01.jpg","img/object_images/faucet01.jpg","1","1","1","0","0","0","0.566680999938399","0.519951599882916","0.556049399776384","1","1","1","1","1","1","1","1","1"
"260044","img/object_images/faucet01.jpg","img/object_images/Kitchen_Towel.jpg","img/object_images/fire_extinguisher01.jpg","1","1","1","0","0","0","0.556049399776384","0.566680999938399","0.562369500054047","1","1","1","1","1","1","1","1","1"
"260044","img/object_images/fire_extinguisher01.jpg","img/object_images/faucet01.jpg",NA,"1","1",NA,"0","0",NA,"0.562369500054047","0.556049399776384",NA,"1","1",NA,"1","1",NA,"1","1",NA
"260044","img/object_images/Lint_Roller02.jpg",NA,"img/object_images/accardion01.jpg","1",NA,"1","0",NA,"1","0.720921800006181",NA,"0.418530399911106","1",NA,"1","1",NA,"1","1",NA,"1"
"260044","img/object_images/accardion01.jpg","img/object_images/Lint_Roller02.jpg","img/object_images/laptop01.jpg","1","1","0","1","0","0","0.418530399911106","0.720921800006181","0.393115199869499","1","1","1","1","1","1","1","1","1"
"260044","img/object_images/laptop01.jpg","img/object_images/accardion01.jpg","img/object_images/hair_dryer01.jpg","0","1","1","0","1","0","0.393115199869499","0.418530399911106","0.499676499748603","1","1","1","1","1","1","1","1","1"
"260044","img/object_images/hair_dryer01.jpg","img/object_images/laptop01.jpg","img/object_images/shoes08.jpg","1","0","1","0","0","1","0.499676499748603","0.393115199869499","0.510166799882427","1","1","1","1","1","1","1","1","1"
"260044","img/object_images/shoes08.jpg","img/object_images/hair_dryer01.jpg","img/object_images/toy05.jpg","1","1","1","1","0","0","0.510166799882427","0.499676499748603","0.510631599929184","1","1","1","1","1","1","1","1","1"
"260044","img/object_images/toy05.jpg","img/object_images/shoes08.jpg","img/object_images/jewel03.jpg","1","1","1","0","1","1","0.510631599929184","0.510166799882427","0.37359599978663","1","1","1","1","1","1","1","1","1"
"260044","img/object_images/jewel03.jpg","img/object_images/toy05.jpg","img/object_images/robe01.jpg","1","1","1","1","0","1","0.37359599978663","0.510631599929184","0.378413500031456","1","1","1","1","1","1","1","1","1"
"260044","img/object_images/robe01.jpg","img/object_images/jewel03.jpg","img/object_images/laptop03.jpg","1","1","1","1","1","1","0.378413500031456","0.37359599978663","0.379562799818814","1","1","1","1","1","1","1","1","1"
"260044","img/object_images/laptop03.jpg","img/object_images/robe01.jpg","img/object_images/ball02.jpg","1","1","1","1","1","1","0.379562799818814","0.378413500031456","0.433271399931982","1","1","1","1","1","1","1","1","1"
"260044","img/object_images/ball02.jpg","img/object_images/laptop03.jpg","img/object_images/hair_brush02.jpg","1","1","1","1","1","0","0.433271399931982","0.379562799818814","0.545361099764705","1","1","1","1","1","1","1","1","1"
"260044","img/object_images/hair_brush02.jpg","img/object_images/ball02.jpg","img/object_images/towels01.jpg","1","1","1","0","1","0","0.545361099764705","0.433271399931982","0.536661999765784","1","1","1","1","1","1","1","1","1"
"260044","img/object_images/towels01.jpg","img/object_images/hair_brush02.jpg","img/object_images/stove01.jpg","1","1","1","0","0","0","0.536661999765784","0.545361099764705","0.54824379994534","1","1","1","1","1","1","1","1","1"
"260044","img/object_images/stove01.jpg","img/object_images/towels01.jpg","img/object_images/vase01.jpg","1","1","1","0","0","0","0.54824379994534","0.536661999765784","3.02634330000728","1","1","1","1","1","1","1","1","1"
"260044","img/object_images/vase01.jpg","img/object_images/stove01.jpg","img/object_images/pitcher05.jpg","1","1","0","0","0","0","3.02634330000728","0.54824379994534","0.810276499949396","1","1","1","1","1","1","1","1","1"
"260044","img/object_images/pitcher05.jpg","img/object_images/vase01.jpg","img/object_images/chair02.jpg","0","1","1","0","0","1","0.810276499949396","3.02634330000728","0.514648599782959","1","1","1","1","1","1","1","1","1"
"260044","img/object_images/chair02.jpg","img/object_images/pitcher05.jpg","img/object_images/fan04.jpg","1","0","1","1","0","0","0.514648599782959","0.810276499949396","0.47914329986088","1","1","1","1","1","1","1","1","1"
"260044","img/object_images/fan04.jpg","img/object_images/chair02.jpg","img/object_images/helmet02.jpg","1","1","1","0","1","0","0.47914329986088","0.514648599782959","0.526550599839538","1","1","1","1","1","1","1","1","1"
"260044","img/object_images/helmet02.jpg","img/object_images/fan04.jpg","img/object_images/umbrella01.jpg","1","1","1","0","0","0","0.526550599839538","0.47914329986088","0.414448799798265","1","1","1","1","1","1","1","1","1"
"260044","img/object_images/umbrella01.jpg","img/object_images/helmet02.jpg","img/object_images/trash_can05.jpg","1","1","1","0","0","1","0.414448799798265","0.526550599839538","0.48966549988836","1","1","1","1","1","1","1","1","1"
"260044","img/object_images/trash_can05.jpg","img/object_images/umbrella01.jpg","img/object_images/Vest02.jpg","1","1","1","1","0","0","0.48966549988836","0.414448799798265","0.565450399881229","1","1","1","1","1","1","1","1","1"
"260044","img/object_images/Vest02.jpg","img/object_images/trash_can05.jpg","img/object_images/backpack03.jpg","1","1","1","0","1","1","0.565450399881229","0.48966549988836","0.474873999832198","1","1","1","1","1","1","1","1","1"
"260044","img/object_images/backpack03.jpg","img/object_images/Vest02.jpg","img/object_images/spatula02.jpg","1","1","1","1","0","1","0.474873999832198","0.565450399881229","0.565138299949467","1","1","1","1","1","1","1","1","1"
"260044","img/object_images/spatula02.jpg","img/object_images/backpack03.jpg","img/object_images/trash_can03.jpg","1","1","1","1","1","1","0.565138299949467","0.474873999832198","0.554468599846587","1","1","1","1","1","1","1","1","1"
"260044","img/object_images/trash_can03.jpg","img/object_images/spatula02.jpg","img/object_images/lock01.jpg","1","1","1","1","1","0","0.554468599846587","0.565138299949467","0.522094199899584","1","1","1","1","1","1","1","1","1"
"260044","img/object_images/lock01.jpg","img/object_images/trash_can03.jpg","img/object_images/surf_board01.jpg","1","1","1","0","1","1","0.522094199899584","0.554468599846587","0.466302699875087","1","1","1","1","1","1","1","1","1"
"260044","img/object_images/surf_board01.jpg","img/object_images/lock01.jpg","img/object_images/calculator01.jpg","1","1","1","1","0","1","0.466302699875087","0.522094199899584","0.708367299987003","1","1","1","1","1","1","1","1","1"
"260044","img/object_images/calculator01.jpg","img/object_images/surf_board01.jpg","img/object_images/chess_piece01.jpg","1","1","0","1","1","0","0.708367299987003","0.466302699875087","0.524142900016159","1","1","1","1","1","1","1","1","1"
"260044","img/object_images/chess_piece01.jpg","img/object_images/calculator01.jpg","img/object_images/combs01.jpg","0","1","1","0","1","1","0.524142900016159","0.708367299987003","0.45436770003289","1","1","1","1","1","1","1","1","1"
"260044","img/object_images/combs01.jpg","img/object_images/chess_piece01.jpg","img/object_images/gift_box05.jpg","1","0","1","1","0","0","0.45436770003289","0.524142900016159","0.570565999718383","1","1","1","1","1","1","1","1","1"
"260044","img/object_images/gift_box05.jpg","img/object_images/combs01.jpg","img/object_images/microphone03.jpg","1","1","1","0","1","1","0.570565999718383","0.45436770003289","0.799137399764732","1","1","1","1","1","1","1","1","1"
"260044","img/object_images/microphone03.jpg","img/object_images/gift_box05.jpg","img/object_images/bucket02.jpg","1","1","1","1","0","1","0.799137399764732","0.570565999718383","0.490640999982134","1","1","1","1","1","1","1","1","1"
"260044","img/object_images/bucket02.jpg","img/object_images/microphone03.jpg",NA,"1","1",NA,"1","1",NA,"0.490640999982134","0.799137399764732",NA,"1","1",NA,"1","1",NA,"1","1",NA
"260044","img/object_images/bow_tie02.jpg",NA,"img/object_images/hammer01.jpg","1",NA,"1","0",NA,"0","0.911661299876869",NA,"0.459470500005409","1",NA,"1","1",NA,"1","1",NA,"1"
"260044","img/object_images/hammer01.jpg","img/object_images/bow_tie02.jpg","img/object_images/funnel01.jpg","1","1","0","0","0","0","0.459470500005409","0.911661299876869","0.413322399836034","1","1","1","1","1","1","1","1","1"
"260044","img/object_images/funnel01.jpg","img/object_images/hammer01.jpg","img/object_images/clip02.jpg","0","1","1","0","0","1","0.413322399836034","0.459470500005409","0.48791869985871","1","1","1","1","1","1","1","1","1"
"260044","img/object_images/clip02.jpg","img/object_images/funnel01.jpg","img/object_images/gift_box02.jpg","1","0","1","1","0","1","0.48791869985871","0.413322399836034","0.42811179975979","1","1","1","1","1","1","1","1","1"
"260044","img/object_images/gift_box02.jpg","img/object_images/clip02.jpg","img/object_images/jewelry01.jpg","1","1","1","1","1","1","0.42811179975979","0.48791869985871","0.395335899898782","1","1","1","1","1","1","1","1","1"
"260044","img/object_images/jewelry01.jpg","img/object_images/gift_box02.jpg","img/object_images/paper_cup01.jpg","1","1","1","1","1","0","0.395335899898782","0.42811179975979","0.65705529996194","1","1","1","1","1","1","1","1","1"
"260044","img/object_images/paper_cup01.jpg","img/object_images/jewelry01.jpg","img/object_images/bath_tub01.jpg","1","1","1","0","1","0","0.65705529996194","0.395335899898782","0.476787899853662","1","1","1","1","1","1","1","1","1"
"260044","img/object_images/bath_tub01.jpg","img/object_images/paper_cup01.jpg","img/object_images/jacket03.jpg","1","1","1","0","0","0","0.476787899853662","0.65705529996194","0.519122799858451","1","1","1","1","1","1","1","1","1"
"260044","img/object_images/jacket03.jpg","img/object_images/bath_tub01.jpg","img/object_images/Witchhat01.jpg","1","1","1","0","0","1","0.519122799858451","0.476787899853662","0.529745100066066","1","1","1","1","1","1","1","1","1"
"260044","img/object_images/Witchhat01.jpg","img/object_images/jacket03.jpg","img/object_images/vga_port 01.jpg","1","1","1","1","0","0","0.529745100066066","0.519122799858451","0.56191960000433","1","1","1","1","1","1","1","1","1"
"260044","img/object_images/vga_port 01.jpg","img/object_images/Witchhat01.jpg","img/object_images/sleeping_bag01.jpg","1","1","1","0","1","0","0.56191960000433","0.529745100066066","0.507247699890286","1","1","1","1","1","1","1","1","1"
"260044","img/object_images/sleeping_bag01.jpg","img/object_images/vga_port 01.jpg","img/object_images/pitcher02.jpg","1","1","1","0","0","1","0.507247699890286","0.56191960000433","0.594113599974662","1","1","1","1","1","1","1","1","1"
"260044","img/object_images/pitcher02.jpg","img/object_images/sleeping_bag01.jpg","img/object_images/camera07.jpg","1","1","1","1","0","1","0.594113599974662","0.507247699890286","0.538114799885079","1","1","1","1","1","1","1","1","1"
"260044","img/object_images/camera07.jpg","img/object_images/pitcher02.jpg","img/object_images/lock04.jpg","1","1","1","1","1","1","0.538114799885079","0.594113599974662","0.453738000011072","1","1","1","1","1","1","1","1","1"
"260044","img/object_images/lock04.jpg","img/object_images/camera07.jpg","img/object_images/bow_tie01.jpg","1","1","1","1","1","0","0.453738000011072","0.538114799885079","3.2000610998366","1","1","1","1","1","1","1","1","1"
"260044","img/object_images/bow_tie01.jpg","img/object_images/lock04.jpg","img/object_images/grater01.jpg","1","1","1","0","1","1","3.2000610998366","0.453738000011072","1.98307219985873","1","1","1","1","1","1","1","1","1"
"260044","img/object_images/grater01.jpg","img/object_images/bow_tie01.jpg","img/object_images/balloon01.jpg","1","1","1","1","0","0","1.98307219985873","3.2000610998366","0.55419629975222","1","1","1","1","1","1","1","1","1"
"260044","img/object_images/balloon01.jpg","img/object_images/grater01.jpg","img/object_images/golf_ball03.jpg","1","1","1","0","1","1","0.55419629975222","1.98307219985873","0.415571099845693","1","1","1","1","1","1","1","1","1"
"260044","img/object_images/golf_ball03.jpg","img/object_images/balloon01.jpg","img/object_images/gift_box03.jpg","1","1","1","1","0","0","0.415571099845693","0.55419629975222","0.876180799910799","1","1","1","1","1","1","1","1","1"
"260044","img/object_images/gift_box03.jpg","img/object_images/golf_ball03.jpg","img/object_images/socks02.jpg","1","1","0","0","1","0","0.876180799910799","0.415571099845693","0.598258399870247","1","1","1","1","1","1","1","1","1"
"260044","img/object_images/socks02.jpg","img/object_images/gift_box03.jpg","img/object_images/Screws01.jpg","0","1","1","0","0","1","0.598258399870247","0.876180799910799","0.402326599927619","1","1","1","1","1","1","1","1","1"
"260044","img/object_images/Screws01.jpg","img/object_images/socks02.jpg","img/object_images/handkerchief01.jpg","1","0","1","1","0","0","0.402326599927619","0.598258399870247","0.468083000043407","1","1","1","1","1","1","1","1","1"
"260044","img/object_images/handkerchief01.jpg","img/object_images/Screws01.jpg","img/object_images/lawn_mower01.jpg","1","1","1","0","1","1","0.468083000043407","0.402326599927619","0.646413799840957","1","1","1","1","1","1","1","1","1"
"260044","img/object_images/lawn_mower01.jpg","img/object_images/handkerchief01.jpg","img/object_images/ironing_table01.jpg","1","1","0","1","0","0","0.646413799840957","0.468083000043407","0.518638999899849","1","1","1","1","1","1","1","1","1"
"260044","img/object_images/ironing_table01.jpg","img/object_images/lawn_mower01.jpg","img/object_images/wallet02.jpg","0","1","1","0","1","1","0.518638999899849","0.646413799840957","0.449714799877256","1","1","1","1","1","1","1","1","1"
"260044","img/object_images/wallet02.jpg","img/object_images/ironing_table01.jpg","img/object_images/couch03.jpg","1","0","1","1","0","0","0.449714799877256","0.518638999899849","0.498289399780333","1","1","1","1","1","1","1","1","1"
"260044","img/object_images/couch03.jpg","img/object_images/wallet02.jpg","img/object_images/coloring_pencil01.jpg","1","1","1","0","1","1","0.498289399780333","0.449714799877256","0.380891299806535","1","1","1","1","1","1","1","1","1"
"260044","img/object_images/coloring_pencil01.jpg","img/object_images/couch03.jpg","img/object_images/dresser04.jpg","1","1","0","1","0","0","0.380891299806535","0.498289399780333","0.423803599784151","1","1","1","1","1","1","1","1","1"
"260044","img/object_images/dresser04.jpg","img/object_images/coloring_pencil01.jpg","img/object_images/measuring_tape02.jpg","0","1","1","0","1","1","0.423803599784151","0.380891299806535","0.449942699866369","1","1","1","1","1","1","1","1","1"
"260044","img/object_images/measuring_tape02.jpg","img/object_images/dresser04.jpg","img/object_images/fork03.jpg","1","0","1","1","0","1","0.449942699866369","0.423803599784151","0.406978899845854","1","1","1","1","1","1","1","1","1"
"260044","img/object_images/fork03.jpg","img/object_images/measuring_tape02.jpg","img/object_images/gift_box01.jpg","1","1","1","1","1","1","0.406978899845854","0.449942699866369","0.387229499872774","1","1","1","1","1","1","1","1","1"
"260044","img/object_images/gift_box01.jpg","img/object_images/fork03.jpg",NA,"1","1",NA,"1","1",NA,"0.387229499872774","0.406978899845854",NA,"1","1",NA,"1","1",NA,"1","1",NA
