"participant_id","current_trial_object","pre_trial_object","post_trial_object","current_trial_accuracy","pre_trial_accuracy","post_trial_accuracy","current_trial_congruency","pre_trial_congruency","post_trial_congruency","current_trial_rt","pre_trial_rt","post_trial_rt","current_trial_responded","pre_trial_responded","post_trial_responded","current_trial_legitResponse","pre_trial_legitResponse","post_trial_legitResponse","current_trial_resp_nums","pre_trial_resp_nums","post_trial_resp_nums"
"260053","img/object_images/sleeping_bag01.jpg",NA,"img/object_images/camera07.jpg","0",NA,"1","0",NA,"1","0.721562300022924",NA,"0.414347699988866","1",NA,"1","1",NA,"1","1",NA,"1"
"260053","img/object_images/camera07.jpg","img/object_images/sleeping_bag01.jpg","img/object_images/ironing_table01.jpg","1","0","1","1","0","0","0.414347699988866","0.721562300022924","0.608781500020996","1","1","1","1","1","1","1","1","1"
"260053","img/object_images/ironing_table01.jpg","img/object_images/camera07.jpg","img/object_images/gift_box03.jpg","1","1","1","0","1","0","0.608781500020996","0.414347699988866","0.591410299995914","1","1","1","1","1","1","1","1","1"
"260053","img/object_images/gift_box03.jpg","img/object_images/ironing_table01.jpg","img/object_images/jewelry01.jpg","1","1","1","0","0","1","0.591410299995914","0.608781500020996","0.396997999981977","1","1","1","1","1","1","1","1","1"
"260053","img/object_images/jewelry01.jpg","img/object_images/gift_box03.jpg","img/object_images/balloon01.jpg","1","1","1","1","0","0","0.396997999981977","0.591410299995914","0.581376200017985","1","1","1","1","1","1","1","1","1"
"260053","img/object_images/balloon01.jpg","img/object_images/jewelry01.jpg","img/object_images/clip02.jpg","1","1","1","0","1","1","0.581376200017985","0.396997999981977","0.57631949998904","1","1","1","1","1","1","1","1","1"
"260053","img/object_images/clip02.jpg","img/object_images/balloon01.jpg","img/object_images/bow_tie02.jpg","1","1","1","1","0","0","0.57631949998904","0.581376200017985","0.614131499984069","1","1","1","1","1","1","1","1","1"
"260053","img/object_images/bow_tie02.jpg","img/object_images/clip02.jpg","img/object_images/lock04.jpg","1","1","1","0","1","1","0.614131499984069","0.57631949998904","0.73948570000357","1","1","1","1","1","1","1","1","1"
"260053","img/object_images/lock04.jpg","img/object_images/bow_tie02.jpg","img/object_images/Witchhat01.jpg","1","1","1","1","0","1","0.73948570000357","0.614131499984069","0.455386700021336","1","1","1","1","1","1","1","1","1"
"260053","img/object_images/Witchhat01.jpg","img/object_images/lock04.jpg","img/object_images/lawn_mower01.jpg","1","1","1","1","1","1","0.455386700021336","0.73948570000357","0.783407100010663","1","1","1","1","1","1","1","1","1"
"260053","img/object_images/lawn_mower01.jpg","img/object_images/Witchhat01.jpg","img/object_images/hammer01.jpg","1","1","1","1","1","0","0.783407100010663","0.455386700021336","0.605178700003307","1","1","1","1","1","1","1","1","1"
"260053","img/object_images/hammer01.jpg","img/object_images/lawn_mower01.jpg","img/object_images/funnel01.jpg","1","1","1","0","1","0","0.605178700003307","0.783407100010663","0.582138199999463","1","1","1","1","1","1","1","1","1"
"260053","img/object_images/funnel01.jpg","img/object_images/hammer01.jpg","img/object_images/fork03.jpg","1","1","1","0","0","1","0.582138199999463","0.605178700003307","0.460833599994658","1","1","1","1","1","1","1","1","1"
"260053","img/object_images/fork03.jpg","img/object_images/funnel01.jpg","img/object_images/Screws01.jpg","1","1","1","1","0","1","0.460833599994658","0.582138199999463","0.468331899988698","1","1","1","1","1","1","1","1","1"
"260053","img/object_images/Screws01.jpg","img/object_images/fork03.jpg","img/object_images/handkerchief01.jpg","1","1","1","1","1","0","0.468331899988698","0.460833599994658","0.551401200005785","1","1","1","1","1","1","1","1","1"
"260053","img/object_images/handkerchief01.jpg","img/object_images/Screws01.jpg","img/object_images/bow_tie01.jpg","1","1","1","0","1","0","0.551401200005785","0.468331899988698","0.557928099995479","1","1","1","1","1","1","1","1","1"
"260053","img/object_images/bow_tie01.jpg","img/object_images/handkerchief01.jpg","img/object_images/coloring_pencil01.jpg","1","1","1","0","0","1","0.557928099995479","0.551401200005785","0.538763499993365","1","1","1","1","1","1","1","1","1"
"260053","img/object_images/coloring_pencil01.jpg","img/object_images/bow_tie01.jpg","img/object_images/wallet02.jpg","1","1","1","1","0","1","0.538763499993365","0.557928099995479","0.605894200009061","1","1","1","1","1","1","1","1","1"
"260053","img/object_images/wallet02.jpg","img/object_images/coloring_pencil01.jpg","img/object_images/socks02.jpg","1","1","1","1","1","0","0.605894200009061","0.538763499993365","0.574856899998849","1","1","1","1","1","1","1","1","1"
"260053","img/object_images/socks02.jpg","img/object_images/wallet02.jpg","img/object_images/couch03.jpg","1","1","1","0","1","0","0.574856899998849","0.605894200009061","0.697173599997768","1","1","1","1","1","1","1","1","1"
"260053","img/object_images/couch03.jpg","img/object_images/socks02.jpg","img/object_images/bath_tub01.jpg","1","1","1","0","0","0","0.697173599997768","0.574856899998849","0.620346500014421","1","1","1","1","1","1","1","1","1"
"260053","img/object_images/bath_tub01.jpg","img/object_images/couch03.jpg","img/object_images/dresser04.jpg","1","1","1","0","0","0","0.620346500014421","0.697173599997768","0.684543699986534","1","1","1","1","1","1","1","1","1"
"260053","img/object_images/dresser04.jpg","img/object_images/bath_tub01.jpg","img/object_images/paper_cup01.jpg","1","1","1","0","0","0","0.684543699986534","0.620346500014421","0.925803599995561","1","1","1","1","1","1","1","1","1"
"260053","img/object_images/paper_cup01.jpg","img/object_images/dresser04.jpg","img/object_images/gift_box01.jpg","1","1","1","0","0","1","0.925803599995561","0.684543699986534","0.479308699985268","1","1","1","1","1","1","1","1","1"
"260053","img/object_images/gift_box01.jpg","img/object_images/paper_cup01.jpg","img/object_images/vga_port 01.jpg","1","1","1","1","0","0","0.479308699985268","0.925803599995561","0.590164000022924","1","1","1","1","1","1","1","1","1"
"260053","img/object_images/vga_port 01.jpg","img/object_images/gift_box01.jpg","img/object_images/measuring_tape02.jpg","1","1","1","0","1","1","0.590164000022924","0.479308699985268","0.480393799982267","1","1","1","1","1","1","1","1","1"
"260053","img/object_images/measuring_tape02.jpg","img/object_images/vga_port 01.jpg","img/object_images/pitcher02.jpg","1","1","1","1","0","1","0.480393799982267","0.590164000022924","0.470241200004239","1","1","1","1","1","1","1","1","1"
"260053","img/object_images/pitcher02.jpg","img/object_images/measuring_tape02.jpg","img/object_images/grater01.jpg","1","1","1","1","1","1","0.470241200004239","0.480393799982267","0.480930699995952","1","1","1","1","1","1","1","1","1"
"260053","img/object_images/grater01.jpg","img/object_images/pitcher02.jpg","img/object_images/jacket03.jpg","1","1","1","1","1","0","0.480930699995952","0.470241200004239","0.620330100005958","1","1","1","1","1","1","1","1","1"
"260053","img/object_images/jacket03.jpg","img/object_images/grater01.jpg","img/object_images/golf_ball03.jpg","1","1","1","0","1","1","0.620330100005958","0.480930699995952","0.470529900019756","1","1","1","1","1","1","1","1","1"
"260053","img/object_images/golf_ball03.jpg","img/object_images/jacket03.jpg","img/object_images/gift_box02.jpg","1","1","1","1","0","1","0.470529900019756","0.620330100005958","0.478079299995443","1","1","1","1","1","1","1","1","1"
"260053","img/object_images/gift_box02.jpg","img/object_images/golf_ball03.jpg",NA,"1","1",NA,"1","1",NA,"0.478079299995443","0.470529900019756",NA,"1","1",NA,"1","1",NA,"1","1",NA
"260053","img/object_images/shovel03.jpg",NA,"img/object_images/acoustic_capo01.jpg","1",NA,"1","1",NA,"1","0.49763610001537",NA,"0.40773590002209","1",NA,"1","1",NA,"1","1",NA,"1"
"260053","img/object_images/acoustic_capo01.jpg","img/object_images/shovel03.jpg","img/object_images/ornament01.jpg","1","1","1","1","1","1","0.40773590002209","0.49763610001537","0.407058300013887","1","1","1","1","1","1","1","1","1"
"260053","img/object_images/ornament01.jpg","img/object_images/acoustic_capo01.jpg","img/object_images/watch01.jpg","1","1","1","1","1","0","0.407058300013887","0.40773590002209","0.492798399995081","1","1","1","1","1","1","1","1","1"
"260053","img/object_images/watch01.jpg","img/object_images/ornament01.jpg","img/object_images/bow01.jpg","1","1","1","0","1","1","0.492798399995081","0.407058300013887","0.326301399996737","1","1","1","1","1","1","1","1","1"
"260053","img/object_images/bow01.jpg","img/object_images/watch01.jpg","img/object_images/guitar02.jpg","1","1","1","1","0","0","0.326301399996737","0.492798399995081","0.501855000009527","1","1","1","1","1","1","1","1","1"
"260053","img/object_images/guitar02.jpg","img/object_images/bow01.jpg","img/object_images/tool02.jpg","1","1","1","0","1","1","0.501855000009527","0.326301399996737","0.377955600008136","1","1","1","1","1","1","1","1","1"
"260053","img/object_images/tool02.jpg","img/object_images/guitar02.jpg","img/object_images/towel02.jpg","1","1","1","1","0","1","0.377955600008136","0.501855000009527","0.413197800022317","1","1","1","1","1","1","1","1","1"
"260053","img/object_images/towel02.jpg","img/object_images/tool02.jpg","img/object_images/bird_house02.jpg","1","1","1","1","1","1","0.413197800022317","0.377955600008136","0.376547299994854","1","1","1","1","1","1","1","1","1"
"260053","img/object_images/bird_house02.jpg","img/object_images/towel02.jpg","img/object_images/Stool01.jpg","1","1","0","1","1","0","0.376547299994854","0.413197800022317","0.394602300017141","1","1","1","1","1","1","1","1","1"
"260053","img/object_images/Stool01.jpg","img/object_images/bird_house02.jpg","img/object_images/dart01.jpg","0","1","1","0","1","0","0.394602300017141","0.376547299994854","0.443721399991773","1","1","1","1","1","1","1","1","1"
"260053","img/object_images/dart01.jpg","img/object_images/Stool01.jpg","img/object_images/helmet01.jpg","1","0","1","0","0","0","0.443721399991773","0.394602300017141","0.460980800009565","1","1","1","1","1","1","1","1","1"
"260053","img/object_images/helmet01.jpg","img/object_images/dart01.jpg","img/object_images/Ring02.jpg","1","1","1","0","0","0","0.460980800009565","0.443721399991773","0.508457899995847","1","1","1","1","1","1","1","1","1"
"260053","img/object_images/Ring02.jpg","img/object_images/helmet01.jpg","img/object_images/gauze01.jpg","1","1","1","0","0","0","0.508457899995847","0.460980800009565","0.43599150000955","1","1","1","1","1","1","1","1","1"
"260053","img/object_images/gauze01.jpg","img/object_images/Ring02.jpg","img/object_images/fridge03.jpg","1","1","1","0","0","0","0.43599150000955","0.508457899995847","0.452951899991604","1","1","1","1","1","1","1","1","1"
"260053","img/object_images/fridge03.jpg","img/object_images/gauze01.jpg","img/object_images/sink01.jpg","1","1","1","0","0","0","0.452951899991604","0.43599150000955","0.55230060001486","1","1","1","1","1","1","1","1","1"
"260053","img/object_images/sink01.jpg","img/object_images/fridge03.jpg","img/object_images/MetalWire01.jpg","1","1","1","0","0","0","0.55230060001486","0.452951899991604","0.517828400013968","1","1","1","1","1","1","1","1","1"
"260053","img/object_images/MetalWire01.jpg","img/object_images/sink01.jpg","img/object_images/tool09.jpg","1","1","1","0","0","1","0.517828400013968","0.55230060001486","0.558257199998479","1","1","1","1","1","1","1","1","1"
"260053","img/object_images/tool09.jpg","img/object_images/MetalWire01.jpg","img/object_images/toy04.jpg","1","1","1","1","0","0","0.558257199998479","0.517828400013968","0.512148100009654","1","1","1","1","1","1","1","1","1"
"260053","img/object_images/toy04.jpg","img/object_images/tool09.jpg","img/object_images/video_game07.jpg","1","1","1","0","1","1","0.512148100009654","0.558257199998479","0.363171000004513","1","1","1","1","1","1","1","1","1"
"260053","img/object_images/video_game07.jpg","img/object_images/toy04.jpg","img/object_images/bottle05.jpg","1","1","1","1","0","0","0.363171000004513","0.512148100009654","0.458148100005928","1","1","1","1","1","1","1","1","1"
"260053","img/object_images/bottle05.jpg","img/object_images/video_game07.jpg","img/object_images/frisbee01.jpg","1","1","1","0","1","1","0.458148100005928","0.363171000004513","0.450475699995877","1","1","1","1","1","1","1","1","1"
"260053","img/object_images/frisbee01.jpg","img/object_images/bottle05.jpg","img/object_images/Vacuum01.jpg","1","1","0","1","0","0","0.450475699995877","0.458148100005928","0.417862300004344","1","1","1","1","1","1","1","1","1"
"260053","img/object_images/Vacuum01.jpg","img/object_images/frisbee01.jpg","img/object_images/outlet01.jpg","0","1","1","0","1","0","0.417862300004344","0.450475699995877","0.512675999983912","1","1","1","1","1","1","1","1","1"
"260053","img/object_images/outlet01.jpg","img/object_images/Vacuum01.jpg","img/object_images/pot01 (1).jpg","1","0","1","0","0","0","0.512675999983912","0.417862300004344","0.478067799995188","1","1","1","1","1","1","1","1","1"
"260053","img/object_images/pot01 (1).jpg","img/object_images/outlet01.jpg","img/object_images/mirror01.jpg","1","1","1","0","0","1","0.478067799995188","0.512675999983912","0.50581920001423","1","1","1","1","1","1","1","1","1"
"260053","img/object_images/mirror01.jpg","img/object_images/pot01 (1).jpg","img/object_images/toy03.jpg","1","1","1","1","0","1","0.50581920001423","0.478067799995188","0.486259099998279","1","1","1","1","1","1","1","1","1"
"260053","img/object_images/toy03.jpg","img/object_images/mirror01.jpg","img/object_images/Tin01.jpg","1","1","1","1","1","1","0.486259099998279","0.50581920001423","0.44363950000843","1","1","1","1","1","1","1","1","1"
"260053","img/object_images/Tin01.jpg","img/object_images/toy03.jpg","img/object_images/stapler.jpg","1","1","1","1","1","1","0.44363950000843","0.486259099998279","0.580678900005296","1","1","1","1","1","1","1","1","1"
"260053","img/object_images/stapler.jpg","img/object_images/Tin01.jpg","img/object_images/crown02.jpg","1","1","1","1","1","1","0.580678900005296","0.44363950000843","0.447585399990203","1","1","1","1","1","1","1","1","1"
"260053","img/object_images/crown02.jpg","img/object_images/stapler.jpg","img/object_images/jewel04.jpg","1","1","1","1","1","0","0.447585399990203","0.580678900005296","0.522938699985389","1","1","1","1","1","1","1","1","1"
"260053","img/object_images/jewel04.jpg","img/object_images/crown02.jpg","img/object_images/judge_gavel01.jpg","1","1","1","0","1","1","0.522938699985389","0.447585399990203","0.456269899994368","1","1","1","1","1","1","1","1","1"
"260053","img/object_images/judge_gavel01.jpg","img/object_images/jewel04.jpg",NA,"1","1",NA,"1","0",NA,"0.456269899994368","0.522938699985389",NA,"1","1",NA,"1","1",NA,"1","1",NA
"260053","img/object_images/dog_leash01.jpg",NA,"img/object_images/scoreboard01.jpg","0",NA,"1","0",NA,"1","0.612794499989832",NA,"0.41302770000766","1",NA,"1","1",NA,"1","1",NA,"1"
"260053","img/object_images/scoreboard01.jpg","img/object_images/dog_leash01.jpg","img/object_images/coloring_pencil02.jpg","1","0","1","1","0","0","0.41302770000766","0.612794499989832","0.522521699982462","1","1","1","1","1","1","1","1","1"
"260053","img/object_images/coloring_pencil02.jpg","img/object_images/scoreboard01.jpg","img/object_images/pen05.jpg","1","1","1","0","1","0","0.522521699982462","0.41302770000766","0.29404879998765","1","1","1","1","1","1","1","1","2"
"260053","img/object_images/pen05.jpg","img/object_images/coloring_pencil02.jpg","img/object_images/cellphone03.jpg","1","1","0","0","0","0","0.29404879998765","0.522521699982462","0.37739639999927","1","1","1","1","1","1","2","1","1"
"260053","img/object_images/cellphone03.jpg","img/object_images/pen05.jpg","img/object_images/bicycle01.jpg","0","1","1","0","0","1","0.37739639999927","0.29404879998765","0.35240580001846","1","1","1","1","1","1","1","2","1"
"260053","img/object_images/bicycle01.jpg","img/object_images/cellphone03.jpg","img/object_images/tie02.jpg","1","0","1","1","0","0","0.35240580001846","0.37739639999927","0.469093099993188","1","1","1","1","1","1","1","1","1"
"260053","img/object_images/tie02.jpg","img/object_images/bicycle01.jpg","img/object_images/bottle10.jpg","1","1","1","0","1","1","0.469093099993188","0.35240580001846","0.485399900004268","1","1","1","1","1","1","1","1","1"
"260053","img/object_images/bottle10.jpg","img/object_images/tie02.jpg","img/object_images/perfume02.jpg","1","1","0","1","0","0","0.485399900004268","0.469093099993188","0.379579800006468","1","1","1","1","1","1","1","1","1"
"260053","img/object_images/perfume02.jpg","img/object_images/bottle10.jpg","img/object_images/hot_air_balloon02.jpg","0","1","1","0","1","0","0.379579800006468","0.485399900004268","0.472894200007431","1","1","1","1","1","1","1","1","1"
"260053","img/object_images/hot_air_balloon02.jpg","img/object_images/perfume02.jpg","img/object_images/knit01.jpg","1","0","1","0","0","0","0.472894200007431","0.379579800006468","0.513119500014","1","1","1","1","1","1","1","1","1"
"260053","img/object_images/knit01.jpg","img/object_images/hot_air_balloon02.jpg","img/object_images/wagon_cart03.jpg","1","1","1","0","0","1","0.513119500014","0.472894200007431","0.439059199998155","1","1","1","1","1","1","1","1","1"
"260053","img/object_images/wagon_cart03.jpg","img/object_images/knit01.jpg","img/object_images/camera_lens01.jpg","1","1","1","1","0","1","0.439059199998155","0.513119500014","0.43807159998687","1","1","1","1","1","1","1","1","1"
"260053","img/object_images/camera_lens01.jpg","img/object_images/wagon_cart03.jpg","img/object_images/bottle09.jpg","1","1","0","1","1","0","0.43807159998687","0.439059199998155","0.341389799985336","1","1","1","1","1","1","1","1","1"
"260053","img/object_images/bottle09.jpg","img/object_images/camera_lens01.jpg","img/object_images/helmet04.jpg","0","1","1","0","1","1","0.341389799985336","0.43807159998687","0.419704600004479","1","1","1","1","1","1","1","1","1"
"260053","img/object_images/helmet04.jpg","img/object_images/bottle09.jpg","img/object_images/flask01.jpg","1","0","1","1","0","0","0.419704600004479","0.341389799985336","0.55658889998449","1","1","1","1","1","1","1","1","1"
"260053","img/object_images/flask01.jpg","img/object_images/helmet04.jpg","img/object_images/purse04.jpg","1","1","1","0","1","1","0.55658889998449","0.419704600004479","0.426000899984501","1","1","1","1","1","1","1","1","1"
"260053","img/object_images/purse04.jpg","img/object_images/flask01.jpg","img/object_images/bean_bag02.jpg","1","1","1","1","0","1","0.426000899984501","0.55658889998449","0.347278000001097","1","1","1","1","1","1","1","1","1"
"260053","img/object_images/bean_bag02.jpg","img/object_images/purse04.jpg","img/object_images/fan02.jpg","1","1","0","1","1","0","0.347278000001097","0.426000899984501","0.341914300021017","1","1","1","1","1","1","1","1","1"
"260053","img/object_images/fan02.jpg","img/object_images/bean_bag02.jpg","img/object_images/hat06.jpg","0","1","1","0","1","0","0.341914300021017","0.347278000001097","0.479119900002843","1","1","1","1","1","1","1","1","1"
"260053","img/object_images/hat06.jpg","img/object_images/fan02.jpg","img/object_images/boat02.jpg","1","0","1","0","0","1","0.479119900002843","0.341914300021017","0.412936800013995","1","1","1","1","1","1","1","1","1"
"260053","img/object_images/boat02.jpg","img/object_images/hat06.jpg","img/object_images/piggy_bank01.jpg","1","1","1","1","0","1","0.412936800013995","0.479119900002843","0.416509800008498","1","1","1","1","1","1","1","1","1"
"260053","img/object_images/piggy_bank01.jpg","img/object_images/boat02.jpg","img/object_images/audio_port01.jpg","1","1","1","1","1","1","0.416509800008498","0.412936800013995","0.485914299992146","1","1","1","1","1","1","1","1","1"
"260053","img/object_images/audio_port01.jpg","img/object_images/piggy_bank01.jpg","img/object_images/chair03.jpg","1","1","1","1","1","0","0.485914299992146","0.416509800008498","0.646073899988551","1","1","1","1","1","1","1","1","1"
"260053","img/object_images/chair03.jpg","img/object_images/audio_port01.jpg","img/object_images/toilet_paper_dispenser01.jpg","1","1","1","0","1","1","0.646073899988551","0.485914299992146","0.620944900001632","1","1","1","1","1","1","1","1","1"
"260053","img/object_images/toilet_paper_dispenser01.jpg","img/object_images/chair03.jpg","img/object_images/WoodBox01.jpg","1","1","1","1","0","0","0.620944900001632","0.646073899988551","0.449508099991363","1","1","1","1","1","1","1","1","1"
"260053","img/object_images/WoodBox01.jpg","img/object_images/toilet_paper_dispenser01.jpg","img/object_images/shoes07.jpg","1","1","1","0","1","0","0.449508099991363","0.620944900001632","0.352182900009211","1","1","1","1","1","1","1","1","1"
"260053","img/object_images/shoes07.jpg","img/object_images/WoodBox01.jpg","img/object_images/toaster01.jpg","1","1","1","0","0","1","0.352182900009211","0.449508099991363","0.379279099986888","1","1","1","1","1","1","1","1","1"
"260053","img/object_images/toaster01.jpg","img/object_images/shoes07.jpg","img/object_images/water_scooter01.jpg","1","1","1","1","0","1","0.379279099986888","0.352182900009211","0.364719000004698","1","1","1","1","1","1","1","1","1"
"260053","img/object_images/water_scooter01.jpg","img/object_images/toaster01.jpg","img/object_images/boat_toy10.jpg","1","1","1","1","1","0","0.364719000004698","0.379279099986888","0.506724100006977","1","1","1","1","1","1","1","1","1"
"260053","img/object_images/boat_toy10.jpg","img/object_images/water_scooter01.jpg","img/object_images/tool19.jpg","1","1","1","0","1","1","0.506724100006977","0.364719000004698","0.46093010000186","1","1","1","1","1","1","1","1","1"
"260053","img/object_images/tool19.jpg","img/object_images/boat_toy10.jpg","img/object_images/bottle02.jpg","1","1","1","1","0","1","0.46093010000186","0.506724100006977","0.337970800028415","1","1","1","1","1","1","1","1","1"
"260053","img/object_images/bottle02.jpg","img/object_images/tool19.jpg",NA,"1","1",NA,"1","1",NA,"0.337970800028415","0.46093010000186",NA,"1","1",NA,"1","1",NA,"1","1",NA
"260053","img/object_images/floppy_disk03.jpg",NA,"img/object_images/compass01.jpg","1",NA,"1","1",NA,"1","0.463177900004666",NA,"0.39282410001033","1",NA,"1","1",NA,"1","1",NA,"1"
"260053","img/object_images/compass01.jpg","img/object_images/floppy_disk03.jpg","img/object_images/paint_brush04.jpg","1","1","1","1","1","0","0.39282410001033","0.463177900004666","0.501857500028564","1","1","1","1","1","1","1","1","1"
"260053","img/object_images/paint_brush04.jpg","img/object_images/compass01.jpg","img/object_images/pitcher01.jpg","1","1","1","0","1","0","0.501857500028564","0.39282410001033","0.502796000015223","1","1","1","1","1","1","1","1","1"
"260053","img/object_images/pitcher01.jpg","img/object_images/paint_brush04.jpg","img/object_images/cellphone01.jpg","1","1","1","0","0","1","0.502796000015223","0.501857500028564","0.385116799996467","1","1","1","1","1","1","1","1","1"
"260053","img/object_images/cellphone01.jpg","img/object_images/pitcher01.jpg","img/object_images/knit05.jpg","1","1","1","1","0","1","0.385116799996467","0.502796000015223","0.366832100000465","1","1","1","1","1","1","1","1","1"
"260053","img/object_images/knit05.jpg","img/object_images/cellphone01.jpg","img/object_images/hammer03.jpg","1","1","1","1","1","1","0.366832100000465","0.385116799996467","0.37241839998751","1","1","1","1","1","1","1","1","1"
"260053","img/object_images/hammer03.jpg","img/object_images/knit05.jpg","img/object_images/Staples01.jpg","1","1","1","1","1","1","0.37241839998751","0.366832100000465","0.390991699998267","1","1","1","1","1","1","1","1","1"
"260053","img/object_images/Staples01.jpg","img/object_images/hammer03.jpg","img/object_images/floppy_disk02.jpg","1","1","1","1","1","0","0.390991699998267","0.37241839998751","0.560568799992325","1","1","1","1","1","1","1","1","1"
"260053","img/object_images/floppy_disk02.jpg","img/object_images/Staples01.jpg","img/object_images/clip03.jpg","1","1","1","0","1","0","0.560568799992325","0.390991699998267","0.570544800022617","1","1","1","1","1","1","1","1","1"
"260053","img/object_images/clip03.jpg","img/object_images/floppy_disk02.jpg","img/object_images/chair05.jpg","1","1","1","0","0","0","0.570544800022617","0.560568799992325","0.532881099992665","1","1","1","1","1","1","1","1","1"
"260053","img/object_images/chair05.jpg","img/object_images/clip03.jpg","img/object_images/knife04.jpg","1","1","1","0","0","1","0.532881099992665","0.570544800022617","0.35161149999476","1","1","1","1","1","1","1","1","1"
"260053","img/object_images/knife04.jpg","img/object_images/chair05.jpg","img/object_images/tv02.jpg","1","1","0","1","0","0","0.35161149999476","0.532881099992665","0.395843199978117","1","1","1","1","1","1","1","1","1"
"260053","img/object_images/tv02.jpg","img/object_images/knife04.jpg","img/object_images/clock02.jpg","0","1","0","0","1","0","0.395843199978117","0.35161149999476","1.2380603000056","1","1","1","1","1","1","1","1","1"
"260053","img/object_images/clock02.jpg","img/object_images/tv02.jpg","img/object_images/Thermometer01.jpg","0","0","1","0","0","0","1.2380603000056","0.395843199978117","0.524042599980021","1","1","1","1","1","1","1","1","1"
"260053","img/object_images/Thermometer01.jpg","img/object_images/clock02.jpg","img/object_images/microscope01.jpg","1","0","1","0","0","0","0.524042599980021","1.2380603000056","0.582768399995985","1","1","1","1","1","1","1","1","1"
"260053","img/object_images/microscope01.jpg","img/object_images/Thermometer01.jpg","img/object_images/Oven01.jpg","1","1","1","0","0","1","0.582768399995985","0.524042599980021","0.383873399987351","1","1","1","1","1","1","1","1","1"
"260053","img/object_images/Oven01.jpg","img/object_images/microscope01.jpg","img/object_images/chess_piece02.jpg","1","1","1","1","0","1","0.383873399987351","0.582768399995985","0.406271999992896","1","1","1","1","1","1","1","1","1"
"260053","img/object_images/chess_piece02.jpg","img/object_images/Oven01.jpg","img/object_images/bell02.jpg","1","1","1","1","1","0","0.406271999992896","0.383873399987351","0.527772900008131","1","1","1","1","1","1","1","1","1"
"260053","img/object_images/bell02.jpg","img/object_images/chess_piece02.jpg","img/object_images/tennis_racket02.jpg","1","1","1","0","1","1","0.527772900008131","0.406271999992896","0.334004800010007","1","1","1","1","1","1","1","1","1"
"260053","img/object_images/tennis_racket02.jpg","img/object_images/bell02.jpg","img/object_images/wire02.jpg","1","1","1","1","0","1","0.334004800010007","0.527772900008131","0.401562199986074","1","1","1","1","1","1","1","1","1"
"260053","img/object_images/wire02.jpg","img/object_images/tennis_racket02.jpg","img/object_images/note_book01.jpg","1","1","1","1","1","0","0.401562199986074","0.334004800010007","0.425109900010284","1","1","1","1","1","1","1","1","1"
"260053","img/object_images/note_book01.jpg","img/object_images/wire02.jpg","img/object_images/pen03.jpg","1","1","1","0","1","0","0.425109900010284","0.401562199986074","0.463189600006444","1","1","1","1","1","1","1","1","1"
"260053","img/object_images/pen03.jpg","img/object_images/note_book01.jpg","img/object_images/retainer01.jpg","1","1","1","0","0","0","0.463189600006444","0.425109900010284","0.554365999996662","1","1","1","1","1","1","1","1","1"
"260053","img/object_images/retainer01.jpg","img/object_images/pen03.jpg","img/object_images/pillows01.jpg","1","1","1","0","0","1","0.554365999996662","0.463189600006444","0.442100100015523","1","1","1","1","1","1","1","1","1"
"260053","img/object_images/pillows01.jpg","img/object_images/retainer01.jpg","img/object_images/motorcycle01.jpg","1","1","1","1","0","1","0.442100100015523","0.554365999996662","0.616949200019008","1","1","1","1","1","1","1","1","1"
"260053","img/object_images/motorcycle01.jpg","img/object_images/pillows01.jpg","img/object_images/ear_bud01.jpg","1","1","1","1","1","1","0.616949200019008","0.442100100015523","0.588421899999958","1","1","1","1","1","1","1","1","1"
"260053","img/object_images/ear_bud01.jpg","img/object_images/motorcycle01.jpg","img/object_images/usb02.jpg","1","1","1","1","1","0","0.588421899999958","0.616949200019008","0.536265700007789","1","1","1","1","1","1","1","1","1"
"260053","img/object_images/usb02.jpg","img/object_images/ear_bud01.jpg","img/object_images/bottle01.jpg","1","1","1","0","1","0","0.536265700007789","0.588421899999958","0.519197699992219","1","1","1","1","1","1","1","1","1"
"260053","img/object_images/bottle01.jpg","img/object_images/usb02.jpg","img/object_images/lid01.jpg","1","1","1","0","0","1","0.519197699992219","0.536265700007789","0.424208600015845","1","1","1","1","1","1","1","1","1"
"260053","img/object_images/lid01.jpg","img/object_images/bottle01.jpg","img/object_images/crutches02.jpg","1","1","1","1","0","0","0.424208600015845","0.519197699992219","0.532467200013343","1","1","1","1","1","1","1","1","1"
"260053","img/object_images/crutches02.jpg","img/object_images/lid01.jpg","img/object_images/book03.jpg","1","1","1","0","1","1","0.532467200013343","0.424208600015845","0.464018400001805","1","1","1","1","1","1","1","1","1"
"260053","img/object_images/book03.jpg","img/object_images/crutches02.jpg",NA,"1","1",NA,"1","0",NA,"0.464018400001805","0.532467200013343",NA,"1","1",NA,"1","1",NA,"1","1",NA
"260053","img/object_images/frame01.jpg",NA,"img/object_images/origami01.jpg","1",NA,"1","1",NA,"1","0.473437000007834",NA,"0.361849700013408","1",NA,"1","1",NA,"1","1",NA,"1"
"260053","img/object_images/origami01.jpg","img/object_images/frame01.jpg","img/object_images/shovel01.jpg","1","1","1","1","1","0","0.361849700013408","0.473437000007834","0.588363899994874","1","1","1","1","1","1","1","1","1"
"260053","img/object_images/shovel01.jpg","img/object_images/origami01.jpg","img/object_images/dice01.jpg","1","1","0","0","1","0","0.588363899994874","0.361849700013408","0.471434400009457","1","1","1","1","1","1","1","1","2"
"260053","img/object_images/dice01.jpg","img/object_images/shovel01.jpg","img/object_images/belt03.jpg","0","1","1","0","0","0","0.471434400009457","0.588363899994874","0.47963560000062","1","1","1","1","1","1","2","1","1"
"260053","img/object_images/belt03.jpg","img/object_images/dice01.jpg","img/object_images/scale02.jpg","1","0","1","0","0","0","0.47963560000062","0.471434400009457","0.561582800000906","1","1","1","1","1","1","1","2","1"
"260053","img/object_images/scale02.jpg","img/object_images/belt03.jpg","img/object_images/lock03.jpg","1","1","1","0","0","1","0.561582800000906","0.47963560000062","0.469113400002243","1","1","1","1","1","1","1","1","1"
"260053","img/object_images/lock03.jpg","img/object_images/scale02.jpg","img/object_images/Safe01.jpg","1","1","1","1","0","1","0.469113400002243","0.561582800000906","0.409355799987679","1","1","1","1","1","1","1","1","1"
"260053","img/object_images/Safe01.jpg","img/object_images/lock03.jpg","img/object_images/yoga_mat01.jpg","1","1","1","1","1","0","0.409355799987679","0.469113400002243","0.440555300010601","1","1","1","1","1","1","1","1","1"
"260053","img/object_images/yoga_mat01.jpg","img/object_images/Safe01.jpg","img/object_images/egg_basket01.jpg","1","1","1","0","1","1","0.440555300010601","0.409355799987679","0.393619900016347","1","1","1","1","1","1","1","1","1"
"260053","img/object_images/egg_basket01.jpg","img/object_images/yoga_mat01.jpg","img/object_images/note_book02.jpg","1","1","1","1","0","0","0.393619900016347","0.440555300010601","0.465407599986065","1","1","1","1","1","1","1","1","1"
"260053","img/object_images/note_book02.jpg","img/object_images/egg_basket01.jpg","img/object_images/joystick03.jpg","1","1","1","0","1","1","0.465407599986065","0.393619900016347","0.428788199991686","1","1","1","1","1","1","1","1","1"
"260053","img/object_images/joystick03.jpg","img/object_images/note_book02.jpg","img/object_images/trumpet01.jpg","1","1","1","1","0","0","0.428788199991686","0.465407599986065","0.448781499988399","1","1","1","1","1","1","1","1","1"
"260053","img/object_images/trumpet01.jpg","img/object_images/joystick03.jpg","img/object_images/usb03.jpg","1","1","1","0","1","0","0.448781499988399","0.428788199991686","0.566141499992227","1","1","1","1","1","1","1","1","1"
"260053","img/object_images/usb03.jpg","img/object_images/trumpet01.jpg","img/object_images/Shoes05.jpg","1","1","1","0","0","0","0.566141499992227","0.448781499988399","0.454875800001901","1","1","1","1","1","1","1","1","1"
"260053","img/object_images/Shoes05.jpg","img/object_images/usb03.jpg","img/object_images/helmet03.jpg","1","1","1","0","0","1","0.454875800001901","0.566141499992227","0.561638400016818","1","1","1","1","1","1","1","1","1"
"260053","img/object_images/helmet03.jpg","img/object_images/Shoes05.jpg","img/object_images/nut_cracker01.jpg","1","1","1","1","0","1","0.561638400016818","0.454875800001901","0.367916800023522","1","1","1","1","1","1","1","1","1"
"260053","img/object_images/nut_cracker01.jpg","img/object_images/helmet03.jpg","img/object_images/badminton01.jpg","1","1","1","1","1","1","0.367916800023522","0.561638400016818","0.382915499998489","1","1","1","1","1","1","1","1","1"
"260053","img/object_images/badminton01.jpg","img/object_images/nut_cracker01.jpg","img/object_images/water_gun01.jpg","1","1","1","1","1","1","0.382915499998489","0.367916800023522","0.378912100015441","1","1","1","1","1","1","1","1","1"
"260053","img/object_images/water_gun01.jpg","img/object_images/badminton01.jpg","img/object_images/fan01.jpg","1","1","1","1","1","0","0.378912100015441","0.382915499998489","0.66963940000278","1","1","1","1","1","1","1","1","1"
"260053","img/object_images/fan01.jpg","img/object_images/water_gun01.jpg","img/object_images/TreeSlice01.jpg","1","1","1","0","1","1","0.66963940000278","0.378912100015441","0.358491899998626","1","1","1","1","1","1","1","1","1"
"260053","img/object_images/TreeSlice01.jpg","img/object_images/fan01.jpg","img/object_images/jewel02.jpg","1","1","1","1","0","0","0.358491899998626","0.66963940000278","0.653332100016996","1","1","1","1","1","1","1","1","1"
"260053","img/object_images/jewel02.jpg","img/object_images/TreeSlice01.jpg","img/object_images/headset02.jpg","1","1","1","0","1","0","0.653332100016996","0.358491899998626","0.563778000010643","1","1","1","1","1","1","1","1","1"
"260053","img/object_images/headset02.jpg","img/object_images/jewel02.jpg","img/object_images/bookmark01.jpg","1","1","1","0","0","0","0.563778000010643","0.653332100016996","0.504297800012864","1","1","1","1","1","1","1","1","1"
"260053","img/object_images/bookmark01.jpg","img/object_images/headset02.jpg","img/object_images/ToolBag01.jpg","1","1","1","0","0","0","0.504297800012864","0.563778000010643","0.4373043999949","1","1","1","1","1","1","1","1","1"
"260053","img/object_images/ToolBag01.jpg","img/object_images/bookmark01.jpg","img/object_images/phone04.jpg","1","1","1","0","0","1","0.4373043999949","0.504297800012864","0.428696199989645","1","1","1","1","1","1","1","1","1"
"260053","img/object_images/phone04.jpg","img/object_images/ToolBag01.jpg","img/object_images/pitcher07.jpg","1","1","1","1","0","1","0.428696199989645","0.4373043999949","0.46932529998594","1","1","1","1","1","1","1","1","1"
"260053","img/object_images/pitcher07.jpg","img/object_images/phone04.jpg","img/object_images/Eyeliner01.jpg","1","1","1","1","1","1","0.46932529998594","0.428696199989645","0.444101400004001","1","1","1","1","1","1","1","1","1"
"260053","img/object_images/Eyeliner01.jpg","img/object_images/pitcher07.jpg","img/object_images/bucket01.jpg","1","1","1","1","1","1","0.444101400004001","0.46932529998594","0.441853600001195","1","1","1","1","1","1","1","1","1"
"260053","img/object_images/bucket01.jpg","img/object_images/Eyeliner01.jpg","img/object_images/piano03.jpg","1","1","1","1","1","0","0.441853600001195","0.444101400004001","0.536158100003377","1","1","1","1","1","1","1","1","1"
"260053","img/object_images/piano03.jpg","img/object_images/bucket01.jpg","img/object_images/tennis_racket01.jpg","1","1","1","0","1","1","0.536158100003377","0.441853600001195","0.443123500008369","1","1","1","1","1","1","1","1","1"
"260053","img/object_images/tennis_racket01.jpg","img/object_images/piano03.jpg","img/object_images/bottle06.jpg","1","1","1","1","0","0","0.443123500008369","0.536158100003377","0.486475699988659","1","1","1","1","1","1","1","1","1"
"260053","img/object_images/bottle06.jpg","img/object_images/tennis_racket01.jpg",NA,"1","1",NA,"0","1",NA,"0.486475699988659","0.443123500008369",NA,"1","1",NA,"1","1",NA,"1","1",NA
"260053","img/object_images/blanket01.jpg",NA,"img/object_images/purse01.jpg","1",NA,"1","1",NA,"1","0.648546100012027",NA,"0.404773200018099","1",NA,"1","1",NA,"1","1",NA,"1"
"260053","img/object_images/purse01.jpg","img/object_images/blanket01.jpg","img/object_images/hole_puncher01.jpg","1","1","1","1","1","1","0.404773200018099","0.648546100012027","0.363971700018738","1","1","1","1","1","1","1","1","1"
"260053","img/object_images/hole_puncher01.jpg","img/object_images/purse01.jpg","img/object_images/cellphone02.jpg","1","1","1","1","1","1","0.363971700018738","0.404773200018099","0.372100600012345","1","1","1","1","1","1","1","1","1"
"260053","img/object_images/cellphone02.jpg","img/object_images/hole_puncher01.jpg","img/object_images/basket02.jpg","1","1","1","1","1","0","0.372100600012345","0.363971700018738","0.503492999996524","1","1","1","1","1","1","1","1","1"
"260053","img/object_images/basket02.jpg","img/object_images/cellphone02.jpg","img/object_images/gift_box04.jpg","1","1","0","0","1","0","0.503492999996524","0.372100600012345","0.528281400009291","1","1","1","1","1","1","1","1","1"
"260053","img/object_images/gift_box04.jpg","img/object_images/basket02.jpg","img/object_images/speaker01.jpg","0","1","1","0","0","1","0.528281400009291","0.503492999996524","0.425855999987107","1","1","1","1","1","1","1","1","1"
"260053","img/object_images/speaker01.jpg","img/object_images/gift_box04.jpg","img/object_images/glasses06.jpg","1","0","1","1","0","1","0.425855999987107","0.528281400009291","0.369918600015808","1","1","1","1","1","1","1","1","1"
"260053","img/object_images/glasses06.jpg","img/object_images/speaker01.jpg","img/object_images/tool08.jpg","1","1","1","1","1","0","0.369918600015808","0.425855999987107","0.568918700009817","1","1","1","1","1","1","1","1","1"
"260053","img/object_images/tool08.jpg","img/object_images/glasses06.jpg","img/object_images/projector01.jpg","1","1","1","0","1","0","0.568918700009817","0.369918600015808","0.508922099979827","1","1","1","1","1","1","1","1","1"
"260053","img/object_images/projector01.jpg","img/object_images/tool08.jpg","img/object_images/fire_extinguisher01.jpg","1","1","1","0","0","0","0.508922099979827","0.568918700009817","0.66144590001204","1","1","1","1","1","1","1","1","1"
"260053","img/object_images/fire_extinguisher01.jpg","img/object_images/projector01.jpg","img/object_images/bicycle_lock01.jpg","1","1","1","0","0","0","0.66144590001204","0.508922099979827","0.502729700005148","1","1","1","1","1","1","1","1","1"
"260053","img/object_images/bicycle_lock01.jpg","img/object_images/fire_extinguisher01.jpg","img/object_images/Traffic Sign 01.jpg","1","1","1","0","0","0","0.502729700005148","0.66144590001204","0.520821500016609","1","1","1","1","1","1","1","1","1"
"260053","img/object_images/Traffic Sign 01.jpg","img/object_images/bicycle_lock01.jpg","img/object_images/Pottery01.jpg","1","1","1","0","0","0","0.520821500016609","0.502729700005148","0.536033900018083","1","1","1","1","1","1","1","1","1"
"260053","img/object_images/Pottery01.jpg","img/object_images/Traffic Sign 01.jpg","img/object_images/glasses07.jpg","1","1","1","0","0","1","0.536033900018083","0.520821500016609","0.375374399998691","1","1","1","1","1","1","1","1","1"
"260053","img/object_images/glasses07.jpg","img/object_images/Pottery01.jpg","img/object_images/tool07.jpg","1","1","1","1","0","0","0.375374399998691","0.536033900018083","0.528144000010798","1","1","1","1","1","1","1","1","1"
"260053","img/object_images/tool07.jpg","img/object_images/glasses07.jpg","img/object_images/Sprayer01.jpg","1","1","1","0","1","0","0.528144000010798","0.375374399998691","0.481430800020462","1","1","1","1","1","1","1","1","1"
"260053","img/object_images/Sprayer01.jpg","img/object_images/tool07.jpg","img/object_images/faucet01.jpg","1","1","1","0","0","0","0.481430800020462","0.528144000010798","0.482391700003063","1","1","1","1","1","1","1","1","1"
"260053","img/object_images/faucet01.jpg","img/object_images/Sprayer01.jpg","img/object_images/hair_clips01.jpg","1","1","1","0","0","1","0.482391700003063","0.481430800020462","0.383116899989545","1","1","1","1","1","1","1","1","1"
"260053","img/object_images/hair_clips01.jpg","img/object_images/faucet01.jpg","img/object_images/exfoliater_brush01.jpg","1","1","1","1","0","0","0.383116899989545","0.482391700003063","0.443230000004405","1","1","1","1","1","1","1","1","1"
"260053","img/object_images/exfoliater_brush01.jpg","img/object_images/hair_clips01.jpg","img/object_images/colander01.jpg","1","1","1","0","1","0","0.443230000004405","0.383116899989545","0.495128399983514","1","1","1","1","1","1","1","1","1"
"260053","img/object_images/colander01.jpg","img/object_images/exfoliater_brush01.jpg","img/object_images/jewelry09.jpg","1","1","1","0","0","1","0.495128399983514","0.443230000004405","0.424310700007482","1","1","1","1","1","1","1","1","1"
"260053","img/object_images/jewelry09.jpg","img/object_images/colander01.jpg","img/object_images/ring03.jpg","1","1","1","1","0","1","0.424310700007482","0.495128399983514","0.404985300003318","1","1","1","1","1","1","1","1","1"
"260053","img/object_images/ring03.jpg","img/object_images/jewelry09.jpg","img/object_images/handcuffs01.jpg","1","1","1","1","1","0","0.404985300003318","0.424310700007482","0.478389399999287","1","1","1","1","1","1","1","1","1"
"260053","img/object_images/handcuffs01.jpg","img/object_images/ring03.jpg","img/object_images/pan01.jpg","1","1","1","0","1","1","0.478389399999287","0.404985300003318","0.436628900002688","1","1","1","1","1","1","1","1","1"
"260053","img/object_images/pan01.jpg","img/object_images/handcuffs01.jpg","img/object_images/book01.jpg","1","1","1","1","0","1","0.436628900002688","0.478389399999287","0.367273400013801","1","1","1","1","1","1","1","1","1"
"260053","img/object_images/book01.jpg","img/object_images/pan01.jpg","img/object_images/cup03.jpg","1","1","1","1","1","1","0.367273400013801","0.436628900002688","0.393205400003353","1","1","1","1","1","1","1","1","1"
"260053","img/object_images/cup03.jpg","img/object_images/book01.jpg","img/object_images/lighter01.jpg","1","1","1","1","1","1","0.393205400003353","0.367273400013801","0.341485000011744","1","1","1","1","1","1","1","1","1"
"260053","img/object_images/lighter01.jpg","img/object_images/cup03.jpg","img/object_images/yo_yo01.jpg","1","1","1","1","1","0","0.341485000011744","0.393205400003353","0.417159900011029","1","1","1","1","1","1","1","1","1"
"260053","img/object_images/yo_yo01.jpg","img/object_images/lighter01.jpg","img/object_images/tray01.jpg","1","1","1","0","1","1","0.417159900011029","0.341485000011744","0.371858400001656","1","1","1","1","1","1","1","1","1"
"260053","img/object_images/tray01.jpg","img/object_images/yo_yo01.jpg","img/object_images/TrashCan02.jpg","1","1","1","1","0","1","0.371858400001656","0.417159900011029","0.359693100006552","1","1","1","1","1","1","1","1","1"
"260053","img/object_images/TrashCan02.jpg","img/object_images/tray01.jpg","img/object_images/Kitchen_Towel.jpg","1","1","1","1","1","0","0.359693100006552","0.371858400001656","0.484477299993159","1","1","1","1","1","1","1","1","1"
"260053","img/object_images/Kitchen_Towel.jpg","img/object_images/TrashCan02.jpg",NA,"1","1",NA,"0","1",NA,"0.484477299993159","0.359693100006552",NA,"1","1",NA,"1","1",NA,"1","1",NA
"260053","img/object_images/vase02.jpg",NA,"img/object_images/tool20.jpg","1",NA,"0","1",NA,"0","0.520054500026163",NA,"0.41157860000385","1",NA,"1","1",NA,"1","1",NA,"1"
"260053","img/object_images/tool20.jpg","img/object_images/vase02.jpg","img/object_images/perfume01.jpg","0","1","1","0","1","0","0.41157860000385","0.520054500026163","0.496650799992494","1","1","1","1","1","1","1","1","1"
"260053","img/object_images/perfume01.jpg","img/object_images/tool20.jpg","img/object_images/socks01.jpg","1","0","1","0","0","1","0.496650799992494","0.41157860000385","0.390431799984071","1","1","1","1","1","1","1","1","1"
"260053","img/object_images/socks01.jpg","img/object_images/perfume01.jpg","img/object_images/hammer02.jpg","1","1","1","1","0","0","0.390431799984071","0.496650799992494","0.480024400021648","1","1","1","1","1","1","1","1","1"
"260053","img/object_images/hammer02.jpg","img/object_images/socks01.jpg","img/object_images/razor02.jpg","1","1","1","0","1","1","0.480024400021648","0.390431799984071","0.381601700006286","1","1","1","1","1","1","1","1","1"
"260053","img/object_images/razor02.jpg","img/object_images/hammer02.jpg","img/object_images/Candle_Holder01.jpg","1","1","1","1","0","0","0.381601700006286","0.480024400021648","0.46986859999015","1","1","1","1","1","1","1","1","1"
"260053","img/object_images/Candle_Holder01.jpg","img/object_images/razor02.jpg","img/object_images/pan03.jpg","1","1","1","0","1","1","0.46986859999015","0.381601700006286","0.427464600012172","1","1","1","1","1","1","1","1","1"
"260053","img/object_images/pan03.jpg","img/object_images/Candle_Holder01.jpg","img/object_images/Confetti 01.jpg","1","1","1","1","0","0","0.427464600012172","0.46986859999015","0.48876839998411","1","1","1","1","1","1","1","1","1"
"260053","img/object_images/Confetti 01.jpg","img/object_images/pan03.jpg","img/object_images/bag04.jpg","1","1","1","0","1","0","0.48876839998411","0.427464600012172","0.540766500023892","1","1","1","1","1","1","1","1","1"
"260053","img/object_images/bag04.jpg","img/object_images/Confetti 01.jpg","img/object_images/lemon_squeezer01.jpg","1","1","1","0","0","1","0.540766500023892","0.48876839998411","0.397186199988937","1","1","1","1","1","1","1","1","1"
"260053","img/object_images/lemon_squeezer01.jpg","img/object_images/bag04.jpg","img/object_images/camera05.jpg","1","1","0","1","0","0","0.397186199988937","0.540766500023892","0.311347500013653","1","1","1","1","1","1","1","1","1"
"260053","img/object_images/camera05.jpg","img/object_images/lemon_squeezer01.jpg","img/object_images/sink_filter01 (1).jpg","0","1","1","0","1","0","0.311347500013653","0.397186199988937","0.440970800002106","1","1","1","1","1","1","1","1","1"
"260053","img/object_images/sink_filter01 (1).jpg","img/object_images/camera05.jpg","img/object_images/dust_pan01.jpg","1","0","1","0","0","1","0.440970800002106","0.311347500013653","0.425209599983646","1","1","1","1","1","1","1","1","1"
"260053","img/object_images/dust_pan01.jpg","img/object_images/sink_filter01 (1).jpg","img/object_images/glasses03.jpg","1","1","1","1","0","0","0.425209599983646","0.440970800002106","0.523970900016138","1","1","1","1","1","1","1","1","1"
"260053","img/object_images/glasses03.jpg","img/object_images/dust_pan01.jpg","img/object_images/sign02.jpg","1","1","1","0","1","0","0.523970900016138","0.425209599983646","0.476950499985833","1","1","1","1","1","1","1","1","1"
"260053","img/object_images/sign02.jpg","img/object_images/glasses03.jpg","img/object_images/pen06.jpg","1","1","1","0","0","0","0.476950499985833","0.523970900016138","0.484358999994583","1","1","1","1","1","1","1","1","1"
"260053","img/object_images/pen06.jpg","img/object_images/sign02.jpg","img/object_images/tool13.jpg","1","1","1","0","0","1","0.484358999994583","0.476950499985833","0.393353999999818","1","1","1","1","1","1","1","1","1"
"260053","img/object_images/tool13.jpg","img/object_images/pen06.jpg","img/object_images/hat09.jpg","1","1","1","1","0","0","0.393353999999818","0.484358999994583","0.46442790000583","1","1","1","1","1","1","1","1","1"
"260053","img/object_images/hat09.jpg","img/object_images/tool13.jpg","img/object_images/office_supplies01.jpg","1","1","1","0","1","1","0.46442790000583","0.393353999999818","0.352954800007865","1","1","1","1","1","1","1","1","1"
"260053","img/object_images/office_supplies01.jpg","img/object_images/hat09.jpg","img/object_images/spray_can01.jpg","1","1","1","1","0","0","0.352954800007865","0.46442790000583","0.41635819998919","1","1","1","1","1","1","1","1","1"
"260053","img/object_images/spray_can01.jpg","img/object_images/office_supplies01.jpg","img/object_images/bow_tie03.jpg","1","1","1","0","1","1","0.41635819998919","0.352954800007865","0.402647899987642","1","1","1","1","1","1","1","1","1"
"260053","img/object_images/bow_tie03.jpg","img/object_images/spray_can01.jpg","img/object_images/board01.jpg","1","1","1","1","0","1","0.402647899987642","0.41635819998919","0.385403899999801","1","1","1","1","1","1","1","1","1"
"260053","img/object_images/board01.jpg","img/object_images/bow_tie03.jpg","img/object_images/cup01.jpg","1","1","0","1","1","0","0.385403899999801","0.402647899987642","0.422579999984009","1","1","1","1","1","1","1","1","1"
"260053","img/object_images/cup01.jpg","img/object_images/board01.jpg","img/object_images/knife01.jpg","0","1","1","0","1","1","0.422579999984009","0.385403899999801","0.438112000003457","1","1","1","1","1","1","1","1","1"
"260053","img/object_images/knife01.jpg","img/object_images/cup01.jpg","img/object_images/video_game02.jpg","1","0","1","1","0","1","0.438112000003457","0.422579999984009","0.372199999983422","1","1","1","1","1","1","1","1","1"
"260053","img/object_images/video_game02.jpg","img/object_images/knife01.jpg","img/object_images/duster01.jpg","1","1","1","1","1","0","0.372199999983422","0.438112000003457","0.400930100004189","1","1","1","1","1","1","1","1","1"
"260053","img/object_images/duster01.jpg","img/object_images/video_game02.jpg","img/object_images/ruler02.jpg","1","1","1","0","1","1","0.400930100004189","0.372199999983422","0.540231699997094","1","1","1","1","1","1","1","1","1"
"260053","img/object_images/ruler02.jpg","img/object_images/duster01.jpg","img/object_images/hat13.jpg","1","1","1","1","0","1","0.540231699997094","0.400930100004189","0.418573000031756","1","1","1","1","1","1","1","1","1"
"260053","img/object_images/hat13.jpg","img/object_images/ruler02.jpg","img/object_images/clipboard01.jpg","1","1","1","1","1","1","0.418573000031756","0.540231699997094","0.441832800017437","1","1","1","1","1","1","1","1","1"
"260053","img/object_images/clipboard01.jpg","img/object_images/hat13.jpg","img/object_images/floss01.jpg","1","1","1","1","1","1","0.441832800017437","0.418573000031756","0.48274630002561","1","1","1","1","1","1","1","1","1"
"260053","img/object_images/floss01.jpg","img/object_images/clipboard01.jpg","img/object_images/candle02.jpg","1","1","1","1","1","0","0.48274630002561","0.441832800017437","0.497269099985715","1","1","1","1","1","1","1","1","1"
"260053","img/object_images/candle02.jpg","img/object_images/floss01.jpg",NA,"1","1",NA,"0","1",NA,"0.497269099985715","0.48274630002561",NA,"1","1",NA,"1","1",NA,"1","1",NA
"260053","img/object_images/boat04.jpg",NA,"img/object_images/backpack01.jpg","1",NA,"1","0",NA,"0","0.840043500007596",NA,"0.531270200008294","1",NA,"1","1",NA,"1","1",NA,"1"
"260053","img/object_images/backpack01.jpg","img/object_images/boat04.jpg","img/object_images/curtain02.jpg","1","1","1","0","0","0","0.531270200008294","0.840043500007596","0.490701600007014","1","1","1","1","1","1","1","1","1"
"260053","img/object_images/curtain02.jpg","img/object_images/backpack01.jpg","img/object_images/knit03.jpg","1","1","1","0","0","1","0.490701600007014","0.531270200008294","0.398260000016307","1","1","1","1","1","1","1","1","1"
"260053","img/object_images/knit03.jpg","img/object_images/curtain02.jpg","img/object_images/mail_box01.jpg","1","1","1","1","0","0","0.398260000016307","0.490701600007014","0.510304400027962","1","1","1","1","1","1","1","1","1"
"260053","img/object_images/mail_box01.jpg","img/object_images/knit03.jpg","img/object_images/knife02.jpg","1","1","1","0","1","0","0.510304400027962","0.398260000016307","0.598789999989094","1","1","1","1","1","1","1","1","1"
"260053","img/object_images/knife02.jpg","img/object_images/mail_box01.jpg","img/object_images/phone02.jpg","1","1","1","0","0","1","0.598789999989094","0.510304400027962","0.436983700026758","1","1","1","1","1","1","1","1","1"
"260053","img/object_images/phone02.jpg","img/object_images/knife02.jpg","img/object_images/Statue01.jpg","1","1","1","1","0","1","0.436983700026758","0.598789999989094","0.355062100017676","1","1","1","1","1","1","1","1","1"
"260053","img/object_images/Statue01.jpg","img/object_images/phone02.jpg","img/object_images/shower_head01.jpg","1","1","1","1","1","1","0.355062100017676","0.436983700026758","0.35518630000297","1","1","1","1","1","1","1","1","1"
"260053","img/object_images/shower_head01.jpg","img/object_images/Statue01.jpg","img/object_images/video_game01.jpg","1","1","1","1","1","1","0.35518630000297","0.355062100017676","0.392246500006877","1","1","1","1","1","1","1","1","1"
"260053","img/object_images/video_game01.jpg","img/object_images/shower_head01.jpg","img/object_images/sponge03.jpg","1","1","1","1","1","1","0.392246500006877","0.35518630000297","0.366452199988998","1","1","1","1","1","1","1","1","1"
"260053","img/object_images/sponge03.jpg","img/object_images/video_game01.jpg","img/object_images/knit04.jpg","1","1","1","1","1","1","0.366452199988998","0.392246500006877","0.415230300015537","1","1","1","1","1","1","1","1","1"
"260053","img/object_images/knit04.jpg","img/object_images/sponge03.jpg","img/object_images/flashlight03.jpg","1","1","1","1","1","0","0.415230300015537","0.366452199988998","0.587727000005543","1","1","1","1","1","1","1","1","1"
"260053","img/object_images/flashlight03.jpg","img/object_images/knit04.jpg","img/object_images/camera03.jpg","1","1","1","0","1","0","0.587727000005543","0.415230300015537","0.421093899989501","1","1","1","1","1","1","1","1","1"
"260053","img/object_images/camera03.jpg","img/object_images/flashlight03.jpg","img/object_images/keyboard02.jpg","1","1","1","0","0","1","0.421093899989501","0.587727000005543","0.340696200000821","1","1","1","1","1","1","1","1","1"
"260053","img/object_images/keyboard02.jpg","img/object_images/camera03.jpg","img/object_images/hoverboard01.jpg","1","1","1","1","0","0","0.340696200000821","0.421093899989501","0.408005300007062","1","1","1","1","1","1","1","1","1"
"260053","img/object_images/hoverboard01.jpg","img/object_images/keyboard02.jpg","img/object_images/gloves02.jpg","1","1","0","0","1","0","0.408005300007062","0.340696200000821","0.407677700015483","1","1","1","1","1","1","1","1","2"
"260053","img/object_images/gloves02.jpg","img/object_images/hoverboard01.jpg","img/object_images/blender02.jpg","0","1","1","0","0","1","0.407677700015483","0.408005300007062","0.408013499982189","1","1","1","1","1","1","2","1","1"
"260053","img/object_images/blender02.jpg","img/object_images/gloves02.jpg","img/object_images/kite01.jpg","1","0","1","1","0","1","0.408013499982189","0.407677700015483","0.37504970000009","1","1","1","1","1","1","1","2","1"
"260053","img/object_images/kite01.jpg","img/object_images/blender02.jpg","img/object_images/remote_controller01.jpg","1","1","1","1","1","1","0.37504970000009","0.408013499982189","0.377259700006107","1","1","1","1","1","1","1","1","1"
"260053","img/object_images/remote_controller01.jpg","img/object_images/kite01.jpg","img/object_images/dresser03.jpg","1","1","1","1","1","0","0.377259700006107","0.37504970000009","0.45392100000754","1","1","1","1","1","1","1","1","1"
"260053","img/object_images/dresser03.jpg","img/object_images/remote_controller01.jpg","img/object_images/bottle07.jpg","1","1","1","0","1","1","0.45392100000754","0.377259700006107","0.352224600006593","1","1","1","1","1","1","1","1","1"
"260053","img/object_images/bottle07.jpg","img/object_images/dresser03.jpg","img/object_images/hand_grip_exerciser01.jpg","1","1","1","1","0","0","0.352224600006593","0.45392100000754","0.311349700001301","1","1","1","1","1","1","1","1","1"
"260053","img/object_images/hand_grip_exerciser01.jpg","img/object_images/bottle07.jpg","img/object_images/stereo02.jpg","1","1","0","0","1","0","0.311349700001301","0.352224600006593","0.354216300009284","1","1","1","1","1","1","1","1","1"
"260053","img/object_images/stereo02.jpg","img/object_images/hand_grip_exerciser01.jpg","img/object_images/tool18.jpg","0","1","0","0","0","0","0.354216300009284","0.311349700001301","0.400496999995084","1","1","1","1","1","1","1","1","2"
"260053","img/object_images/tool18.jpg","img/object_images/stereo02.jpg","img/object_images/car01.jpg","0","0","1","0","0","1","0.400496999995084","0.354216300009284","0.387101599975722","1","1","1","1","1","1","2","1","1"
"260053","img/object_images/car01.jpg","img/object_images/tool18.jpg","img/object_images/remover01.jpg","1","0","1","1","0","1","0.387101599975722","0.400496999995084","0.421063100016909","1","1","1","1","1","1","1","2","1"
"260053","img/object_images/remover01.jpg","img/object_images/car01.jpg","img/object_images/matches02.jpg","1","1","1","1","1","0","0.421063100016909","0.387101599975722","0.585392400011187","1","1","1","1","1","1","1","1","1"
"260053","img/object_images/matches02.jpg","img/object_images/remover01.jpg","img/object_images/jacket04.jpg","1","1","1","0","1","0","0.585392400011187","0.421063100016909","0.48390299998573","1","1","1","1","1","1","1","1","1"
"260053","img/object_images/jacket04.jpg","img/object_images/matches02.jpg","img/object_images/paper_cup02.jpg","1","1","1","0","0","1","0.48390299998573","0.585392400011187","0.526887899992289","1","1","1","1","1","1","1","1","1"
"260053","img/object_images/paper_cup02.jpg","img/object_images/jacket04.jpg","img/object_images/basket04.jpg","1","1","1","1","0","1","0.526887899992289","0.48390299998573","0.377200300019467","1","1","1","1","1","1","1","1","1"
"260053","img/object_images/basket04.jpg","img/object_images/paper_cup02.jpg","img/object_images/toy08.jpg","1","1","0","1","1","0","0.377200300019467","0.526887899992289","0.63049520002096","1","1","1","1","1","1","1","1","1"
"260053","img/object_images/toy08.jpg","img/object_images/basket04.jpg",NA,"0","1",NA,"0","1",NA,"0.63049520002096","0.377200300019467",NA,"1","1",NA,"1","1",NA,"1","1",NA
"260053","img/object_images/pen01.jpg",NA,"img/object_images/mail_box02.jpg","0",NA,"1","0",NA,"1","0.864206500002183",NA,"0.419423300016206","1",NA,"1","1",NA,"1","1",NA,"1"
"260053","img/object_images/mail_box02.jpg","img/object_images/pen01.jpg","img/object_images/skate_board01.jpg","1","0","0","1","0","0","0.419423300016206","0.864206500002183","0.334110099996906","1","1","1","1","1","1","1","1","1"
"260053","img/object_images/skate_board01.jpg","img/object_images/mail_box02.jpg","img/object_images/Violin01.jpg","0","1","1","0","1","0","0.334110099996906","0.419423300016206","0.431110800011083","1","1","1","1","1","1","1","1","1"
"260053","img/object_images/Violin01.jpg","img/object_images/skate_board01.jpg","img/object_images/soap03.jpg","1","0","1","0","0","0","0.431110800011083","0.334110099996906","0.493942400004016","1","1","1","1","1","1","1","1","1"
"260053","img/object_images/soap03.jpg","img/object_images/Violin01.jpg","img/object_images/blender01.jpg","1","1","1","0","0","0","0.493942400004016","0.431110800011083","0.461169999995036","1","1","1","1","1","1","1","1","1"
"260053","img/object_images/blender01.jpg","img/object_images/soap03.jpg","img/object_images/box03.jpg","1","1","0","0","0","0","0.461169999995036","0.493942400004016","0.412172000011196","1","1","1","1","1","1","1","1","2"
"260053","img/object_images/box03.jpg","img/object_images/blender01.jpg","img/object_images/Trowel01.jpg","0","1","1","0","0","0","0.412172000011196","0.461169999995036","0.392136999987997","1","1","1","1","1","1","2","1","1"
"260053","img/object_images/Trowel01.jpg","img/object_images/box03.jpg","img/object_images/bell03.jpg","1","0","1","0","0","0","0.392136999987997","0.412172000011196","0.505987999989884","1","1","1","1","1","1","1","2","1"
"260053","img/object_images/bell03.jpg","img/object_images/Trowel01.jpg","img/object_images/couch01.jpg","1","1","1","0","0","0","0.505987999989884","0.392136999987997","0.447985900013009","1","1","1","1","1","1","1","1","1"
"260053","img/object_images/couch01.jpg","img/object_images/bell03.jpg","img/object_images/rock02.jpg","1","1","1","0","0","0","0.447985900013009","0.505987999989884","0.483635999989929","1","1","1","1","1","1","1","1","1"
"260053","img/object_images/rock02.jpg","img/object_images/couch01.jpg","img/object_images/hair_brush01.jpg","1","1","1","0","0","1","0.483635999989929","0.447985900013009","0.375415699993027","1","1","1","1","1","1","1","1","1"
"260053","img/object_images/hair_brush01.jpg","img/object_images/rock02.jpg","img/object_images/egg_slicer01.jpg","1","1","1","1","0","1","0.375415699993027","0.483635999989929","0.388191300007747","1","1","1","1","1","1","1","1","1"
"260053","img/object_images/egg_slicer01.jpg","img/object_images/hair_brush01.jpg","img/object_images/drone01.jpg","1","1","1","1","1","1","0.388191300007747","0.375415699993027","0.439082099997904","1","1","1","1","1","1","1","1","1"
"260053","img/object_images/drone01.jpg","img/object_images/egg_slicer01.jpg","img/object_images/computer_mouse01.jpg","1","1","1","1","1","1","0.439082099997904","0.388191300007747","0.41307360000792","1","1","1","1","1","1","1","1","1"
"260053","img/object_images/computer_mouse01.jpg","img/object_images/drone01.jpg","img/object_images/airfryer02.jpg","1","1","1","1","1","1","0.41307360000792","0.439082099997904","0.356759599992074","1","1","1","1","1","1","1","1","1"
"260053","img/object_images/airfryer02.jpg","img/object_images/computer_mouse01.jpg","img/object_images/toothbrush01.jpg","1","1","1","1","1","0","0.356759599992074","0.41307360000792","0.484652299986919","1","1","1","1","1","1","1","1","1"
"260053","img/object_images/toothbrush01.jpg","img/object_images/airfryer02.jpg","img/object_images/chair06.jpg","1","1","1","0","1","0","0.484652299986919","0.356759599992074","0.592752099997597","1","1","1","1","1","1","1","1","1"
"260053","img/object_images/chair06.jpg","img/object_images/toothbrush01.jpg","img/object_images/pitcher09.jpg","1","1","1","0","0","1","0.592752099997597","0.484652299986919","0.435870300017996","1","1","1","1","1","1","1","1","1"
"260053","img/object_images/pitcher09.jpg","img/object_images/chair06.jpg","img/object_images/tool06.jpg","1","1","1","1","0","0","0.435870300017996","0.592752099997597","0.555955999996513","1","1","1","1","1","1","1","1","1"
"260053","img/object_images/tool06.jpg","img/object_images/pitcher09.jpg","img/object_images/scarf01.jpg","1","1","1","0","1","1","0.555955999996513","0.435870300017996","0.400335699989228","1","1","1","1","1","1","1","1","1"
"260053","img/object_images/scarf01.jpg","img/object_images/tool06.jpg","img/object_images/floss02.jpg","1","1","1","1","0","1","0.400335699989228","0.555955999996513","0.325838899996597","1","1","1","1","1","1","1","1","1"
"260053","img/object_images/floss02.jpg","img/object_images/scarf01.jpg","img/object_images/fork02.jpg","1","1","1","1","1","0","0.325838899996597","0.400335699989228","0.503736200014828","1","1","1","1","1","1","1","1","1"
"260053","img/object_images/fork02.jpg","img/object_images/floss02.jpg","img/object_images/shoes12.jpg","1","1","1","0","1","1","0.503736200014828","0.325838899996597","0.464490699989256","1","1","1","1","1","1","1","1","1"
"260053","img/object_images/shoes12.jpg","img/object_images/fork02.jpg","img/object_images/chain01.jpg","1","1","1","1","0","0","0.464490699989256","0.503736200014828","0.45512010002858","1","1","1","1","1","1","1","1","1"
"260053","img/object_images/chain01.jpg","img/object_images/shoes12.jpg","img/object_images/book02.jpg","1","1","1","0","1","1","0.45512010002858","0.464490699989256","0.388297400000738","1","1","1","1","1","1","1","1","1"
"260053","img/object_images/book02.jpg","img/object_images/chain01.jpg","img/object_images/computer_mouse02.jpg","1","1","1","1","0","0","0.388297400000738","0.45512010002858","0.490607900021132","1","1","1","1","1","1","1","1","1"
"260053","img/object_images/computer_mouse02.jpg","img/object_images/book02.jpg","img/object_images/clip04.jpg","1","1","1","0","1","1","0.490607900021132","0.388297400000738","0.3472441000049","1","1","1","1","1","1","1","1","1"
"260053","img/object_images/clip04.jpg","img/object_images/computer_mouse02.jpg","img/object_images/bag_pipes01.jpg","1","1","1","1","0","1","0.3472441000049","0.490607900021132","0.379215000022668","1","1","1","1","1","1","1","1","1"
"260053","img/object_images/bag_pipes01.jpg","img/object_images/clip04.jpg","img/object_images/video_game03.jpg","1","1","1","1","1","1","0.379215000022668","0.3472441000049","0.348021699988749","1","1","1","1","1","1","1","1","1"
"260053","img/object_images/video_game03.jpg","img/object_images/bag_pipes01.jpg","img/object_images/toy01.jpg","1","1","1","1","1","1","0.348021699988749","0.379215000022668","0.359573599998839","1","1","1","1","1","1","1","1","1"
"260053","img/object_images/toy01.jpg","img/object_images/video_game03.jpg","img/object_images/tripod01.jpg","1","1","1","1","1","1","0.359573599998839","0.348021699988749","0.367699600028573","1","1","1","1","1","1","1","1","1"
"260053","img/object_images/tripod01.jpg","img/object_images/toy01.jpg",NA,"1","1",NA,"1","1",NA,"0.367699600028573","0.359573599998839",NA,"1","1",NA,"1","1",NA,"1","1",NA
"260053","img/object_images/razor01.jpg",NA,"img/object_images/car04.jpg","0",NA,"0","0",NA,"0","0.763975599984406",NA,"0.466732600005344","1",NA,"1","1",NA,"1","1",NA,"1"
"260053","img/object_images/car04.jpg","img/object_images/razor01.jpg","img/object_images/bag06.jpg","0","0","1","0","0","1","0.466732600005344","0.763975599984406","0.377145900012692","1","1","1","1","1","1","1","1","1"
"260053","img/object_images/bag06.jpg","img/object_images/car04.jpg","img/object_images/shower_head03.jpg","1","0","1","1","0","1","0.377145900012692","0.466732600005344","0.380296499992255","1","1","1","1","1","1","1","1","1"
"260053","img/object_images/shower_head03.jpg","img/object_images/bag06.jpg","img/object_images/tv01.jpg","1","1","1","1","1","0","0.380296499992255","0.377145900012692","0.348708100005751","1","1","1","1","1","1","1","1","1"
"260053","img/object_images/tv01.jpg","img/object_images/shower_head03.jpg","img/object_images/jewelry07.jpg","1","1","1","0","1","1","0.348708100005751","0.380296499992255","0.475479700020514","1","1","1","1","1","1","1","1","1"
"260053","img/object_images/jewelry07.jpg","img/object_images/tv01.jpg","img/object_images/tool11.jpg","1","1","1","1","0","1","0.475479700020514","0.348708100005751","0.349496700015152","1","1","1","1","1","1","1","1","1"
"260053","img/object_images/tool11.jpg","img/object_images/jewelry07.jpg","img/object_images/cutting_board01.jpg","1","1","1","1","1","1","0.349496700015152","0.475479700020514","0.342022400000133","1","1","1","1","1","1","1","1","1"
"260053","img/object_images/cutting_board01.jpg","img/object_images/tool11.jpg","img/object_images/jewel01.jpg","1","1","1","1","1","0","0.342022400000133","0.349496700015152","0.466100100020412","1","1","1","1","1","1","1","1","1"
"260053","img/object_images/jewel01.jpg","img/object_images/cutting_board01.jpg","img/object_images/screwdriver01.jpg","1","1","0","0","1","0","0.466100100020412","0.342022400000133","0.383332199999131","1","1","1","1","1","1","1","1","2"
"260053","img/object_images/screwdriver01.jpg","img/object_images/jewel01.jpg","img/object_images/hair_brush05.jpg","0","1","1","0","0","1","0.383332199999131","0.466100100020412","0.328421300015179","1","1","1","1","1","1","2","1","1"
"260053","img/object_images/hair_brush05.jpg","img/object_images/screwdriver01.jpg","img/object_images/ladle02.jpg","1","0","1","1","0","0","0.328421300015179","0.383332199999131","0.39565219997894","1","1","1","1","1","1","1","2","1"
"260053","img/object_images/ladle02.jpg","img/object_images/hair_brush05.jpg","img/object_images/binoculars03.jpg","1","1","1","0","1","1","0.39565219997894","0.328421300015179","0.333763899980113","1","1","1","1","1","1","1","1","1"
"260053","img/object_images/binoculars03.jpg","img/object_images/ladle02.jpg","img/object_images/shoes10.jpg","1","1","1","1","0","0","0.333763899980113","0.39565219997894","0.43415559999994","1","1","1","1","1","1","1","1","1"
"260053","img/object_images/shoes10.jpg","img/object_images/binoculars03.jpg","img/object_images/ribbon01.jpg","1","1","0","0","1","0","0.43415559999994","0.333763899980113","0.569252399989637","1","1","1","1","1","1","1","1","1"
"260053","img/object_images/ribbon01.jpg","img/object_images/shoes10.jpg","img/object_images/belt01.jpg","0","1","1","0","0","0","0.569252399989637","0.43415559999994","0.478840700001456","1","1","1","1","1","1","1","1","1"
"260053","img/object_images/belt01.jpg","img/object_images/ribbon01.jpg","img/object_images/ice_tray03.jpg","1","0","1","0","0","1","0.478840700001456","0.569252399989637","0.339891200012062","1","1","1","1","1","1","1","1","1"
"260053","img/object_images/ice_tray03.jpg","img/object_images/belt01.jpg","img/object_images/key02.jpg","1","1","1","1","0","1","0.339891200012062","0.478840700001456","0.452485500019975","1","1","1","1","1","1","1","1","1"
"260053","img/object_images/key02.jpg","img/object_images/ice_tray03.jpg","img/object_images/toaster02.jpg","1","1","1","1","1","1","0.452485500019975","0.339891200012062","0.382526000001235","1","1","1","1","1","1","1","1","1"
"260053","img/object_images/toaster02.jpg","img/object_images/key02.jpg","img/object_images/MeasuringCup01.jpg","1","1","1","1","1","1","0.382526000001235","0.452485500019975","0.323912500025472","1","1","1","1","1","1","1","1","1"
"260053","img/object_images/MeasuringCup01.jpg","img/object_images/toaster02.jpg","img/object_images/slinky_toy01.jpg","1","1","0","1","1","1","0.323912500025472","0.382526000001235","0.333270000002813","1","1","1","1","1","1","1","1","1"
"260053","img/object_images/slinky_toy01.jpg","img/object_images/MeasuringCup01.jpg","img/object_images/mask01.jpg","0","1","0","1","1","0","0.333270000002813","0.323912500025472","0.431058699992718","1","1","1","1","1","1","1","1","1"
"260053","img/object_images/mask01.jpg","img/object_images/slinky_toy01.jpg","img/object_images/WitchHat02.jpg","0","0","1","0","1","1","0.431058699992718","0.333270000002813","0.456754999991972","1","1","1","1","1","1","1","1","1"
"260053","img/object_images/WitchHat02.jpg","img/object_images/mask01.jpg","img/object_images/lemon_squeezer02.jpg","1","0","1","1","0","1","0.456754999991972","0.431058699992718","0.380114100000355","1","1","1","1","1","1","1","1","1"
"260053","img/object_images/lemon_squeezer02.jpg","img/object_images/WitchHat02.jpg","img/object_images/car03.jpg","1","1","1","1","1","0","0.380114100000355","0.456754999991972","0.446897200017702","1","1","1","1","1","1","1","1","1"
"260053","img/object_images/car03.jpg","img/object_images/lemon_squeezer02.jpg","img/object_images/satellite01.jpg","1","1","1","0","1","0","0.446897200017702","0.380114100000355","0.337124899990158","1","1","1","1","1","1","1","1","1"
"260053","img/object_images/satellite01.jpg","img/object_images/car03.jpg","img/object_images/dress03.jpg","1","1","1","0","0","1","0.337124899990158","0.446897200017702","0.389213300019037","1","1","1","1","1","1","1","1","1"
"260053","img/object_images/dress03.jpg","img/object_images/satellite01.jpg","img/object_images/cards01.jpg","1","1","1","1","0","0","0.389213300019037","0.337124899990158","0.485202799987746","1","1","1","1","1","1","1","1","1"
"260053","img/object_images/cards01.jpg","img/object_images/dress03.jpg","img/object_images/rock03.jpg","1","1","1","0","1","0","0.485202799987746","0.389213300019037","0.454273400013335","1","1","1","1","1","1","1","1","1"
"260053","img/object_images/rock03.jpg","img/object_images/cards01.jpg","img/object_images/fan05.jpg","1","1","0","0","0","0","0.454273400013335","0.485202799987746","0.326193000015337","1","1","1","1","1","1","1","1","2"
"260053","img/object_images/fan05.jpg","img/object_images/rock03.jpg","img/object_images/chair04.jpg","0","1","1","0","0","1","0.326193000015337","0.454273400013335","0.416080299997702","1","1","1","1","1","1","2","1","1"
"260053","img/object_images/chair04.jpg","img/object_images/fan05.jpg","img/object_images/yarn02.jpg","1","0","1","1","0","0","0.416080299997702","0.326193000015337","0.501490099995863","1","1","1","1","1","1","1","2","1"
"260053","img/object_images/yarn02.jpg","img/object_images/chair04.jpg",NA,"1","1",NA,"0","1",NA,"0.501490099995863","0.416080299997702",NA,"1","1",NA,"1","1",NA,"1","1",NA
"260053","img/object_images/airfryer01.jpg",NA,"img/object_images/ball01.jpg","1",NA,"1","0",NA,"1","0.465830499975709",NA,"0.40036160001182","1",NA,"1","1",NA,"1","1",NA,"1"
"260053","img/object_images/ball01.jpg","img/object_images/airfryer01.jpg","img/object_images/soap01.jpg","1","1","1","1","0","0","0.40036160001182","0.465830499975709","0.502950199996121","1","1","1","1","1","1","1","1","1"
"260053","img/object_images/soap01.jpg","img/object_images/ball01.jpg","img/object_images/Wisk01.jpg","1","1","1","0","1","1","0.502950199996121","0.40036160001182","0.333043699996779","1","1","1","1","1","1","1","1","1"
"260053","img/object_images/Wisk01.jpg","img/object_images/soap01.jpg","img/object_images/basketball_hoop02.jpg","1","1","1","1","0","0","0.333043699996779","0.502950199996121","0.452384500007611","1","1","1","1","1","1","1","1","1"
"260053","img/object_images/basketball_hoop02.jpg","img/object_images/Wisk01.jpg","img/object_images/tie01.jpg","1","1","1","0","1","0","0.452384500007611","0.333043699996779","0.44812450002064","1","1","1","1","1","1","1","1","1"
"260053","img/object_images/tie01.jpg","img/object_images/basketball_hoop02.jpg","img/object_images/lantern01.jpg","1","1","1","0","0","1","0.44812450002064","0.452384500007611","0.35926450000261","1","1","1","1","1","1","1","1","1"
"260053","img/object_images/lantern01.jpg","img/object_images/tie01.jpg","img/object_images/razor03.jpg","1","1","1","1","0","0","0.35926450000261","0.44812450002064","0.335793100006413","1","1","1","1","1","1","1","1","1"
"260053","img/object_images/razor03.jpg","img/object_images/lantern01.jpg","img/object_images/guitar01.jpg","1","1","1","0","1","1","0.335793100006413","0.35926450000261","0.325192699994659","1","1","1","1","1","1","1","1","1"
"260053","img/object_images/guitar01.jpg","img/object_images/razor03.jpg","img/object_images/lamp01.jpg","1","1","1","1","0","1","0.325192699994659","0.335793100006413","0.413696800009347","1","1","1","1","1","1","1","1","1"
"260053","img/object_images/lamp01.jpg","img/object_images/guitar01.jpg","img/object_images/gloves05.jpg","1","1","1","1","1","1","0.413696800009347","0.325192699994659","0.363184999994701","1","1","1","1","1","1","1","1","1"
"260053","img/object_images/gloves05.jpg","img/object_images/lamp01.jpg","img/object_images/pitcher03.jpg","1","1","1","1","1","1","0.363184999994701","0.413696800009347","0.335982600023272","1","1","1","1","1","1","1","1","1"
"260053","img/object_images/pitcher03.jpg","img/object_images/gloves05.jpg","img/object_images/car02.jpg","1","1","1","1","1","0","0.335982600023272","0.363184999994701","0.599889800010715","1","1","1","1","1","1","1","1","1"
"260053","img/object_images/car02.jpg","img/object_images/pitcher03.jpg","img/object_images/chair01.jpg","1","1","1","0","1","0","0.599889800010715","0.335982600023272","0.487920099985786","1","1","1","1","1","1","1","1","1"
"260053","img/object_images/chair01.jpg","img/object_images/car02.jpg","img/object_images/pot01.jpg","1","1","1","0","0","0","0.487920099985786","0.599889800010715","0.443467499979306","1","1","1","1","1","1","1","1","1"
"260053","img/object_images/pot01.jpg","img/object_images/chair01.jpg","img/object_images/brief_case01.jpg","1","1","1","0","0","0","0.443467499979306","0.487920099985786","0.4714775000175","1","1","1","1","1","1","1","1","1"
"260053","img/object_images/brief_case01.jpg","img/object_images/pot01.jpg","img/object_images/Woopie01.jpg","1","1","1","0","0","1","0.4714775000175","0.443467499979306","0.367344900005264","1","1","1","1","1","1","1","1","1"
"260053","img/object_images/Woopie01.jpg","img/object_images/brief_case01.jpg","img/object_images/cochlear_implant01.jpg","1","1","1","1","0","0","0.367344900005264","0.4714775000175","0.457223800010979","1","1","1","1","1","1","1","1","1"
"260053","img/object_images/cochlear_implant01.jpg","img/object_images/Woopie01.jpg","img/object_images/couch04.jpg","1","1","1","0","1","1","0.457223800010979","0.367344900005264","0.394130000000587","1","1","1","1","1","1","1","1","1"
"260053","img/object_images/couch04.jpg","img/object_images/cochlear_implant01.jpg","img/object_images/bottle12.jpg","1","1","1","1","0","1","0.394130000000587","0.457223800010979","0.396113000024343","1","1","1","1","1","1","1","1","1"
"260053","img/object_images/bottle12.jpg","img/object_images/couch04.jpg","img/object_images/toilet_paper01.jpg","1","1","1","1","1","1","0.396113000024343","0.394130000000587","0.422904899984132","1","1","1","1","1","1","1","1","1"
"260053","img/object_images/toilet_paper01.jpg","img/object_images/bottle12.jpg","img/object_images/broom01.jpg","1","1","1","1","1","1","0.422904899984132","0.396113000024343","0.379126100015128","1","1","1","1","1","1","1","1","1"
"260053","img/object_images/broom01.jpg","img/object_images/toilet_paper01.jpg","img/object_images/Recycling01.jpg","1","1","1","1","1","1","0.379126100015128","0.422904899984132","0.618495199974859","1","1","1","1","1","1","1","1","1"
"260053","img/object_images/Recycling01.jpg","img/object_images/broom01.jpg","img/object_images/container01.jpg","1","1","1","1","1","0","0.618495199974859","0.379126100015128","0.535343299998203","1","1","1","1","1","1","1","1","1"
"260053","img/object_images/container01.jpg","img/object_images/Recycling01.jpg","img/object_images/ironing_table02.jpg","1","1","1","0","1","0","0.535343299998203","0.618495199974859","0.532901700004004","1","1","1","1","1","1","1","1","1"
"260053","img/object_images/ironing_table02.jpg","img/object_images/container01.jpg","img/object_images/drone02.jpg","1","1","1","0","0","0","0.532901700004004","0.535343299998203","0.346417900000233","1","1","1","1","1","1","1","1","1"
"260053","img/object_images/drone02.jpg","img/object_images/ironing_table02.jpg","img/object_images/decorative02.jpg","1","1","1","0","0","0","0.346417900000233","0.532901700004004","0.554921000002651","1","1","1","1","1","1","1","1","1"
"260053","img/object_images/decorative02.jpg","img/object_images/drone02.jpg","img/object_images/toy_train02.jpg","1","1","1","0","0","1","0.554921000002651","0.346417900000233","0.355839700001525","1","1","1","1","1","1","1","1","1"
"260053","img/object_images/toy_train02.jpg","img/object_images/decorative02.jpg","img/object_images/helmet05.jpg","1","1","1","1","0","1","0.355839700001525","0.554921000002651","0.337835099984659","1","1","1","1","1","1","1","1","1"
"260053","img/object_images/helmet05.jpg","img/object_images/toy_train02.jpg","img/object_images/video_game06.jpg","1","1","1","1","1","0","0.337835099984659","0.355839700001525","0.432814100000542","1","1","1","1","1","1","1","1","1"
"260053","img/object_images/video_game06.jpg","img/object_images/helmet05.jpg","img/object_images/brief_case02.jpg","1","1","1","0","1","1","0.432814100000542","0.337835099984659","0.364395799988415","1","1","1","1","1","1","1","1","1"
"260053","img/object_images/brief_case02.jpg","img/object_images/video_game06.jpg","img/object_images/hat02.jpg","1","1","1","1","0","0","0.364395799988415","0.432814100000542","0.563365299982252","1","1","1","1","1","1","1","1","1"
"260053","img/object_images/hat02.jpg","img/object_images/brief_case02.jpg",NA,"1","1",NA,"0","1",NA,"0.563365299982252","0.364395799988415",NA,"1","1",NA,"1","1",NA,"1","1",NA
"260053","img/object_images/spatula02.jpg",NA,"img/object_images/pitcher05.jpg","1",NA,"1","1",NA,"0","0.464060900005279",NA,"0.430139900010545","1",NA,"1","1",NA,"1","1",NA,"1"
"260053","img/object_images/pitcher05.jpg","img/object_images/spatula02.jpg","img/object_images/trash_can03.jpg","1","1","1","0","1","1","0.430139900010545","0.464060900005279","0.390413699991768","1","1","1","1","1","1","1","1","1"
"260053","img/object_images/trash_can03.jpg","img/object_images/pitcher05.jpg","img/object_images/gift_box05.jpg","1","1","1","1","0","0","0.390413699991768","0.430139900010545","0.405164399999194","1","1","1","1","1","1","1","1","1"
"260053","img/object_images/gift_box05.jpg","img/object_images/trash_can03.jpg","img/object_images/stove01.jpg","1","1","1","0","1","0","0.405164399999194","0.390413699991768","0.422516099992208","1","1","1","1","1","1","1","1","1"
"260053","img/object_images/stove01.jpg","img/object_images/gift_box05.jpg","img/object_images/fan04.jpg","1","1","1","0","0","0","0.422516099992208","0.405164399999194","0.541094599990174","1","1","1","1","1","1","1","1","1"
"260053","img/object_images/fan04.jpg","img/object_images/stove01.jpg","img/object_images/towels01.jpg","1","1","1","0","0","0","0.541094599990174","0.422516099992208","0.460094100009883","1","1","1","1","1","1","1","1","1"
"260053","img/object_images/towels01.jpg","img/object_images/fan04.jpg","img/object_images/combs01.jpg","1","1","1","0","0","1","0.460094100009883","0.541094599990174","0.408269500010647","1","1","1","1","1","1","1","1","1"
"260053","img/object_images/combs01.jpg","img/object_images/towels01.jpg","img/object_images/hair_dryer01.jpg","1","1","1","1","0","0","0.408269500010647","0.460094100009883","0.404775100003462","1","1","1","1","1","1","1","1","1"
"260053","img/object_images/hair_dryer01.jpg","img/object_images/combs01.jpg","img/object_images/lock01.jpg","1","1","1","0","1","0","0.404775100003462","0.408269500010647","0.536773800005903","1","1","1","1","1","1","1","1","1"
"260053","img/object_images/lock01.jpg","img/object_images/hair_dryer01.jpg","img/object_images/chess_piece01.jpg","1","1","1","0","0","0","0.536773800005903","0.404775100003462","0.419900600012625","1","1","1","1","1","1","1","1","1"
"260053","img/object_images/chess_piece01.jpg","img/object_images/lock01.jpg","img/object_images/laptop01.jpg","1","1","0","0","0","0","0.419900600012625","0.536773800005903","0.354229999997187","1","1","1","1","1","1","1","1","2"
"260053","img/object_images/laptop01.jpg","img/object_images/chess_piece01.jpg","img/object_images/jewel03.jpg","0","1","1","0","0","1","0.354229999997187","0.419900600012625","0.343005100003211","1","1","1","1","1","1","2","1","1"
"260053","img/object_images/jewel03.jpg","img/object_images/laptop01.jpg","img/object_images/umbrella01.jpg","1","0","1","1","0","0","0.343005100003211","0.354229999997187","0.469457600003807","1","1","1","1","1","1","1","2","1"
"260053","img/object_images/umbrella01.jpg","img/object_images/jewel03.jpg","img/object_images/Lint_Roller02.jpg","1","1","0","0","1","0","0.469457600003807","0.343005100003211","0.445819499989739","1","1","1","1","1","1","1","1","2"
"260053","img/object_images/Lint_Roller02.jpg","img/object_images/umbrella01.jpg","img/object_images/accardion01.jpg","0","1","1","0","0","1","0.445819499989739","0.469457600003807","0.356941300007747","1","1","1","1","1","1","2","1","1"
"260053","img/object_images/accardion01.jpg","img/object_images/Lint_Roller02.jpg","img/object_images/chair02.jpg","1","0","1","1","0","1","0.356941300007747","0.445819499989739","0.462998800008791","1","1","1","1","1","1","1","2","1"
"260053","img/object_images/chair02.jpg","img/object_images/accardion01.jpg","img/object_images/backpack03.jpg","1","1","1","1","1","1","0.462998800008791","0.356941300007747","0.34657850000076","1","1","1","1","1","1","1","1","1"
"260053","img/object_images/backpack03.jpg","img/object_images/chair02.jpg","img/object_images/microphone03.jpg","1","1","1","1","1","1","0.34657850000076","0.462998800008791","0.462152699998114","1","1","1","1","1","1","1","1","1"
"260053","img/object_images/microphone03.jpg","img/object_images/backpack03.jpg","img/object_images/trash_can05.jpg","1","1","1","1","1","1","0.462152699998114","0.34657850000076","0.355450100003509","1","1","1","1","1","1","1","1","1"
"260053","img/object_images/trash_can05.jpg","img/object_images/microphone03.jpg","img/object_images/surf_board01.jpg","1","1","1","1","1","1","0.355450100003509","0.462152699998114","0.366526099998737","1","1","1","1","1","1","1","1","1"
"260053","img/object_images/surf_board01.jpg","img/object_images/trash_can05.jpg","img/object_images/calculator01.jpg","1","1","1","1","1","1","0.366526099998737","0.355450100003509","0.350403799995547","1","1","1","1","1","1","1","1","1"
"260053","img/object_images/calculator01.jpg","img/object_images/surf_board01.jpg","img/object_images/laptop03.jpg","1","1","1","1","1","1","0.350403799995547","0.366526099998737","0.414835000003222","1","1","1","1","1","1","1","1","1"
"260053","img/object_images/laptop03.jpg","img/object_images/calculator01.jpg","img/object_images/Vest02.jpg","1","1","1","1","1","0","0.414835000003222","0.350403799995547","0.490807800000766","1","1","1","1","1","1","1","1","1"
"260053","img/object_images/Vest02.jpg","img/object_images/laptop03.jpg","img/object_images/robe01.jpg","1","1","1","0","1","1","0.490807800000766","0.414835000003222","0.374525599996559","1","1","1","1","1","1","1","1","1"
"260053","img/object_images/robe01.jpg","img/object_images/Vest02.jpg","img/object_images/toy05.jpg","1","1","1","1","0","0","0.374525599996559","0.490807800000766","0.538216699991608","1","1","1","1","1","1","1","1","1"
"260053","img/object_images/toy05.jpg","img/object_images/robe01.jpg","img/object_images/bucket02.jpg","1","1","1","0","1","1","0.538216699991608","0.374525599996559","0.329640099982498","1","1","1","1","1","1","1","1","1"
"260053","img/object_images/bucket02.jpg","img/object_images/toy05.jpg","img/object_images/ball02.jpg","1","1","1","1","0","1","0.329640099982498","0.538216699991608","0.350304800027516","1","1","1","1","1","1","1","1","1"
"260053","img/object_images/ball02.jpg","img/object_images/bucket02.jpg","img/object_images/shoes08.jpg","1","1","1","1","1","1","0.350304800027516","0.329640099982498","0.401182600005995","1","1","1","1","1","1","1","1","1"
"260053","img/object_images/shoes08.jpg","img/object_images/ball02.jpg","img/object_images/helmet02.jpg","1","1","1","1","1","0","0.401182600005995","0.350304800027516","0.548900399997365","1","1","1","1","1","1","1","1","1"
"260053","img/object_images/helmet02.jpg","img/object_images/shoes08.jpg","img/object_images/vase01.jpg","1","1","1","0","1","0","0.548900399997365","0.401182600005995","0.463869200000772","1","1","1","1","1","1","1","1","1"
"260053","img/object_images/vase01.jpg","img/object_images/helmet02.jpg","img/object_images/hair_brush02.jpg","1","1","1","0","0","0","0.463869200000772","0.548900399997365","0.456468099990161","1","1","1","1","1","1","1","1","1"
"260053","img/object_images/hair_brush02.jpg","img/object_images/vase01.jpg",NA,"1","1",NA,"0","0",NA,"0.456468099990161","0.463869200000772",NA,"1","1",NA,"1","1",NA,"1","1",NA
