"participant_id","current_trial_object","pre_trial_object","post_trial_object","current_trial_accuracy","pre_trial_accuracy","post_trial_accuracy","current_trial_congruency","pre_trial_congruency","post_trial_congruency","current_trial_rt","pre_trial_rt","post_trial_rt","current_trial_responded","pre_trial_responded","post_trial_responded","current_trial_legitResponse","pre_trial_legitResponse","post_trial_legitResponse","current_trial_resp_nums","pre_trial_resp_nums","post_trial_resp_nums"
"260067","img/object_images/razor01.jpg",NA,"img/object_images/screwdriver01.jpg","1",NA,"1","0",NA,"0","0.601130899973214",NA,"0.557041799998842","1",NA,"1","1",NA,"1","1",NA,"1"
"260067","img/object_images/screwdriver01.jpg","img/object_images/razor01.jpg","img/object_images/jewel01.jpg","1","1","1","0","0","0","0.557041799998842","0.601130899973214","0.496354799950495","1","1","1","1","1","1","1","1","1"
"260067","img/object_images/jewel01.jpg","img/object_images/screwdriver01.jpg","img/object_images/fan05.jpg","1","1","1","0","0","0","0.496354799950495","0.557041799998842","0.454593200003728","1","1","1","1","1","1","1","1","1"
"260067","img/object_images/fan05.jpg","img/object_images/jewel01.jpg","img/object_images/shoes10.jpg","1","1","1","0","0","0","0.454593200003728","0.496354799950495","0.51360870001372","1","1","1","1","1","1","1","1","1"
"260067","img/object_images/shoes10.jpg","img/object_images/fan05.jpg","img/object_images/ribbon01.jpg","1","1","1","0","0","0","0.51360870001372","0.454593200003728","0.646252000005916","1","1","1","1","1","1","1","1","1"
"260067","img/object_images/ribbon01.jpg","img/object_images/shoes10.jpg","img/object_images/rock03.jpg","1","1","1","0","0","0","0.646252000005916","0.51360870001372","0.565026299969759","1","1","1","1","1","1","1","1","1"
"260067","img/object_images/rock03.jpg","img/object_images/ribbon01.jpg","img/object_images/chair04.jpg","1","1","1","0","0","1","0.565026299969759","0.646252000005916","0.514178799989168","1","1","1","1","1","1","1","1","1"
"260067","img/object_images/chair04.jpg","img/object_images/rock03.jpg","img/object_images/tv01.jpg","1","1","1","1","0","0","0.514178799989168","0.565026299969759","0.481873200042173","1","1","1","1","1","1","1","1","1"
"260067","img/object_images/tv01.jpg","img/object_images/chair04.jpg","img/object_images/toaster02.jpg","1","1","1","0","1","1","0.481873200042173","0.514178799989168","0.532690300024115","1","1","1","1","1","1","1","1","1"
"260067","img/object_images/toaster02.jpg","img/object_images/tv01.jpg","img/object_images/slinky_toy01.jpg","1","1","1","1","0","1","0.532690300024115","0.481873200042173","0.498835500038695","1","1","1","1","1","1","1","1","1"
"260067","img/object_images/slinky_toy01.jpg","img/object_images/toaster02.jpg","img/object_images/tool11.jpg","1","1","1","1","1","1","0.498835500038695","0.532690300024115","0.373306900030002","1","1","1","1","1","1","1","1","1"
"260067","img/object_images/tool11.jpg","img/object_images/slinky_toy01.jpg","img/object_images/car04.jpg","1","1","1","1","1","0","0.373306900030002","0.498835500038695","0.510171400033869","1","1","1","1","1","1","1","1","1"
"260067","img/object_images/car04.jpg","img/object_images/tool11.jpg","img/object_images/binoculars03.jpg","1","1","1","0","1","1","0.510171400033869","0.373306900030002","0.586088100040797","1","1","1","1","1","1","1","1","1"
"260067","img/object_images/binoculars03.jpg","img/object_images/car04.jpg","img/object_images/key02.jpg","1","1","1","1","0","1","0.586088100040797","0.510171400033869","0.491519899980631","1","1","1","1","1","1","1","1","1"
"260067","img/object_images/key02.jpg","img/object_images/binoculars03.jpg","img/object_images/belt01.jpg","1","1","1","1","1","0","0.491519899980631","0.586088100040797","0.529687199974433","1","1","1","1","1","1","1","1","1"
"260067","img/object_images/belt01.jpg","img/object_images/key02.jpg","img/object_images/ice_tray03.jpg","1","1","1","0","1","1","0.529687199974433","0.491519899980631","0.498186099983286","1","1","1","1","1","1","1","1","1"
"260067","img/object_images/ice_tray03.jpg","img/object_images/belt01.jpg","img/object_images/yarn02.jpg","1","1","1","1","0","0","0.498186099983286","0.529687199974433","0.52731680002762","1","1","1","1","1","1","1","1","1"
"260067","img/object_images/yarn02.jpg","img/object_images/ice_tray03.jpg","img/object_images/dress03.jpg","1","1","1","0","1","1","0.52731680002762","0.498186099983286","0.494485799979884","1","1","1","1","1","1","1","1","1"
"260067","img/object_images/dress03.jpg","img/object_images/yarn02.jpg","img/object_images/WitchHat02.jpg","1","1","1","1","0","1","0.494485799979884","0.52731680002762","0.442630400008056","1","1","1","1","1","1","1","1","1"
"260067","img/object_images/WitchHat02.jpg","img/object_images/dress03.jpg","img/object_images/lemon_squeezer02.jpg","1","1","1","1","1","1","0.442630400008056","0.494485799979884","0.501752999960445","1","1","1","1","1","1","1","1","1"
"260067","img/object_images/lemon_squeezer02.jpg","img/object_images/WitchHat02.jpg","img/object_images/car03.jpg","1","1","1","1","1","0","0.501752999960445","0.442630400008056","0.553863800014369","1","1","1","1","1","1","1","1","1"
"260067","img/object_images/car03.jpg","img/object_images/lemon_squeezer02.jpg","img/object_images/hair_brush05.jpg","1","1","1","0","1","1","0.553863800014369","0.501752999960445","0.498633900017012","1","1","1","1","1","1","1","1","1"
"260067","img/object_images/hair_brush05.jpg","img/object_images/car03.jpg","img/object_images/shower_head03.jpg","1","1","1","1","0","1","0.498633900017012","0.553863800014369","0.509838500001933","1","1","1","1","1","1","1","1","1"
"260067","img/object_images/shower_head03.jpg","img/object_images/hair_brush05.jpg","img/object_images/mask01.jpg","1","1","1","1","1","0","0.509838500001933","0.498633900017012","0.530139399983454","1","1","1","1","1","1","1","1","1"
"260067","img/object_images/mask01.jpg","img/object_images/shower_head03.jpg","img/object_images/MeasuringCup01.jpg","1","1","1","0","1","1","0.530139399983454","0.509838500001933","0.440379000036046","1","1","1","1","1","1","1","1","1"
"260067","img/object_images/MeasuringCup01.jpg","img/object_images/mask01.jpg","img/object_images/cards01.jpg","1","1","1","1","0","0","0.440379000036046","0.530139399983454","0.574368400033563","1","1","1","1","1","1","1","1","1"
"260067","img/object_images/cards01.jpg","img/object_images/MeasuringCup01.jpg","img/object_images/bag06.jpg","1","1","1","0","1","1","0.574368400033563","0.440379000036046","0.426363700011279","1","1","1","1","1","1","1","1","1"
"260067","img/object_images/bag06.jpg","img/object_images/cards01.jpg","img/object_images/jewelry07.jpg","1","1","1","1","0","1","0.426363700011279","0.574368400033563","0.449971199966967","1","1","1","1","1","1","1","1","1"
"260067","img/object_images/jewelry07.jpg","img/object_images/bag06.jpg","img/object_images/satellite01.jpg","1","1","1","1","1","0","0.449971199966967","0.426363700011279","0.567761700018309","1","1","1","1","1","1","1","1","1"
"260067","img/object_images/satellite01.jpg","img/object_images/jewelry07.jpg","img/object_images/ladle02.jpg","1","1","1","0","1","0","0.567761700018309","0.449971199966967","0.51120660000015","1","1","1","1","1","1","1","1","1"
"260067","img/object_images/ladle02.jpg","img/object_images/satellite01.jpg","img/object_images/cutting_board01.jpg","1","1","1","0","0","1","0.51120660000015","0.567761700018309","0.472238500020467","1","1","1","1","1","1","1","1","1"
"260067","img/object_images/cutting_board01.jpg","img/object_images/ladle02.jpg",NA,"1","1",NA,"1","0",NA,"0.472238500020467","0.51120660000015",NA,"1","1",NA,"1","1",NA,"1","1",NA
"260067","img/object_images/accardion01.jpg",NA,"img/object_images/microphone03.jpg","1",NA,"1","1",NA,"1","0.495452200004365",NA,"0.451458099996671","1",NA,"1","1",NA,"1","1",NA,"1"
"260067","img/object_images/microphone03.jpg","img/object_images/accardion01.jpg","img/object_images/chess_piece01.jpg","1","1","1","1","1","0","0.451458099996671","0.495452200004365","0.422909400018398","1","1","1","1","1","1","1","1","1"
"260067","img/object_images/chess_piece01.jpg","img/object_images/microphone03.jpg","img/object_images/lock01.jpg","1","1","1","0","1","0","0.422909400018398","0.451458099996671","0.490249399968889","1","1","1","1","1","1","1","1","1"
"260067","img/object_images/lock01.jpg","img/object_images/chess_piece01.jpg","img/object_images/Vest02.jpg","1","1","1","0","0","0","0.490249399968889","0.422909400018398","0.477537500031758","1","1","1","1","1","1","1","1","1"
"260067","img/object_images/Vest02.jpg","img/object_images/lock01.jpg","img/object_images/gift_box05.jpg","1","1","1","0","0","0","0.477537500031758","0.490249399968889","0.542872100020759","1","1","1","1","1","1","1","1","1"
"260067","img/object_images/gift_box05.jpg","img/object_images/Vest02.jpg","img/object_images/toy05.jpg","1","1","1","0","0","0","0.542872100020759","0.477537500031758","0.508211400010623","1","1","1","1","1","1","1","1","1"
"260067","img/object_images/toy05.jpg","img/object_images/gift_box05.jpg","img/object_images/bucket02.jpg","1","1","1","0","0","1","0.508211400010623","0.542872100020759","0.452187000017148","1","1","1","1","1","1","1","1","1"
"260067","img/object_images/bucket02.jpg","img/object_images/toy05.jpg","img/object_images/hair_brush02.jpg","1","1","1","1","0","0","0.452187000017148","0.508211400010623","0.472801600000821","1","1","1","1","1","1","1","1","1"
"260067","img/object_images/hair_brush02.jpg","img/object_images/bucket02.jpg","img/object_images/Lint_Roller02.jpg","1","1","1","0","1","0","0.472801600000821","0.452187000017148","0.474531900021248","1","1","1","1","1","1","1","1","1"
"260067","img/object_images/Lint_Roller02.jpg","img/object_images/hair_brush02.jpg","img/object_images/vase01.jpg","1","1","1","0","0","0","0.474531900021248","0.472801600000821","0.503005900012795","1","1","1","1","1","1","1","1","1"
"260067","img/object_images/vase01.jpg","img/object_images/Lint_Roller02.jpg","img/object_images/ball02.jpg","1","1","1","0","0","1","0.503005900012795","0.474531900021248","0.515299700025935","1","1","1","1","1","1","1","1","1"
"260067","img/object_images/ball02.jpg","img/object_images/vase01.jpg","img/object_images/laptop03.jpg","1","1","1","1","0","1","0.515299700025935","0.503005900012795","0.445612900017295","1","1","1","1","1","1","1","1","1"
"260067","img/object_images/laptop03.jpg","img/object_images/ball02.jpg","img/object_images/backpack03.jpg","1","1","1","1","1","1","0.445612900017295","0.515299700025935","0.482836499984842","1","1","1","1","1","1","1","1","1"
"260067","img/object_images/backpack03.jpg","img/object_images/laptop03.jpg","img/object_images/shoes08.jpg","1","1","1","1","1","1","0.482836499984842","0.445612900017295","0.453279200010002","1","1","1","1","1","1","1","1","1"
"260067","img/object_images/shoes08.jpg","img/object_images/backpack03.jpg","img/object_images/trash_can05.jpg","1","1","1","1","1","1","0.453279200010002","0.482836499984842","0.471229099959601","1","1","1","1","1","1","1","1","1"
"260067","img/object_images/trash_can05.jpg","img/object_images/shoes08.jpg","img/object_images/trash_can03.jpg","1","1","1","1","1","1","0.471229099959601","0.453279200010002","0.448892700020224","1","1","1","1","1","1","1","1","1"
"260067","img/object_images/trash_can03.jpg","img/object_images/trash_can05.jpg","img/object_images/combs01.jpg","1","1","1","1","1","1","0.448892700020224","0.471229099959601","0.463846900034696","1","1","1","1","1","1","1","1","1"
"260067","img/object_images/combs01.jpg","img/object_images/trash_can03.jpg","img/object_images/hair_dryer01.jpg","1","1","1","1","1","0","0.463846900034696","0.448892700020224","0.527850599959493","1","1","1","1","1","1","1","1","1"
"260067","img/object_images/hair_dryer01.jpg","img/object_images/combs01.jpg","img/object_images/umbrella01.jpg","1","1","1","0","1","0","0.527850599959493","0.463846900034696","0.533817799994722","1","1","1","1","1","1","1","1","1"
"260067","img/object_images/umbrella01.jpg","img/object_images/hair_dryer01.jpg","img/object_images/towels01.jpg","1","1","1","0","0","0","0.533817799994722","0.527850599959493","0.483802899951115","1","1","1","1","1","1","1","1","1"
"260067","img/object_images/towels01.jpg","img/object_images/umbrella01.jpg","img/object_images/laptop01.jpg","1","1","1","0","0","0","0.483802899951115","0.533817799994722","0.578516800014768","1","1","1","1","1","1","1","1","1"
"260067","img/object_images/laptop01.jpg","img/object_images/towels01.jpg","img/object_images/helmet02.jpg","1","1","1","0","0","0","0.578516800014768","0.483802899951115","0.531574900029227","1","1","1","1","1","1","1","1","1"
"260067","img/object_images/helmet02.jpg","img/object_images/laptop01.jpg","img/object_images/jewel03.jpg","1","1","1","0","0","1","0.531574900029227","0.578516800014768","0.45535010000458","1","1","1","1","1","1","1","1","1"
"260067","img/object_images/jewel03.jpg","img/object_images/helmet02.jpg","img/object_images/robe01.jpg","1","1","1","1","0","1","0.45535010000458","0.531574900029227","0.454000599973369","1","1","1","1","1","1","1","1","1"
"260067","img/object_images/robe01.jpg","img/object_images/jewel03.jpg","img/object_images/chair02.jpg","1","1","1","1","1","1","0.454000599973369","0.45535010000458","0.433229500020389","1","1","1","1","1","1","1","1","1"
"260067","img/object_images/chair02.jpg","img/object_images/robe01.jpg","img/object_images/spatula02.jpg","1","1","1","1","1","1","0.433229500020389","0.454000599973369","0.528952599968761","1","1","1","1","1","1","1","1","1"
"260067","img/object_images/spatula02.jpg","img/object_images/chair02.jpg","img/object_images/fan04.jpg","1","1","1","1","1","0","0.528952599968761","0.433229500020389","0.610874100006185","1","1","1","1","1","1","1","1","1"
"260067","img/object_images/fan04.jpg","img/object_images/spatula02.jpg","img/object_images/pitcher05.jpg","1","1","1","0","1","0","0.610874100006185","0.528952599968761","0.557360400038306","1","1","1","1","1","1","1","1","1"
"260067","img/object_images/pitcher05.jpg","img/object_images/fan04.jpg","img/object_images/calculator01.jpg","1","1","1","0","0","1","0.557360400038306","0.610874100006185","0.483628799964208","1","1","1","1","1","1","1","1","1"
"260067","img/object_images/calculator01.jpg","img/object_images/pitcher05.jpg","img/object_images/surf_board01.jpg","1","1","1","1","0","1","0.483628799964208","0.557360400038306","0.482972400030121","1","1","1","1","1","1","1","1","1"
"260067","img/object_images/surf_board01.jpg","img/object_images/calculator01.jpg","img/object_images/stove01.jpg","1","1","1","1","1","0","0.482972400030121","0.483628799964208","0.511031400004867","1","1","1","1","1","1","1","1","1"
"260067","img/object_images/stove01.jpg","img/object_images/surf_board01.jpg",NA,"1","1",NA,"0","1",NA,"0.511031400004867","0.482972400030121",NA,"1","1",NA,"1","1",NA,"1","1",NA
"260067","img/object_images/knit05.jpg",NA,"img/object_images/Thermometer01.jpg","1",NA,"1","1",NA,"0","0.544523500022478",NA,"0.70004450000124","1",NA,"1","1",NA,"1","1",NA,"1"
"260067","img/object_images/Thermometer01.jpg","img/object_images/knit05.jpg","img/object_images/bottle01.jpg","1","1","1","0","1","0","0.70004450000124","0.544523500022478","0.484804300009273","1","1","1","1","1","1","1","1","1"
"260067","img/object_images/bottle01.jpg","img/object_images/Thermometer01.jpg","img/object_images/wire02.jpg","1","1","1","0","0","1","0.484804300009273","0.70004450000124","0.465203700005077","1","1","1","1","1","1","1","1","1"
"260067","img/object_images/wire02.jpg","img/object_images/bottle01.jpg","img/object_images/crutches02.jpg","1","1","1","1","0","0","0.465203700005077","0.484804300009273","0.427340700000059","1","1","1","1","1","1","1","1","1"
"260067","img/object_images/crutches02.jpg","img/object_images/wire02.jpg","img/object_images/microscope01.jpg","1","1","1","0","1","0","0.427340700000059","0.465203700005077","0.462359100056347","1","1","1","1","1","1","1","1","1"
"260067","img/object_images/microscope01.jpg","img/object_images/crutches02.jpg","img/object_images/cellphone01.jpg","1","1","1","0","0","1","0.462359100056347","0.427340700000059","0.44359009998152","1","1","1","1","1","1","1","1","1"
"260067","img/object_images/cellphone01.jpg","img/object_images/microscope01.jpg","img/object_images/usb02.jpg","1","1","1","1","0","0","0.44359009998152","0.462359100056347","0.449129599961452","1","1","1","1","1","1","1","1","1"
"260067","img/object_images/usb02.jpg","img/object_images/cellphone01.jpg","img/object_images/retainer01.jpg","1","1","1","0","1","0","0.449129599961452","0.44359009998152","0.513349000015296","1","1","1","1","1","1","1","1","1"
"260067","img/object_images/retainer01.jpg","img/object_images/usb02.jpg","img/object_images/clip03.jpg","1","1","1","0","0","0","0.513349000015296","0.449129599961452","0.415646100009326","1","1","1","1","1","1","1","1","1"
"260067","img/object_images/clip03.jpg","img/object_images/retainer01.jpg","img/object_images/tv02.jpg","1","1","1","0","0","0","0.415646100009326","0.513349000015296","0.466651899972931","1","1","1","1","1","1","1","1","1"
"260067","img/object_images/tv02.jpg","img/object_images/clip03.jpg","img/object_images/compass01.jpg","1","1","1","0","0","1","0.466651899972931","0.415646100009326","0.720328299968969","1","1","1","1","1","1","1","1","1"
"260067","img/object_images/compass01.jpg","img/object_images/tv02.jpg","img/object_images/clock02.jpg","1","1","1","1","0","0","0.720328299968969","0.466651899972931","0.584717800025828","1","1","1","1","1","1","1","1","1"
"260067","img/object_images/clock02.jpg","img/object_images/compass01.jpg","img/object_images/pitcher01.jpg","1","1","1","0","1","0","0.584717800025828","0.720328299968969","0.42983949999325","1","1","1","1","1","1","1","1","1"
"260067","img/object_images/pitcher01.jpg","img/object_images/clock02.jpg","img/object_images/book03.jpg","1","1","1","0","0","1","0.42983949999325","0.584717800025828","0.434283200011123","1","1","1","1","1","1","1","1","1"
"260067","img/object_images/book03.jpg","img/object_images/pitcher01.jpg","img/object_images/note_book01.jpg","1","1","1","1","0","0","0.434283200011123","0.42983949999325","0.427484799991362","1","1","1","1","1","1","1","1","1"
"260067","img/object_images/note_book01.jpg","img/object_images/book03.jpg","img/object_images/hammer03.jpg","1","1","1","0","1","1","0.427484799991362","0.434283200011123","0.384482799971011","1","1","1","1","1","1","1","1","1"
"260067","img/object_images/hammer03.jpg","img/object_images/note_book01.jpg","img/object_images/floppy_disk02.jpg","1","1","1","1","0","0","0.384482799971011","0.427484799991362","0.444904599979054","1","1","1","1","1","1","1","1","1"
"260067","img/object_images/floppy_disk02.jpg","img/object_images/hammer03.jpg","img/object_images/bell02.jpg","1","1","1","0","1","0","0.444904599979054","0.384482799971011","0.543685899989214","1","1","1","1","1","1","1","1","1"
"260067","img/object_images/bell02.jpg","img/object_images/floppy_disk02.jpg","img/object_images/Staples01.jpg","1","1","1","0","0","1","0.543685899989214","0.444904599979054","0.440410100040026","1","1","1","1","1","1","1","1","1"
"260067","img/object_images/Staples01.jpg","img/object_images/bell02.jpg","img/object_images/pen03.jpg","1","1","1","1","0","0","0.440410100040026","0.543685899989214","0.458874400006607","1","1","1","1","1","1","1","1","1"
"260067","img/object_images/pen03.jpg","img/object_images/Staples01.jpg","img/object_images/chair05.jpg","1","1","1","0","1","0","0.458874400006607","0.440410100040026","0.588206199987326","1","1","1","1","1","1","1","1","1"
"260067","img/object_images/chair05.jpg","img/object_images/pen03.jpg","img/object_images/paint_brush04.jpg","1","1","1","0","0","0","0.588206199987326","0.458874400006607","0.452655700035393","1","1","1","1","1","1","1","1","1"
"260067","img/object_images/paint_brush04.jpg","img/object_images/chair05.jpg","img/object_images/knife04.jpg","1","1","1","0","0","1","0.452655700035393","0.588206199987326","0.440655299986247","1","1","1","1","1","1","1","1","1"
"260067","img/object_images/knife04.jpg","img/object_images/paint_brush04.jpg","img/object_images/ear_bud01.jpg","1","1","1","1","0","1","0.440655299986247","0.452655700035393","0.389177900040522","1","1","1","1","1","1","1","1","1"
"260067","img/object_images/ear_bud01.jpg","img/object_images/knife04.jpg","img/object_images/chess_piece02.jpg","1","1","1","1","1","1","0.389177900040522","0.440655299986247","0.394611700030509","1","1","1","1","1","1","1","1","1"
"260067","img/object_images/chess_piece02.jpg","img/object_images/ear_bud01.jpg","img/object_images/Oven01.jpg","1","1","1","1","1","1","0.394611700030509","0.389177900040522","0.397845800034702","1","1","1","1","1","1","1","1","1"
"260067","img/object_images/Oven01.jpg","img/object_images/chess_piece02.jpg","img/object_images/lid01.jpg","1","1","1","1","1","1","0.397845800034702","0.394611700030509","0.455739700002596","1","1","1","1","1","1","1","1","1"
"260067","img/object_images/lid01.jpg","img/object_images/Oven01.jpg","img/object_images/pillows01.jpg","1","1","1","1","1","1","0.455739700002596","0.397845800034702","0.385026599979028","1","1","1","1","1","1","1","1","1"
"260067","img/object_images/pillows01.jpg","img/object_images/lid01.jpg","img/object_images/floppy_disk03.jpg","1","1","1","1","1","1","0.385026599979028","0.455739700002596","0.40559670003131","1","1","1","1","1","1","1","1","1"
"260067","img/object_images/floppy_disk03.jpg","img/object_images/pillows01.jpg","img/object_images/tennis_racket02.jpg","1","1","1","1","1","1","0.40559670003131","0.385026599979028","0.385530400031712","1","1","1","1","1","1","1","1","1"
"260067","img/object_images/tennis_racket02.jpg","img/object_images/floppy_disk03.jpg","img/object_images/motorcycle01.jpg","1","1","1","1","1","1","0.385530400031712","0.40559670003131","0.394578400009777","1","1","1","1","1","1","1","1","1"
"260067","img/object_images/motorcycle01.jpg","img/object_images/tennis_racket02.jpg",NA,"1","1",NA,"1","1",NA,"0.394578400009777","0.385530400031712",NA,"1","1",NA,"1","1",NA,"1","1",NA
"260067","img/object_images/bell03.jpg",NA,"img/object_images/rock02.jpg","1",NA,"1","0",NA,"0","0.549586599983741",NA,"0.57271470001433","1",NA,"1","1",NA,"1","1",NA,"1"
"260067","img/object_images/rock02.jpg","img/object_images/bell03.jpg","img/object_images/mail_box02.jpg","1","1","1","0","0","1","0.57271470001433","0.549586599983741","0.387640700035263","1","1","1","1","1","1","1","1","1"
"260067","img/object_images/mail_box02.jpg","img/object_images/rock02.jpg","img/object_images/soap03.jpg","1","1","1","1","0","0","0.387640700035263","0.57271470001433","0.516063199960627","1","1","1","1","1","1","1","1","1"
"260067","img/object_images/soap03.jpg","img/object_images/mail_box02.jpg","img/object_images/hair_brush01.jpg","1","1","1","0","1","1","0.516063199960627","0.387640700035263","0.433310399996117","1","1","1","1","1","1","1","1","1"
"260067","img/object_images/hair_brush01.jpg","img/object_images/soap03.jpg","img/object_images/scarf01.jpg","1","1","1","1","0","1","0.433310399996117","0.516063199960627","0.378926200035494","1","1","1","1","1","1","1","1","1"
"260067","img/object_images/scarf01.jpg","img/object_images/hair_brush01.jpg","img/object_images/pitcher09.jpg","1","1","0","1","1","1","0.378926200035494","0.433310399996117","0.424305799999274","1","1","1","1","1","1","1","1","1"
"260067","img/object_images/pitcher09.jpg","img/object_images/scarf01.jpg","img/object_images/Violin01.jpg","0","1","1","1","1","0","0.424305799999274","0.378926200035494","0.60629099997459","1","1","1","1","1","1","1","1","1"
"260067","img/object_images/Violin01.jpg","img/object_images/pitcher09.jpg","img/object_images/computer_mouse02.jpg","1","0","1","0","1","0","0.60629099997459","0.424305799999274","0.465265100006945","1","1","1","1","1","1","1","1","1"
"260067","img/object_images/computer_mouse02.jpg","img/object_images/Violin01.jpg","img/object_images/skate_board01.jpg","1","1","1","0","0","0","0.465265100006945","0.60629099997459","0.536652800044976","1","1","1","1","1","1","1","1","1"
"260067","img/object_images/skate_board01.jpg","img/object_images/computer_mouse02.jpg","img/object_images/tripod01.jpg","1","1","1","0","0","1","0.536652800044976","0.465265100006945","0.473934600013308","1","1","1","1","1","1","1","1","1"
"260067","img/object_images/tripod01.jpg","img/object_images/skate_board01.jpg","img/object_images/chain01.jpg","1","1","1","1","0","0","0.473934600013308","0.536652800044976","0.581767899973784","1","1","1","1","1","1","1","1","1"
"260067","img/object_images/chain01.jpg","img/object_images/tripod01.jpg","img/object_images/shoes12.jpg","1","1","1","0","1","1","0.581767899973784","0.473934600013308","0.436270800011698","1","1","1","1","1","1","1","1","1"
"260067","img/object_images/shoes12.jpg","img/object_images/chain01.jpg","img/object_images/book02.jpg","1","1","1","1","0","1","0.436270800011698","0.581767899973784","0.603443500003777","1","1","1","1","1","1","1","1","1"
"260067","img/object_images/book02.jpg","img/object_images/shoes12.jpg","img/object_images/chair06.jpg","1","1","1","1","1","0","0.603443500003777","0.436270800011698","0.504205100005493","1","1","1","1","1","1","1","1","1"
"260067","img/object_images/chair06.jpg","img/object_images/book02.jpg","img/object_images/video_game03.jpg","1","1","1","0","1","1","0.504205100005493","0.603443500003777","0.447179300012067","1","1","1","1","1","1","1","1","1"
"260067","img/object_images/video_game03.jpg","img/object_images/chair06.jpg","img/object_images/Trowel01.jpg","1","1","1","1","0","0","0.447179300012067","0.504205100005493","0.573849699983839","1","1","1","1","1","1","1","1","1"
"260067","img/object_images/Trowel01.jpg","img/object_images/video_game03.jpg","img/object_images/pen01.jpg","1","1","1","0","1","0","0.573849699983839","0.447179300012067","0.544266999990214","1","1","1","1","1","1","1","1","1"
"260067","img/object_images/pen01.jpg","img/object_images/Trowel01.jpg","img/object_images/fork02.jpg","1","1","1","0","0","0","0.544266999990214","0.573849699983839","0.508773099980317","1","1","1","1","1","1","1","1","1"
"260067","img/object_images/fork02.jpg","img/object_images/pen01.jpg","img/object_images/tool06.jpg","1","1","1","0","0","0","0.508773099980317","0.544266999990214","0.440537200018298","1","1","1","1","1","1","1","1","1"
"260067","img/object_images/tool06.jpg","img/object_images/fork02.jpg","img/object_images/floss02.jpg","1","1","1","0","0","1","0.440537200018298","0.508773099980317","0.415653400006704","1","1","1","1","1","1","1","1","1"
"260067","img/object_images/floss02.jpg","img/object_images/tool06.jpg","img/object_images/box03.jpg","1","1","1","1","0","0","0.415653400006704","0.440537200018298","0.500870699994266","1","1","1","1","1","1","1","1","1"
"260067","img/object_images/box03.jpg","img/object_images/floss02.jpg","img/object_images/toy01.jpg","1","1","1","0","1","1","0.500870699994266","0.415653400006704","0.452209000010043","1","1","1","1","1","1","1","1","1"
"260067","img/object_images/toy01.jpg","img/object_images/box03.jpg","img/object_images/blender01.jpg","1","1","1","1","0","0","0.452209000010043","0.500870699994266","0.612833600025624","1","1","1","1","1","1","1","1","1"
"260067","img/object_images/blender01.jpg","img/object_images/toy01.jpg","img/object_images/bag_pipes01.jpg","1","1","1","0","1","1","0.612833600025624","0.452209000010043","0.449166299949866","1","1","1","1","1","1","1","1","1"
"260067","img/object_images/bag_pipes01.jpg","img/object_images/blender01.jpg","img/object_images/toothbrush01.jpg","1","1","1","1","0","0","0.449166299949866","0.612833600025624","0.464612799987663","1","1","1","1","1","1","1","1","1"
"260067","img/object_images/toothbrush01.jpg","img/object_images/bag_pipes01.jpg","img/object_images/computer_mouse01.jpg","1","1","1","0","1","1","0.464612799987663","0.449166299949866","0.503958099987358","1","1","1","1","1","1","1","1","1"
"260067","img/object_images/computer_mouse01.jpg","img/object_images/toothbrush01.jpg","img/object_images/clip04.jpg","1","1","1","1","0","1","0.503958099987358","0.464612799987663","0.451595699996687","1","1","1","1","1","1","1","1","1"
"260067","img/object_images/clip04.jpg","img/object_images/computer_mouse01.jpg","img/object_images/drone01.jpg","1","1","1","1","1","1","0.451595699996687","0.503958099987358","0.557232799998019","1","1","1","1","1","1","1","1","1"
"260067","img/object_images/drone01.jpg","img/object_images/clip04.jpg","img/object_images/couch01.jpg","1","1","1","1","1","0","0.557232799998019","0.451595699996687","0.51490259997081","1","1","1","1","1","1","1","1","1"
"260067","img/object_images/couch01.jpg","img/object_images/drone01.jpg","img/object_images/egg_slicer01.jpg","1","1","1","0","1","1","0.51490259997081","0.557232799998019","0.469439400010742","1","1","1","1","1","1","1","1","1"
"260067","img/object_images/egg_slicer01.jpg","img/object_images/couch01.jpg","img/object_images/airfryer02.jpg","1","1","1","1","0","1","0.469439400010742","0.51490259997081","0.441999499977101","1","1","1","1","1","1","1","1","1"
"260067","img/object_images/airfryer02.jpg","img/object_images/egg_slicer01.jpg",NA,"1","1",NA,"1","1",NA,"0.441999499977101","0.469439400010742",NA,"1","1",NA,"1","1",NA,"1","1",NA
"260067","img/object_images/paper_cup01.jpg",NA,"img/object_images/golf_ball03.jpg","1",NA,"1","0",NA,"1","0.553010399977211",NA,"0.429812700022012","1",NA,"1","1",NA,"1","1",NA,"1"
"260067","img/object_images/golf_ball03.jpg","img/object_images/paper_cup01.jpg","img/object_images/dresser04.jpg","1","1","1","1","0","0","0.429812700022012","0.553010399977211","0.520960599998944","1","1","1","1","1","1","1","1","1"
"260067","img/object_images/dresser04.jpg","img/object_images/golf_ball03.jpg","img/object_images/funnel01.jpg","1","1","1","0","1","0","0.520960599998944","0.429812700022012","0.569132200034801","1","1","1","1","1","1","1","1","1"
"260067","img/object_images/funnel01.jpg","img/object_images/dresser04.jpg","img/object_images/sleeping_bag01.jpg","1","1","1","0","0","0","0.569132200034801","0.520960599998944","0.556266200030223","1","1","1","1","1","1","1","1","1"
"260067","img/object_images/sleeping_bag01.jpg","img/object_images/funnel01.jpg","img/object_images/gift_box03.jpg","1","1","1","0","0","0","0.556266200030223","0.569132200034801","0.455084700020962","1","1","1","1","1","1","1","1","1"
"260067","img/object_images/gift_box03.jpg","img/object_images/sleeping_bag01.jpg","img/object_images/jewelry01.jpg","1","1","1","0","0","1","0.455084700020962","0.556266200030223","0.442821800010279","1","1","1","1","1","1","1","1","1"
"260067","img/object_images/jewelry01.jpg","img/object_images/gift_box03.jpg","img/object_images/measuring_tape02.jpg","1","1","1","1","0","1","0.442821800010279","0.455084700020962","0.37349249998806","1","1","1","1","1","1","1","1","1"
"260067","img/object_images/measuring_tape02.jpg","img/object_images/jewelry01.jpg","img/object_images/pitcher02.jpg","1","1","1","1","1","1","0.37349249998806","0.442821800010279","0.514917799970135","1","1","1","1","1","1","1","1","1"
"260067","img/object_images/pitcher02.jpg","img/object_images/measuring_tape02.jpg","img/object_images/lock04.jpg","1","1","1","1","1","1","0.514917799970135","0.37349249998806","0.415186300000641","1","1","1","1","1","1","1","1","1"
"260067","img/object_images/lock04.jpg","img/object_images/pitcher02.jpg","img/object_images/Screws01.jpg","1","1","1","1","1","1","0.415186300000641","0.514917799970135","0.467808400047943","1","1","1","1","1","1","1","1","1"
"260067","img/object_images/Screws01.jpg","img/object_images/lock04.jpg","img/object_images/lawn_mower01.jpg","1","1","1","1","1","1","0.467808400047943","0.415186300000641","0.467527900007553","1","1","1","1","1","1","1","1","1"
"260067","img/object_images/lawn_mower01.jpg","img/object_images/Screws01.jpg","img/object_images/Witchhat01.jpg","1","1","1","1","1","1","0.467527900007553","0.467808400047943","0.384400399983861","1","1","1","1","1","1","1","1","1"
"260067","img/object_images/Witchhat01.jpg","img/object_images/lawn_mower01.jpg","img/object_images/bow_tie02.jpg","1","1","1","1","1","0","0.384400399983861","0.467527900007553","0.647314600006212","1","1","1","1","1","1","1","1","1"
"260067","img/object_images/bow_tie02.jpg","img/object_images/Witchhat01.jpg","img/object_images/bow_tie01.jpg","1","1","1","0","1","0","0.647314600006212","0.384400399983861","0.517567800008692","1","1","1","1","1","1","1","1","1"
"260067","img/object_images/bow_tie01.jpg","img/object_images/bow_tie02.jpg","img/object_images/hammer01.jpg","1","1","1","0","0","0","0.517567800008692","0.647314600006212","0.462477700028103","1","1","1","1","1","1","1","1","1"
"260067","img/object_images/hammer01.jpg","img/object_images/bow_tie01.jpg","img/object_images/bath_tub01.jpg","1","1","1","0","0","0","0.462477700028103","0.517567800008692","0.469293100002687","1","1","1","1","1","1","1","1","1"
"260067","img/object_images/bath_tub01.jpg","img/object_images/hammer01.jpg","img/object_images/jacket03.jpg","1","1","1","0","0","0","0.469293100002687","0.462477700028103","0.517328899994027","1","1","1","1","1","1","1","1","1"
"260067","img/object_images/jacket03.jpg","img/object_images/bath_tub01.jpg","img/object_images/ironing_table01.jpg","1","1","1","0","0","0","0.517328899994027","0.469293100002687","0.476311000005808","1","1","1","1","1","1","1","1","1"
"260067","img/object_images/ironing_table01.jpg","img/object_images/jacket03.jpg","img/object_images/socks02.jpg","1","1","1","0","0","0","0.476311000005808","0.517328899994027","0.426449300022796","1","1","1","1","1","1","1","1","1"
"260067","img/object_images/socks02.jpg","img/object_images/ironing_table01.jpg","img/object_images/wallet02.jpg","1","1","1","0","0","1","0.426449300022796","0.476311000005808","0.455607099982444","1","1","1","1","1","1","1","1","1"
"260067","img/object_images/wallet02.jpg","img/object_images/socks02.jpg","img/object_images/gift_box02.jpg","1","1","1","1","0","1","0.455607099982444","0.426449300022796","0.509887799969874","1","1","1","1","1","1","1","1","1"
"260067","img/object_images/gift_box02.jpg","img/object_images/wallet02.jpg","img/object_images/coloring_pencil01.jpg","1","1","1","1","1","1","0.509887799969874","0.455607099982444","0.440528000006452","1","1","1","1","1","1","1","1","1"
"260067","img/object_images/coloring_pencil01.jpg","img/object_images/gift_box02.jpg","img/object_images/handkerchief01.jpg","1","1","1","1","1","0","0.440528000006452","0.509887799969874","0.508284299983643","1","1","1","1","1","1","1","1","1"
"260067","img/object_images/handkerchief01.jpg","img/object_images/coloring_pencil01.jpg","img/object_images/clip02.jpg","1","1","1","0","1","1","0.508284299983643","0.440528000006452","0.50526439998066","1","1","1","1","1","1","1","1","1"
"260067","img/object_images/clip02.jpg","img/object_images/handkerchief01.jpg","img/object_images/fork03.jpg","1","1","1","1","0","1","0.50526439998066","0.508284299983643","0.450497799960431","1","1","1","1","1","1","1","1","1"
"260067","img/object_images/fork03.jpg","img/object_images/clip02.jpg","img/object_images/balloon01.jpg","1","1","1","1","1","0","0.450497799960431","0.50526439998066","0.586363800044637","1","1","1","1","1","1","1","1","1"
"260067","img/object_images/balloon01.jpg","img/object_images/fork03.jpg","img/object_images/camera07.jpg","1","1","1","0","1","1","0.586363800044637","0.450497799960431","0.415855600032955","1","1","1","1","1","1","1","1","1"
"260067","img/object_images/camera07.jpg","img/object_images/balloon01.jpg","img/object_images/gift_box01.jpg","1","1","1","1","0","1","0.415855600032955","0.586363800044637","0.40474249998806","1","1","1","1","1","1","1","1","1"
"260067","img/object_images/gift_box01.jpg","img/object_images/camera07.jpg","img/object_images/vga_port 01.jpg","1","1","1","1","1","0","0.40474249998806","0.415855600032955","0.429249799984973","1","1","1","1","1","1","1","1","1"
"260067","img/object_images/vga_port 01.jpg","img/object_images/gift_box01.jpg","img/object_images/couch03.jpg","1","1","1","0","1","0","0.429249799984973","0.40474249998806","0.602234499994665","1","1","1","1","1","1","1","1","1"
"260067","img/object_images/couch03.jpg","img/object_images/vga_port 01.jpg","img/object_images/grater01.jpg","1","1","1","0","0","1","0.602234499994665","0.429249799984973","0.5407538000145","1","1","1","1","1","1","1","1","1"
"260067","img/object_images/grater01.jpg","img/object_images/couch03.jpg",NA,"1","1",NA,"1","0",NA,"0.5407538000145","0.602234499994665",NA,"1","1",NA,"1","1",NA,"1","1",NA
"260067","img/object_images/bottle05.jpg",NA,"img/object_images/mirror01.jpg","1",NA,"1","0",NA,"1","0.755644199962262",NA,"0.433875799993984","1",NA,"1","1",NA,"1","1",NA,"1"
"260067","img/object_images/mirror01.jpg","img/object_images/bottle05.jpg","img/object_images/bow01.jpg","1","1","1","1","0","1","0.433875799993984","0.755644199962262","0.432450700027402","1","1","1","1","1","1","1","1","1"
"260067","img/object_images/bow01.jpg","img/object_images/mirror01.jpg","img/object_images/outlet01.jpg","1","1","1","1","1","0","0.432450700027402","0.433875799993984","0.489730900037102","1","1","1","1","1","1","1","1","1"
"260067","img/object_images/outlet01.jpg","img/object_images/bow01.jpg","img/object_images/sink01.jpg","1","1","1","0","1","0","0.489730900037102","0.432450700027402","0.551354199997149","1","1","1","1","1","1","1","1","1"
"260067","img/object_images/sink01.jpg","img/object_images/outlet01.jpg","img/object_images/frisbee01.jpg","1","1","1","0","0","1","0.551354199997149","0.489730900037102","0.40875820000656","1","1","1","1","1","1","1","1","1"
"260067","img/object_images/frisbee01.jpg","img/object_images/sink01.jpg","img/object_images/acoustic_capo01.jpg","1","1","1","1","0","1","0.40875820000656","0.551354199997149","0.417965799977537","1","1","1","1","1","1","1","1","1"
"260067","img/object_images/acoustic_capo01.jpg","img/object_images/frisbee01.jpg","img/object_images/video_game07.jpg","1","1","1","1","1","1","0.417965799977537","0.40875820000656","0.390930300054606","1","1","1","1","1","1","1","1","1"
"260067","img/object_images/video_game07.jpg","img/object_images/acoustic_capo01.jpg","img/object_images/dart01.jpg","1","1","1","1","1","0","0.390930300054606","0.417965799977537","0.510059399995953","1","1","1","1","1","1","1","1","1"
"260067","img/object_images/dart01.jpg","img/object_images/video_game07.jpg","img/object_images/bird_house02.jpg","1","1","1","0","1","1","0.510059399995953","0.390930300054606","0.404797399998643","1","1","1","1","1","1","1","1","1"
"260067","img/object_images/bird_house02.jpg","img/object_images/dart01.jpg","img/object_images/tool09.jpg","1","1","1","1","0","1","0.404797399998643","0.510059399995953","0.457164700026624","1","1","1","1","1","1","1","1","1"
"260067","img/object_images/tool09.jpg","img/object_images/bird_house02.jpg","img/object_images/tool02.jpg","1","1","1","1","1","1","0.457164700026624","0.404797399998643","0.498104500002228","1","1","1","1","1","1","1","1","1"
"260067","img/object_images/tool02.jpg","img/object_images/tool09.jpg","img/object_images/watch01.jpg","1","1","1","1","1","0","0.498104500002228","0.457164700026624","0.542813599982765","1","1","1","1","1","1","1","1","1"
"260067","img/object_images/watch01.jpg","img/object_images/tool02.jpg","img/object_images/guitar02.jpg","1","1","1","0","1","0","0.542813599982765","0.498104500002228","0.510214799956884","1","1","1","1","1","1","1","1","1"
"260067","img/object_images/guitar02.jpg","img/object_images/watch01.jpg","img/object_images/judge_gavel01.jpg","1","1","1","0","0","1","0.510214799956884","0.542813599982765","0.478353300015442","1","1","1","1","1","1","1","1","1"
"260067","img/object_images/judge_gavel01.jpg","img/object_images/guitar02.jpg","img/object_images/fridge03.jpg","1","1","1","1","0","0","0.478353300015442","0.510214799956884","0.63310839998303","1","1","1","1","1","1","1","1","1"
"260067","img/object_images/fridge03.jpg","img/object_images/judge_gavel01.jpg","img/object_images/helmet01.jpg","1","1","1","0","1","0","0.63310839998303","0.478353300015442","0.551179800007958","1","1","1","1","1","1","1","1","1"
"260067","img/object_images/helmet01.jpg","img/object_images/fridge03.jpg","img/object_images/toy04.jpg","1","1","1","0","0","0","0.551179800007958","0.63310839998303","0.497044800024014","1","1","1","1","1","1","1","1","1"
"260067","img/object_images/toy04.jpg","img/object_images/helmet01.jpg","img/object_images/Tin01.jpg","1","1","1","0","0","1","0.497044800024014","0.551179800007958","0.455242099997122","1","1","1","1","1","1","1","1","1"
"260067","img/object_images/Tin01.jpg","img/object_images/toy04.jpg","img/object_images/pot01 (1).jpg","1","1","1","1","0","0","0.455242099997122","0.497044800024014","0.459456900018267","1","1","1","1","1","1","1","1","1"
"260067","img/object_images/pot01 (1).jpg","img/object_images/Tin01.jpg","img/object_images/Stool01.jpg","1","1","1","0","1","0","0.459456900018267","0.455242099997122","0.471874799986836","1","1","1","1","1","1","1","1","1"
"260067","img/object_images/Stool01.jpg","img/object_images/pot01 (1).jpg","img/object_images/ornament01.jpg","1","1","1","0","0","1","0.471874799986836","0.459456900018267","0.402986400004011","1","1","1","1","1","1","1","1","1"
"260067","img/object_images/ornament01.jpg","img/object_images/Stool01.jpg","img/object_images/jewel04.jpg","1","1","1","1","0","0","0.402986400004011","0.471874799986836","0.668093700020108","1","1","1","1","1","1","1","1","1"
"260067","img/object_images/jewel04.jpg","img/object_images/ornament01.jpg","img/object_images/MetalWire01.jpg","1","1","1","0","1","0","0.668093700020108","0.402986400004011","0.531049500044901","1","1","1","1","1","1","1","1","1"
"260067","img/object_images/MetalWire01.jpg","img/object_images/jewel04.jpg","img/object_images/Vacuum01.jpg","1","1","1","0","0","0","0.531049500044901","0.668093700020108","0.559664400003385","1","1","1","1","1","1","1","1","1"
"260067","img/object_images/Vacuum01.jpg","img/object_images/MetalWire01.jpg","img/object_images/gauze01.jpg","1","1","1","0","0","0","0.559664400003385","0.531049500044901","0.425567500002217","1","1","1","1","1","1","1","1","1"
"260067","img/object_images/gauze01.jpg","img/object_images/Vacuum01.jpg","img/object_images/Ring02.jpg","1","1","1","0","0","0","0.425567500002217","0.559664400003385","0.447649799985811","1","1","1","1","1","1","1","1","1"
"260067","img/object_images/Ring02.jpg","img/object_images/gauze01.jpg","img/object_images/towel02.jpg","1","1","1","0","0","1","0.447649799985811","0.425567500002217","0.523433200025465","1","1","1","1","1","1","1","1","1"
"260067","img/object_images/towel02.jpg","img/object_images/Ring02.jpg","img/object_images/shovel03.jpg","1","1","1","1","0","1","0.523433200025465","0.447649799985811","0.405054700036999","1","1","1","1","1","1","1","1","1"
"260067","img/object_images/shovel03.jpg","img/object_images/towel02.jpg","img/object_images/crown02.jpg","1","1","1","1","1","1","0.405054700036999","0.523433200025465","0.46105510002235","1","1","1","1","1","1","1","1","1"
"260067","img/object_images/crown02.jpg","img/object_images/shovel03.jpg","img/object_images/stapler.jpg","1","1","1","1","1","1","0.46105510002235","0.405054700036999","0.473425100033637","1","1","1","1","1","1","1","1","1"
"260067","img/object_images/stapler.jpg","img/object_images/crown02.jpg","img/object_images/toy03.jpg","1","1","1","1","1","1","0.473425100033637","0.46105510002235","0.464066200016532","1","1","1","1","1","1","1","1","1"
"260067","img/object_images/toy03.jpg","img/object_images/stapler.jpg",NA,"1","1",NA,"1","1",NA,"0.464066200016532","0.473425100033637",NA,"1","1",NA,"1","1",NA,"1","1",NA
"260067","img/object_images/pan01.jpg",NA,"img/object_images/cup03.jpg","1",NA,"1","1",NA,"1","0.481554500001948",NA,"0.427459699974861","1",NA,"1","1",NA,"1","1",NA,"1"
"260067","img/object_images/cup03.jpg","img/object_images/pan01.jpg","img/object_images/faucet01.jpg","1","1","1","1","1","0","0.427459699974861","0.481554500001948","0.445982299977913","1","1","1","1","1","1","1","1","1"
"260067","img/object_images/faucet01.jpg","img/object_images/cup03.jpg","img/object_images/gift_box04.jpg","1","1","1","0","1","0","0.445982299977913","0.427459699974861","0.556722200009972","1","1","1","1","1","1","1","1","1"
"260067","img/object_images/gift_box04.jpg","img/object_images/faucet01.jpg","img/object_images/blanket01.jpg","1","1","1","0","0","1","0.556722200009972","0.445982299977913","0.513863499974832","1","1","1","1","1","1","1","1","1"
"260067","img/object_images/blanket01.jpg","img/object_images/gift_box04.jpg","img/object_images/TrashCan02.jpg","1","1","1","1","0","1","0.513863499974832","0.556722200009972","0.442970499978401","1","1","1","1","1","1","1","1","1"
"260067","img/object_images/TrashCan02.jpg","img/object_images/blanket01.jpg","img/object_images/Traffic Sign 01.jpg","1","1","1","1","1","0","0.442970499978401","0.513863499974832","0.521913099975791","1","1","1","1","1","1","1","1","1"
"260067","img/object_images/Traffic Sign 01.jpg","img/object_images/TrashCan02.jpg","img/object_images/Pottery01.jpg","1","1","1","0","1","0","0.521913099975791","0.442970499978401","0.474992499977816","1","1","1","1","1","1","1","1","1"
"260067","img/object_images/Pottery01.jpg","img/object_images/Traffic Sign 01.jpg","img/object_images/tool08.jpg","1","1","1","0","0","0","0.474992499977816","0.521913099975791","0.427471100003459","1","1","1","1","1","1","1","1","1"
"260067","img/object_images/tool08.jpg","img/object_images/Pottery01.jpg","img/object_images/purse01.jpg","1","1","1","0","0","1","0.427471100003459","0.474992499977816","0.403908799984492","1","1","1","1","1","1","1","1","1"
"260067","img/object_images/purse01.jpg","img/object_images/tool08.jpg","img/object_images/exfoliater_brush01.jpg","1","1","1","1","0","0","0.403908799984492","0.427471100003459","0.462502899987157","1","1","1","1","1","1","1","1","1"
"260067","img/object_images/exfoliater_brush01.jpg","img/object_images/purse01.jpg","img/object_images/projector01.jpg","1","1","1","0","1","0","0.462502899987157","0.403908799984492","0.421106299967505","1","1","1","1","1","1","1","1","1"
"260067","img/object_images/projector01.jpg","img/object_images/exfoliater_brush01.jpg","img/object_images/basket02.jpg","1","1","1","0","0","0","0.421106299967505","0.462502899987157","0.513627899985295","1","1","1","1","1","1","1","1","1"
"260067","img/object_images/basket02.jpg","img/object_images/projector01.jpg","img/object_images/tool07.jpg","1","1","1","0","0","0","0.513627899985295","0.421106299967505","0.377670800022315","1","1","1","1","1","1","1","1","1"
"260067","img/object_images/tool07.jpg","img/object_images/basket02.jpg","img/object_images/glasses06.jpg","1","1","1","0","0","1","0.377670800022315","0.513627899985295","0.441975600027945","1","1","1","1","1","1","1","1","1"
"260067","img/object_images/glasses06.jpg","img/object_images/tool07.jpg","img/object_images/speaker01.jpg","1","1","1","1","0","1","0.441975600027945","0.377670800022315","0.47097979998216","1","1","1","1","1","1","1","1","1"
"260067","img/object_images/speaker01.jpg","img/object_images/glasses06.jpg","img/object_images/hole_puncher01.jpg","1","1","1","1","1","1","0.47097979998216","0.441975600027945","0.438153300026897","1","1","1","1","1","1","1","1","1"
"260067","img/object_images/hole_puncher01.jpg","img/object_images/speaker01.jpg","img/object_images/Sprayer01.jpg","1","1","1","1","1","0","0.438153300026897","0.47097979998216","0.524132199992891","1","1","1","1","1","1","1","1","1"
"260067","img/object_images/Sprayer01.jpg","img/object_images/hole_puncher01.jpg","img/object_images/fire_extinguisher01.jpg","1","1","1","0","1","0","0.524132199992891","0.438153300026897","0.597818700014614","1","1","1","1","1","1","1","1","1"
"260067","img/object_images/fire_extinguisher01.jpg","img/object_images/Sprayer01.jpg","img/object_images/ring03.jpg","1","1","1","0","0","1","0.597818700014614","0.524132199992891","0.368378399987705","1","1","1","1","1","1","1","1","1"
"260067","img/object_images/ring03.jpg","img/object_images/fire_extinguisher01.jpg","img/object_images/lighter01.jpg","1","1","1","1","0","1","0.368378399987705","0.597818700014614","0.364699199970346","1","1","1","1","1","1","1","1","1"
"260067","img/object_images/lighter01.jpg","img/object_images/ring03.jpg","img/object_images/colander01.jpg","1","1","1","1","1","0","0.364699199970346","0.368378399987705","0.504736699978821","1","1","1","1","1","1","1","1","1"
"260067","img/object_images/colander01.jpg","img/object_images/lighter01.jpg","img/object_images/cellphone02.jpg","1","1","1","0","1","1","0.504736699978821","0.364699199970346","0.419976599980146","1","1","1","1","1","1","1","1","1"
"260067","img/object_images/cellphone02.jpg","img/object_images/colander01.jpg","img/object_images/hair_clips01.jpg","1","1","1","1","0","1","0.419976599980146","0.504736699978821","0.417240700044204","1","1","1","1","1","1","1","1","1"
"260067","img/object_images/hair_clips01.jpg","img/object_images/cellphone02.jpg","img/object_images/glasses07.jpg","1","1","1","1","1","1","0.417240700044204","0.419976599980146","0.364643900014926","1","1","1","1","1","1","1","1","1"
"260067","img/object_images/glasses07.jpg","img/object_images/hair_clips01.jpg","img/object_images/jewelry09.jpg","1","1","1","1","1","1","0.364643900014926","0.417240700044204","0.497926099982578","1","1","1","1","1","1","1","1","1"
"260067","img/object_images/jewelry09.jpg","img/object_images/glasses07.jpg","img/object_images/bicycle_lock01.jpg","1","1","1","1","1","0","0.497926099982578","0.364643900014926","0.443146999983583","1","1","1","1","1","1","1","1","1"
"260067","img/object_images/bicycle_lock01.jpg","img/object_images/jewelry09.jpg","img/object_images/yo_yo01.jpg","1","1","1","0","1","0","0.443146999983583","0.497926099982578","0.465713499987032","1","1","1","1","1","1","1","1","1"
"260067","img/object_images/yo_yo01.jpg","img/object_images/bicycle_lock01.jpg","img/object_images/handcuffs01.jpg","1","1","1","0","0","0","0.465713499987032","0.443146999983583","0.418775799975265","1","1","1","1","1","1","1","1","1"
"260067","img/object_images/handcuffs01.jpg","img/object_images/yo_yo01.jpg","img/object_images/tray01.jpg","1","1","1","0","0","1","0.418775799975265","0.465713499987032","0.431388700031675","1","1","1","1","1","1","1","1","1"
"260067","img/object_images/tray01.jpg","img/object_images/handcuffs01.jpg","img/object_images/book01.jpg","1","1","1","1","0","1","0.431388700031675","0.418775799975265","0.363631599990185","1","1","1","1","1","1","1","1","1"
"260067","img/object_images/book01.jpg","img/object_images/tray01.jpg","img/object_images/Kitchen_Towel.jpg","1","1","1","1","1","0","0.363631599990185","0.431388700031675","0.451550700003281","1","1","1","1","1","1","1","1","1"
"260067","img/object_images/Kitchen_Towel.jpg","img/object_images/book01.jpg",NA,"1","1",NA,"0","1",NA,"0.451550700003281","0.363631599990185",NA,"1","1",NA,"1","1",NA,"1","1",NA
"260067","img/object_images/nut_cracker01.jpg",NA,"img/object_images/joystick03.jpg","1",NA,"1","1",NA,"1","0.514448300004005",NA,"0.422694900014903","1",NA,"1","1",NA,"1","1",NA,"1"
"260067","img/object_images/joystick03.jpg","img/object_images/nut_cracker01.jpg","img/object_images/lock03.jpg","1","1","1","1","1","1","0.422694900014903","0.514448300004005","0.362974999996368","1","1","1","1","1","1","1","1","1"
"260067","img/object_images/lock03.jpg","img/object_images/joystick03.jpg","img/object_images/pitcher07.jpg","1","1","1","1","1","1","0.362974999996368","0.422694900014903","0.430907300033141","1","1","1","1","1","1","1","1","1"
"260067","img/object_images/pitcher07.jpg","img/object_images/lock03.jpg","img/object_images/tennis_racket01.jpg","1","1","1","1","1","1","0.430907300033141","0.362974999996368","0.34351209999295","1","1","1","1","1","1","1","1","1"
"260067","img/object_images/tennis_racket01.jpg","img/object_images/pitcher07.jpg","img/object_images/ToolBag01.jpg","1","1","0","1","1","0","0.34351209999295","0.430907300033141","0.447087699954864","1","1","1","1","1","1","1","1","1"
"260067","img/object_images/ToolBag01.jpg","img/object_images/tennis_racket01.jpg","img/object_images/Shoes05.jpg","0","1","1","0","1","0","0.447087699954864","0.34351209999295","0.602733299951069","1","1","1","1","1","1","1","1","1"
"260067","img/object_images/Shoes05.jpg","img/object_images/ToolBag01.jpg","img/object_images/bookmark01.jpg","1","0","1","0","0","0","0.602733299951069","0.447087699954864","0.530676600057632","1","1","1","1","1","1","1","1","1"
"260067","img/object_images/bookmark01.jpg","img/object_images/Shoes05.jpg","img/object_images/bucket01.jpg","1","1","1","0","0","1","0.530676600057632","0.602733299951069","0.406557100010104","1","1","1","1","1","1","1","1","1"
"260067","img/object_images/bucket01.jpg","img/object_images/bookmark01.jpg","img/object_images/shovel01.jpg","1","1","1","1","0","0","0.406557100010104","0.530676600057632","0.441555399971548","1","1","1","1","1","1","1","1","1"
"260067","img/object_images/shovel01.jpg","img/object_images/bucket01.jpg","img/object_images/bottle06.jpg","1","1","1","0","1","0","0.441555399971548","0.406557100010104","0.393860500014853","1","1","1","1","1","1","1","1","1"
"260067","img/object_images/bottle06.jpg","img/object_images/shovel01.jpg","img/object_images/piano03.jpg","1","1","1","0","0","0","0.393860500014853","0.441555399971548","0.460793300007936","1","1","1","1","1","1","1","1","1"
"260067","img/object_images/piano03.jpg","img/object_images/bottle06.jpg","img/object_images/fan01.jpg","1","1","1","0","0","0","0.460793300007936","0.393860500014853","0.490612599998712","1","1","1","1","1","1","1","1","1"
"260067","img/object_images/fan01.jpg","img/object_images/piano03.jpg","img/object_images/Safe01.jpg","1","1","1","0","0","1","0.490612599998712","0.460793300007936","0.435325399972498","1","1","1","1","1","1","1","1","1"
"260067","img/object_images/Safe01.jpg","img/object_images/fan01.jpg","img/object_images/jewel02.jpg","1","1","1","1","0","0","0.435325399972498","0.490612599998712","0.490385499957483","1","1","1","1","1","1","1","1","1"
"260067","img/object_images/jewel02.jpg","img/object_images/Safe01.jpg","img/object_images/egg_basket01.jpg","1","1","1","0","1","1","0.490385499957483","0.435325399972498","0.574727199971676","1","1","1","1","1","1","1","1","1"
"260067","img/object_images/egg_basket01.jpg","img/object_images/jewel02.jpg","img/object_images/note_book02.jpg","1","1","1","1","0","0","0.574727199971676","0.490385499957483","0.54383780003991","1","1","1","1","1","1","1","1","1"
"260067","img/object_images/note_book02.jpg","img/object_images/egg_basket01.jpg","img/object_images/helmet03.jpg","1","1","1","0","1","1","0.54383780003991","0.574727199971676","0.406872399966232","1","1","1","1","1","1","1","1","1"
"260067","img/object_images/helmet03.jpg","img/object_images/note_book02.jpg","img/object_images/trumpet01.jpg","1","1","1","1","0","0","0.406872399966232","0.54383780003991","0.454182600020431","1","1","1","1","1","1","1","1","1"
"260067","img/object_images/trumpet01.jpg","img/object_images/helmet03.jpg","img/object_images/phone04.jpg","1","1","1","0","1","1","0.454182600020431","0.406872399966232","0.449766500038095","1","1","1","1","1","1","1","1","1"
"260067","img/object_images/phone04.jpg","img/object_images/trumpet01.jpg","img/object_images/belt03.jpg","1","1","1","1","0","0","0.449766500038095","0.454182600020431","0.474109500006307","1","1","1","1","1","1","1","1","1"
"260067","img/object_images/belt03.jpg","img/object_images/phone04.jpg","img/object_images/Eyeliner01.jpg","1","1","1","0","1","1","0.474109500006307","0.449766500038095","0.411083800019696","1","1","1","1","1","1","1","1","1"
"260067","img/object_images/Eyeliner01.jpg","img/object_images/belt03.jpg","img/object_images/usb03.jpg","1","1","1","1","0","0","0.411083800019696","0.474109500006307","0.623010499984957","1","1","1","1","1","1","1","1","1"
"260067","img/object_images/usb03.jpg","img/object_images/Eyeliner01.jpg","img/object_images/scale02.jpg","1","1","1","0","1","0","0.623010499984957","0.411083800019696","0.448902200034354","1","1","1","1","1","1","1","1","1"
"260067","img/object_images/scale02.jpg","img/object_images/usb03.jpg","img/object_images/yoga_mat01.jpg","1","1","1","0","0","0","0.448902200034354","0.623010499984957","0.447423800011165","1","1","1","1","1","1","1","1","1"
"260067","img/object_images/yoga_mat01.jpg","img/object_images/scale02.jpg","img/object_images/origami01.jpg","1","1","1","0","0","1","0.447423800011165","0.448902200034354","0.421514499990735","1","1","1","1","1","1","1","1","1"
"260067","img/object_images/origami01.jpg","img/object_images/yoga_mat01.jpg","img/object_images/headset02.jpg","1","1","1","1","0","0","0.421514499990735","0.447423800011165","0.445377000025474","1","1","1","1","1","1","1","1","1"
"260067","img/object_images/headset02.jpg","img/object_images/origami01.jpg","img/object_images/water_gun01.jpg","1","1","1","0","1","1","0.445377000025474","0.421514499990735","0.410021800023969","1","1","1","1","1","1","1","1","1"
"260067","img/object_images/water_gun01.jpg","img/object_images/headset02.jpg","img/object_images/dice01.jpg","1","1","1","1","0","0","0.410021800023969","0.445377000025474","0.513812400051393","1","1","1","1","1","1","1","1","1"
"260067","img/object_images/dice01.jpg","img/object_images/water_gun01.jpg","img/object_images/TreeSlice01.jpg","1","1","1","0","1","1","0.513812400051393","0.410021800023969","0.372927899996284","1","1","1","1","1","1","1","1","1"
"260067","img/object_images/TreeSlice01.jpg","img/object_images/dice01.jpg","img/object_images/badminton01.jpg","1","1","1","1","0","1","0.372927899996284","0.513812400051393","0.362989199988078","1","1","1","1","1","1","1","1","1"
"260067","img/object_images/badminton01.jpg","img/object_images/TreeSlice01.jpg","img/object_images/frame01.jpg","1","1","1","1","1","1","0.362989199988078","0.372927899996284","0.44969359994866","1","1","1","1","1","1","1","1","1"
"260067","img/object_images/frame01.jpg","img/object_images/badminton01.jpg",NA,"1","1",NA,"1","1",NA,"0.44969359994866","0.362989199988078",NA,"1","1",NA,"1","1",NA,"1","1",NA
"260067","img/object_images/matches02.jpg",NA,"img/object_images/remote_controller01.jpg","1",NA,"1","0",NA,"1","0.593280600034632",NA,"0.445723899989389","1",NA,"1","1",NA,"1","1",NA,"1"
"260067","img/object_images/remote_controller01.jpg","img/object_images/matches02.jpg","img/object_images/knit03.jpg","1","1","1","1","0","1","0.445723899989389","0.593280600034632","0.467007200000808","1","1","1","1","1","1","1","1","1"
"260067","img/object_images/knit03.jpg","img/object_images/remote_controller01.jpg","img/object_images/boat04.jpg","1","1","1","1","1","0","0.467007200000808","0.445723899989389","0.580498300027102","1","1","1","1","1","1","1","1","1"
"260067","img/object_images/boat04.jpg","img/object_images/knit03.jpg","img/object_images/video_game01.jpg","1","1","1","0","1","1","0.580498300027102","0.467007200000808","0.539751200005412","1","1","1","1","1","1","1","1","1"
"260067","img/object_images/video_game01.jpg","img/object_images/boat04.jpg","img/object_images/phone02.jpg","1","1","1","1","0","1","0.539751200005412","0.580498300027102","0.460363699996378","1","1","1","1","1","1","1","1","1"
"260067","img/object_images/phone02.jpg","img/object_images/video_game01.jpg","img/object_images/sponge03.jpg","1","1","1","1","1","1","0.460363699996378","0.539751200005412","0.432325700006913","1","1","1","1","1","1","1","1","1"
"260067","img/object_images/sponge03.jpg","img/object_images/phone02.jpg","img/object_images/toy08.jpg","1","1","1","1","1","0","0.432325700006913","0.460363699996378","0.527957500016782","1","1","1","1","1","1","1","1","1"
"260067","img/object_images/toy08.jpg","img/object_images/sponge03.jpg","img/object_images/basket04.jpg","1","1","1","0","1","1","0.527957500016782","0.432325700006913","0.4765193000203","1","1","1","1","1","1","1","1","1"
"260067","img/object_images/basket04.jpg","img/object_images/toy08.jpg","img/object_images/blender02.jpg","1","1","1","1","0","1","0.4765193000203","0.527957500016782","0.490030799992383","1","1","1","1","1","1","1","1","1"
"260067","img/object_images/blender02.jpg","img/object_images/basket04.jpg","img/object_images/kite01.jpg","1","1","1","1","1","1","0.490030799992383","0.4765193000203","0.380221600004006","1","1","1","1","1","1","1","1","1"
"260067","img/object_images/kite01.jpg","img/object_images/blender02.jpg","img/object_images/curtain02.jpg","1","1","1","1","1","0","0.380221600004006","0.490030799992383","0.502932100032922","1","1","1","1","1","1","1","1","1"
"260067","img/object_images/curtain02.jpg","img/object_images/kite01.jpg","img/object_images/flashlight03.jpg","1","1","1","0","1","0","0.502932100032922","0.380221600004006","0.54625329998089","1","1","1","1","1","1","1","1","1"
"260067","img/object_images/flashlight03.jpg","img/object_images/curtain02.jpg","img/object_images/gloves02.jpg","1","1","1","0","0","0","0.54625329998089","0.502932100032922","0.475296699965838","1","1","1","1","1","1","1","1","1"
"260067","img/object_images/gloves02.jpg","img/object_images/flashlight03.jpg","img/object_images/bottle07.jpg","1","1","1","0","0","1","0.475296699965838","0.54625329998089","0.411397000018042","1","1","1","1","1","1","1","1","1"
"260067","img/object_images/bottle07.jpg","img/object_images/gloves02.jpg","img/object_images/mail_box01.jpg","1","1","1","1","0","0","0.411397000018042","0.475296699965838","0.460441600007471","1","1","1","1","1","1","1","1","1"
"260067","img/object_images/mail_box01.jpg","img/object_images/bottle07.jpg","img/object_images/car01.jpg","1","1","1","0","1","1","0.460441600007471","0.411397000018042","0.470982800005004","1","1","1","1","1","1","1","1","1"
"260067","img/object_images/car01.jpg","img/object_images/mail_box01.jpg","img/object_images/paper_cup02.jpg","1","1","1","1","0","1","0.470982800005004","0.460441600007471","0.420775699953083","1","1","1","1","1","1","1","1","1"
"260067","img/object_images/paper_cup02.jpg","img/object_images/car01.jpg","img/object_images/hoverboard01.jpg","1","1","1","1","1","0","0.420775699953083","0.470982800005004","0.521537399967201","1","1","1","1","1","1","1","1","1"
"260067","img/object_images/hoverboard01.jpg","img/object_images/paper_cup02.jpg","img/object_images/knit04.jpg","1","1","1","0","1","1","0.521537399967201","0.420775699953083","0.442113899975084","1","1","1","1","1","1","1","1","1"
"260067","img/object_images/knit04.jpg","img/object_images/hoverboard01.jpg","img/object_images/hand_grip_exerciser01.jpg","1","1","1","1","0","0","0.442113899975084","0.521537399967201","0.466487199999392","1","1","1","1","1","1","1","1","1"
"260067","img/object_images/hand_grip_exerciser01.jpg","img/object_images/knit04.jpg","img/object_images/backpack01.jpg","1","1","1","0","1","0","0.466487199999392","0.442113899975084","0.463975199963898","1","1","1","1","1","1","1","1","1"
"260067","img/object_images/backpack01.jpg","img/object_images/hand_grip_exerciser01.jpg","img/object_images/remover01.jpg","1","1","1","0","0","1","0.463975199963898","0.466487199999392","0.423717900004704","1","1","1","1","1","1","1","1","1"
"260067","img/object_images/remover01.jpg","img/object_images/backpack01.jpg","img/object_images/dresser03.jpg","1","1","1","1","0","0","0.423717900004704","0.463975199963898","0.441343799990136","1","1","1","1","1","1","1","1","1"
"260067","img/object_images/dresser03.jpg","img/object_images/remover01.jpg","img/object_images/jacket04.jpg","1","1","1","0","1","0","0.441343799990136","0.423717900004704","0.540779100032523","1","1","1","1","1","1","1","1","1"
"260067","img/object_images/jacket04.jpg","img/object_images/dresser03.jpg","img/object_images/stereo02.jpg","1","1","1","0","0","0","0.540779100032523","0.441343799990136","0.485208199999761","1","1","1","1","1","1","1","1","1"
"260067","img/object_images/stereo02.jpg","img/object_images/jacket04.jpg","img/object_images/tool18.jpg","1","1","1","0","0","0","0.485208199999761","0.540779100032523","0.470716999960132","1","1","1","1","1","1","1","1","1"
"260067","img/object_images/tool18.jpg","img/object_images/stereo02.jpg","img/object_images/keyboard02.jpg","1","1","1","0","0","1","0.470716999960132","0.485208199999761","0.473949700011872","1","1","1","1","1","1","1","1","1"
"260067","img/object_images/keyboard02.jpg","img/object_images/tool18.jpg","img/object_images/shower_head01.jpg","1","1","1","1","0","1","0.473949700011872","0.470716999960132","0.456477499974426","1","1","1","1","1","1","1","1","1"
"260067","img/object_images/shower_head01.jpg","img/object_images/keyboard02.jpg","img/object_images/Statue01.jpg","1","1","1","1","1","1","0.456477499974426","0.473949700011872","0.424320399994031","1","1","1","1","1","1","1","1","1"
"260067","img/object_images/Statue01.jpg","img/object_images/shower_head01.jpg","img/object_images/knife02.jpg","1","1","1","1","1","0","0.424320399994031","0.456477499974426","0.454127700009849","1","1","1","1","1","1","1","1","1"
"260067","img/object_images/knife02.jpg","img/object_images/Statue01.jpg","img/object_images/camera03.jpg","1","1","1","0","1","0","0.454127700009849","0.424320399994031","0.486814999952912","1","1","1","1","1","1","1","1","1"
"260067","img/object_images/camera03.jpg","img/object_images/knife02.jpg",NA,"1","1",NA,"0","0",NA,"0.486814999952912","0.454127700009849",NA,"1","1",NA,"1","1",NA,"1","1",NA
"260067","img/object_images/bottle09.jpg",NA,"img/object_images/bottle10.jpg","1",NA,"1","0",NA,"1","0.520753399992827",NA,"0.39297779998742","1",NA,"1","1",NA,"1","1",NA,"1"
"260067","img/object_images/bottle10.jpg","img/object_images/bottle09.jpg","img/object_images/wagon_cart03.jpg","1","1","1","1","0","1","0.39297779998742","0.520753399992827","0.40151540003717","1","1","1","1","1","1","1","1","1"
"260067","img/object_images/wagon_cart03.jpg","img/object_images/bottle10.jpg","img/object_images/fan02.jpg","1","1","1","1","1","0","0.40151540003717","0.39297779998742","0.496714399952907","1","1","1","1","1","1","1","1","1"
"260067","img/object_images/fan02.jpg","img/object_images/wagon_cart03.jpg","img/object_images/piggy_bank01.jpg","1","1","1","0","1","1","0.496714399952907","0.40151540003717","0.435885399987455","1","1","1","1","1","1","1","1","1"
"260067","img/object_images/piggy_bank01.jpg","img/object_images/fan02.jpg","img/object_images/scoreboard01.jpg","1","1","1","1","0","1","0.435885399987455","0.496714399952907","0.403947500046343","1","1","1","1","1","1","1","1","1"
"260067","img/object_images/scoreboard01.jpg","img/object_images/piggy_bank01.jpg","img/object_images/bean_bag02.jpg","1","1","1","1","1","1","0.403947500046343","0.435885399987455","0.48504610004602","1","1","1","1","1","1","1","1","1"
"260067","img/object_images/bean_bag02.jpg","img/object_images/scoreboard01.jpg","img/object_images/water_scooter01.jpg","1","1","1","1","1","1","0.48504610004602","0.403947500046343","0.401418900000863","1","1","1","1","1","1","1","1","1"
"260067","img/object_images/water_scooter01.jpg","img/object_images/bean_bag02.jpg","img/object_images/flask01.jpg","1","1","1","1","1","0","0.401418900000863","0.48504610004602","0.437738800013904","1","1","1","1","1","1","1","1","1"
"260067","img/object_images/flask01.jpg","img/object_images/water_scooter01.jpg","img/object_images/purse04.jpg","1","1","1","0","1","1","0.437738800013904","0.401418900000863","0.495427899993956","1","1","1","1","1","1","1","1","1"
"260067","img/object_images/purse04.jpg","img/object_images/flask01.jpg","img/object_images/pen05.jpg","1","1","1","1","0","0","0.495427899993956","0.437738800013904","0.415492200001609","1","1","1","1","1","1","1","1","1"
"260067","img/object_images/pen05.jpg","img/object_images/purse04.jpg","img/object_images/WoodBox01.jpg","1","1","1","0","1","0","0.415492200001609","0.495427899993956","0.432106599968392","1","1","1","1","1","1","1","1","1"
"260067","img/object_images/WoodBox01.jpg","img/object_images/pen05.jpg","img/object_images/boat_toy10.jpg","1","1","1","0","0","0","0.432106599968392","0.415492200001609","0.414010799955577","1","1","1","1","1","1","1","1","1"
"260067","img/object_images/boat_toy10.jpg","img/object_images/WoodBox01.jpg","img/object_images/hot_air_balloon02.jpg","1","1","1","0","0","0","0.414010799955577","0.432106599968392","0.463515999959782","1","1","1","1","1","1","1","1","1"
"260067","img/object_images/hot_air_balloon02.jpg","img/object_images/boat_toy10.jpg","img/object_images/cellphone03.jpg","1","1","1","0","0","0","0.463515999959782","0.414010799955577","0.430579700041562","1","1","1","1","1","1","1","1","1"
"260067","img/object_images/cellphone03.jpg","img/object_images/hot_air_balloon02.jpg","img/object_images/helmet04.jpg","1","1","1","0","0","1","0.430579700041562","0.463515999959782","0.463877400034107","1","1","1","1","1","1","1","1","1"
"260067","img/object_images/helmet04.jpg","img/object_images/cellphone03.jpg","img/object_images/hat06.jpg","1","1","1","1","0","0","0.463877400034107","0.430579700041562","0.421072400000412","1","1","1","1","1","1","1","1","1"
"260067","img/object_images/hat06.jpg","img/object_images/helmet04.jpg","img/object_images/chair03.jpg","1","1","1","0","1","0","0.421072400000412","0.463877400034107","0.449100900033954","1","1","1","1","1","1","1","1","1"
"260067","img/object_images/chair03.jpg","img/object_images/hat06.jpg","img/object_images/audio_port01.jpg","1","1","1","0","0","1","0.449100900033954","0.421072400000412","0.445366900006775","1","1","1","1","1","1","1","1","1"
"260067","img/object_images/audio_port01.jpg","img/object_images/chair03.jpg","img/object_images/coloring_pencil02.jpg","1","1","1","1","0","0","0.445366900006775","0.449100900033954","0.692244400037453","1","1","1","1","1","1","1","1","1"
"260067","img/object_images/coloring_pencil02.jpg","img/object_images/audio_port01.jpg","img/object_images/bicycle01.jpg","1","1","1","0","1","1","0.692244400037453","0.445366900006775","0.387460500001907","1","1","1","1","1","1","1","1","1"
"260067","img/object_images/bicycle01.jpg","img/object_images/coloring_pencil02.jpg","img/object_images/knit01.jpg","1","1","1","1","0","0","0.387460500001907","0.692244400037453","0.4136118000024","1","1","1","1","1","1","1","1","1"
"260067","img/object_images/knit01.jpg","img/object_images/bicycle01.jpg","img/object_images/tool19.jpg","1","1","1","0","1","1","0.4136118000024","0.387460500001907","0.438688700029161","1","1","1","1","1","1","1","1","1"
"260067","img/object_images/tool19.jpg","img/object_images/knit01.jpg","img/object_images/toaster01.jpg","1","1","1","1","0","1","0.438688700029161","0.4136118000024","0.435786199988797","1","1","1","1","1","1","1","1","1"
"260067","img/object_images/toaster01.jpg","img/object_images/tool19.jpg","img/object_images/dog_leash01.jpg","1","1","1","1","1","0","0.435786199988797","0.438688700029161","0.569290700019337","1","1","1","1","1","1","1","1","1"
"260067","img/object_images/dog_leash01.jpg","img/object_images/toaster01.jpg","img/object_images/bottle02.jpg","1","1","1","0","1","1","0.569290700019337","0.435786199988797","0.369229600008111","1","1","1","1","1","1","1","1","1"
"260067","img/object_images/bottle02.jpg","img/object_images/dog_leash01.jpg","img/object_images/perfume02.jpg","1","1","1","1","0","0","0.369229600008111","0.569290700019337","0.537516099982895","1","1","1","1","1","1","1","1","1"
"260067","img/object_images/perfume02.jpg","img/object_images/bottle02.jpg","img/object_images/camera_lens01.jpg","1","1","1","0","1","1","0.537516099982895","0.369229600008111","0.46243900002446","1","1","1","1","1","1","1","1","1"
"260067","img/object_images/camera_lens01.jpg","img/object_images/perfume02.jpg","img/object_images/shoes07.jpg","1","1","1","1","0","0","0.46243900002446","0.537516099982895","0.503606399986893","1","1","1","1","1","1","1","1","1"
"260067","img/object_images/shoes07.jpg","img/object_images/camera_lens01.jpg","img/object_images/tie02.jpg","1","1","1","0","1","0","0.503606399986893","0.46243900002446","0.675030100042932","1","1","1","1","1","1","1","1","1"
"260067","img/object_images/tie02.jpg","img/object_images/shoes07.jpg","img/object_images/boat02.jpg","1","1","1","0","0","1","0.675030100042932","0.503606399986893","0.496648099971935","1","1","1","1","1","1","1","1","1"
"260067","img/object_images/boat02.jpg","img/object_images/tie02.jpg","img/object_images/toilet_paper_dispenser01.jpg","1","1","1","1","0","1","0.496648099971935","0.675030100042932","0.466493800049648","1","1","1","1","1","1","1","1","1"
"260067","img/object_images/toilet_paper_dispenser01.jpg","img/object_images/boat02.jpg",NA,"1","1",NA,"1","1",NA,"0.466493800049648","0.496648099971935",NA,"1","1",NA,"1","1",NA,"1","1",NA
"260067","img/object_images/soap01.jpg",NA,"img/object_images/toy_train02.jpg","1",NA,"1","0",NA,"1","0.595321300032083",NA,"0.431752600008622","1",NA,"1","1",NA,"1","1",NA,"1"
"260067","img/object_images/toy_train02.jpg","img/object_images/soap01.jpg","img/object_images/helmet05.jpg","1","1","1","1","0","1","0.431752600008622","0.595321300032083","0.412019600044005","1","1","1","1","1","1","1","1","1"
"260067","img/object_images/helmet05.jpg","img/object_images/toy_train02.jpg","img/object_images/lantern01.jpg","1","1","1","1","1","1","0.412019600044005","0.431752600008622","0.399063799995929","1","1","1","1","1","1","1","1","1"
"260067","img/object_images/lantern01.jpg","img/object_images/helmet05.jpg","img/object_images/airfryer01.jpg","1","1","1","1","1","0","0.399063799995929","0.412019600044005","0.368034299986903","1","1","1","1","1","1","1","1","1"
"260067","img/object_images/airfryer01.jpg","img/object_images/lantern01.jpg","img/object_images/basketball_hoop02.jpg","1","1","1","0","1","0","0.368034299986903","0.399063799995929","0.454027200001292","1","1","1","1","1","1","1","1","1"
"260067","img/object_images/basketball_hoop02.jpg","img/object_images/airfryer01.jpg","img/object_images/Woopie01.jpg","1","1","1","0","0","1","0.454027200001292","0.368034299986903","0.426541399967391","1","1","1","1","1","1","1","1","1"
"260067","img/object_images/Woopie01.jpg","img/object_images/basketball_hoop02.jpg","img/object_images/drone02.jpg","1","1","1","1","0","0","0.426541399967391","0.454027200001292","0.442730300012045","1","1","1","1","1","1","1","1","1"
"260067","img/object_images/drone02.jpg","img/object_images/Woopie01.jpg","img/object_images/brief_case01.jpg","1","1","1","0","1","0","0.442730300012045","0.426541399967391","0.503315300040413","1","1","1","1","1","1","1","1","1"
"260067","img/object_images/brief_case01.jpg","img/object_images/drone02.jpg","img/object_images/video_game06.jpg","1","1","1","0","0","0","0.503315300040413","0.442730300012045","0.574876400001813","1","1","1","1","1","1","1","1","1"
"260067","img/object_images/video_game06.jpg","img/object_images/brief_case01.jpg","img/object_images/ball01.jpg","1","1","1","0","0","1","0.574876400001813","0.503315300040413","0.421837100002449","1","1","1","1","1","1","1","1","1"
"260067","img/object_images/ball01.jpg","img/object_images/video_game06.jpg","img/object_images/decorative02.jpg","1","1","1","1","0","0","0.421837100002449","0.574876400001813","0.415349400020204","1","1","1","1","1","1","1","1","1"
"260067","img/object_images/decorative02.jpg","img/object_images/ball01.jpg","img/object_images/guitar01.jpg","1","1","1","0","1","1","0.415349400020204","0.421837100002449","0.417248699988704","1","1","1","1","1","1","1","1","1"
"260067","img/object_images/guitar01.jpg","img/object_images/decorative02.jpg","img/object_images/chair01.jpg","1","1","1","1","0","0","0.417248699988704","0.415349400020204","0.471531699993648","1","1","1","1","1","1","1","1","1"
"260067","img/object_images/chair01.jpg","img/object_images/guitar01.jpg","img/object_images/lamp01.jpg","1","1","1","0","1","1","0.471531699993648","0.417248699988704","0.421158900018781","1","1","1","1","1","1","1","1","1"
"260067","img/object_images/lamp01.jpg","img/object_images/chair01.jpg","img/object_images/container01.jpg","1","1","1","1","0","0","0.421158900018781","0.471531699993648","0.499941400019452","1","1","1","1","1","1","1","1","1"
"260067","img/object_images/container01.jpg","img/object_images/lamp01.jpg","img/object_images/Recycling01.jpg","1","1","1","0","1","1","0.499941400019452","0.421158900018781","0.430685599974822","1","1","1","1","1","1","1","1","1"
"260067","img/object_images/Recycling01.jpg","img/object_images/container01.jpg","img/object_images/pot01.jpg","1","1","1","1","0","0","0.430685599974822","0.499941400019452","0.46508370002266","1","1","1","1","1","1","1","1","1"
"260067","img/object_images/pot01.jpg","img/object_images/Recycling01.jpg","img/object_images/razor03.jpg","1","1","1","0","1","0","0.46508370002266","0.430685599974822","0.561181000026409","1","1","1","1","1","1","1","1","1"
"260067","img/object_images/razor03.jpg","img/object_images/pot01.jpg","img/object_images/pitcher03.jpg","1","1","1","0","0","1","0.561181000026409","0.46508370002266","0.409334899974056","1","1","1","1","1","1","1","1","1"
"260067","img/object_images/pitcher03.jpg","img/object_images/razor03.jpg","img/object_images/toilet_paper01.jpg","1","1","1","1","0","1","0.409334899974056","0.561181000026409","0.471252800023649","1","1","1","1","1","1","1","1","1"
"260067","img/object_images/toilet_paper01.jpg","img/object_images/pitcher03.jpg","img/object_images/gloves05.jpg","1","1","1","1","1","1","0.471252800023649","0.409334899974056","0.381044299982022","1","1","1","1","1","1","1","1","1"
"260067","img/object_images/gloves05.jpg","img/object_images/toilet_paper01.jpg","img/object_images/ironing_table02.jpg","1","1","1","1","1","0","0.381044299982022","0.471252800023649","0.45136820001062","1","1","1","1","1","1","1","1","1"
"260067","img/object_images/ironing_table02.jpg","img/object_images/gloves05.jpg","img/object_images/couch04.jpg","1","1","1","0","1","1","0.45136820001062","0.381044299982022","0.387625000032131","1","1","1","1","1","1","1","1","1"
"260067","img/object_images/couch04.jpg","img/object_images/ironing_table02.jpg","img/object_images/broom01.jpg","1","1","1","1","0","1","0.387625000032131","0.45136820001062","0.379912000033073","1","1","1","1","1","1","1","1","1"
"260067","img/object_images/broom01.jpg","img/object_images/couch04.jpg","img/object_images/tie01.jpg","1","1","1","1","1","0","0.379912000033073","0.387625000032131","0.469452799996361","1","1","1","1","1","1","1","1","1"
"260067","img/object_images/tie01.jpg","img/object_images/broom01.jpg","img/object_images/brief_case02.jpg","1","1","1","0","1","1","0.469452799996361","0.379912000033073","0.494509999989532","1","1","1","1","1","1","1","1","1"
"260067","img/object_images/brief_case02.jpg","img/object_images/tie01.jpg","img/object_images/hat02.jpg","1","1","1","1","0","0","0.494509999989532","0.469452799996361","0.421865799988154","1","1","1","1","1","1","1","1","1"
"260067","img/object_images/hat02.jpg","img/object_images/brief_case02.jpg","img/object_images/Wisk01.jpg","1","1","1","0","1","1","0.421865799988154","0.494509999989532","0.434627700014971","1","1","1","1","1","1","1","1","1"
"260067","img/object_images/Wisk01.jpg","img/object_images/hat02.jpg","img/object_images/car02.jpg","1","1","1","1","0","0","0.434627700014971","0.421865799988154","0.466506100026891","1","1","1","1","1","1","1","1","1"
"260067","img/object_images/car02.jpg","img/object_images/Wisk01.jpg","img/object_images/cochlear_implant01.jpg","1","1","1","0","1","0","0.466506100026891","0.434627700014971","0.486616900016088","1","1","1","1","1","1","1","1","1"
"260067","img/object_images/cochlear_implant01.jpg","img/object_images/car02.jpg","img/object_images/bottle12.jpg","1","1","1","0","0","1","0.486616900016088","0.466506100026891","0.376183399988804","1","1","1","1","1","1","1","1","1"
"260067","img/object_images/bottle12.jpg","img/object_images/cochlear_implant01.jpg",NA,"1","1",NA,"1","0",NA,"0.376183399988804","0.486616900016088",NA,"1","1",NA,"1","1",NA,"1","1",NA
"260067","img/object_images/glasses03.jpg",NA,"img/object_images/clipboard01.jpg","1",NA,"1","0",NA,"1","0.474846299970523",NA,"0.36943900003098","1",NA,"1","1",NA,"1","1",NA,"1"
"260067","img/object_images/clipboard01.jpg","img/object_images/glasses03.jpg","img/object_images/ruler02.jpg","1","1","1","1","0","1","0.36943900003098","0.474846299970523","0.400113899959251","1","1","1","1","1","1","1","1","1"
"260067","img/object_images/ruler02.jpg","img/object_images/clipboard01.jpg","img/object_images/sink_filter01 (1).jpg","1","1","1","1","1","0","0.400113899959251","0.36943900003098","0.438669900002424","1","1","1","1","1","1","1","1","1"
"260067","img/object_images/sink_filter01 (1).jpg","img/object_images/ruler02.jpg","img/object_images/Candle_Holder01.jpg","1","1","1","0","1","0","0.438669900002424","0.400113899959251","0.349086300004274","1","1","1","1","1","1","1","1","1"
"260067","img/object_images/Candle_Holder01.jpg","img/object_images/sink_filter01 (1).jpg","img/object_images/sign02.jpg","1","1","1","0","0","0","0.349086300004274","0.438669900002424","0.449172399996314","1","1","1","1","1","1","1","1","1"
"260067","img/object_images/sign02.jpg","img/object_images/Candle_Holder01.jpg","img/object_images/bow_tie03.jpg","1","1","1","0","0","1","0.449172399996314","0.349086300004274","0.518256800016388","1","1","1","1","1","1","1","1","1"
"260067","img/object_images/bow_tie03.jpg","img/object_images/sign02.jpg","img/object_images/cup01.jpg","1","1","1","1","0","0","0.518256800016388","0.449172399996314","0.522267799999099","1","1","1","1","1","1","1","1","1"
"260067","img/object_images/cup01.jpg","img/object_images/bow_tie03.jpg","img/object_images/lemon_squeezer01.jpg","1","1","1","0","1","1","0.522267799999099","0.518256800016388","0.385033300030045","1","1","1","1","1","1","1","1","1"
"260067","img/object_images/lemon_squeezer01.jpg","img/object_images/cup01.jpg","img/object_images/perfume01.jpg","1","1","1","1","0","0","0.385033300030045","0.522267799999099","0.518618300033268","1","1","1","1","1","1","1","1","1"
"260067","img/object_images/perfume01.jpg","img/object_images/lemon_squeezer01.jpg","img/object_images/knife01.jpg","1","1","1","0","1","1","0.518618300033268","0.385033300030045","0.537442900007591","1","1","1","1","1","1","1","1","1"
"260067","img/object_images/knife01.jpg","img/object_images/perfume01.jpg","img/object_images/socks01.jpg","1","1","1","1","0","1","0.537442900007591","0.518618300033268","0.389582100033294","1","1","1","1","1","1","1","1","1"
"260067","img/object_images/socks01.jpg","img/object_images/knife01.jpg","img/object_images/Confetti 01.jpg","1","1","1","1","1","0","0.389582100033294","0.537442900007591","0.422540300001856","1","1","1","1","1","1","1","1","1"
"260067","img/object_images/Confetti 01.jpg","img/object_images/socks01.jpg","img/object_images/duster01.jpg","1","1","1","0","1","0","0.422540300001856","0.389582100033294","0.496352999994997","1","1","1","1","1","1","1","1","1"
"260067","img/object_images/duster01.jpg","img/object_images/Confetti 01.jpg","img/object_images/bag04.jpg","1","1","1","0","0","0","0.496352999994997","0.422540300001856","0.415134100010619","1","1","1","1","1","1","1","1","1"
"260067","img/object_images/bag04.jpg","img/object_images/duster01.jpg","img/object_images/vase02.jpg","1","1","1","0","0","1","0.415134100010619","0.496352999994997","0.380706000025384","1","1","1","1","1","1","1","1","1"
"260067","img/object_images/vase02.jpg","img/object_images/bag04.jpg","img/object_images/pan03.jpg","1","1","1","1","0","1","0.380706000025384","0.415134100010619","0.394469499995466","1","1","1","1","1","1","1","1","1"
"260067","img/object_images/pan03.jpg","img/object_images/vase02.jpg","img/object_images/camera05.jpg","1","1","1","1","1","0","0.394469499995466","0.380706000025384","0.510350000055041","1","1","1","1","1","1","1","1","1"
"260067","img/object_images/camera05.jpg","img/object_images/pan03.jpg","img/object_images/candle02.jpg","1","1","1","0","1","0","0.510350000055041","0.394469499995466","0.44887690001633","1","1","1","1","1","1","1","1","1"
"260067","img/object_images/candle02.jpg","img/object_images/camera05.jpg","img/object_images/video_game02.jpg","1","1","1","0","0","1","0.44887690001633","0.510350000055041","0.39405290002469","1","1","1","1","1","1","1","1","1"
"260067","img/object_images/video_game02.jpg","img/object_images/candle02.jpg","img/object_images/dust_pan01.jpg","1","1","1","1","0","1","0.39405290002469","0.44887690001633","0.563019499997608","1","1","1","1","1","1","1","1","1"
"260067","img/object_images/dust_pan01.jpg","img/object_images/video_game02.jpg","img/object_images/spray_can01.jpg","1","1","1","1","1","0","0.563019499997608","0.39405290002469","0.50832470000023","1","1","1","1","1","1","1","1","1"
"260067","img/object_images/spray_can01.jpg","img/object_images/dust_pan01.jpg","img/object_images/razor02.jpg","1","1","1","0","1","1","0.50832470000023","0.563019499997608","0.420032199996058","1","1","1","1","1","1","1","1","1"
"260067","img/object_images/razor02.jpg","img/object_images/spray_can01.jpg","img/object_images/office_supplies01.jpg","1","1","1","1","0","1","0.420032199996058","0.50832470000023","0.411912699986715","1","1","1","1","1","1","1","1","1"
"260067","img/object_images/office_supplies01.jpg","img/object_images/razor02.jpg","img/object_images/hammer02.jpg","1","1","1","1","1","0","0.411912699986715","0.420032199996058","0.482447299989872","1","1","1","1","1","1","1","1","1"
"260067","img/object_images/hammer02.jpg","img/object_images/office_supplies01.jpg","img/object_images/hat13.jpg","1","1","1","0","1","1","0.482447299989872","0.411912699986715","0.397352100000717","1","1","1","1","1","1","1","1","1"
"260067","img/object_images/hat13.jpg","img/object_images/hammer02.jpg","img/object_images/pen06.jpg","1","1","1","1","0","0","0.397352100000717","0.482447299989872","0.465624600008596","1","1","1","1","1","1","1","1","1"
"260067","img/object_images/pen06.jpg","img/object_images/hat13.jpg","img/object_images/hat09.jpg","1","1","1","0","1","0","0.465624600008596","0.397352100000717","0.538315100013278","1","1","1","1","1","1","1","1","1"
"260067","img/object_images/hat09.jpg","img/object_images/pen06.jpg","img/object_images/tool20.jpg","1","1","1","0","0","0","0.538315100013278","0.465624600008596","0.455480300006457","1","1","1","1","1","1","1","1","1"
"260067","img/object_images/tool20.jpg","img/object_images/hat09.jpg","img/object_images/board01.jpg","1","1","1","0","0","1","0.455480300006457","0.538315100013278","0.411073399998713","1","1","1","1","1","1","1","1","1"
"260067","img/object_images/board01.jpg","img/object_images/tool20.jpg","img/object_images/floss01.jpg","1","1","1","1","0","1","0.411073399998713","0.455480300006457","0.393154999997932","1","1","1","1","1","1","1","1","1"
"260067","img/object_images/floss01.jpg","img/object_images/board01.jpg","img/object_images/tool13.jpg","1","1","1","1","1","1","0.393154999997932","0.411073399998713","0.523826299991924","1","1","1","1","1","1","1","1","1"
"260067","img/object_images/tool13.jpg","img/object_images/floss01.jpg",NA,"1","1",NA,"1","1",NA,"0.523826299991924","0.393154999997932",NA,"1","1",NA,"1","1",NA,"1","1",NA
