"participant_id","object","surpAcc","memory_surp_responses","memory_surp_rt","keep_surp_memory_trial_based_on_rt","surp_block_num","exclude_block","number_of_surp_resp_items_used","num_blocks_excluded"
"260010","img/object_images/sink01.jpg","0","k","4.9107695000057",1,1,0,2,0
"260010","img/object_images/Vest02.jpg","1","k","1.08641500000522",1,1,0,2,0
"260010","img/object_images/ToolBag01.jpg","0","k","2.08458650000102",1,1,0,2,0
"260010","img/object_images/brief_case02.jpg","1","s","2.64251830000285",1,1,0,2,0
"260010","img/object_images/vase01.jpg","1","k","1.09637999999541",1,1,0,2,0
"260010","img/object_images/dress03.jpg","1","s","1.0076629000032",1,1,0,2,0
"260010","img/object_images/video_game02.jpg","0","k","2.34877220000635",1,1,0,2,0
"260010","img/object_images/microphone03.jpg","1","k","1.13267340000311",1,1,0,2,0
"260010","img/object_images/book03.jpg","1","k","1.32315770000423",1,1,0,2,0
"260010","img/object_images/Lint_Roller02.jpg","1","s","1.27497830000357",1,1,0,2,0
"260010","img/object_images/ornament01.jpg","1","s","0.865440600005968",1,1,0,2,0
"260010","img/object_images/WoodBox01.jpg","0","s","1.28966229999787",1,1,0,2,0
"260010","img/object_images/key02.jpg","1","k","1.40825490000134",1,1,0,2,0
"260010","img/object_images/boat04.jpg","0","s","1.45632019999903",1,1,0,2,0
"260010","img/object_images/MetalWire01.jpg","1","k","1.16711919999943",1,1,0,2,0
"260010","img/object_images/hair_brush02.jpg","1","s","1.75451420000172",1,1,0,2,0
"260010","img/object_images/perfume02.jpg","1","k","1.08118720000493",1,1,0,2,0
"260010","img/object_images/crown02.jpg","1","k","1.00945810000121",1,1,0,2,0
"260010","img/object_images/bow_tie01.jpg","0","s","3.78161890000047",1,1,0,2,0
"260010","img/object_images/tv01.jpg","1","k","1.64560930000152",1,1,0,2,0
"260010","img/object_images/cellphone03.jpg","1","s","1.05605880000076",1,1,0,2,0
"260010","img/object_images/flashlight03.jpg","0","s","1.38971010000387",1,1,0,2,0
"260010","img/object_images/scarf01.jpg","1","s","0.945471899998665",1,1,0,2,0
"260010","img/object_images/ruler02.jpg","1","s","0.735030400006508",1,1,0,2,0
"260010","img/object_images/broom01.jpg","0","k","5.19516889999795",1,1,0,2,0
"260010","img/object_images/purse04.jpg","1","k","1.070269799995",1,1,0,2,0
"260010","img/object_images/jewel04.jpg","0","s","2.33251490000112",1,1,0,2,0
"260010","img/object_images/bow_tie03.jpg","1","s","1.04651060000469",1,1,0,2,0
"260010","img/object_images/pen03.jpg","1","k","1.1087034000011",1,1,0,2,0
"260010","img/object_images/pot01.jpg","1","k","0.962908100002096",1,1,0,2,0
"260010","img/object_images/matches02.jpg","1","s","1.19548600000417",1,1,0,2,0
"260010","img/object_images/bottle05.jpg","1","k","0.857501899998169",1,1,0,2,0
"260010","img/object_images/knife04.jpg","1","s","1.66565919999994",1,1,0,2,0
"260010","img/object_images/pitcher02.jpg","1","s","1.0784316000063",1,1,0,2,0
"260010","img/object_images/toaster01.jpg","0","s","1.23453889999655",1,1,0,2,0
"260010","img/object_images/knit05.jpg","1","s","0.889951199998904",1,1,0,2,0
"260010","img/object_images/razor01.jpg","1","k","1.02330090000032",1,1,0,2,0
"260010","img/object_images/shower_head01.jpg","1","s","1.5572328000053",1,1,0,2,0
"260010","img/object_images/fan01.jpg","1","k","1.17682060000516",1,1,0,2,0
"260010","img/object_images/guitar02.jpg","1","s","0.876604600001883",1,1,0,2,0
"260010","img/object_images/mask01.jpg","0","s","1.43452539999998",1,1,0,2,0
"260010","img/object_images/Traffic Sign 01.jpg","0","k","0.868603000002622",1,1,0,2,0
"260010","img/object_images/Thermometer01.jpg","1","k","1.02654030000122",1,1,0,2,0
"260010","img/object_images/knife01.jpg","1","s","1.0758474999966",1,1,0,2,0
"260010","img/object_images/bird_house02.jpg","1","s","0.98695520000183",1,1,0,2,0
"260010","img/object_images/knife02.jpg","1","k","1.92834679999942",1,1,0,2,0
"260010","img/object_images/accardion01.jpg","1","k","1.29889050000202",1,1,0,2,0
"260010","img/object_images/clip02.jpg","1","s","0.79617380000127",1,1,0,2,0
"260010","img/object_images/gauze01.jpg","1","s","1.18292389999988",1,2,0,2,0
"260010","img/object_images/knit01.jpg","1","s","0.999911599996267",1,2,0,2,0
"260010","img/object_images/lemon_squeezer02.jpg","1","k","1.0532572000011",1,2,0,2,0
"260010","img/object_images/curtain02.jpg","1","k","0.787216400000034",1,2,0,2,0
"260010","img/object_images/dice01.jpg","1","k","0.811306400006288",1,2,0,2,0
"260010","img/object_images/pen05.jpg","1","k","1.221755700004",1,2,0,2,0
"260010","img/object_images/vase02.jpg","1","s","1.00454860000173",1,2,0,2,0
"260010","img/object_images/pan01.jpg","1","s","0.945702500001062",1,2,0,2,0
"260010","img/object_images/toothbrush01.jpg","1","k","0.812677299996722",1,2,0,2,0
"260010","img/object_images/hat13.jpg","1","s","1.02294980000443",1,2,0,2,0
"260010","img/object_images/bath_tub01.jpg","1","s","1.12269560000277",1,2,0,2,0
"260010","img/object_images/pitcher01.jpg","1","k","1.031081000001",1,2,0,2,0
"260010","img/object_images/backpack01.jpg","1","k","1.65565530000458",1,2,0,2,0
"260010","img/object_images/projector01.jpg","1","s","0.903677600006631",1,2,0,2,0
"260010","img/object_images/helmet01.jpg","1","s","0.709004800002731",1,2,0,2,0
"260010","img/object_images/ball02.jpg","0","k","0.673471200003405",1,2,0,2,0
"260010","img/object_images/WitchHat02.jpg","0","k","0.778693600004772",1,2,0,2,0
"260010","img/object_images/ear_bud01.jpg","1","s","1.00374849999935",1,2,0,2,0
"260010","img/object_images/retainer01.jpg","1","s","1.04632050000509",1,2,0,2,0
"260010","img/object_images/board01.jpg","1","s","1.41109020000295",1,2,0,2,0
"260010","img/object_images/slinky_toy01.jpg","1","s","0.739258500005235",1,2,0,2,0
"260010","img/object_images/tool11.jpg","1","s","1.20981780000147",1,2,0,2,0
"260010","img/object_images/crutches02.jpg","1","s","1.22224670000287",1,2,0,2,0
"260010","img/object_images/hole_puncher01.jpg","0","s","1.26416620000236",1,2,0,2,0
"260010","img/object_images/robe01.jpg","1","s","0.613978100001987",1,2,0,2,0
"260010","img/object_images/clip04.jpg","1","s","1.30282420000003",1,2,0,2,0
"260010","img/object_images/TreeSlice01.jpg","1","k","1.54209630000696",1,2,0,2,0
"260010","img/object_images/trash_can05.jpg","0","k","0.767440200004785",1,2,0,2,0
"260010","img/object_images/Witchhat01.jpg","1","s","0.595428500004346",1,2,0,2,0
"260010","img/object_images/tool07.jpg","0","s","1.56561640000291",1,2,0,2,0
"260010","img/object_images/ironing_table01.jpg","1","k","1.53968979999627",1,2,0,2,0
"260010","img/object_images/microscope01.jpg","1","k","1.6022460000022",1,2,0,2,0
"260010","img/object_images/soap01.jpg","0","k","1.09456430000137",1,2,0,2,0
"260010","img/object_images/gift_box02.jpg","0","k","1.22342260000005",1,2,0,2,0
"260010","img/object_images/surf_board01.jpg","0","k","1.20854520000285",1,2,0,2,0
"260010","img/object_images/ice_tray03.jpg","1","k","1.14267220000329",1,2,0,2,0
"260010","img/object_images/tie02.jpg","0","s","1.26525170000241",1,2,0,2,0
"260010","img/object_images/hammer03.jpg","1","s","1.52644169999985",1,2,0,2,0
"260010","img/object_images/tripod01.jpg","0","s","1.03788670000358",1,2,0,2,0
"260010","img/object_images/pen01.jpg","0","k","0.637519700001576",1,2,0,2,0
"260010","img/object_images/acoustic_capo01.jpg","0","s","0.672533200006001",1,2,0,2,0
"260010","img/object_images/mail_box02.jpg","0","s","0.638284000000567",1,2,0,2,0
"260010","img/object_images/boat_toy10.jpg","0","k","0.823861299999407",1,2,0,2,0
"260010","img/object_images/glasses03.jpg","1","s","0.937032700006966",1,2,0,2,0
"260010","img/object_images/note_book02.jpg","0","k","0.885348600000725",1,2,0,2,0
"260010","img/object_images/wallet02.jpg","1","k","0.860695199997281",1,2,0,2,0
"260010","img/object_images/lemon_squeezer01.jpg","1","k","0.917243800002325",1,2,0,2,0
"260010","img/object_images/airfryer01.jpg","0","k","0.834758899996814",1,2,0,2,0
"260010","img/object_images/stereo02.jpg","0","s","1.00061690000439",1,3,0,2,0
"260010","img/object_images/combs01.jpg","1","k","0.729660200006037",1,3,0,2,0
"260010","img/object_images/Violin01.jpg","1","s","0.59606370000256",1,3,0,2,0
"260010","img/object_images/shovel01.jpg","1","s","0.681610800005728",1,3,0,2,0
"260010","img/object_images/water_gun01.jpg","1","k","0.697533500002464",1,3,0,2,0
"260010","img/object_images/bucket02.jpg","0","s","0.628449499999988",1,3,0,2,0
"260010","img/object_images/Ring02.jpg","0","k","0.902420899998106",1,3,0,2,0
"260010","img/object_images/computer_mouse01.jpg","1","k","0.890833000004932",1,3,0,2,0
"260010","img/object_images/toy08.jpg","0","k","2.5071248000022",1,3,0,2,0
"260010","img/object_images/bookmark01.jpg","0","s","1.07356430000073",1,3,0,2,0
"260010","img/object_images/tool08.jpg","1","s","0.721992200000386",1,3,0,2,0
"260010","img/object_images/book01.jpg","0","k","0.90484390000347",1,3,0,2,0
"260010","img/object_images/bag04.jpg","1","s","0.751753600001393",1,3,0,2,0
"260010","img/object_images/yarn02.jpg","1","s","0.8006785999969",1,3,0,2,0
"260010","img/object_images/book02.jpg","1","k","0.790509700003895",1,3,0,2,0
"260010","img/object_images/bottle02.jpg","0","s","1.28126340000017",1,3,0,2,0
"260010","img/object_images/spatula02.jpg","0","k","1.47282730000006",1,3,0,2,0
"260010","img/object_images/exfoliater_brush01.jpg","1","k","0.88049289999617",1,3,0,2,0
"260010","img/object_images/video_game06.jpg","0","s","0.603173399998923",1,3,0,2,0
"260010","img/object_images/Candle_Holder01.jpg","1","s","0.817007199999352",1,3,0,2,0
"260010","img/object_images/fan04.jpg","0","k","0.794581800000742",1,3,0,2,0
"260010","img/object_images/bottle12.jpg","1","s","0.877780100003292",1,3,0,2,0
"260010","img/object_images/note_book01.jpg","0","k","0.907772999998997",1,3,0,2,0
"260010","img/object_images/candle02.jpg","1","k","0.789062299998477",1,3,0,2,0
"260010","img/object_images/origami01.jpg","0","s","1.10526229999959",1,3,0,2,0
"260010","img/object_images/clock02.jpg","0","k","1.4605315000008",1,3,0,2,0
"260010","img/object_images/floppy_disk02.jpg","0","k","0.671072999997705",1,3,0,2,0
"260010","img/object_images/Tin01.jpg","1","k","1.15015769999445",1,3,0,2,0
"260010","img/object_images/basket02.jpg","1","s","1.20232260000193",1,3,0,2,0
"260010","img/object_images/lock03.jpg","0","s","1.19820949999848",1,3,0,2,0
"260010","img/object_images/trumpet01.jpg","1","s","1.03471790000185",1,3,0,2,0
"260010","img/object_images/dog_leash01.jpg","0","s","0.595032300007006",1,3,0,2,0
"260010","img/object_images/backpack03.jpg","1","k","0.557208999998693",1,3,0,2,0
"260010","img/object_images/kite01.jpg","0","s","0.689587100001518",1,3,0,2,0
"260010","img/object_images/toy_train02.jpg","0","k","1.4771194000059",1,3,0,2,0
"260010","img/object_images/camera05.jpg","1","s","0.703339300001971",1,3,0,2,0
"260010","img/object_images/jewelry01.jpg","0","k","1.01257420000184",1,3,0,2,0
"260010","img/object_images/toy01.jpg","1","s","1.42500719999953",1,3,0,2,0
"260010","img/object_images/hoverboard01.jpg","1","k","0.728414500001236",1,3,0,2,0
"260010","img/object_images/TrashCan02.jpg","0","k","1.1111865999992",1,3,0,2,0
"260010","img/object_images/sleeping_bag01.jpg","0","k","1.58380210000178",1,3,0,2,0
"260010","img/object_images/toy03.jpg","0","k","1.02529789999971",1,3,0,2,0
"260010","img/object_images/blender01.jpg","0","k","1.1271607000017",1,3,0,2,0
"260010","img/object_images/audio_port01.jpg","0","k","0.512208699998155",1,3,0,2,0
"260010","img/object_images/sink_filter01 (1).jpg","1","k","0.749634400002833",1,3,0,2,0
"260010","img/object_images/gloves05.jpg","1","s","0.660529300002963",1,3,0,2,0
"260010","img/object_images/tool02.jpg","0","s","1.06167730000016",1,3,0,2,0
"260010","img/object_images/MeasuringCup01.jpg","1","s","0.897448700008681",1,3,0,2,0
"260010","img/object_images/piggy_bank01.jpg","1","s","0.675343299997621",1,4,0,2,0
"260010","img/object_images/Staples01.jpg","1","s","0.587896199998795",1,4,0,2,0
"260010","img/object_images/flask01.jpg","1","s","0.617506800001138",1,4,0,2,0
"260010","img/object_images/bottle09.jpg","0","s","1.0512227000072",1,4,0,2,0
"260010","img/object_images/chess_piece02.jpg","1","k","0.855332000006456",1,4,0,2,0
"260010","img/object_images/hammer01.jpg","0","s","0.908316200002446",1,4,0,2,0
"260010","img/object_images/bottle01.jpg","1","s","0.682914099998015",1,4,0,2,0
"260010","img/object_images/tool18.jpg","0","s","0.826496299996506",1,4,0,2,0
"260010","img/object_images/chain01.jpg","0","k","0.778918500007421",1,4,0,2,0
"260010","img/object_images/Statue01.jpg","1","s","0.920253000003868",1,4,0,2,0
"260010","img/object_images/Trowel01.jpg","0","s","0.985949400004756",1,4,0,2,0
"260010","img/object_images/hair_brush05.jpg","1","k","1.30365090000123",1,4,0,2,0
"260010","img/object_images/lighter01.jpg","1","s","1.2172428000049",1,4,0,2,0
"260010","img/object_images/basket04.jpg","1","k","0.787816700001713",1,4,0,2,0
"260010","img/object_images/egg_slicer01.jpg","0","k","1.97595750000619",1,4,0,2,0
"260010","img/object_images/container01.jpg","0","k","0.993686800007708",1,4,0,2,0
"260010","img/object_images/ball01.jpg","0","k","0.697004900001048",1,4,0,2,0
"260010","img/object_images/Wisk01.jpg","0","k","1.43692680000095",1,4,0,2,0
"260010","img/object_images/colander01.jpg","1","k","0.715477500001725",1,4,0,2,0
"260010","img/object_images/cards01.jpg","1","k","0.659081300000253",1,4,0,2,0
"260010","img/object_images/judge_gavel01.jpg","1","s","1.03594080000767",1,4,0,2,0
"260010","img/object_images/chair05.jpg","1","k","0.636820800005808",1,4,0,2,0
"260010","img/object_images/handcuffs01.jpg","1","s","0.8103734000033",1,4,0,2,0
"260010","img/object_images/lamp01.jpg","1","k","0.604776300002413",1,4,0,2,0
"260010","img/object_images/water_scooter01.jpg","0","k","0.81821409999975",1,4,0,2,0
"260010","img/object_images/jewel02.jpg","0","s","0.84076289999939",1,4,0,2,0
"260010","img/object_images/video_game07.jpg","0","s","1.17529220000142",1,4,0,2,0
"260010","img/object_images/usb03.jpg","1","k","0.720515400003933",1,4,0,2,0
"260010","img/object_images/Woopie01.jpg","0","k","0.583873600000516",1,4,0,2,0
"260010","img/object_images/chair02.jpg","1","k","0.621615100004419",1,4,0,2,0
"260010","img/object_images/guitar01.jpg","1","s","0.984545200000866",1,4,0,2,0
"260010","img/object_images/Pottery01.jpg","1","k","0.876351200000499",1,4,0,2,0
"260010","img/object_images/motorcycle01.jpg","0","k","0.602306499997212",1,4,0,2,0
"260010","img/object_images/joystick03.jpg","1","k","0.783826200007752",1,4,0,2,0
"260010","img/object_images/yo_yo01.jpg","1","s","0.742478600004688",1,4,0,2,0
"260010","img/object_images/golf_ball03.jpg","0","s","0.840478999998595",1,4,0,2,0
"260010","img/object_images/couch03.jpg","1","k","0.715784400003031",1,4,0,2,0
"260010","img/object_images/pitcher05.jpg","1","s","0.525012800004333",1,4,0,2,0
"260010","img/object_images/hat02.jpg","0","s","0.477242200002365",1,4,0,2,0
"260010","img/object_images/brief_case01.jpg","0","k","0.815303700008371",1,4,0,2,0
"260010","img/object_images/bean_bag02.jpg","0","s","0.626473600001191",1,4,0,2,0
"260010","img/object_images/bicycle_lock01.jpg","1","k","0.612015400001837",1,4,0,2,0
"260010","img/object_images/knit03.jpg","1","s","0.587425799996709",1,4,0,2,0
"260010","img/object_images/speaker01.jpg","1","k","0.586152299998503",1,4,0,2,0
"260010","img/object_images/bow01.jpg","1","s","0.73707529999956",1,4,0,2,0
"260010","img/object_images/mirror01.jpg","1","s","1.16889139999694",1,4,0,2,0
"260010","img/object_images/jacket04.jpg","1","s","0.914100800000597",1,4,0,2,0
"260010","img/object_images/bag_pipes01.jpg","0","k","0.449153200002911",1,4,0,2,0
"260010","img/object_images/sign02.jpg","0","k","0.898720500001218",1,5,0,2,0
"260010","img/object_images/couch04.jpg","0","s","0.586123200002476",1,5,0,2,0
"260010","img/object_images/shoes08.jpg","0","s","0.750663300001179",1,5,0,2,0
"260010","img/object_images/balloon01.jpg","0","k","0.617251800002123",1,5,0,2,0
"260010","img/object_images/vga_port 01.jpg","1","s","0.995611300000746",1,5,0,2,0
"260010","img/object_images/Vacuum01.jpg","1","k","0.882772799996019",1,5,0,2,0
"260010","img/object_images/bag06.jpg","1","k","1.29160090000369",1,5,0,2,0
"260010","img/object_images/lawn_mower01.jpg","1","s","0.899522499996237",1,5,0,2,0
"260010","img/object_images/car04.jpg","1","s","0.791495700002997",1,5,0,2,0
"260010","img/object_images/camera07.jpg","1","s","0.582247900005314",1,5,0,2,0
"260010","img/object_images/fan05.jpg","0","s","0.809267800002999",1,5,0,2,0
"260010","img/object_images/tennis_racket01.jpg","1","s","0.791936199995689",1,5,0,2,0
"260010","img/object_images/socks02.jpg","1","k","0.894130799999402",1,5,0,2,0
"260010","img/object_images/grater01.jpg","1","k","0.789483900007326",1,5,0,2,0
"260010","img/object_images/coloring_pencil01.jpg","0","k","1.25574429999688",1,5,0,2,0
"260010","img/object_images/jewelry09.jpg","0","s","1.72992610000802",1,5,0,2,0
"260010","img/object_images/socks01.jpg","1","k","0.931197099998826",1,5,0,2,0
"260010","img/object_images/lock01.jpg","0","k","1.0698246000029",1,5,0,2,0
"260010","img/object_images/razor02.jpg","0","k","1.01901689999795",1,5,0,2,0
"260010","img/object_images/bow_tie02.jpg","0","k","1.27003800000239",1,5,0,2,0
"260010","img/object_images/pitcher03.jpg","1","s","0.561308000003919",1,5,0,2,0
"260010","img/object_images/watch01.jpg","1","k","0.721322199999122",1,5,0,2,0
"260010","img/object_images/headset02.jpg","1","s","1.05074990000139",1,5,0,2,0
"260010","img/object_images/video_game01.jpg","0","k","2.00993830000516",1,5,0,2,0
"260010","img/object_images/laptop01.jpg","0","k","0.908252900000662",1,5,0,2,0
"260010","img/object_images/binoculars03.jpg","1","s","0.652358799998183",1,5,0,2,0
"260010","img/object_images/paint_brush04.jpg","1","s","0.796119400001771",1,5,0,2,0
"260010","img/object_images/jewel01.jpg","1","k","0.649538300000131",1,5,0,2,0
"260010","img/object_images/helmet05.jpg","1","s","0.927921399998013",1,5,0,2,0
"260010","img/object_images/phone02.jpg","0","s","0.89497670000128",1,5,0,2,0
"260010","img/object_images/office_supplies01.jpg","1","k","1.49299140000221",1,5,0,2,0
"260010","img/object_images/coloring_pencil02.jpg","1","k","0.870071099998313",1,5,0,2,0
"260010","img/object_images/hammer02.jpg","1","k","1.39373830000113",1,5,0,2,0
"260010","img/object_images/helmet03.jpg","0","k","0.470697500000824",1,5,0,2,0
"260010","img/object_images/Kitchen_Towel.jpg","1","s","0.644050300004892",1,5,0,2,0
"260010","img/object_images/tie01.jpg","0","k","0.717149100004463",1,5,0,2,0
"260010","img/object_images/lid01.jpg","1","s","0.70798929999728",1,5,0,2,0
"260010","img/object_images/lock04.jpg","0","s","1.07331730000442",1,5,0,2,0
"260010","img/object_images/shoes10.jpg","1","k","1.30718309999793",1,5,0,2,0
"260010","img/object_images/badminton01.jpg","1","k","2.12386070000503",1,5,0,2,0
"260010","img/object_images/tool13.jpg","1","k","0.745755399999325",1,5,0,2,0
"260010","img/object_images/toy04.jpg","1","k","0.747112799996103",1,5,0,2,0
"260010","img/object_images/bell03.jpg","1","k","0.918873900001927",1,5,0,2,0
"260010","img/object_images/pitcher09.jpg","0","k","0.763790700002573",1,5,0,2,0
"260010","img/object_images/faucet01.jpg","1","k","0.699720299999171",1,5,0,2,0
"260010","img/object_images/dresser03.jpg","0","k","0.658928899996681",1,5,0,2,0
"260010","img/object_images/bottle10.jpg","0","k","0.715730199997779",1,5,0,2,0
"260010","img/object_images/clip03.jpg","1","k","1.09698610000487",1,5,0,2,0
"260010","img/object_images/bucket01.jpg","1","k","0.147846799998661",0,6,0,2,0
"260010","img/object_images/car02.jpg","0","s","1.18929979999666",1,6,0,2,0
"260010","img/object_images/ironing_table02.jpg","1","k","0.819122000000789",1,6,0,2,0
"260010","img/object_images/tool06.jpg","0","k","0.84048569999868",1,6,0,2,0
"260010","img/object_images/perfume01.jpg","1","k","1.02004009999655",1,6,0,2,0
"260010","img/object_images/fork02.jpg","1","k","0.95275219999894",1,6,0,2,0
"260010","img/object_images/pitcher07.jpg","1","k","0.89653250000265",1,6,0,2,0
"260010","img/object_images/blender02.jpg","0","k","0.781285600001866",1,6,0,2,0
"260010","img/object_images/tray01.jpg","1","k","0.790158600000723",1,6,0,2,0
"260010","img/object_images/shoes12.jpg","0","s","1.01562700000068",1,6,0,2,0
"260010","img/object_images/paper_cup02.jpg","1","s","1.3893154000034",1,6,0,2,0
"260010","img/object_images/purse01.jpg","1","k","1.35819630000333",1,6,0,2,0
"260010","img/object_images/jewel03.jpg","0","k","1.09651560000202",1,6,0,2,0
"260010","img/object_images/jewelry07.jpg","1","k","0.932258900000306",1,6,0,2,0
"260010","img/object_images/piano03.jpg","1","k","0.917499300005147",1,6,0,2,0
"260010","img/object_images/keyboard02.jpg","1","s","1.1635810000007",1,6,0,2,0
"260010","img/object_images/belt01.jpg","1","s","1.17638689999876",1,6,0,2,0
"260010","img/object_images/hair_dryer01.jpg","1","k","1.06315000000177",1,6,0,2,0
"260010","img/object_images/toaster02.jpg","0","s","0.707517399998324",1,6,0,2,0
"260010","img/object_images/remote_controller01.jpg","1","k","0.604534099999",1,6,0,2,0
"260010","img/object_images/usb02.jpg","0","s","0.561875999999756",1,6,0,2,0
"260010","img/object_images/scale02.jpg","1","k","0.875220399997488",1,6,0,2,0
"260010","img/object_images/tool19.jpg","0","s","0.65513700000156",1,6,0,2,0
"260010","img/object_images/cutting_board01.jpg","0","k","0.566849400005594",1,6,0,2,0
"260010","img/object_images/ribbon01.jpg","1","s","0.880724299997382",1,6,0,2,0
"260010","img/object_images/cup03.jpg","1","s","0.746470600002795",1,6,0,2,0
"260010","img/object_images/hot_air_balloon02.jpg","1","k","0.775931199998013",1,6,0,2,0
"260010","img/object_images/hand_grip_exerciser01.jpg","0","s","1.09466480000265",1,6,0,2,0
"260010","img/object_images/hair_brush01.jpg","0","k","1.0251167000024",1,6,0,2,0
"260010","img/object_images/Sprayer01.jpg","1","k","0.68244119999872",1,6,0,2,0
"260010","img/object_images/shower_head03.jpg","1","s","0.638880400001653",1,6,0,2,0
"260010","img/object_images/chair04.jpg","1","s","0.739194699999643",1,6,0,2,0
"260010","img/object_images/shoes07.jpg","1","k","0.707550600003742",1,6,0,2,0
"260010","img/object_images/toy05.jpg","1","k","0.715101600006165",1,6,0,2,0
"260010","img/object_images/funnel01.jpg","1","k","0.891401799999585",1,6,0,2,0
"260010","img/object_images/gift_box05.jpg","0","s","1.21959120000247",1,6,0,2,0
"260010","img/object_images/computer_mouse02.jpg","1","k","2.88448850000714",1,6,0,2,0
"260010","img/object_images/rock02.jpg","1","k","0.919785600002797",1,6,0,2,0
"260010","img/object_images/soap03.jpg","0","k","0.992556900004274",1,6,0,2,0
"260010","img/object_images/paper_cup01.jpg","1","s","0.561737099997117",1,6,0,2,0
"260010","img/object_images/camera_lens01.jpg","1","k","0.733096099997056",1,6,0,2,0
"260010","img/object_images/Eyeliner01.jpg","0","k","1.05222720000165",1,6,0,2,0
"260010","img/object_images/umbrella01.jpg","1","k","1.00404269999854",1,6,0,2,0
"260010","img/object_images/spray_can01.jpg","1","k","0.94349130000046",1,6,0,2,0
"260010","img/object_images/fridge03.jpg","1","s","0.911458100003074",1,6,0,2,0
"260010","img/object_images/trash_can03.jpg","0","s","0.823895500005165",1,6,0,2,0
"260010","img/object_images/glasses07.jpg","1","k","0.702507200003311",1,6,0,2,0
"260010","img/object_images/drone02.jpg","1","k","0.506255500004045",1,6,0,2,0
"260010","img/object_images/cochlear_implant01.jpg","1","k","0.745714700002281",1,7,0,2,0
"260010","img/object_images/fan02.jpg","1","k","0.91681840000092",1,7,0,2,0
"260010","img/object_images/basketball_hoop02.jpg","0","s","0.875678800002788",1,7,0,2,0
"260010","img/object_images/duster01.jpg","1","s","0.964696800001548",1,7,0,2,0
"260010","img/object_images/fork03.jpg","1","s","0.749487100001716",1,7,0,2,0
"260010","img/object_images/yoga_mat01.jpg","1","k","0.728317900000548",1,7,0,2,0
"260010","img/object_images/glasses06.jpg","1","s","1.09632310000597",1,7,0,2,0
"260010","img/object_images/decorative02.jpg","1","k","1.0610433000038",1,7,0,2,0
"260010","img/object_images/Stool01.jpg","0","k","1.02215740000247",1,7,0,2,0
"260010","img/object_images/hat09.jpg","0","s","0.917727299995022",1,7,0,2,0
"260010","img/object_images/video_game03.jpg","1","s","0.778303800005233",1,7,0,2,0
"260010","img/object_images/chair06.jpg","1","k","0.879638000005798",1,7,0,2,0
"260010","img/object_images/outlet01.jpg","1","s","0.739601600005699",1,7,0,2,0
"260010","img/object_images/cup01.jpg","0","k","0.431341000003158",1,7,0,2,0
"260010","img/object_images/remover01.jpg","1","s","0.216103600003407",1,7,0,2,0
"260010","img/object_images/ring03.jpg","0","k","0.833697099995334",1,7,0,2,0
"260010","img/object_images/mail_box01.jpg","1","k","0.618510699998296",1,7,0,2,0
"260010","img/object_images/box03.jpg","0","s","0.64320520000183",1,7,0,2,0
"260010","img/object_images/bottle06.jpg","1","s","0.906588000005286",1,7,0,2,0
"260010","img/object_images/clipboard01.jpg","1","k","0.69892890000483",1,7,0,2,0
"260010","img/object_images/tennis_racket02.jpg","0","k","0.487346299996716",1,7,0,2,0
"260010","img/object_images/pen06.jpg","0","k","0.681985399998666",1,7,0,2,0
"260010","img/object_images/tv02.jpg","0","k","0.590785100001085",1,7,0,2,0
"260010","img/object_images/hair_clips01.jpg","1","k","1.00543990000733",1,7,0,2,0
"260010","img/object_images/chair03.jpg","0","k","0.626941499998793",1,7,0,2,0
"260010","img/object_images/jacket03.jpg","1","s","0.594069999999192",1,7,0,2,0
"260010","img/object_images/compass01.jpg","1","s","0.596644100005506",1,7,0,2,0
"260010","img/object_images/floss02.jpg","1","k","0.57819500000187",1,7,0,2,0
"260010","img/object_images/towels01.jpg","1","s","0.685696500004269",1,7,0,2,0
"260010","img/object_images/stapler.jpg","1","s","0.465632999999798",1,7,0,2,0
"260010","img/object_images/screwdriver01.jpg","1","s","0.501810100002331",1,7,0,2,0
"260010","img/object_images/bicycle01.jpg","1","k","0.29885330000252",1,7,0,2,0
"260010","img/object_images/stove01.jpg","0","s","0.744408500002464",1,7,0,2,0
"260010","img/object_images/rock03.jpg","1","s","0.707103000000643",1,7,0,2,0
"260010","img/object_images/measuring_tape02.jpg","1","k","0.742505700000038",1,7,0,2,0
"260010","img/object_images/bell02.jpg","0","s","0.499232699999993",1,7,0,2,0
"260010","img/object_images/car01.jpg","1","s","0.817063800001051",1,7,0,2,0
"260010","img/object_images/towel02.jpg","1","k","0.568006699999387",1,7,0,2,0
"260010","img/object_images/Confetti 01.jpg","1","s","0.725344200000109",1,7,0,2,0
"260010","img/object_images/Oven01.jpg","1","s","1.02277329999924",1,7,0,2,0
"260010","img/object_images/razor03.jpg","1","s","1.38812160000089",1,7,0,2,0
"260010","img/object_images/wire02.jpg","1","s","0.540049700000964",1,7,0,2,0
"260010","img/object_images/camera03.jpg","1","s","0.3472993999967",1,7,0,2,0
"260010","img/object_images/boat02.jpg","1","k","0.644643400002678",1,7,0,2,0
"260010","img/object_images/gloves02.jpg","1","k","0.548882399998547",1,7,0,2,0
"260010","img/object_images/car03.jpg","0","k","0.673854000000574",1,7,0,2,0
"260010","img/object_images/handkerchief01.jpg","1","k","0.704264100000728",1,7,0,2,0
"260010","img/object_images/frame01.jpg","1","s","1.01451160000579",1,7,0,2,0
"260010","img/object_images/Shoes05.jpg","1","s","0.784715500005404",1,8,0,2,0
"260010","img/object_images/fire_extinguisher01.jpg","1","s","0.916818200006674",1,8,0,2,0
"260010","img/object_images/nut_cracker01.jpg","1","k","1.13825950000319",1,8,0,2,0
"260010","img/object_images/chair01.jpg","1","s","0.969121900001483",1,8,0,2,0
"260010","img/object_images/phone04.jpg","0","k","0.605118700004823",1,8,0,2,0
"260010","img/object_images/satellite01.jpg","0","s","0.557720400007383",1,8,0,2,0
"260010","img/object_images/frisbee01.jpg","0","s","0.623698700001114",1,8,0,2,0
"260010","img/object_images/toilet_paper_dispenser01.jpg","0","s","1.22235409999848",1,8,0,2,0
"260010","img/object_images/gift_box03.jpg","0","s","0.989924000001338",1,8,0,2,0
"260010","img/object_images/pot01 (1).jpg","1","s","0.982033899999806",1,8,0,2,0
"260010","img/object_images/floss01.jpg","0","s","0.611644100004924",1,8,0,2,0
"260010","img/object_images/hat06.jpg","1","k","0.71088480000617",1,8,0,2,0
"260010","img/object_images/sponge03.jpg","0","s","0.61093780000374",1,8,0,2,0
"260010","img/object_images/Screws01.jpg","1","s","0.728336600004695",1,8,0,2,0
"260010","img/object_images/Safe01.jpg","1","k","1.62703650000185",1,8,0,2,0
"260010","img/object_images/ladle02.jpg","0","s","0.499559600000794",1,8,0,2,0
"260010","img/object_images/scoreboard01.jpg","1","k","0.860157600000093",1,8,0,2,0
"260010","img/object_images/laptop03.jpg","0","k","0.620982400003413",1,8,0,2,0
"260010","img/object_images/gift_box04.jpg","1","k","0.707037600004696",1,8,0,2,0
"260010","img/object_images/dust_pan01.jpg","0","s","0.766004700002668",1,8,0,2,0
"260010","img/object_images/dart01.jpg","0","k","0.659437400005118",1,8,0,2,0
"260010","img/object_images/shovel03.jpg","1","k","0.720205500001612",1,8,0,2,0
"260010","img/object_images/blanket01.jpg","1","k","0.887193400005344",1,8,0,2,0
"260010","img/object_images/floppy_disk03.jpg","1","s","0.881724000006216",1,8,0,2,0
"260010","img/object_images/toilet_paper01.jpg","1","s","0.816151500002888",1,8,0,2,0
"260010","img/object_images/gift_box01.jpg","0","s","0.767361300007906",1,8,0,2,0
"260010","img/object_images/cellphone02.jpg","1","s","0.811579100001836",1,8,0,2,0
"260010","img/object_images/airfryer02.jpg","1","k","0.704746600000362",1,8,0,2,0
"260010","img/object_images/helmet02.jpg","1","k","0.713262799996301",1,8,0,2,0
"260010","img/object_images/wagon_cart03.jpg","0","k","0.94611220000661",1,8,0,2,0
"260010","img/object_images/tool09.jpg","1","k","1.09138030000031",1,8,0,2,0
"260010","img/object_images/helmet04.jpg","1","s","0.683316500006185",1,8,0,2,0
"260010","img/object_images/cellphone01.jpg","1","s","0.956937299997662",1,8,0,2,0
"260010","img/object_images/dresser04.jpg","0","s","0.507637100003194",1,8,0,2,0
"260010","img/object_images/drone01.jpg","0","k","0.470233000000007",1,8,0,2,0
"260010","img/object_images/Recycling01.jpg","0","s","0.507942400006868",1,8,0,2,0
"260010","img/object_images/chess_piece01.jpg","1","k","0.756031300006725",1,8,0,2,0
"260010","img/object_images/pillows01.jpg","1","k","0.60445510000136",1,8,0,2,0
"260010","img/object_images/skate_board01.jpg","1","k","0.635136600001715",1,8,0,2,0
"260010","img/object_images/belt03.jpg","0","k","0.340337700006785",1,8,0,2,0
"260010","img/object_images/tool20.jpg","1","s","0.297096499998588",1,8,0,2,0
"260010","img/object_images/calculator01.jpg","1","k","0.397967099997914",1,8,0,2,0
"260010","img/object_images/couch01.jpg","1","k","0.583357700001216",1,8,0,2,0
"260010","img/object_images/egg_basket01.jpg","1","k","0.595581299996411",1,8,0,2,0
"260010","img/object_images/bottle07.jpg","0","k","0.568748899997445",1,8,0,2,0
"260010","img/object_images/knit04.jpg","1","k","0.520225699998264",1,8,0,2,0
"260010","img/object_images/lantern01.jpg","0","s","0.524760700005572",1,8,0,2,0
"260010","img/object_images/pan03.jpg","0","s","0.553756000001158",1,8,0,2,0
