"participant_id","current_trial_object","pre_trial_object","post_trial_object","current_trial_accuracy","pre_trial_accuracy","post_trial_accuracy","current_trial_congruency","pre_trial_congruency","post_trial_congruency","current_trial_rt","pre_trial_rt","post_trial_rt","current_trial_responded","pre_trial_responded","post_trial_responded","current_trial_legitResponse","pre_trial_legitResponse","post_trial_legitResponse","current_trial_resp_nums","pre_trial_resp_nums","post_trial_resp_nums"
"260022","img/object_images/broom01.jpg",NA,"img/object_images/gloves05.jpg","1",NA,"1","1",NA,"1","0.647985699994024",NA,"0.425937999971211","1",NA,"1","1",NA,"1","1",NA,"1"
"260022","img/object_images/gloves05.jpg","img/object_images/broom01.jpg","img/object_images/couch04.jpg","1","1","1","1","1","1","0.425937999971211","0.647985699994024","0.404764499980956","1","1","1","1","1","1","1","1","1"
"260022","img/object_images/couch04.jpg","img/object_images/gloves05.jpg","img/object_images/video_game06.jpg","1","1","1","1","1","0","0.404764499980956","0.425937999971211","0.387945400027093","1","1","1","1","1","1","1","1","1"
"260022","img/object_images/video_game06.jpg","img/object_images/couch04.jpg","img/object_images/tie01.jpg","1","1","1","0","1","0","0.387945400027093","0.404764499980956","0.500000900006853","1","1","1","1","1","1","1","1","1"
"260022","img/object_images/tie01.jpg","img/object_images/video_game06.jpg","img/object_images/helmet05.jpg","1","1","1","0","0","1","0.500000900006853","0.387945400027093","0.49228890001541","1","1","1","1","1","1","1","1","1"
"260022","img/object_images/helmet05.jpg","img/object_images/tie01.jpg","img/object_images/airfryer01.jpg","1","1","1","1","0","0","0.49228890001541","0.500000900006853","0.525354499986861","1","1","1","1","1","1","1","1","1"
"260022","img/object_images/airfryer01.jpg","img/object_images/helmet05.jpg","img/object_images/pot01.jpg","1","1","1","0","1","0","0.525354499986861","0.49228890001541","0.562945600016974","1","1","1","1","1","1","1","1","1"
"260022","img/object_images/pot01.jpg","img/object_images/airfryer01.jpg","img/object_images/guitar01.jpg","1","1","1","0","0","1","0.562945600016974","0.525354499986861","0.46883099997649","1","1","1","1","1","1","1","1","1"
"260022","img/object_images/guitar01.jpg","img/object_images/pot01.jpg","img/object_images/hat02.jpg","1","1","1","1","0","0","0.46883099997649","0.562945600016974","0.517334100033622","1","1","1","1","1","1","1","1","1"
"260022","img/object_images/hat02.jpg","img/object_images/guitar01.jpg","img/object_images/bottle12.jpg","1","1","1","0","1","1","0.517334100033622","0.46883099997649","0.452173600031529","1","1","1","1","1","1","1","1","1"
"260022","img/object_images/bottle12.jpg","img/object_images/hat02.jpg","img/object_images/lamp01.jpg","1","1","1","1","0","1","0.452173600031529","0.517334100033622","0.42065939999884","1","1","1","1","1","1","1","1","1"
"260022","img/object_images/lamp01.jpg","img/object_images/bottle12.jpg","img/object_images/cochlear_implant01.jpg","1","1","1","1","1","0","0.42065939999884","0.452173600031529","0.48633719998179","1","1","1","1","1","1","1","1","1"
"260022","img/object_images/cochlear_implant01.jpg","img/object_images/lamp01.jpg","img/object_images/Woopie01.jpg","1","1","1","0","1","1","0.48633719998179","0.42065939999884","0.905605599982664","1","1","1","1","1","1","1","1","1"
"260022","img/object_images/Woopie01.jpg","img/object_images/cochlear_implant01.jpg","img/object_images/pitcher03.jpg","1","1","1","1","0","1","0.905605599982664","0.48633719998179","0.487561299989466","1","1","1","1","1","1","1","1","1"
"260022","img/object_images/pitcher03.jpg","img/object_images/Woopie01.jpg","img/object_images/ball01.jpg","1","1","1","1","1","1","0.487561299989466","0.905605599982664","0.434378300036769","1","1","1","1","1","1","1","1","1"
"260022","img/object_images/ball01.jpg","img/object_images/pitcher03.jpg","img/object_images/container01.jpg","1","1","1","1","1","0","0.434378300036769","0.487561299989466","0.426878200029023","1","1","1","1","1","1","1","1","1"
"260022","img/object_images/container01.jpg","img/object_images/ball01.jpg","img/object_images/toilet_paper01.jpg","1","1","1","0","1","1","0.426878200029023","0.434378300036769","0.395757499965839","1","1","1","1","1","1","1","1","1"
"260022","img/object_images/toilet_paper01.jpg","img/object_images/container01.jpg","img/object_images/Recycling01.jpg","1","1","1","1","0","1","0.395757499965839","0.426878200029023","0.452861100027803","1","1","1","1","1","1","1","1","1"
"260022","img/object_images/Recycling01.jpg","img/object_images/toilet_paper01.jpg","img/object_images/ironing_table02.jpg","1","1","1","1","1","0","0.452861100027803","0.395757499965839","0.39647929999046","1","1","1","1","1","1","1","1","1"
"260022","img/object_images/ironing_table02.jpg","img/object_images/Recycling01.jpg","img/object_images/soap01.jpg","1","1","1","0","1","0","0.39647929999046","0.452861100027803","0.482353600033093","1","1","1","1","1","1","1","1","1"
"260022","img/object_images/soap01.jpg","img/object_images/ironing_table02.jpg","img/object_images/Wisk01.jpg","1","1","1","0","0","1","0.482353600033093","0.39647929999046","0.44160770002054","1","1","1","1","1","1","1","1","1"
"260022","img/object_images/Wisk01.jpg","img/object_images/soap01.jpg","img/object_images/razor03.jpg","1","1","1","1","0","0","0.44160770002054","0.482353600033093","0.497951400000602","1","1","1","1","1","1","1","1","1"
"260022","img/object_images/razor03.jpg","img/object_images/Wisk01.jpg","img/object_images/basketball_hoop02.jpg","1","1","1","0","1","0","0.497951400000602","0.44160770002054","0.511709899990819","1","1","1","1","1","1","1","1","1"
"260022","img/object_images/basketball_hoop02.jpg","img/object_images/razor03.jpg","img/object_images/brief_case02.jpg","1","1","1","0","0","1","0.511709899990819","0.497951400000602","0.433511000010185","1","1","1","1","1","1","1","1","1"
"260022","img/object_images/brief_case02.jpg","img/object_images/basketball_hoop02.jpg","img/object_images/brief_case01.jpg","1","1","1","1","0","0","0.433511000010185","0.511709899990819","0.493314300023485","1","1","1","1","1","1","1","1","1"
"260022","img/object_images/brief_case01.jpg","img/object_images/brief_case02.jpg","img/object_images/chair01.jpg","1","1","1","0","1","0","0.493314300023485","0.433511000010185","0.538427499996033","1","1","1","1","1","1","1","1","1"
"260022","img/object_images/chair01.jpg","img/object_images/brief_case01.jpg","img/object_images/drone02.jpg","1","1","1","0","0","0","0.538427499996033","0.493314300023485","0.498483500035945","1","1","1","1","1","1","1","1","1"
"260022","img/object_images/drone02.jpg","img/object_images/chair01.jpg","img/object_images/lantern01.jpg","1","1","1","0","0","1","0.498483500035945","0.538427499996033","0.504635200020857","1","1","1","1","1","1","1","1","1"
"260022","img/object_images/lantern01.jpg","img/object_images/drone02.jpg","img/object_images/car02.jpg","1","1","1","1","0","0","0.504635200020857","0.498483500035945","0.448905700002797","1","1","1","1","1","1","1","1","1"
"260022","img/object_images/car02.jpg","img/object_images/lantern01.jpg","img/object_images/toy_train02.jpg","1","1","1","0","1","1","0.448905700002797","0.504635200020857","0.389785300008953","1","1","1","1","1","1","1","1","1"
"260022","img/object_images/toy_train02.jpg","img/object_images/car02.jpg","img/object_images/decorative02.jpg","1","1","1","1","0","0","0.389785300008953","0.448905700002797","0.446738799975719","1","1","1","1","1","1","1","1","1"
"260022","img/object_images/decorative02.jpg","img/object_images/toy_train02.jpg",NA,"1","1",NA,"0","1",NA,"0.446738799975719","0.389785300008953",NA,"1","1",NA,"1","1",NA,"1","1",NA
"260022","img/object_images/cellphone01.jpg",NA,"img/object_images/knit05.jpg","1",NA,"0","1",NA,"1","0.469095599954017",NA,NA,"1",NA,"0","1",NA,"0","1",NA,"0"
"260022","img/object_images/knit05.jpg","img/object_images/cellphone01.jpg","img/object_images/lid01.jpg","0","1","1","1","1","1",NA,"0.469095599954017","0.463222000049427","0","1","1","0","1","1","0","1","1"
"260022","img/object_images/lid01.jpg","img/object_images/knit05.jpg","img/object_images/book03.jpg","1","0","1","1","1","1","0.463222000049427",NA,"0.349505799997132","1","0","1","1","0","1","1","0","1"
"260022","img/object_images/book03.jpg","img/object_images/lid01.jpg","img/object_images/pen03.jpg","1","1","1","1","1","0","0.349505799997132","0.463222000049427","0.464726899983361","1","1","1","1","1","1","1","1","1"
"260022","img/object_images/pen03.jpg","img/object_images/book03.jpg","img/object_images/tennis_racket02.jpg","1","1","1","0","1","1","0.464726899983361","0.349505799997132","0.443417400005274","1","1","1","1","1","1","1","1","1"
"260022","img/object_images/tennis_racket02.jpg","img/object_images/pen03.jpg","img/object_images/bottle01.jpg","1","1","1","1","0","0","0.443417400005274","0.464726899983361","0.483336000004783","1","1","1","1","1","1","1","1","1"
"260022","img/object_images/bottle01.jpg","img/object_images/tennis_racket02.jpg","img/object_images/crutches02.jpg","1","1","1","0","1","0","0.483336000004783","0.443417400005274","0.427664200018626","1","1","1","1","1","1","1","1","1"
"260022","img/object_images/crutches02.jpg","img/object_images/bottle01.jpg","img/object_images/Oven01.jpg","1","1","1","0","0","1","0.427664200018626","0.483336000004783","0.406150299997535","1","1","1","1","1","1","1","1","1"
"260022","img/object_images/Oven01.jpg","img/object_images/crutches02.jpg","img/object_images/microscope01.jpg","1","1","1","1","0","0","0.406150299997535","0.427664200018626","0.513542799977586","1","1","1","1","1","1","1","1","1"
"260022","img/object_images/microscope01.jpg","img/object_images/Oven01.jpg","img/object_images/note_book01.jpg","1","1","1","0","1","0","0.513542799977586","0.406150299997535","0.390639299992472","1","1","1","1","1","1","1","1","1"
"260022","img/object_images/note_book01.jpg","img/object_images/microscope01.jpg","img/object_images/tv02.jpg","1","1","1","0","0","0","0.390639299992472","0.513542799977586","0.46591339999577","1","1","1","1","1","1","1","1","1"
"260022","img/object_images/tv02.jpg","img/object_images/note_book01.jpg","img/object_images/clip03.jpg","1","1","1","0","0","0","0.46591339999577","0.390639299992472","0.438696000026539","1","1","1","1","1","1","1","1","1"
"260022","img/object_images/clip03.jpg","img/object_images/tv02.jpg","img/object_images/chess_piece02.jpg","1","1","1","0","0","1","0.438696000026539","0.46591339999577","0.442509100015741","1","1","1","1","1","1","1","1","1"
"260022","img/object_images/chess_piece02.jpg","img/object_images/clip03.jpg","img/object_images/paint_brush04.jpg","1","1","0","1","0","0","0.442509100015741","0.438696000026539","0.341599600040354","1","1","1","1","1","1","1","1","1"
"260022","img/object_images/paint_brush04.jpg","img/object_images/chess_piece02.jpg","img/object_images/chair05.jpg","0","1","1","0","1","0","0.341599600040354","0.442509100015741","0.712420500000007","1","1","1","1","1","1","1","1","1"
"260022","img/object_images/chair05.jpg","img/object_images/paint_brush04.jpg","img/object_images/ear_bud01.jpg","1","0","1","0","0","1","0.712420500000007","0.341599600040354","0.442720599996392","1","1","1","1","1","1","1","1","1"
"260022","img/object_images/ear_bud01.jpg","img/object_images/chair05.jpg","img/object_images/floppy_disk03.jpg","1","1","1","1","0","1","0.442720599996392","0.712420500000007","0.361403899965808","1","1","1","1","1","1","1","1","1"
"260022","img/object_images/floppy_disk03.jpg","img/object_images/ear_bud01.jpg","img/object_images/retainer01.jpg","1","1","1","1","1","0","0.361403899965808","0.442720599996392","0.431697799998801","1","1","1","1","1","1","1","1","1"
"260022","img/object_images/retainer01.jpg","img/object_images/floppy_disk03.jpg","img/object_images/floppy_disk02.jpg","1","1","1","0","1","0","0.431697799998801","0.361403899965808","0.385054400016088","1","1","1","1","1","1","1","1","1"
"260022","img/object_images/floppy_disk02.jpg","img/object_images/retainer01.jpg","img/object_images/hammer03.jpg","1","1","1","0","0","1","0.385054400016088","0.431697799998801","0.373993800021708","1","1","1","1","1","1","1","1","1"
"260022","img/object_images/hammer03.jpg","img/object_images/floppy_disk02.jpg","img/object_images/clock02.jpg","1","1","1","1","0","0","0.373993800021708","0.385054400016088","0.305360199999996","1","1","1","1","1","1","1","1","1"
"260022","img/object_images/clock02.jpg","img/object_images/hammer03.jpg","img/object_images/Staples01.jpg","1","1","1","0","1","1","0.305360199999996","0.373993800021708","0.414680799993221","1","1","1","1","1","1","1","1","1"
"260022","img/object_images/Staples01.jpg","img/object_images/clock02.jpg","img/object_images/wire02.jpg","1","1","1","1","0","1","0.414680799993221","0.305360199999996","0.394986799976323","1","1","1","1","1","1","1","1","1"
"260022","img/object_images/wire02.jpg","img/object_images/Staples01.jpg","img/object_images/pitcher01.jpg","1","1","1","1","1","0","0.394986799976323","0.414680799993221","0.507405399985146","1","1","1","1","1","1","1","1","1"
"260022","img/object_images/pitcher01.jpg","img/object_images/wire02.jpg","img/object_images/motorcycle01.jpg","1","1","1","0","1","1","0.507405399985146","0.394986799976323","0.452037799987011","1","1","1","1","1","1","1","1","1"
"260022","img/object_images/motorcycle01.jpg","img/object_images/pitcher01.jpg","img/object_images/compass01.jpg","1","1","1","1","0","1","0.452037799987011","0.507405399985146","0.534288200025912","1","1","1","1","1","1","1","1","1"
"260022","img/object_images/compass01.jpg","img/object_images/motorcycle01.jpg","img/object_images/bell02.jpg","1","1","1","1","1","0","0.534288200025912","0.452037799987011","0.421406999987084","1","1","1","1","1","1","1","1","1"
"260022","img/object_images/bell02.jpg","img/object_images/compass01.jpg","img/object_images/Thermometer01.jpg","1","1","1","0","1","0","0.421406999987084","0.534288200025912","0.419505099998787","1","1","1","1","1","1","1","1","1"
"260022","img/object_images/Thermometer01.jpg","img/object_images/bell02.jpg","img/object_images/pillows01.jpg","1","1","1","0","0","1","0.419505099998787","0.421406999987084","0.550290499988478","1","1","1","1","1","1","1","1","1"
"260022","img/object_images/pillows01.jpg","img/object_images/Thermometer01.jpg","img/object_images/knife04.jpg","1","1","1","1","0","1","0.550290499988478","0.419505099998787","0.43935010000132","1","1","1","1","1","1","1","1","1"
"260022","img/object_images/knife04.jpg","img/object_images/pillows01.jpg","img/object_images/usb02.jpg","1","1","1","1","1","0","0.43935010000132","0.550290499988478","0.48941790004028","1","1","1","1","1","1","1","1","1"
"260022","img/object_images/usb02.jpg","img/object_images/knife04.jpg",NA,"1","1",NA,"0","1",NA,"0.48941790004028","0.43935010000132",NA,"1","1",NA,"1","1",NA,"1","1",NA
"260022","img/object_images/vase01.jpg",NA,"img/object_images/pitcher05.jpg","1",NA,"1","0",NA,"0","0.606710099964403",NA,"0.551210300007369","1",NA,"1","1",NA,"1","1",NA,"1"
"260022","img/object_images/pitcher05.jpg","img/object_images/vase01.jpg","img/object_images/lock01.jpg","1","1","1","0","0","0","0.551210300007369","0.606710099964403","0.389148399990518","1","1","1","1","1","1","1","1","1"
"260022","img/object_images/lock01.jpg","img/object_images/pitcher05.jpg","img/object_images/combs01.jpg","1","1","1","0","0","1","0.389148399990518","0.551210300007369","0.391785799991339","1","1","1","1","1","1","1","1","1"
"260022","img/object_images/combs01.jpg","img/object_images/lock01.jpg","img/object_images/hair_brush02.jpg","1","1","1","1","0","0","0.391785799991339","0.389148399990518","0.377554500009865","1","1","1","1","1","1","1","1","1"
"260022","img/object_images/hair_brush02.jpg","img/object_images/combs01.jpg","img/object_images/backpack03.jpg","1","1","1","0","1","1","0.377554500009865","0.391785799991339","0.389299399976153","1","1","1","1","1","1","1","1","1"
"260022","img/object_images/backpack03.jpg","img/object_images/hair_brush02.jpg","img/object_images/fan04.jpg","1","1","1","1","0","0","0.389299399976153","0.377554500009865","0.582691899966449","1","1","1","1","1","1","1","1","1"
"260022","img/object_images/fan04.jpg","img/object_images/backpack03.jpg","img/object_images/chess_piece01.jpg","1","1","1","0","1","0","0.582691899966449","0.389299399976153","0.541030899970792","1","1","1","1","1","1","1","1","1"
"260022","img/object_images/chess_piece01.jpg","img/object_images/fan04.jpg","img/object_images/ball02.jpg","1","1","1","0","0","1","0.541030899970792","0.582691899966449","0.365213899989612","1","1","1","1","1","1","1","1","1"
"260022","img/object_images/ball02.jpg","img/object_images/chess_piece01.jpg","img/object_images/laptop01.jpg","1","1","1","1","0","0","0.365213899989612","0.541030899970792","0.379010299977381","1","1","1","1","1","1","1","1","1"
"260022","img/object_images/laptop01.jpg","img/object_images/ball02.jpg","img/object_images/jewel03.jpg","1","1","1","0","1","1","0.379010299977381","0.365213899989612","0.507760200009216","1","1","1","1","1","1","1","1","1"
"260022","img/object_images/jewel03.jpg","img/object_images/laptop01.jpg","img/object_images/accardion01.jpg","1","1","1","1","0","1","0.507760200009216","0.379010299977381","0.432808000012301","1","1","1","1","1","1","1","1","1"
"260022","img/object_images/accardion01.jpg","img/object_images/jewel03.jpg","img/object_images/umbrella01.jpg","1","1","1","1","1","0","0.432808000012301","0.507760200009216","0.36400559998583","1","1","1","1","1","1","1","1","1"
"260022","img/object_images/umbrella01.jpg","img/object_images/accardion01.jpg","img/object_images/laptop03.jpg","1","1","1","0","1","1","0.36400559998583","0.432808000012301","0.360229799989611","1","1","1","1","1","1","1","1","1"
"260022","img/object_images/laptop03.jpg","img/object_images/umbrella01.jpg","img/object_images/calculator01.jpg","1","1","1","1","0","1","0.360229799989611","0.36400559998583","0.468336599995382","1","1","1","1","1","1","1","1","1"
"260022","img/object_images/calculator01.jpg","img/object_images/laptop03.jpg","img/object_images/towels01.jpg","1","1","1","1","1","0","0.468336599995382","0.360229799989611","0.545560700003989","1","1","1","1","1","1","1","1","1"
"260022","img/object_images/towels01.jpg","img/object_images/calculator01.jpg","img/object_images/Lint_Roller02.jpg","1","1","1","0","1","0","0.545560700003989","0.468336599995382","0.425469200010411","1","1","1","1","1","1","1","1","1"
"260022","img/object_images/Lint_Roller02.jpg","img/object_images/towels01.jpg","img/object_images/spatula02.jpg","1","1","1","0","0","1","0.425469200010411","0.545560700003989","0.39450290001696","1","1","1","1","1","1","1","1","1"
"260022","img/object_images/spatula02.jpg","img/object_images/Lint_Roller02.jpg","img/object_images/surf_board01.jpg","1","1","1","1","0","1","0.39450290001696","0.425469200010411","0.419041900022421","1","1","1","1","1","1","1","1","1"
"260022","img/object_images/surf_board01.jpg","img/object_images/spatula02.jpg","img/object_images/bucket02.jpg","1","1","1","1","1","1","0.419041900022421","0.39450290001696","0.408446300018113","1","1","1","1","1","1","1","1","1"
"260022","img/object_images/bucket02.jpg","img/object_images/surf_board01.jpg","img/object_images/microphone03.jpg","1","1","1","1","1","1","0.408446300018113","0.419041900022421","0.344780199986417","1","1","1","1","1","1","1","1","1"
"260022","img/object_images/microphone03.jpg","img/object_images/bucket02.jpg","img/object_images/gift_box05.jpg","1","1","0","1","1","0","0.344780199986417","0.408446300018113","0.37958859995706","1","1","1","1","1","1","1","1","1"
"260022","img/object_images/gift_box05.jpg","img/object_images/microphone03.jpg","img/object_images/helmet02.jpg","0","1","1","0","1","0","0.37958859995706","0.344780199986417","0.664021200034767","1","1","1","1","1","1","1","1","1"
"260022","img/object_images/helmet02.jpg","img/object_images/gift_box05.jpg","img/object_images/stove01.jpg","1","0","1","0","0","0","0.664021200034767","0.37958859995706","0.508619600033853","1","1","1","1","1","1","1","1","1"
"260022","img/object_images/stove01.jpg","img/object_images/helmet02.jpg","img/object_images/chair02.jpg","1","1","1","0","0","1","0.508619600033853","0.664021200034767","0.392713400011417","1","1","1","1","1","1","1","1","1"
"260022","img/object_images/chair02.jpg","img/object_images/stove01.jpg","img/object_images/robe01.jpg","1","1","1","1","0","1","0.392713400011417","0.508619600033853","0.407923799997661","1","1","1","1","1","1","1","1","1"
"260022","img/object_images/robe01.jpg","img/object_images/chair02.jpg","img/object_images/shoes08.jpg","1","1","1","1","1","1","0.407923799997661","0.392713400011417","0.399193699995522","1","1","1","1","1","1","1","1","1"
"260022","img/object_images/shoes08.jpg","img/object_images/robe01.jpg","img/object_images/hair_dryer01.jpg","1","1","1","1","1","0","0.399193699995522","0.407923799997661","0.531833400018513","1","1","1","1","1","1","1","1","1"
"260022","img/object_images/hair_dryer01.jpg","img/object_images/shoes08.jpg","img/object_images/trash_can03.jpg","1","1","1","0","1","1","0.531833400018513","0.399193699995522","0.543446000025142","1","1","1","1","1","1","1","1","1"
"260022","img/object_images/trash_can03.jpg","img/object_images/hair_dryer01.jpg","img/object_images/toy05.jpg","1","1","1","1","0","0","0.543446000025142","0.531833400018513","0.4030938000069","1","1","1","1","1","1","1","1","1"
"260022","img/object_images/toy05.jpg","img/object_images/trash_can03.jpg","img/object_images/Vest02.jpg","1","1","1","0","1","0","0.4030938000069","0.543446000025142","0.41336579999188","1","1","1","1","1","1","1","1","1"
"260022","img/object_images/Vest02.jpg","img/object_images/toy05.jpg","img/object_images/trash_can05.jpg","1","1","1","0","0","1","0.41336579999188","0.4030938000069","0.455287599994335","1","1","1","1","1","1","1","1","1"
"260022","img/object_images/trash_can05.jpg","img/object_images/Vest02.jpg",NA,"1","1",NA,"1","0",NA,"0.455287599994335","0.41336579999188",NA,"1","1",NA,"1","1",NA,"1","1",NA
"260022","img/object_images/remover01.jpg",NA,"img/object_images/stereo02.jpg","1",NA,"0","1",NA,"0","0.625731500040274",NA,"0.465022599964868","1",NA,"1","1",NA,"1","1",NA,"1"
"260022","img/object_images/stereo02.jpg","img/object_images/remover01.jpg","img/object_images/basket04.jpg","0","1","1","0","1","1","0.465022599964868","0.625731500040274","0.456115800014231","1","1","1","1","1","1","1","1","1"
"260022","img/object_images/basket04.jpg","img/object_images/stereo02.jpg","img/object_images/backpack01.jpg","1","0","1","1","0","0","0.456115800014231","0.465022599964868","0.39419869997073","1","1","1","1","1","1","1","1","1"
"260022","img/object_images/backpack01.jpg","img/object_images/basket04.jpg","img/object_images/hoverboard01.jpg","1","1","1","0","1","0","0.39419869997073","0.456115800014231","0.422172000049613","1","1","1","1","1","1","1","1","1"
"260022","img/object_images/hoverboard01.jpg","img/object_images/backpack01.jpg","img/object_images/tool18.jpg","1","1","1","0","0","0","0.422172000049613","0.39419869997073","0.375452500011306","1","1","1","1","1","1","1","1","1"
"260022","img/object_images/tool18.jpg","img/object_images/hoverboard01.jpg","img/object_images/paper_cup02.jpg","1","1","1","0","0","1","0.375452500011306","0.422172000049613","0.518973500002176","1","1","1","1","1","1","1","1","1"
"260022","img/object_images/paper_cup02.jpg","img/object_images/tool18.jpg","img/object_images/remote_controller01.jpg","1","1","1","1","0","1","0.518973500002176","0.375452500011306","0.407690399966668","1","1","1","1","1","1","1","1","1"
"260022","img/object_images/remote_controller01.jpg","img/object_images/paper_cup02.jpg","img/object_images/knit04.jpg","1","1","1","1","1","1","0.407690399966668","0.518973500002176","0.385567799967248","1","1","1","1","1","1","1","1","1"
"260022","img/object_images/knit04.jpg","img/object_images/remote_controller01.jpg","img/object_images/sponge03.jpg","1","1","1","1","1","1","0.385567799967248","0.407690399966668","0.483506900025532","1","1","1","1","1","1","1","1","1"
"260022","img/object_images/sponge03.jpg","img/object_images/knit04.jpg","img/object_images/keyboard02.jpg","1","1","1","1","1","1","0.483506900025532","0.385567799967248","0.574143000005279","1","1","1","1","1","1","1","1","1"
"260022","img/object_images/keyboard02.jpg","img/object_images/sponge03.jpg","img/object_images/car01.jpg","1","1","1","1","1","1","0.574143000005279","0.483506900025532","0.429297199996654","1","1","1","1","1","1","1","1","1"
"260022","img/object_images/car01.jpg","img/object_images/keyboard02.jpg","img/object_images/boat04.jpg","1","1","1","1","1","0","0.429297199996654","0.574143000005279","0.490257400029805","1","1","1","1","1","1","1","1","1"
"260022","img/object_images/boat04.jpg","img/object_images/car01.jpg","img/object_images/toy08.jpg","1","1","1","0","1","0","0.490257400029805","0.429297199996654","0.490251900046133","1","1","1","1","1","1","1","1","1"
"260022","img/object_images/toy08.jpg","img/object_images/boat04.jpg","img/object_images/mail_box01.jpg","1","1","1","0","0","0","0.490251900046133","0.490257400029805","0.485622500011232","1","1","1","1","1","1","1","1","1"
"260022","img/object_images/mail_box01.jpg","img/object_images/toy08.jpg","img/object_images/Statue01.jpg","1","1","1","0","0","1","0.485622500011232","0.490251900046133","0.523270399949979","1","1","1","1","1","1","1","1","1"
"260022","img/object_images/Statue01.jpg","img/object_images/mail_box01.jpg","img/object_images/curtain02.jpg","1","1","1","1","0","0","0.523270399949979","0.485622500011232","0.455343300011009","1","1","1","1","1","1","1","1","1"
"260022","img/object_images/curtain02.jpg","img/object_images/Statue01.jpg","img/object_images/bottle07.jpg","1","1","1","0","1","1","0.455343300011009","0.523270399949979","0.337358699995093","1","1","1","1","1","1","1","1","1"
"260022","img/object_images/bottle07.jpg","img/object_images/curtain02.jpg","img/object_images/camera03.jpg","1","1","1","1","0","0","0.337358699995093","0.455343300011009","0.448313100030646","1","1","1","1","1","1","1","1","1"
"260022","img/object_images/camera03.jpg","img/object_images/bottle07.jpg","img/object_images/blender02.jpg","1","1","1","0","1","1","0.448313100030646","0.337358699995093","0.488187699986156","1","1","1","1","1","1","1","1","1"
"260022","img/object_images/blender02.jpg","img/object_images/camera03.jpg","img/object_images/shower_head01.jpg","1","1","1","1","0","1","0.488187699986156","0.448313100030646","0.409494799969252","1","1","1","1","1","1","1","1","1"
"260022","img/object_images/shower_head01.jpg","img/object_images/blender02.jpg","img/object_images/kite01.jpg","1","1","1","1","1","1","0.409494799969252","0.488187699986156","0.405649499967694","1","1","1","1","1","1","1","1","1"
"260022","img/object_images/kite01.jpg","img/object_images/shower_head01.jpg","img/object_images/jacket04.jpg","1","1","1","1","1","0","0.405649499967694","0.409494799969252","0.527117799967527","1","1","1","1","1","1","1","1","1"
"260022","img/object_images/jacket04.jpg","img/object_images/kite01.jpg","img/object_images/hand_grip_exerciser01.jpg","1","1","1","0","1","0","0.527117799967527","0.405649499967694","0.68268359999638","1","1","1","1","1","1","1","1","1"
"260022","img/object_images/hand_grip_exerciser01.jpg","img/object_images/jacket04.jpg","img/object_images/matches02.jpg","1","1","1","0","0","0","0.68268359999638","0.527117799967527","0.531972500029951","1","1","1","1","1","1","1","1","1"
"260022","img/object_images/matches02.jpg","img/object_images/hand_grip_exerciser01.jpg","img/object_images/phone02.jpg","1","1","1","0","0","1","0.531972500029951","0.68268359999638","0.43792980001308","1","1","1","1","1","1","1","1","1"
"260022","img/object_images/phone02.jpg","img/object_images/matches02.jpg","img/object_images/knife02.jpg","1","1","1","1","0","0","0.43792980001308","0.531972500029951","0.574856600025669","1","1","1","1","1","1","1","1","1"
"260022","img/object_images/knife02.jpg","img/object_images/phone02.jpg","img/object_images/flashlight03.jpg","1","1","1","0","1","0","0.574856600025669","0.43792980001308","0.457193900016136","1","1","1","1","1","1","1","1","1"
"260022","img/object_images/flashlight03.jpg","img/object_images/knife02.jpg","img/object_images/video_game01.jpg","1","1","1","0","0","1","0.457193900016136","0.574856600025669","0.361223199986853","1","1","1","1","1","1","1","1","1"
"260022","img/object_images/video_game01.jpg","img/object_images/flashlight03.jpg","img/object_images/dresser03.jpg","1","1","1","1","0","0","0.361223199986853","0.457193900016136","0.60209489997942","1","1","1","1","1","1","1","1","1"
"260022","img/object_images/dresser03.jpg","img/object_images/video_game01.jpg","img/object_images/knit03.jpg","1","1","1","0","1","1","0.60209489997942","0.361223199986853","0.419833899999503","1","1","1","1","1","1","1","1","1"
"260022","img/object_images/knit03.jpg","img/object_images/dresser03.jpg","img/object_images/gloves02.jpg","1","1","1","1","0","0","0.419833899999503","0.60209489997942","0.419763799989596","1","1","1","1","1","1","1","1","1"
"260022","img/object_images/gloves02.jpg","img/object_images/knit03.jpg",NA,"1","1",NA,"0","1",NA,"0.419763799989596","0.419833899999503",NA,"1","1",NA,"1","1",NA,"1","1",NA
"260022","img/object_images/bag06.jpg",NA,"img/object_images/satellite01.jpg","1",NA,"1","1",NA,"0","0.561330399999861",NA,"0.365198699990287","1",NA,"1","1",NA,"1","1",NA,"1"
"260022","img/object_images/satellite01.jpg","img/object_images/bag06.jpg","img/object_images/car03.jpg","1","1","0","0","1","0","0.365198699990287","0.561330399999861","0.324089599947911","1","1","1","1","1","1","1","1","1"
"260022","img/object_images/car03.jpg","img/object_images/satellite01.jpg","img/object_images/car04.jpg","0","1","1","0","0","0","0.324089599947911","0.365198699990287","0.507421599992085","1","1","1","1","1","1","1","1","1"
"260022","img/object_images/car04.jpg","img/object_images/car03.jpg","img/object_images/slinky_toy01.jpg","1","0","1","0","0","1","0.507421599992085","0.324089599947911","0.468042300024536","1","1","1","1","1","1","1","1","1"
"260022","img/object_images/slinky_toy01.jpg","img/object_images/car04.jpg","img/object_images/shoes10.jpg","1","1","1","1","0","0","0.468042300024536","0.507421599992085","0.511132800020278","1","1","1","1","1","1","1","1","1"
"260022","img/object_images/shoes10.jpg","img/object_images/slinky_toy01.jpg","img/object_images/ice_tray03.jpg","1","1","1","0","1","1","0.511132800020278","0.468042300024536","0.444699399988167","1","1","1","1","1","1","1","1","1"
"260022","img/object_images/ice_tray03.jpg","img/object_images/shoes10.jpg","img/object_images/yarn02.jpg","1","1","1","1","0","0","0.444699399988167","0.511132800020278","0.415551899990533","1","1","1","1","1","1","1","1","1"
"260022","img/object_images/yarn02.jpg","img/object_images/ice_tray03.jpg","img/object_images/belt01.jpg","1","1","1","0","1","0","0.415551899990533","0.444699399988167","0.389900100009982","1","1","1","1","1","1","1","1","1"
"260022","img/object_images/belt01.jpg","img/object_images/yarn02.jpg","img/object_images/razor01.jpg","1","1","1","0","0","0","0.389900100009982","0.415551899990533","0.509559199970681","1","1","1","1","1","1","1","1","1"
"260022","img/object_images/razor01.jpg","img/object_images/belt01.jpg","img/object_images/cutting_board01.jpg","1","1","1","0","0","1","0.509559199970681","0.389900100009982","0.550962799985427","1","1","1","1","1","1","1","1","1"
"260022","img/object_images/cutting_board01.jpg","img/object_images/razor01.jpg","img/object_images/jewelry07.jpg","1","1","1","1","0","1","0.550962799985427","0.509559199970681","0.483867100032512","1","1","1","1","1","1","1","1","1"
"260022","img/object_images/jewelry07.jpg","img/object_images/cutting_board01.jpg","img/object_images/key02.jpg","1","1","1","1","1","1","0.483867100032512","0.550962799985427","0.410920199996326","1","1","1","1","1","1","1","1","1"
"260022","img/object_images/key02.jpg","img/object_images/jewelry07.jpg","img/object_images/rock03.jpg","1","1","1","1","1","0","0.410920199996326","0.483867100032512","0.55437259998871","1","1","1","1","1","1","1","1","1"
"260022","img/object_images/rock03.jpg","img/object_images/key02.jpg","img/object_images/MeasuringCup01.jpg","1","1","1","0","1","1","0.55437259998871","0.410920199996326","0.430354800017085","1","1","1","1","1","1","1","1","1"
"260022","img/object_images/MeasuringCup01.jpg","img/object_images/rock03.jpg","img/object_images/mask01.jpg","1","1","1","1","0","0","0.430354800017085","0.55437259998871","0.539669200021308","1","1","1","1","1","1","1","1","1"
"260022","img/object_images/mask01.jpg","img/object_images/MeasuringCup01.jpg","img/object_images/toaster02.jpg","1","1","1","0","1","1","0.539669200021308","0.430354800017085","0.412993700010702","1","1","1","1","1","1","1","1","1"
"260022","img/object_images/toaster02.jpg","img/object_images/mask01.jpg","img/object_images/jewel01.jpg","1","1","1","1","0","0","0.412993700010702","0.539669200021308","0.488948699960019","1","1","1","1","1","1","1","1","1"
"260022","img/object_images/jewel01.jpg","img/object_images/toaster02.jpg","img/object_images/WitchHat02.jpg","1","1","1","0","1","1","0.488948699960019","0.412993700010702","0.398947200039402","1","1","1","1","1","1","1","1","1"
"260022","img/object_images/WitchHat02.jpg","img/object_images/jewel01.jpg","img/object_images/screwdriver01.jpg","1","1","1","1","0","0","0.398947200039402","0.488948699960019","0.512387799972203","1","1","1","1","1","1","1","1","1"
"260022","img/object_images/screwdriver01.jpg","img/object_images/WitchHat02.jpg","img/object_images/shower_head03.jpg","1","1","1","0","1","1","0.512387799972203","0.398947200039402","0.506304199981969","1","1","1","1","1","1","1","1","1"
"260022","img/object_images/shower_head03.jpg","img/object_images/screwdriver01.jpg","img/object_images/lemon_squeezer02.jpg","1","1","1","1","0","1","0.506304199981969","0.512387799972203","0.408335700049065","1","1","1","1","1","1","1","1","1"
"260022","img/object_images/lemon_squeezer02.jpg","img/object_images/shower_head03.jpg","img/object_images/hair_brush05.jpg","1","1","1","1","1","1","0.408335700049065","0.506304199981969","0.43375179998111","1","1","1","1","1","1","1","1","1"
"260022","img/object_images/hair_brush05.jpg","img/object_images/lemon_squeezer02.jpg","img/object_images/cards01.jpg","1","1","1","1","1","0","0.43375179998111","0.408335700049065","0.453343399974983","1","1","1","1","1","1","1","1","1"
"260022","img/object_images/cards01.jpg","img/object_images/hair_brush05.jpg","img/object_images/binoculars03.jpg","1","1","1","0","1","1","0.453343399974983","0.43375179998111","0.461682800028939","1","1","1","1","1","1","1","1","1"
"260022","img/object_images/binoculars03.jpg","img/object_images/cards01.jpg","img/object_images/chair04.jpg","1","1","1","1","0","1","0.461682800028939","0.453343399974983","0.484655499982182","1","1","1","1","1","1","1","1","1"
"260022","img/object_images/chair04.jpg","img/object_images/binoculars03.jpg","img/object_images/dress03.jpg","1","1","1","1","1","1","0.484655499982182","0.461682800028939","0.502036999969278","1","1","1","1","1","1","1","1","1"
"260022","img/object_images/dress03.jpg","img/object_images/chair04.jpg","img/object_images/fan05.jpg","1","1","1","1","1","0","0.502036999969278","0.484655499982182","0.556272999965586","1","1","1","1","1","1","1","1","1"
"260022","img/object_images/fan05.jpg","img/object_images/dress03.jpg","img/object_images/ribbon01.jpg","1","1","1","0","1","0","0.556272999965586","0.502036999969278","0.557412899972405","1","1","1","1","1","1","1","1","1"
"260022","img/object_images/ribbon01.jpg","img/object_images/fan05.jpg","img/object_images/tool11.jpg","1","1","1","0","0","1","0.557412899972405","0.556272999965586","0.491397200035863","1","1","1","1","1","1","1","1","1"
"260022","img/object_images/tool11.jpg","img/object_images/ribbon01.jpg","img/object_images/ladle02.jpg","1","1","1","1","0","0","0.491397200035863","0.557412899972405","0.641480700054672","1","1","1","1","1","1","1","1","1"
"260022","img/object_images/ladle02.jpg","img/object_images/tool11.jpg","img/object_images/tv01.jpg","1","1","0","0","1","0","0.641480700054672","0.491397200035863","0.587831299984828","1","1","1","1","1","1","1","1","1"
"260022","img/object_images/tv01.jpg","img/object_images/ladle02.jpg",NA,"0","1",NA,"0","0",NA,"0.587831299984828","0.641480700054672",NA,"1","1",NA,"1","1",NA,"1","1",NA
"260022","img/object_images/Confetti 01.jpg",NA,"img/object_images/floss01.jpg","1",NA,"1","0",NA,"1","0.727091400010977",NA,"0.535043100011535","1",NA,"1","1",NA,"1","1",NA,"1"
"260022","img/object_images/floss01.jpg","img/object_images/Confetti 01.jpg","img/object_images/hammer02.jpg","1","1","1","1","0","0","0.535043100011535","0.727091400010977","0.425415400008205","1","1","1","1","1","1","1","1","1"
"260022","img/object_images/hammer02.jpg","img/object_images/floss01.jpg","img/object_images/dust_pan01.jpg","1","1","1","0","1","1","0.425415400008205","0.535043100011535","0.507159199973103","1","1","1","1","1","1","1","1","1"
"260022","img/object_images/dust_pan01.jpg","img/object_images/hammer02.jpg","img/object_images/clipboard01.jpg","1","1","1","1","0","1","0.507159199973103","0.425415400008205","0.400358400016557","1","1","1","1","1","1","1","1","1"
"260022","img/object_images/clipboard01.jpg","img/object_images/dust_pan01.jpg","img/object_images/socks01.jpg","1","1","1","1","1","1","0.400358400016557","0.507159199973103","0.403855300042778","1","1","1","1","1","1","1","1","1"
"260022","img/object_images/socks01.jpg","img/object_images/clipboard01.jpg","img/object_images/bow_tie03.jpg","1","1","1","1","1","1","0.403855300042778","0.400358400016557","0.401267000008374","1","1","1","1","1","1","1","1","1"
"260022","img/object_images/bow_tie03.jpg","img/object_images/socks01.jpg","img/object_images/tool20.jpg","1","1","1","1","1","0","0.401267000008374","0.403855300042778","0.587999599985778","1","1","1","1","1","1","1","1","1"
"260022","img/object_images/tool20.jpg","img/object_images/bow_tie03.jpg","img/object_images/hat13.jpg","1","1","1","0","1","1","0.587999599985778","0.401267000008374","0.476920500048436","1","1","1","1","1","1","1","1","1"
"260022","img/object_images/hat13.jpg","img/object_images/tool20.jpg","img/object_images/perfume01.jpg","1","1","1","1","0","0","0.476920500048436","0.587999599985778","0.440743300016038","1","1","1","1","1","1","1","1","1"
"260022","img/object_images/perfume01.jpg","img/object_images/hat13.jpg","img/object_images/glasses03.jpg","1","1","1","0","1","0","0.440743300016038","0.476920500048436","0.490028500033077","1","1","1","1","1","1","1","1","1"
"260022","img/object_images/glasses03.jpg","img/object_images/perfume01.jpg","img/object_images/lemon_squeezer01.jpg","1","1","1","0","0","1","0.490028500033077","0.440743300016038","0.421291699982248","1","1","1","1","1","1","1","1","1"
"260022","img/object_images/lemon_squeezer01.jpg","img/object_images/glasses03.jpg","img/object_images/board01.jpg","1","1","1","1","0","1","0.421291699982248","0.490028500033077","0.429984899994452","1","1","1","1","1","1","1","1","1"
"260022","img/object_images/board01.jpg","img/object_images/lemon_squeezer01.jpg","img/object_images/knife01.jpg","1","1","1","1","1","1","0.429984899994452","0.421291699982248","0.433354799984954","1","1","1","1","1","1","1","1","1"
"260022","img/object_images/knife01.jpg","img/object_images/board01.jpg","img/object_images/candle02.jpg","1","1","1","1","1","0","0.433354799984954","0.429984899994452","0.387661700020544","1","1","1","1","1","1","1","1","1"
"260022","img/object_images/candle02.jpg","img/object_images/knife01.jpg","img/object_images/cup01.jpg","1","1","1","0","1","0","0.387661700020544","0.433354799984954","0.447695899987593","1","1","1","1","1","1","1","1","1"
"260022","img/object_images/cup01.jpg","img/object_images/candle02.jpg","img/object_images/pen06.jpg","1","1","1","0","0","0","0.447695899987593","0.387661700020544","0.519606200046837","1","1","1","1","1","1","1","1","1"
"260022","img/object_images/pen06.jpg","img/object_images/cup01.jpg","img/object_images/spray_can01.jpg","1","1","1","0","0","0","0.519606200046837","0.447695899987593","0.4943207000033","1","1","1","1","1","1","1","1","1"
"260022","img/object_images/spray_can01.jpg","img/object_images/pen06.jpg","img/object_images/bag04.jpg","1","1","1","0","0","0","0.4943207000033","0.519606200046837","0.451389900001232","1","1","1","1","1","1","1","1","1"
"260022","img/object_images/bag04.jpg","img/object_images/spray_can01.jpg","img/object_images/video_game02.jpg","1","1","1","0","0","1","0.451389900001232","0.4943207000033","0.466840200009756","1","1","1","1","1","1","1","1","1"
"260022","img/object_images/video_game02.jpg","img/object_images/bag04.jpg","img/object_images/office_supplies01.jpg","1","1","1","1","0","1","0.466840200009756","0.451389900001232","0.412477699981537","1","1","1","1","1","1","1","1","1"
"260022","img/object_images/office_supplies01.jpg","img/object_images/video_game02.jpg","img/object_images/pan03.jpg","1","1","1","1","1","1","0.412477699981537","0.466840200009756","0.475028899963945","1","1","1","1","1","1","1","1","1"
"260022","img/object_images/pan03.jpg","img/object_images/office_supplies01.jpg","img/object_images/vase02.jpg","1","1","1","1","1","1","0.475028899963945","0.412477699981537","0.455574199964758","1","1","1","1","1","1","1","1","1"
"260022","img/object_images/vase02.jpg","img/object_images/pan03.jpg","img/object_images/tool13.jpg","1","1","1","1","1","1","0.455574199964758","0.475028899963945","0.455601699999534","1","1","1","1","1","1","1","1","1"
"260022","img/object_images/tool13.jpg","img/object_images/vase02.jpg","img/object_images/duster01.jpg","1","1","0","1","1","0","0.455601699999534","0.455574199964758","0.435044200043194","1","1","1","1","1","1","1","1","1"
"260022","img/object_images/duster01.jpg","img/object_images/tool13.jpg","img/object_images/Candle_Holder01.jpg","0","1","1","0","1","0","0.435044200043194","0.455601699999534","0.507779000035953","1","1","1","1","1","1","1","1","1"
"260022","img/object_images/Candle_Holder01.jpg","img/object_images/duster01.jpg","img/object_images/sink_filter01 (1).jpg","1","0","1","0","0","0","0.507779000035953","0.435044200043194","0.499129200004973","1","1","1","1","1","1","1","1","1"
"260022","img/object_images/sink_filter01 (1).jpg","img/object_images/Candle_Holder01.jpg","img/object_images/sign02.jpg","1","1","1","0","0","0","0.499129200004973","0.507779000035953","0.532011400035117","1","1","1","1","1","1","1","1","1"
"260022","img/object_images/sign02.jpg","img/object_images/sink_filter01 (1).jpg","img/object_images/razor02.jpg","1","1","1","0","0","1","0.532011400035117","0.499129200004973","0.487020900007337","1","1","1","1","1","1","1","1","1"
"260022","img/object_images/razor02.jpg","img/object_images/sign02.jpg","img/object_images/ruler02.jpg","1","1","1","1","0","1","0.487020900007337","0.532011400035117","0.458897500007879","1","1","1","1","1","1","1","1","1"
"260022","img/object_images/ruler02.jpg","img/object_images/razor02.jpg","img/object_images/hat09.jpg","1","1","1","1","1","0","0.458897500007879","0.487020900007337","0.430093000002671","1","1","1","1","1","1","1","1","1"
"260022","img/object_images/hat09.jpg","img/object_images/ruler02.jpg","img/object_images/camera05.jpg","1","1","1","0","1","0","0.430093000002671","0.458897500007879","0.390049700043164","1","1","1","1","1","1","1","1","1"
"260022","img/object_images/camera05.jpg","img/object_images/hat09.jpg",NA,"1","1",NA,"0","0",NA,"0.390049700043164","0.430093000002671",NA,"1","1",NA,"1","1",NA,"1","1",NA
"260022","img/object_images/chain01.jpg",NA,"img/object_images/airfryer02.jpg","1",NA,"1","0",NA,"1","1.27694120001979",NA,"0.511043799982872","1",NA,"1","1",NA,"1","1",NA,"1"
"260022","img/object_images/airfryer02.jpg","img/object_images/chain01.jpg","img/object_images/bell03.jpg","1","1","1","1","0","0","0.511043799982872","1.27694120001979","0.399757499981206","1","1","1","1","1","1","1","1","1"
"260022","img/object_images/bell03.jpg","img/object_images/airfryer02.jpg","img/object_images/hair_brush01.jpg","1","1","1","0","1","1","0.399757499981206","0.511043799982872","0.415929599956144","1","1","1","1","1","1","1","1","1"
"260022","img/object_images/hair_brush01.jpg","img/object_images/bell03.jpg","img/object_images/computer_mouse02.jpg","1","1","1","1","0","0","0.415929599956144","0.399757499981206","0.360235699976329","1","1","1","1","1","1","1","1","1"
"260022","img/object_images/computer_mouse02.jpg","img/object_images/hair_brush01.jpg","img/object_images/couch01.jpg","1","1","1","0","1","0","0.360235699976329","0.415929599956144","0.389163699990604","1","1","1","1","1","1","1","1","1"
"260022","img/object_images/couch01.jpg","img/object_images/computer_mouse02.jpg","img/object_images/box03.jpg","1","1","1","0","0","0","0.389163699990604","0.360235699976329","0.471432899998035","1","1","1","1","1","1","1","1","1"
"260022","img/object_images/box03.jpg","img/object_images/couch01.jpg","img/object_images/video_game03.jpg","1","1","1","0","0","1","0.471432899998035","0.389163699990604","0.464319600025192","1","1","1","1","1","1","1","1","1"
"260022","img/object_images/video_game03.jpg","img/object_images/box03.jpg","img/object_images/scarf01.jpg","1","1","1","1","0","1","0.464319600025192","0.471432899998035","0.464561899949331","1","1","1","1","1","1","1","1","1"
"260022","img/object_images/scarf01.jpg","img/object_images/video_game03.jpg","img/object_images/toothbrush01.jpg","1","1","1","1","1","0","0.464561899949331","0.464319600025192","0.453953300020657","1","1","1","1","1","1","1","1","1"
"260022","img/object_images/toothbrush01.jpg","img/object_images/scarf01.jpg","img/object_images/drone01.jpg","1","1","1","0","1","1","0.453953300020657","0.464561899949331","0.421479300013743","1","1","1","1","1","1","1","1","1"
"260022","img/object_images/drone01.jpg","img/object_images/toothbrush01.jpg","img/object_images/rock02.jpg","1","1","1","1","0","0","0.421479300013743","0.453953300020657","0.52312929998152","1","1","1","1","1","1","1","1","1"
"260022","img/object_images/rock02.jpg","img/object_images/drone01.jpg","img/object_images/toy01.jpg","1","1","1","0","1","1","0.52312929998152","0.421479300013743","0.44106510002166","1","1","1","1","1","1","1","1","1"
"260022","img/object_images/toy01.jpg","img/object_images/rock02.jpg","img/object_images/blender01.jpg","1","1","1","1","0","0","0.44106510002166","0.52312929998152","0.520522300037555","1","1","1","1","1","1","1","1","1"
"260022","img/object_images/blender01.jpg","img/object_images/toy01.jpg","img/object_images/mail_box02.jpg","1","1","1","0","1","1","0.520522300037555","0.44106510002166","0.424266100046225","1","1","1","1","1","1","1","1","1"
"260022","img/object_images/mail_box02.jpg","img/object_images/blender01.jpg","img/object_images/fork02.jpg","1","1","1","1","0","0","0.424266100046225","0.520522300037555","0.543108099955134","1","1","1","1","1","1","1","1","1"
"260022","img/object_images/fork02.jpg","img/object_images/mail_box02.jpg","img/object_images/floss02.jpg","1","1","1","0","1","1","0.543108099955134","0.424266100046225","0.444872899970505","1","1","1","1","1","1","1","1","1"
"260022","img/object_images/floss02.jpg","img/object_images/fork02.jpg","img/object_images/tool06.jpg","1","1","1","1","0","0","0.444872899970505","0.543108099955134","0.518565099977423","1","1","1","1","1","1","1","1","1"
"260022","img/object_images/tool06.jpg","img/object_images/floss02.jpg","img/object_images/Trowel01.jpg","1","1","1","0","1","0","0.518565099977423","0.444872899970505","0.528213299985509","1","1","1","1","1","1","1","1","1"
"260022","img/object_images/Trowel01.jpg","img/object_images/tool06.jpg","img/object_images/chair06.jpg","1","1","1","0","0","0","0.528213299985509","0.518565099977423","0.466282500012312","1","1","1","1","1","1","1","1","1"
"260022","img/object_images/chair06.jpg","img/object_images/Trowel01.jpg","img/object_images/Violin01.jpg","1","1","1","0","0","0","0.466282500012312","0.528213299985509","0.38736599998083","1","1","1","1","1","1","1","1","1"
"260022","img/object_images/Violin01.jpg","img/object_images/chair06.jpg","img/object_images/tripod01.jpg","1","1","1","0","0","1","0.38736599998083","0.466282500012312","0.430526499985717","1","1","1","1","1","1","1","1","1"
"260022","img/object_images/tripod01.jpg","img/object_images/Violin01.jpg","img/object_images/bag_pipes01.jpg","1","1","1","1","0","1","0.430526499985717","0.38736599998083","0.504645500041079","1","1","1","1","1","1","1","1","1"
"260022","img/object_images/bag_pipes01.jpg","img/object_images/tripod01.jpg","img/object_images/skate_board01.jpg","1","1","0","1","1","0","0.504645500041079","0.430526499985717","0.452541399979964","1","1","1","1","1","1","1","1","1"
"260022","img/object_images/skate_board01.jpg","img/object_images/bag_pipes01.jpg","img/object_images/pitcher09.jpg","0","1","1","0","1","1","0.452541399979964","0.504645500041079","0.482598200032953","1","1","1","1","1","1","1","1","1"
"260022","img/object_images/pitcher09.jpg","img/object_images/skate_board01.jpg","img/object_images/pen01.jpg","1","0","1","1","0","0","0.482598200032953","0.452541399979964","0.483224000025075","1","1","1","1","1","1","1","1","1"
"260022","img/object_images/pen01.jpg","img/object_images/pitcher09.jpg","img/object_images/clip04.jpg","1","1","1","0","1","1","0.483224000025075","0.482598200032953","0.442708799964748","1","1","1","1","1","1","1","1","1"
"260022","img/object_images/clip04.jpg","img/object_images/pen01.jpg","img/object_images/book02.jpg","1","1","1","1","0","1","0.442708799964748","0.483224000025075","0.438101199979428","1","1","1","1","1","1","1","1","1"
"260022","img/object_images/book02.jpg","img/object_images/clip04.jpg","img/object_images/soap03.jpg","1","1","1","1","1","0","0.438101199979428","0.442708799964748","0.456594899995252","1","1","1","1","1","1","1","1","1"
"260022","img/object_images/soap03.jpg","img/object_images/book02.jpg","img/object_images/computer_mouse01.jpg","1","1","1","0","1","1","0.456594899995252","0.438101199979428","0.489173999987543","1","1","1","1","1","1","1","1","1"
"260022","img/object_images/computer_mouse01.jpg","img/object_images/soap03.jpg","img/object_images/egg_slicer01.jpg","1","1","1","1","0","1","0.489173999987543","0.456594899995252","0.376262400008272","1","1","1","1","1","1","1","1","1"
"260022","img/object_images/egg_slicer01.jpg","img/object_images/computer_mouse01.jpg","img/object_images/shoes12.jpg","1","1","1","1","1","1","0.376262400008272","0.489173999987543","0.54126119997818","1","1","1","1","1","1","1","1","1"
"260022","img/object_images/shoes12.jpg","img/object_images/egg_slicer01.jpg",NA,"1","1",NA,"1","1",NA,"0.54126119997818","0.376262400008272",NA,"1","1",NA,"1","1",NA,"1","1",NA
"260022","img/object_images/blanket01.jpg",NA,"img/object_images/glasses07.jpg","1",NA,"1","1",NA,"1","0.510872500017285",NA,"0.443125999998301","1",NA,"1","1",NA,"1","1",NA,"1"
"260022","img/object_images/glasses07.jpg","img/object_images/blanket01.jpg","img/object_images/book01.jpg","1","1","1","1","1","1","0.443125999998301","0.510872500017285","0.3807916000369","1","1","1","1","1","1","1","1","1"
"260022","img/object_images/book01.jpg","img/object_images/glasses07.jpg","img/object_images/speaker01.jpg","1","1","1","1","1","1","0.3807916000369","0.443125999998301","0.370450599992182","1","1","1","1","1","1","1","1","1"
"260022","img/object_images/speaker01.jpg","img/object_images/book01.jpg","img/object_images/hair_clips01.jpg","1","1","1","1","1","1","0.370450599992182","0.3807916000369","0.473919999960344","1","1","1","1","1","1","1","1","1"
"260022","img/object_images/hair_clips01.jpg","img/object_images/speaker01.jpg","img/object_images/tool08.jpg","1","1","0","1","1","0","0.473919999960344","0.370450599992182","0.523575200000778","1","1","1","1","1","1","1","1","1"
"260022","img/object_images/tool08.jpg","img/object_images/hair_clips01.jpg","img/object_images/fire_extinguisher01.jpg","0","1","1","0","1","0","0.523575200000778","0.473919999960344","0.568418100010604","1","1","1","1","1","1","1","1","1"
"260022","img/object_images/fire_extinguisher01.jpg","img/object_images/tool08.jpg","img/object_images/Sprayer01.jpg","1","0","1","0","0","0","0.568418100010604","0.523575200000778","0.403395299974363","1","1","1","1","1","1","1","1","1"
"260022","img/object_images/Sprayer01.jpg","img/object_images/fire_extinguisher01.jpg","img/object_images/colander01.jpg","1","1","1","0","0","0","0.403395299974363","0.568418100010604","0.586503900005482","1","1","1","1","1","1","1","1","1"
"260022","img/object_images/colander01.jpg","img/object_images/Sprayer01.jpg","img/object_images/ring03.jpg","1","1","1","0","0","1","0.586503900005482","0.403395299974363","0.442555200017523","1","1","1","1","1","1","1","1","1"
"260022","img/object_images/ring03.jpg","img/object_images/colander01.jpg","img/object_images/hole_puncher01.jpg","1","1","1","1","0","1","0.442555200017523","0.586503900005482","0.362077399971895","1","1","1","1","1","1","1","1","1"
"260022","img/object_images/hole_puncher01.jpg","img/object_images/ring03.jpg","img/object_images/Pottery01.jpg","1","1","1","1","1","0","0.362077399971895","0.442555200017523","0.70379179995507","1","1","1","1","1","1","1","1","1"
"260022","img/object_images/Pottery01.jpg","img/object_images/hole_puncher01.jpg","img/object_images/purse01.jpg","1","1","1","0","1","1","0.70379179995507","0.362077399971895","0.43928320001578","1","1","1","1","1","1","1","1","1"
"260022","img/object_images/purse01.jpg","img/object_images/Pottery01.jpg","img/object_images/lighter01.jpg","1","1","1","1","0","1","0.43928320001578","0.70379179995507","0.428875999990851","1","1","1","1","1","1","1","1","1"
"260022","img/object_images/lighter01.jpg","img/object_images/purse01.jpg","img/object_images/gift_box04.jpg","1","1","1","1","1","0","0.428875999990851","0.43928320001578","0.368394099990837","1","1","1","1","1","1","1","1","1"
"260022","img/object_images/gift_box04.jpg","img/object_images/lighter01.jpg","img/object_images/faucet01.jpg","1","1","1","0","1","0","0.368394099990837","0.428875999990851","0.572564299975056","1","1","1","1","1","1","1","1","1"
"260022","img/object_images/faucet01.jpg","img/object_images/gift_box04.jpg","img/object_images/TrashCan02.jpg","1","1","1","0","0","1","0.572564299975056","0.368394099990837","0.414007800049148","1","1","1","1","1","1","1","1","1"
"260022","img/object_images/TrashCan02.jpg","img/object_images/faucet01.jpg","img/object_images/projector01.jpg","1","1","1","1","0","0","0.414007800049148","0.572564299975056","0.445248599979095","1","1","1","1","1","1","1","1","1"
"260022","img/object_images/projector01.jpg","img/object_images/TrashCan02.jpg","img/object_images/cup03.jpg","1","1","1","0","1","1","0.445248599979095","0.414007800049148","0.510897600033786","1","1","1","1","1","1","1","1","1"
"260022","img/object_images/cup03.jpg","img/object_images/projector01.jpg","img/object_images/exfoliater_brush01.jpg","1","1","1","1","0","0","0.510897600033786","0.445248599979095","0.429460699961055","1","1","1","1","1","1","1","1","1"
"260022","img/object_images/exfoliater_brush01.jpg","img/object_images/cup03.jpg","img/object_images/basket02.jpg","1","1","1","0","1","0","0.429460699961055","0.510897600033786","0.573279600008391","1","1","1","1","1","1","1","1","1"
"260022","img/object_images/basket02.jpg","img/object_images/exfoliater_brush01.jpg","img/object_images/Kitchen_Towel.jpg","1","1","1","0","0","0","0.573279600008391","0.429460699961055","0.574881399981678","1","1","1","1","1","1","1","1","1"
"260022","img/object_images/Kitchen_Towel.jpg","img/object_images/basket02.jpg","img/object_images/Traffic Sign 01.jpg","1","1","1","0","0","0","0.574881399981678","0.573279600008391","0.519990200002212","1","1","1","1","1","1","1","1","1"
"260022","img/object_images/Traffic Sign 01.jpg","img/object_images/Kitchen_Towel.jpg","img/object_images/cellphone02.jpg","1","1","1","0","0","1","0.519990200002212","0.574881399981678","0.461089799995534","1","1","1","1","1","1","1","1","1"
"260022","img/object_images/cellphone02.jpg","img/object_images/Traffic Sign 01.jpg","img/object_images/jewelry09.jpg","1","1","1","1","0","1","0.461089799995534","0.519990200002212","0.58388739998918","1","1","1","1","1","1","1","1","1"
"260022","img/object_images/jewelry09.jpg","img/object_images/cellphone02.jpg","img/object_images/yo_yo01.jpg","1","1","1","1","1","0","0.58388739998918","0.461089799995534","0.714047400048003","1","1","1","1","1","1","1","1","1"
"260022","img/object_images/yo_yo01.jpg","img/object_images/jewelry09.jpg","img/object_images/bicycle_lock01.jpg","1","1","1","0","1","0","0.714047400048003","0.58388739998918","0.575411199999508","1","1","1","1","1","1","1","1","1"
"260022","img/object_images/bicycle_lock01.jpg","img/object_images/yo_yo01.jpg","img/object_images/pan01.jpg","1","1","1","0","0","1","0.575411199999508","0.714047400048003","0.407581100007519","1","1","1","1","1","1","1","1","1"
"260022","img/object_images/pan01.jpg","img/object_images/bicycle_lock01.jpg","img/object_images/tool07.jpg","1","1","1","1","0","0","0.407581100007519","0.575411199999508","0.424830399977509","1","1","1","1","1","1","1","1","1"
"260022","img/object_images/tool07.jpg","img/object_images/pan01.jpg","img/object_images/tray01.jpg","1","1","1","0","1","1","0.424830399977509","0.407581100007519","0.388155699998606","1","1","1","1","1","1","1","1","1"
"260022","img/object_images/tray01.jpg","img/object_images/tool07.jpg","img/object_images/handcuffs01.jpg","1","1","1","1","0","0","0.388155699998606","0.424830399977509","0.406630600045901","1","1","1","1","1","1","1","1","1"
"260022","img/object_images/handcuffs01.jpg","img/object_images/tray01.jpg","img/object_images/glasses06.jpg","1","1","1","0","1","1","0.406630600045901","0.388155699998606","0.434117600030731","1","1","1","1","1","1","1","1","1"
"260022","img/object_images/glasses06.jpg","img/object_images/handcuffs01.jpg",NA,"1","1",NA,"1","0",NA,"0.434117600030731","0.406630600045901",NA,"1","1",NA,"1","1",NA,"1","1",NA
"260022","img/object_images/frisbee01.jpg",NA,"img/object_images/jewel04.jpg","1",NA,"1","1",NA,"0","0.603614100022241",NA,"0.458546100009698","1",NA,"1","1",NA,"1","1",NA,"1"
"260022","img/object_images/jewel04.jpg","img/object_images/frisbee01.jpg","img/object_images/MetalWire01.jpg","1","1","1","0","1","0","0.458546100009698","0.603614100022241","0.378284200036433","1","1","1","1","1","1","1","1","1"
"260022","img/object_images/MetalWire01.jpg","img/object_images/jewel04.jpg","img/object_images/Stool01.jpg","1","1","1","0","0","0","0.378284200036433","0.458546100009698","0.472681000013836","1","1","1","1","1","1","1","1","1"
"260022","img/object_images/Stool01.jpg","img/object_images/MetalWire01.jpg","img/object_images/tool02.jpg","1","1","1","0","0","1","0.472681000013836","0.378284200036433","0.465385599993169","1","1","1","1","1","1","1","1","1"
"260022","img/object_images/tool02.jpg","img/object_images/Stool01.jpg","img/object_images/pot01 (1).jpg","1","1","1","1","0","0","0.465385599993169","0.472681000013836","0.478733099997044","1","1","1","1","1","1","1","1","1"
"260022","img/object_images/pot01 (1).jpg","img/object_images/tool02.jpg","img/object_images/sink01.jpg","1","1","0","0","1","0","0.478733099997044","0.465385599993169","0.367192299978342","1","1","1","1","1","1","1","1","1"
"260022","img/object_images/sink01.jpg","img/object_images/pot01 (1).jpg","img/object_images/fridge03.jpg","0","1","1","0","0","0","0.367192299978342","0.478733099997044","0.717431400029454","1","1","1","1","1","1","1","1","1"
"260022","img/object_images/fridge03.jpg","img/object_images/sink01.jpg","img/object_images/Tin01.jpg","1","0","1","0","0","1","0.717431400029454","0.367192299978342","0.444458100013435","1","1","1","1","1","1","1","1","1"
"260022","img/object_images/Tin01.jpg","img/object_images/fridge03.jpg","img/object_images/ornament01.jpg","1","1","1","1","0","1","0.444458100013435","0.717431400029454","0.38214879995212","1","1","1","1","1","1","1","1","1"
"260022","img/object_images/ornament01.jpg","img/object_images/Tin01.jpg","img/object_images/helmet01.jpg","1","1","1","1","1","0","0.38214879995212","0.444458100013435","0.654639999964274","1","1","1","1","1","1","1","1","1"
"260022","img/object_images/helmet01.jpg","img/object_images/ornament01.jpg","img/object_images/bow01.jpg","1","1","1","0","1","1","0.654639999964274","0.38214879995212","0.491797499998938","1","1","1","1","1","1","1","1","1"
"260022","img/object_images/bow01.jpg","img/object_images/helmet01.jpg","img/object_images/Vacuum01.jpg","1","1","1","1","0","0","0.491797499998938","0.654639999964274","0.486748199968133","1","1","1","1","1","1","1","1","1"
"260022","img/object_images/Vacuum01.jpg","img/object_images/bow01.jpg","img/object_images/bottle05.jpg","1","1","1","0","1","0","0.486748199968133","0.491797499998938","0.52203739999095","1","1","1","1","1","1","1","1","1"
"260022","img/object_images/bottle05.jpg","img/object_images/Vacuum01.jpg","img/object_images/Ring02.jpg","1","1","1","0","0","0","0.52203739999095","0.486748199968133","0.453181000018958","1","1","1","1","1","1","1","1","1"
"260022","img/object_images/Ring02.jpg","img/object_images/bottle05.jpg","img/object_images/gauze01.jpg","1","1","1","0","0","0","0.453181000018958","0.52203739999095","0.388287299952935","1","1","1","1","1","1","1","1","1"
"260022","img/object_images/gauze01.jpg","img/object_images/Ring02.jpg","img/object_images/dart01.jpg","1","1","1","0","0","0","0.388287299952935","0.453181000018958","0.380975399981253","1","1","1","1","1","1","1","1","1"
"260022","img/object_images/dart01.jpg","img/object_images/gauze01.jpg","img/object_images/judge_gavel01.jpg","1","1","1","0","0","1","0.380975399981253","0.388287299952935","0.396132000023499","1","1","1","1","1","1","1","1","1"
"260022","img/object_images/judge_gavel01.jpg","img/object_images/dart01.jpg","img/object_images/towel02.jpg","1","1","1","1","0","1","0.396132000023499","0.380975399981253","0.370729999965988","1","1","1","1","1","1","1","1","1"
"260022","img/object_images/towel02.jpg","img/object_images/judge_gavel01.jpg","img/object_images/toy04.jpg","1","1","1","1","1","0","0.370729999965988","0.396132000023499","0.467005599988624","1","1","1","1","1","1","1","1","1"
"260022","img/object_images/toy04.jpg","img/object_images/towel02.jpg","img/object_images/outlet01.jpg","1","1","1","0","1","0","0.467005599988624","0.370729999965988","0.398979299992789","1","1","1","1","1","1","1","1","1"
"260022","img/object_images/outlet01.jpg","img/object_images/toy04.jpg","img/object_images/toy03.jpg","1","1","1","0","0","1","0.398979299992789","0.467005599988624","0.519621399987955","1","1","1","1","1","1","1","1","1"
"260022","img/object_images/toy03.jpg","img/object_images/outlet01.jpg","img/object_images/guitar02.jpg","1","1","1","1","0","0","0.519621399987955","0.398979299992789","0.450826200016309","1","1","1","1","1","1","1","1","1"
"260022","img/object_images/guitar02.jpg","img/object_images/toy03.jpg","img/object_images/tool09.jpg","1","1","1","0","1","1","0.450826200016309","0.519621399987955","0.533132100012153","1","1","1","1","1","1","1","1","1"
"260022","img/object_images/tool09.jpg","img/object_images/guitar02.jpg","img/object_images/shovel03.jpg","1","1","1","1","0","1","0.533132100012153","0.450826200016309","0.468308200011961","1","1","1","1","1","1","1","1","1"
"260022","img/object_images/shovel03.jpg","img/object_images/tool09.jpg","img/object_images/watch01.jpg","1","1","1","1","1","0","0.468308200011961","0.533132100012153","0.453150000015739","1","1","1","1","1","1","1","1","1"
"260022","img/object_images/watch01.jpg","img/object_images/shovel03.jpg","img/object_images/mirror01.jpg","1","1","1","0","1","1","0.453150000015739","0.468308200011961","0.50796260003699","1","1","1","1","1","1","1","1","1"
"260022","img/object_images/mirror01.jpg","img/object_images/watch01.jpg","img/object_images/crown02.jpg","1","1","1","1","0","1","0.50796260003699","0.453150000015739","0.421663699962664","1","1","1","1","1","1","1","1","1"
"260022","img/object_images/crown02.jpg","img/object_images/mirror01.jpg","img/object_images/acoustic_capo01.jpg","1","1","1","1","1","1","0.421663699962664","0.50796260003699","0.417272699996829","1","1","1","1","1","1","1","1","1"
"260022","img/object_images/acoustic_capo01.jpg","img/object_images/crown02.jpg","img/object_images/bird_house02.jpg","1","1","1","1","1","1","0.417272699996829","0.421663699962664","0.488961299997754","1","1","1","1","1","1","1","1","1"
"260022","img/object_images/bird_house02.jpg","img/object_images/acoustic_capo01.jpg","img/object_images/video_game07.jpg","1","1","1","1","1","1","0.488961299997754","0.417272699996829","0.417145999963395","1","1","1","1","1","1","1","1","1"
"260022","img/object_images/video_game07.jpg","img/object_images/bird_house02.jpg","img/object_images/stapler.jpg","1","1","1","1","1","1","0.417145999963395","0.488961299997754","0.447388800035696","1","1","1","1","1","1","1","1","1"
"260022","img/object_images/stapler.jpg","img/object_images/video_game07.jpg",NA,"1","1",NA,"1","1",NA,"0.447388800035696","0.417145999963395",NA,"1","1",NA,"1","1",NA,"1","1",NA
"260022","img/object_images/camera_lens01.jpg",NA,"img/object_images/water_scooter01.jpg","1",NA,"1","1",NA,"1","0.567567999998573",NA,"0.372735399985686","1",NA,"1","1",NA,"1","1",NA,"1"
"260022","img/object_images/water_scooter01.jpg","img/object_images/camera_lens01.jpg","img/object_images/flask01.jpg","1","1","1","1","1","0","0.372735399985686","0.567567999998573","0.354102999961469","1","1","1","1","1","1","1","1","1"
"260022","img/object_images/flask01.jpg","img/object_images/water_scooter01.jpg","img/object_images/tie02.jpg","1","1","1","0","1","0","0.354102999961469","0.372735399985686","0.379812199971639","1","1","1","1","1","1","1","1","1"
"260022","img/object_images/tie02.jpg","img/object_images/flask01.jpg","img/object_images/pen05.jpg","1","1","0","0","0","0","0.379812199971639","0.354102999961469","0.347260100010317","1","1","1","1","1","1","1","1","1"
"260022","img/object_images/pen05.jpg","img/object_images/tie02.jpg","img/object_images/audio_port01.jpg","0","1","1","0","0","1","0.347260100010317","0.379812199971639","0.364876300038304","1","1","1","1","1","1","1","1","1"
"260022","img/object_images/audio_port01.jpg","img/object_images/pen05.jpg","img/object_images/shoes07.jpg","1","0","1","1","0","0","0.364876300038304","0.347260100010317","0.461706200032495","1","1","1","1","1","1","1","1","1"
"260022","img/object_images/shoes07.jpg","img/object_images/audio_port01.jpg","img/object_images/helmet04.jpg","1","1","1","0","1","1","0.461706200032495","0.364876300038304","0.415411100024357","1","1","1","1","1","1","1","1","1"
"260022","img/object_images/helmet04.jpg","img/object_images/shoes07.jpg","img/object_images/boat_toy10.jpg","1","1","1","1","0","0","0.415411100024357","0.461706200032495","0.431403499969747","1","1","1","1","1","1","1","1","1"
"260022","img/object_images/boat_toy10.jpg","img/object_images/helmet04.jpg","img/object_images/WoodBox01.jpg","1","1","1","0","1","0","0.431403499969747","0.415411100024357","0.423026100033894","1","1","1","1","1","1","1","1","1"
"260022","img/object_images/WoodBox01.jpg","img/object_images/boat_toy10.jpg","img/object_images/cellphone03.jpg","1","1","1","0","0","0","0.423026100033894","0.431403499969747","0.467428600008134","1","1","1","1","1","1","1","1","1"
"260022","img/object_images/cellphone03.jpg","img/object_images/WoodBox01.jpg","img/object_images/piggy_bank01.jpg","1","1","1","0","0","1","0.467428600008134","0.423026100033894","0.487091200018767","1","1","1","1","1","1","1","1","1"
"260022","img/object_images/piggy_bank01.jpg","img/object_images/cellphone03.jpg","img/object_images/toaster01.jpg","1","1","1","1","0","1","0.487091200018767","0.467428600008134","0.479440300026909","1","1","1","1","1","1","1","1","1"
"260022","img/object_images/toaster01.jpg","img/object_images/piggy_bank01.jpg","img/object_images/perfume02.jpg","1","1","1","1","1","0","0.479440300026909","0.487091200018767","0.372480100020766","1","1","1","1","1","1","1","1","1"
"260022","img/object_images/perfume02.jpg","img/object_images/toaster01.jpg","img/object_images/knit01.jpg","1","1","1","0","1","0","0.372480100020766","0.479440300026909","0.41735099995276","1","1","1","1","1","1","1","1","1"
"260022","img/object_images/knit01.jpg","img/object_images/perfume02.jpg","img/object_images/bean_bag02.jpg","1","1","1","0","0","1","0.41735099995276","0.372480100020766","0.45228180004051","1","1","1","1","1","1","1","1","1"
"260022","img/object_images/bean_bag02.jpg","img/object_images/knit01.jpg","img/object_images/boat02.jpg","1","1","1","1","0","1","0.45228180004051","0.41735099995276","0.454082100011874","1","1","1","1","1","1","1","1","1"
"260022","img/object_images/boat02.jpg","img/object_images/bean_bag02.jpg","img/object_images/bicycle01.jpg","1","1","1","1","1","1","0.454082100011874","0.45228180004051","0.477851900039241","1","1","1","1","1","1","1","1","1"
"260022","img/object_images/bicycle01.jpg","img/object_images/boat02.jpg","img/object_images/coloring_pencil02.jpg","1","1","1","1","1","0","0.477851900039241","0.454082100011874","0.451379999984056","1","1","1","1","1","1","1","1","1"
"260022","img/object_images/coloring_pencil02.jpg","img/object_images/bicycle01.jpg","img/object_images/purse04.jpg","1","1","1","0","1","1","0.451379999984056","0.477851900039241","0.388744900003076","1","1","1","1","1","1","1","1","1"
"260022","img/object_images/purse04.jpg","img/object_images/coloring_pencil02.jpg","img/object_images/toilet_paper_dispenser01.jpg","1","1","1","1","0","1","0.388744900003076","0.451379999984056","0.401663600001484","1","1","1","1","1","1","1","1","1"
"260022","img/object_images/toilet_paper_dispenser01.jpg","img/object_images/purse04.jpg","img/object_images/hat06.jpg","1","1","1","1","1","0","0.401663600001484","0.388744900003076","0.389675299986266","1","1","1","1","1","1","1","1","1"
"260022","img/object_images/hat06.jpg","img/object_images/toilet_paper_dispenser01.jpg","img/object_images/fan02.jpg","1","1","0","0","1","0","0.389675299986266","0.401663600001484","0.436302500020247","1","1","1","1","1","1","1","1","1"
"260022","img/object_images/fan02.jpg","img/object_images/hat06.jpg","img/object_images/tool19.jpg","0","1","1","0","0","1","0.436302500020247","0.389675299986266","0.492955000023358","1","1","1","1","1","1","1","1","1"
"260022","img/object_images/tool19.jpg","img/object_images/fan02.jpg","img/object_images/dog_leash01.jpg","1","0","1","1","0","0","0.492955000023358","0.436302500020247","0.436989700014237","1","1","1","1","1","1","1","1","1"
"260022","img/object_images/dog_leash01.jpg","img/object_images/tool19.jpg","img/object_images/bottle09.jpg","1","1","1","0","1","0","0.436989700014237","0.492955000023358","0.503905299992766","1","1","1","1","1","1","1","1","1"
"260022","img/object_images/bottle09.jpg","img/object_images/dog_leash01.jpg","img/object_images/wagon_cart03.jpg","1","1","1","0","0","1","0.503905299992766","0.436989700014237","0.521044599998277","1","1","1","1","1","1","1","1","1"
"260022","img/object_images/wagon_cart03.jpg","img/object_images/bottle09.jpg","img/object_images/bottle02.jpg","1","1","1","1","0","1","0.521044599998277","0.503905299992766","0.46912159997737","1","1","1","1","1","1","1","1","1"
"260022","img/object_images/bottle02.jpg","img/object_images/wagon_cart03.jpg","img/object_images/bottle10.jpg","1","1","1","1","1","1","0.46912159997737","0.521044599998277","0.362116199976299","1","1","1","1","1","1","1","1","1"
"260022","img/object_images/bottle10.jpg","img/object_images/bottle02.jpg","img/object_images/scoreboard01.jpg","1","1","1","1","1","1","0.362116199976299","0.46912159997737","0.377508000005037","1","1","1","1","1","1","1","1","1"
"260022","img/object_images/scoreboard01.jpg","img/object_images/bottle10.jpg","img/object_images/chair03.jpg","1","1","1","1","1","0","0.377508000005037","0.362116199976299","0.41880670003593","1","1","1","1","1","1","1","1","1"
"260022","img/object_images/chair03.jpg","img/object_images/scoreboard01.jpg","img/object_images/hot_air_balloon02.jpg","1","1","1","0","1","0","0.41880670003593","0.377508000005037","1.31994130002568","1","1","1","1","1","1","1","1","1"
"260022","img/object_images/hot_air_balloon02.jpg","img/object_images/chair03.jpg",NA,"1","1",NA,"0","0",NA,"1.31994130002568","0.41880670003593",NA,"1","1",NA,"1","1",NA,"1","1",NA
"260022","img/object_images/bottle06.jpg",NA,"img/object_images/nut_cracker01.jpg","1",NA,"1","0",NA,"1","0.617792600009125",NA,"0.357828499982134","1",NA,"1","1",NA,"1","1",NA,"1"
"260022","img/object_images/nut_cracker01.jpg","img/object_images/bottle06.jpg","img/object_images/joystick03.jpg","1","1","1","1","0","1","0.357828499982134","0.617792600009125","0.600639100011904","1","1","1","1","1","1","1","1","1"
"260022","img/object_images/joystick03.jpg","img/object_images/nut_cracker01.jpg","img/object_images/badminton01.jpg","1","1","1","1","1","1","0.600639100011904","0.357828499982134","0.375261100009084","1","1","1","1","1","1","1","1","1"
"260022","img/object_images/badminton01.jpg","img/object_images/joystick03.jpg","img/object_images/TreeSlice01.jpg","1","1","1","1","1","1","0.375261100009084","0.600639100011904","0.354654300026596","1","1","1","1","1","1","1","1","1"
"260022","img/object_images/TreeSlice01.jpg","img/object_images/badminton01.jpg","img/object_images/scale02.jpg","1","1","1","1","1","0","0.354654300026596","0.375261100009084","0.381437800009735","1","1","1","1","1","1","1","1","1"
"260022","img/object_images/scale02.jpg","img/object_images/TreeSlice01.jpg","img/object_images/phone04.jpg","1","1","1","0","1","1","0.381437800009735","0.354654300026596","0.369040699966718","1","1","1","1","1","1","1","1","1"
"260022","img/object_images/phone04.jpg","img/object_images/scale02.jpg","img/object_images/helmet03.jpg","1","1","1","1","0","1","0.369040699966718","0.381437800009735","0.616339800006244","1","1","1","1","1","1","1","1","1"
"260022","img/object_images/helmet03.jpg","img/object_images/phone04.jpg","img/object_images/Eyeliner01.jpg","1","1","1","1","1","1","0.616339800006244","0.369040699966718","0.344161599990912","1","1","1","1","1","1","1","1","1"
"260022","img/object_images/Eyeliner01.jpg","img/object_images/helmet03.jpg","img/object_images/belt03.jpg","1","1","1","1","1","0","0.344161599990912","0.616339800006244","0.486607400001958","1","1","1","1","1","1","1","1","1"
"260022","img/object_images/belt03.jpg","img/object_images/Eyeliner01.jpg","img/object_images/yoga_mat01.jpg","1","1","0","0","1","0","0.486607400001958","0.344161599990912","0.388948800042272","1","1","1","1","1","1","1","1","1"
"260022","img/object_images/yoga_mat01.jpg","img/object_images/belt03.jpg","img/object_images/dice01.jpg","0","1","0","0","0","0","0.388948800042272","0.486607400001958","0.547219200001564","1","1","1","1","1","1","1","1","1"
"260022","img/object_images/dice01.jpg","img/object_images/yoga_mat01.jpg","img/object_images/headset02.jpg","0","0","1","0","0","0","0.547219200001564","0.388948800042272","0.676714000001084","1","1","1","1","1","1","1","1","1"
"260022","img/object_images/headset02.jpg","img/object_images/dice01.jpg","img/object_images/frame01.jpg","1","0","1","0","0","1","0.676714000001084","0.547219200001564","0.434796300018206","1","1","1","1","1","1","1","1","1"
"260022","img/object_images/frame01.jpg","img/object_images/headset02.jpg","img/object_images/Safe01.jpg","1","1","1","1","0","1","0.434796300018206","0.676714000001084","0.313515399990138","1","1","1","1","1","1","1","1","1"
"260022","img/object_images/Safe01.jpg","img/object_images/frame01.jpg","img/object_images/fan01.jpg","1","1","1","1","1","0","0.313515399990138","0.434796300018206","0.521765500016045","1","1","1","1","1","1","1","1","1"
"260022","img/object_images/fan01.jpg","img/object_images/Safe01.jpg","img/object_images/note_book02.jpg","1","1","1","0","1","0","0.521765500016045","0.313515399990138","0.554273999994621","1","1","1","1","1","1","1","1","1"
"260022","img/object_images/note_book02.jpg","img/object_images/fan01.jpg","img/object_images/trumpet01.jpg","1","1","1","0","0","0","0.554273999994621","0.521765500016045","0.475431900005788","1","1","1","1","1","1","1","1","1"
"260022","img/object_images/trumpet01.jpg","img/object_images/note_book02.jpg","img/object_images/egg_basket01.jpg","1","1","1","0","0","1","0.475431900005788","0.554273999994621","0.405656000017188","1","1","1","1","1","1","1","1","1"
"260022","img/object_images/egg_basket01.jpg","img/object_images/trumpet01.jpg","img/object_images/usb03.jpg","1","1","1","1","0","0","0.405656000017188","0.475431900005788","0.420624500024132","1","1","1","1","1","1","1","1","1"
"260022","img/object_images/usb03.jpg","img/object_images/egg_basket01.jpg","img/object_images/water_gun01.jpg","1","1","1","0","1","1","0.420624500024132","0.405656000017188","0.447452599997632","1","1","1","1","1","1","1","1","1"
"260022","img/object_images/water_gun01.jpg","img/object_images/usb03.jpg","img/object_images/Shoes05.jpg","1","1","1","1","0","0","0.447452599997632","0.420624500024132","0.521894400008023","1","1","1","1","1","1","1","1","1"
"260022","img/object_images/Shoes05.jpg","img/object_images/water_gun01.jpg","img/object_images/origami01.jpg","1","1","1","0","1","1","0.521894400008023","0.447452599997632","0.468170700012706","1","1","1","1","1","1","1","1","1"
"260022","img/object_images/origami01.jpg","img/object_images/Shoes05.jpg","img/object_images/shovel01.jpg","1","1","1","1","0","0","0.468170700012706","0.521894400008023","0.445582900021691","1","1","1","1","1","1","1","1","1"
"260022","img/object_images/shovel01.jpg","img/object_images/origami01.jpg","img/object_images/lock03.jpg","1","1","1","0","1","1","0.445582900021691","0.468170700012706","0.445646399981342","1","1","1","1","1","1","1","1","1"
"260022","img/object_images/lock03.jpg","img/object_images/shovel01.jpg","img/object_images/bookmark01.jpg","1","1","1","1","0","0","0.445646399981342","0.445582900021691","0.5096166000003","1","1","1","1","1","1","1","1","1"
"260022","img/object_images/bookmark01.jpg","img/object_images/lock03.jpg","img/object_images/ToolBag01.jpg","1","1","1","0","1","0","0.5096166000003","0.445646399981342","0.385402599989902","1","1","1","1","1","1","1","1","1"
"260022","img/object_images/ToolBag01.jpg","img/object_images/bookmark01.jpg","img/object_images/pitcher07.jpg","1","1","1","0","0","1","0.385402599989902","0.5096166000003","0.38008750003064","1","1","1","1","1","1","1","1","1"
"260022","img/object_images/pitcher07.jpg","img/object_images/ToolBag01.jpg","img/object_images/tennis_racket01.jpg","1","1","1","1","0","1","0.38008750003064","0.385402599989902","0.373593100055587","1","1","1","1","1","1","1","1","1"
"260022","img/object_images/tennis_racket01.jpg","img/object_images/pitcher07.jpg","img/object_images/bucket01.jpg","1","1","1","1","1","1","0.373593100055587","0.38008750003064","0.398952200019266","1","1","1","1","1","1","1","1","1"
"260022","img/object_images/bucket01.jpg","img/object_images/tennis_racket01.jpg","img/object_images/jewel02.jpg","1","1","1","1","1","0","0.398952200019266","0.373593100055587","0.729456100030802","1","1","1","1","1","1","1","1","1"
"260022","img/object_images/jewel02.jpg","img/object_images/bucket01.jpg","img/object_images/piano03.jpg","1","1","1","0","1","0","0.729456100030802","0.398952200019266","0.362394499999937","1","1","1","1","1","1","1","1","1"
"260022","img/object_images/piano03.jpg","img/object_images/jewel02.jpg",NA,"1","1",NA,"0","0",NA,"0.362394499999937","0.729456100030802",NA,"1","1",NA,"1","1",NA,"1","1",NA
"260022","img/object_images/clip02.jpg",NA,"img/object_images/wallet02.jpg","1",NA,"1","1",NA,"1","0.474337700055912",NA,"0.416878400021233","1",NA,"1","1",NA,"1","1",NA,"1"
"260022","img/object_images/wallet02.jpg","img/object_images/clip02.jpg","img/object_images/fork03.jpg","1","1","1","1","1","1","0.416878400021233","0.474337700055912","0.538124999962747","1","1","1","1","1","1","1","1","1"
"260022","img/object_images/fork03.jpg","img/object_images/wallet02.jpg","img/object_images/grater01.jpg","1","1","1","1","1","1","0.538124999962747","0.416878400021233","0.438830800005235","1","1","1","1","1","1","1","1","1"
"260022","img/object_images/grater01.jpg","img/object_images/fork03.jpg","img/object_images/ironing_table01.jpg","1","1","1","1","1","0","0.438830800005235","0.538124999962747","0.417233899992425","1","1","1","1","1","1","1","1","1"
"260022","img/object_images/ironing_table01.jpg","img/object_images/grater01.jpg","img/object_images/measuring_tape02.jpg","1","1","1","0","1","1","0.417233899992425","0.438830800005235","0.368850100028794","1","1","1","1","1","1","1","1","1"
"260022","img/object_images/measuring_tape02.jpg","img/object_images/ironing_table01.jpg","img/object_images/couch03.jpg","1","1","1","1","0","0","0.368850100028794","0.417233899992425","0.38197260000743","1","1","1","1","1","1","1","1","1"
"260022","img/object_images/couch03.jpg","img/object_images/measuring_tape02.jpg","img/object_images/bow_tie02.jpg","1","1","1","0","1","0","0.38197260000743","0.368850100028794","0.425787599990144","1","1","1","1","1","1","1","1","1"
"260022","img/object_images/bow_tie02.jpg","img/object_images/couch03.jpg","img/object_images/funnel01.jpg","1","1","1","0","0","0","0.425787599990144","0.38197260000743","0.555667900014669","1","1","1","1","1","1","1","1","1"
"260022","img/object_images/funnel01.jpg","img/object_images/bow_tie02.jpg","img/object_images/sleeping_bag01.jpg","1","1","1","0","0","0","0.555667900014669","0.425787599990144","0.572134000016376","1","1","1","1","1","1","1","1","1"
"260022","img/object_images/sleeping_bag01.jpg","img/object_images/funnel01.jpg","img/object_images/socks02.jpg","1","1","1","0","0","0","0.572134000016376","0.555667900014669","0.563033299986273","1","1","1","1","1","1","1","1","1"
"260022","img/object_images/socks02.jpg","img/object_images/sleeping_bag01.jpg","img/object_images/paper_cup01.jpg","1","1","1","0","0","0","0.563033299986273","0.572134000016376","0.583268999995198","1","1","1","1","1","1","1","1","1"
"260022","img/object_images/paper_cup01.jpg","img/object_images/socks02.jpg","img/object_images/coloring_pencil01.jpg","1","1","1","0","0","1","0.583268999995198","0.563033299986273","0.384573100018315","1","1","1","1","1","1","1","1","1"
"260022","img/object_images/coloring_pencil01.jpg","img/object_images/paper_cup01.jpg","img/object_images/gift_box01.jpg","1","1","1","1","0","1","0.384573100018315","0.583268999995198","0.478702599997632","1","1","1","1","1","1","1","1","1"
"260022","img/object_images/gift_box01.jpg","img/object_images/coloring_pencil01.jpg","img/object_images/camera07.jpg","1","1","1","1","1","1","0.478702599997632","0.384573100018315","0.460170200036373","1","1","1","1","1","1","1","1","1"
"260022","img/object_images/camera07.jpg","img/object_images/gift_box01.jpg","img/object_images/pitcher02.jpg","1","1","1","1","1","1","0.460170200036373","0.478702599997632","0.446622799965553","1","1","1","1","1","1","1","1","1"
"260022","img/object_images/pitcher02.jpg","img/object_images/camera07.jpg","img/object_images/handkerchief01.jpg","1","1","1","1","1","0","0.446622799965553","0.460170200036373","0.442489599983674","1","1","1","1","1","1","1","1","1"
"260022","img/object_images/handkerchief01.jpg","img/object_images/pitcher02.jpg","img/object_images/jewelry01.jpg","1","1","1","0","1","1","0.442489599983674","0.446622799965553","0.377671399968676","1","1","1","1","1","1","1","1","1"
"260022","img/object_images/jewelry01.jpg","img/object_images/handkerchief01.jpg","img/object_images/Witchhat01.jpg","1","1","1","1","0","1","0.377671399968676","0.442489599983674","0.398769700026605","1","1","1","1","1","1","1","1","1"
"260022","img/object_images/Witchhat01.jpg","img/object_images/jewelry01.jpg","img/object_images/lock04.jpg","1","1","1","1","1","1","0.398769700026605","0.377671399968676","0.588113499979954","1","1","1","1","1","1","1","1","1"
"260022","img/object_images/lock04.jpg","img/object_images/Witchhat01.jpg","img/object_images/vga_port 01.jpg","1","1","1","1","1","0","0.588113499979954","0.398769700026605","0.456678999995347","1","1","1","1","1","1","1","1","1"
"260022","img/object_images/vga_port 01.jpg","img/object_images/lock04.jpg","img/object_images/bow_tie01.jpg","1","1","1","0","1","0","0.456678999995347","0.588113499979954","0.453198699979112","1","1","1","1","1","1","1","1","1"
"260022","img/object_images/bow_tie01.jpg","img/object_images/vga_port 01.jpg","img/object_images/hammer01.jpg","1","1","1","0","0","0","0.453198699979112","0.456678999995347","0.427530600049067","1","1","1","1","1","1","1","1","1"
"260022","img/object_images/hammer01.jpg","img/object_images/bow_tie01.jpg","img/object_images/dresser04.jpg","1","1","1","0","0","0","0.427530600049067","0.453198699979112","0.401581000012811","1","1","1","1","1","1","1","1","1"
"260022","img/object_images/dresser04.jpg","img/object_images/hammer01.jpg","img/object_images/lawn_mower01.jpg","1","1","1","0","0","1","0.401581000012811","0.427530600049067","0.469994099985342","1","1","1","1","1","1","1","1","1"
"260022","img/object_images/lawn_mower01.jpg","img/object_images/dresser04.jpg","img/object_images/balloon01.jpg","1","1","1","1","0","0","0.469994099985342","0.401581000012811","0.426222999987658","1","1","1","1","1","1","1","1","1"
"260022","img/object_images/balloon01.jpg","img/object_images/lawn_mower01.jpg","img/object_images/bath_tub01.jpg","1","1","1","0","1","0","0.426222999987658","0.469994099985342","0.467098699999042","1","1","1","1","1","1","1","1","1"
"260022","img/object_images/bath_tub01.jpg","img/object_images/balloon01.jpg","img/object_images/Screws01.jpg","1","1","1","0","0","1","0.467098699999042","0.426222999987658","0.418087099969853","1","1","1","1","1","1","1","1","1"
"260022","img/object_images/Screws01.jpg","img/object_images/bath_tub01.jpg","img/object_images/jacket03.jpg","1","1","1","1","0","0","0.418087099969853","0.467098699999042","0.486650799983181","1","1","1","1","1","1","1","1","1"
"260022","img/object_images/jacket03.jpg","img/object_images/Screws01.jpg","img/object_images/golf_ball03.jpg","1","1","1","0","1","1","0.486650799983181","0.418087099969853","0.481514100043569","1","1","1","1","1","1","1","1","1"
"260022","img/object_images/golf_ball03.jpg","img/object_images/jacket03.jpg","img/object_images/gift_box02.jpg","1","1","1","1","0","1","0.481514100043569","0.486650799983181","0.489763799996581","1","1","1","1","1","1","1","1","1"
"260022","img/object_images/gift_box02.jpg","img/object_images/golf_ball03.jpg","img/object_images/gift_box03.jpg","1","1","1","1","1","0","0.489763799996581","0.481514100043569","0.523748599982355","1","1","1","1","1","1","1","1","1"
"260022","img/object_images/gift_box03.jpg","img/object_images/gift_box02.jpg",NA,"1","1",NA,"0","1",NA,"0.523748599982355","0.489763799996581",NA,"1","1",NA,"1","1",NA,"1","1",NA
