"participant_id","current_trial_object","pre_trial_object","post_trial_object","current_trial_accuracy","pre_trial_accuracy","post_trial_accuracy","current_trial_congruency","pre_trial_congruency","post_trial_congruency","current_trial_rt","pre_trial_rt","post_trial_rt","current_trial_responded","pre_trial_responded","post_trial_responded","current_trial_legitResponse","pre_trial_legitResponse","post_trial_legitResponse","current_trial_resp_nums","pre_trial_resp_nums","post_trial_resp_nums"
"260027","img/object_images/tripod01.jpg",NA,"img/object_images/airfryer02.jpg","1",NA,"0","1",NA,"1","0.603757800068706",NA,"0.777499799965881","1",NA,"1","1",NA,"1","1",NA,"1"
"260027","img/object_images/airfryer02.jpg","img/object_images/tripod01.jpg","img/object_images/scarf01.jpg","0","1","1","1","1","1","0.777499799965881","0.603757800068706","0.609083799994551","1","1","1","1","1","1","1","1","1"
"260027","img/object_images/scarf01.jpg","img/object_images/airfryer02.jpg","img/object_images/fork02.jpg","1","0","1","1","1","0","0.609083799994551","0.777499799965881","0.556863399920985","1","1","1","1","1","1","1","1","1"
"260027","img/object_images/fork02.jpg","img/object_images/scarf01.jpg","img/object_images/hair_brush01.jpg","1","1","1","0","1","1","0.556863399920985","0.609083799994551","0.436414299998432","1","1","1","1","1","1","1","1","1"
"260027","img/object_images/hair_brush01.jpg","img/object_images/fork02.jpg","img/object_images/pen01.jpg","1","1","1","1","0","0","0.436414299998432","0.556863399920985","0.68885809998028","1","1","1","1","1","1","1","1","1"
"260027","img/object_images/pen01.jpg","img/object_images/hair_brush01.jpg","img/object_images/pitcher09.jpg","1","1","1","0","1","1","0.68885809998028","0.436414299998432","0.579369499930181","1","1","1","1","1","1","1","1","1"
"260027","img/object_images/pitcher09.jpg","img/object_images/pen01.jpg","img/object_images/bell03.jpg","1","1","1","1","0","0","0.579369499930181","0.68885809998028","0.630423500086181","1","1","1","1","1","1","1","1","1"
"260027","img/object_images/bell03.jpg","img/object_images/pitcher09.jpg","img/object_images/floss02.jpg","1","1","1","0","1","1","0.630423500086181","0.579369499930181","1.01398930000141","1","1","1","1","1","1","1","1","1"
"260027","img/object_images/floss02.jpg","img/object_images/bell03.jpg","img/object_images/skate_board01.jpg","1","1","1","1","0","0","1.01398930000141","0.630423500086181","0.666780600091442","1","1","1","1","1","1","1","1","1"
"260027","img/object_images/skate_board01.jpg","img/object_images/floss02.jpg","img/object_images/video_game03.jpg","1","1","1","0","1","1","0.666780600091442","1.01398930000141","0.514980499981903","1","1","1","1","1","1","1","1","1"
"260027","img/object_images/video_game03.jpg","img/object_images/skate_board01.jpg","img/object_images/shoes12.jpg","1","1","1","1","0","1","0.514980499981903","0.666780600091442","0.905985299963504","1","1","1","1","1","1","1","1","1"
"260027","img/object_images/shoes12.jpg","img/object_images/video_game03.jpg","img/object_images/bag_pipes01.jpg","1","1","1","1","1","1","0.905985299963504","0.514980499981903","0.5201777999755","1","1","1","1","1","1","1","1","1"
"260027","img/object_images/bag_pipes01.jpg","img/object_images/shoes12.jpg","img/object_images/rock02.jpg","1","1","1","1","1","0","0.5201777999755","0.905985299963504","0.558310399996117","1","1","1","1","1","1","1","1","1"
"260027","img/object_images/rock02.jpg","img/object_images/bag_pipes01.jpg","img/object_images/couch01.jpg","1","1","1","0","1","0","0.558310399996117","0.5201777999755","0.664693100028671","1","1","1","1","1","1","1","1","1"
"260027","img/object_images/couch01.jpg","img/object_images/rock02.jpg","img/object_images/toy01.jpg","1","1","1","0","0","1","0.664693100028671","0.558310399996117","0.635370700038038","1","1","1","1","1","1","1","1","1"
"260027","img/object_images/toy01.jpg","img/object_images/couch01.jpg","img/object_images/blender01.jpg","1","1","1","1","0","0","0.635370700038038","0.664693100028671","0.586692200042307","1","1","1","1","1","1","1","1","1"
"260027","img/object_images/blender01.jpg","img/object_images/toy01.jpg","img/object_images/computer_mouse02.jpg","1","1","1","0","1","0","0.586692200042307","0.635370700038038","0.596054699970409","1","1","1","1","1","1","1","1","1"
"260027","img/object_images/computer_mouse02.jpg","img/object_images/blender01.jpg","img/object_images/mail_box02.jpg","1","1","1","0","0","1","0.596054699970409","0.586692200042307","0.699196800007485","1","1","1","1","1","1","1","1","1"
"260027","img/object_images/mail_box02.jpg","img/object_images/computer_mouse02.jpg","img/object_images/computer_mouse01.jpg","1","1","1","1","0","1","0.699196800007485","0.596054699970409","0.85291130002588","1","1","1","1","1","1","1","1","1"
"260027","img/object_images/computer_mouse01.jpg","img/object_images/mail_box02.jpg","img/object_images/drone01.jpg","1","1","1","1","1","1","0.85291130002588","0.699196800007485","0.501942800008692","1","1","1","1","1","1","1","1","1"
"260027","img/object_images/drone01.jpg","img/object_images/computer_mouse01.jpg","img/object_images/Violin01.jpg","1","1","1","1","1","0","0.501942800008692","0.85291130002588","0.587440299917944","1","1","1","1","1","1","1","1","1"
"260027","img/object_images/Violin01.jpg","img/object_images/drone01.jpg","img/object_images/Trowel01.jpg","1","1","1","0","1","0","0.587440299917944","0.501942800008692","0.58637900010217","1","1","1","1","1","1","1","1","1"
"260027","img/object_images/Trowel01.jpg","img/object_images/Violin01.jpg","img/object_images/tool06.jpg","1","1","1","0","0","0","0.58637900010217","0.587440299917944","0.548276099958457","1","1","1","1","1","1","1","1","1"
"260027","img/object_images/tool06.jpg","img/object_images/Trowel01.jpg","img/object_images/box03.jpg","1","1","1","0","0","0","0.548276099958457","0.58637900010217","0.643525400082581","1","1","1","1","1","1","1","1","1"
"260027","img/object_images/box03.jpg","img/object_images/tool06.jpg","img/object_images/book02.jpg","1","1","1","0","0","1","0.643525400082581","0.548276099958457","0.536230800091289","1","1","1","1","1","1","1","1","1"
"260027","img/object_images/book02.jpg","img/object_images/box03.jpg","img/object_images/clip04.jpg","1","1","1","1","0","1","0.536230800091289","0.643525400082581","0.530164700001478","1","1","1","1","1","1","1","1","1"
"260027","img/object_images/clip04.jpg","img/object_images/book02.jpg","img/object_images/toothbrush01.jpg","1","1","1","1","1","0","0.530164700001478","0.536230800091289","0.530155699932948","1","1","1","1","1","1","1","1","1"
"260027","img/object_images/toothbrush01.jpg","img/object_images/clip04.jpg","img/object_images/egg_slicer01.jpg","1","1","1","0","1","1","0.530155699932948","0.530164700001478","0.650814400054514","1","1","1","1","1","1","1","1","1"
"260027","img/object_images/egg_slicer01.jpg","img/object_images/toothbrush01.jpg","img/object_images/chair06.jpg","1","1","1","1","0","0","0.650814400054514","0.530155699932948","0.606023099971935","1","1","1","1","1","1","1","1","1"
"260027","img/object_images/chair06.jpg","img/object_images/egg_slicer01.jpg","img/object_images/soap03.jpg","1","1","1","0","1","0","0.606023099971935","0.650814400054514","0.612124899984337","1","1","1","1","1","1","1","1","1"
"260027","img/object_images/soap03.jpg","img/object_images/chair06.jpg","img/object_images/chain01.jpg","1","1","1","0","0","0","0.612124899984337","0.606023099971935","0.549485799972899","1","1","1","1","1","1","1","1","1"
"260027","img/object_images/chain01.jpg","img/object_images/soap03.jpg",NA,"1","1",NA,"0","0",NA,"0.549485799972899","0.612124899984337",NA,"1","1",NA,"1","1",NA,"1","1",NA
"260027","img/object_images/coloring_pencil01.jpg",NA,"img/object_images/lawn_mower01.jpg","0",NA,"0","1",NA,"1","0.551898900070228",NA,"0.479007699992508","1",NA,"1","1",NA,"1","1",NA,"1"
"260027","img/object_images/lawn_mower01.jpg","img/object_images/coloring_pencil01.jpg","img/object_images/fork03.jpg","0","0","1","1","1","1","0.479007699992508","0.551898900070228","0.528131400002167","1","1","1","1","1","1","1","1","1"
"260027","img/object_images/fork03.jpg","img/object_images/lawn_mower01.jpg","img/object_images/sleeping_bag01.jpg","1","0","1","1","1","0","0.528131400002167","0.479007699992508","0.53522239997983","1","1","1","1","1","1","1","1","1"
"260027","img/object_images/sleeping_bag01.jpg","img/object_images/fork03.jpg","img/object_images/bow_tie01.jpg","1","1","1","0","1","0","0.53522239997983","0.528131400002167","0.430120799923316","1","1","1","1","1","1","1","1","1"
"260027","img/object_images/bow_tie01.jpg","img/object_images/sleeping_bag01.jpg","img/object_images/dresser04.jpg","1","1","1","0","0","0","0.430120799923316","0.53522239997983","0.375471399980597","1","1","1","1","1","1","1","1","1"
"260027","img/object_images/dresser04.jpg","img/object_images/bow_tie01.jpg","img/object_images/clip02.jpg","1","1","1","0","0","1","0.375471399980597","0.430120799923316","0.314510700060055","1","1","1","1","1","1","1","1","1"
"260027","img/object_images/clip02.jpg","img/object_images/dresser04.jpg","img/object_images/balloon01.jpg","1","1","1","1","0","0","0.314510700060055","0.375471399980597","0.990249100024812","1","1","1","1","1","1","1","1","1"
"260027","img/object_images/balloon01.jpg","img/object_images/clip02.jpg","img/object_images/socks02.jpg","1","1","1","0","1","0","0.990249100024812","0.314510700060055","0.670965500059538","1","1","1","1","1","1","1","1","1"
"260027","img/object_images/socks02.jpg","img/object_images/balloon01.jpg","img/object_images/lock04.jpg","1","1","1","0","0","1","0.670965500059538","0.990249100024812","0.313946399954148","1","1","1","1","1","1","1","1","1"
"260027","img/object_images/lock04.jpg","img/object_images/socks02.jpg","img/object_images/wallet02.jpg","1","1","1","1","0","1","0.313946399954148","0.670965500059538","0.458473099977709","1","1","1","1","1","1","1","1","1"
"260027","img/object_images/wallet02.jpg","img/object_images/lock04.jpg","img/object_images/gift_box01.jpg","1","1","1","1","1","1","0.458473099977709","0.313946399954148","0.387326100026257","1","1","1","1","1","1","1","1","1"
"260027","img/object_images/gift_box01.jpg","img/object_images/wallet02.jpg","img/object_images/Screws01.jpg","1","1","0","1","1","1","0.387326100026257","0.458473099977709","0.352353099966422","1","1","1","1","1","1","1","1","1"
"260027","img/object_images/Screws01.jpg","img/object_images/gift_box01.jpg","img/object_images/vga_port 01.jpg","0","1","1","1","1","0","0.352353099966422","0.387326100026257","0.520908300066367","1","1","1","1","1","1","1","1","1"
"260027","img/object_images/vga_port 01.jpg","img/object_images/Screws01.jpg","img/object_images/jacket03.jpg","1","0","1","0","1","0","0.520908300066367","0.352353099966422","0.481092000030912","1","1","1","1","1","1","1","1","1"
"260027","img/object_images/jacket03.jpg","img/object_images/vga_port 01.jpg","img/object_images/jewelry01.jpg","1","1","1","0","0","1","0.481092000030912","0.520908300066367","0.310612399945967","1","1","1","1","1","1","1","1","1"
"260027","img/object_images/jewelry01.jpg","img/object_images/jacket03.jpg","img/object_images/ironing_table01.jpg","1","1","0","1","0","0","0.310612399945967","0.481092000030912","0.521198700065725","1","1","1","1","1","1","1","1","1"
"260027","img/object_images/ironing_table01.jpg","img/object_images/jewelry01.jpg","img/object_images/Witchhat01.jpg","0","1","1","0","1","1","0.521198700065725","0.310612399945967","0.897197199985385","1","1","1","1","1","1","1","1","1"
"260027","img/object_images/Witchhat01.jpg","img/object_images/ironing_table01.jpg","img/object_images/golf_ball03.jpg","1","0","1","1","0","1","0.897197199985385","0.521198700065725","0.668004200095311","1","1","1","1","1","1","1","1","1"
"260027","img/object_images/golf_ball03.jpg","img/object_images/Witchhat01.jpg","img/object_images/handkerchief01.jpg","1","1","1","1","1","0","0.668004200095311","0.897197199985385","0.509438800043426","1","1","1","1","1","1","1","1","1"
"260027","img/object_images/handkerchief01.jpg","img/object_images/golf_ball03.jpg","img/object_images/grater01.jpg","1","1","1","0","1","1","0.509438800043426","0.668004200095311","0.371485900017433","1","1","1","1","1","1","1","1","1"
"260027","img/object_images/grater01.jpg","img/object_images/handkerchief01.jpg","img/object_images/bow_tie02.jpg","1","1","1","1","0","0","0.371485900017433","0.509438800043426","0.531498500029556","1","1","1","1","1","1","1","1","1"
"260027","img/object_images/bow_tie02.jpg","img/object_images/grater01.jpg","img/object_images/gift_box02.jpg","1","1","1","0","1","1","0.531498500029556","0.371485900017433","0.458648700034246","1","1","1","1","1","1","1","1","1"
"260027","img/object_images/gift_box02.jpg","img/object_images/bow_tie02.jpg","img/object_images/couch03.jpg","1","1","1","1","0","0","0.458648700034246","0.531498500029556","0.523166200029664","1","1","1","1","1","1","1","1","1"
"260027","img/object_images/couch03.jpg","img/object_images/gift_box02.jpg","img/object_images/gift_box03.jpg","1","1","1","0","1","0","0.523166200029664","0.458648700034246","0.505309400032274","1","1","1","1","1","1","1","1","1"
"260027","img/object_images/gift_box03.jpg","img/object_images/couch03.jpg","img/object_images/bath_tub01.jpg","1","1","1","0","0","0","0.505309400032274","0.523166200029664","0.663660699967295","1","1","1","1","1","1","1","1","1"
"260027","img/object_images/bath_tub01.jpg","img/object_images/gift_box03.jpg","img/object_images/measuring_tape02.jpg","1","1","1","0","0","1","0.663660699967295","0.505309400032274","0.459993200027384","1","1","1","1","1","1","1","1","1"
"260027","img/object_images/measuring_tape02.jpg","img/object_images/bath_tub01.jpg","img/object_images/funnel01.jpg","1","1","1","1","0","0","0.459993200027384","0.663660699967295","0.630543400067836","1","1","1","1","1","1","1","1","1"
"260027","img/object_images/funnel01.jpg","img/object_images/measuring_tape02.jpg","img/object_images/camera07.jpg","1","1","0","0","1","1","0.630543400067836","0.459993200027384","0.4193435999332","1","1","1","1","1","1","1","1","1"
"260027","img/object_images/camera07.jpg","img/object_images/funnel01.jpg","img/object_images/pitcher02.jpg","0","1","1","1","0","1","0.4193435999332","0.630543400067836","0.549835400073789","1","1","1","1","1","1","1","1","1"
"260027","img/object_images/pitcher02.jpg","img/object_images/camera07.jpg","img/object_images/paper_cup01.jpg","1","0","1","1","1","0","0.549835400073789","0.4193435999332","0.96159840002656","1","1","1","1","1","1","1","1","1"
"260027","img/object_images/paper_cup01.jpg","img/object_images/pitcher02.jpg","img/object_images/hammer01.jpg","1","1","1","0","1","0","0.96159840002656","0.549835400073789","0.585445700096898","1","1","1","1","1","1","1","1","1"
"260027","img/object_images/hammer01.jpg","img/object_images/paper_cup01.jpg",NA,"1","1",NA,"0","0",NA,"0.585445700096898","0.96159840002656",NA,"1","1",NA,"1","1",NA,"1","1",NA
"260027","img/object_images/shovel01.jpg",NA,"img/object_images/water_gun01.jpg","1",NA,"1","0",NA,"1","0.567195300012827",NA,"0.445400699973106","1",NA,"1","1",NA,"1","1",NA,"1"
"260027","img/object_images/water_gun01.jpg","img/object_images/shovel01.jpg","img/object_images/trumpet01.jpg","1","1","0","1","0","0","0.445400699973106","0.567195300012827","0.473580700112507","1","1","1","1","1","1","1","1","1"
"260027","img/object_images/trumpet01.jpg","img/object_images/water_gun01.jpg","img/object_images/bookmark01.jpg","0","1","1","0","1","0","0.473580700112507","0.445400699973106","0.631210200022906","1","1","1","1","1","1","1","1","1"
"260027","img/object_images/bookmark01.jpg","img/object_images/trumpet01.jpg","img/object_images/origami01.jpg","1","0","0","0","0","1","0.631210200022906","0.473580700112507","0.605840900097974","1","1","1","1","1","1","1","1","1"
"260027","img/object_images/origami01.jpg","img/object_images/bookmark01.jpg","img/object_images/piano03.jpg","0","1","1","1","0","0","0.605840900097974","0.631210200022906","0.623576599988155","1","1","1","1","1","1","1","1","1"
"260027","img/object_images/piano03.jpg","img/object_images/origami01.jpg","img/object_images/Eyeliner01.jpg","1","0","1","0","1","1","0.623576599988155","0.605840900097974","0.681009200052358","1","1","1","1","1","1","1","1","1"
"260027","img/object_images/Eyeliner01.jpg","img/object_images/piano03.jpg","img/object_images/phone04.jpg","1","1","0","1","0","1","0.681009200052358","0.623576599988155","0.51891230000183","1","1","1","1","1","1","1","1","1"
"260027","img/object_images/phone04.jpg","img/object_images/Eyeliner01.jpg","img/object_images/note_book02.jpg","0","1","1","1","1","0","0.51891230000183","0.681009200052358","0.632096700021066","1","1","1","1","1","1","1","1","1"
"260027","img/object_images/note_book02.jpg","img/object_images/phone04.jpg","img/object_images/belt03.jpg","1","0","1","0","1","0","0.632096700021066","0.51891230000183","0.911471999948844","1","1","1","1","1","1","1","1","1"
"260027","img/object_images/belt03.jpg","img/object_images/note_book02.jpg","img/object_images/nut_cracker01.jpg","1","1","1","0","0","1","0.911471999948844","0.632096700021066","0.509682799922302","1","1","1","1","1","1","1","1","1"
"260027","img/object_images/nut_cracker01.jpg","img/object_images/belt03.jpg","img/object_images/frame01.jpg","1","1","1","1","0","1","0.509682799922302","0.911471999948844","0.422780900029466","1","1","1","1","1","1","1","1","1"
"260027","img/object_images/frame01.jpg","img/object_images/nut_cracker01.jpg","img/object_images/Shoes05.jpg","1","1","1","1","1","0","0.422780900029466","0.509682799922302","0.47393820004072","1","1","1","1","1","1","1","1","1"
"260027","img/object_images/Shoes05.jpg","img/object_images/frame01.jpg","img/object_images/lock03.jpg","1","1","1","0","1","1","0.47393820004072","0.422780900029466","0.623746099998243","1","1","1","1","1","1","1","1","1"
"260027","img/object_images/lock03.jpg","img/object_images/Shoes05.jpg","img/object_images/fan01.jpg","1","1","1","1","0","0","0.623746099998243","0.47393820004072","0.448410700075328","1","1","1","1","1","1","1","1","1"
"260027","img/object_images/fan01.jpg","img/object_images/lock03.jpg","img/object_images/dice01.jpg","1","1","1","0","1","0","0.448410700075328","0.623746099998243","0.303558700019494","1","1","1","1","1","1","1","1","1"
"260027","img/object_images/dice01.jpg","img/object_images/fan01.jpg","img/object_images/TreeSlice01.jpg","1","1","1","0","0","1","0.303558700019494","0.448410700075328","0.444020400056615","1","1","1","1","1","1","1","1","1"
"260027","img/object_images/TreeSlice01.jpg","img/object_images/dice01.jpg","img/object_images/pitcher07.jpg","1","1","0","1","0","1","0.444020400056615","0.303558700019494","0.468892400036566","1","1","1","1","1","1","1","1","1"
"260027","img/object_images/pitcher07.jpg","img/object_images/TreeSlice01.jpg","img/object_images/joystick03.jpg","0","1","1","1","1","1","0.468892400036566","0.444020400056615","0.446855899994262","1","1","1","1","1","1","1","1","1"
"260027","img/object_images/joystick03.jpg","img/object_images/pitcher07.jpg","img/object_images/badminton01.jpg","1","0","1","1","1","1","0.446855899994262","0.468892400036566","0.402207899955101","1","1","1","1","1","1","1","1","1"
"260027","img/object_images/badminton01.jpg","img/object_images/joystick03.jpg","img/object_images/bucket01.jpg","1","1","1","1","1","1","0.402207899955101","0.446855899994262","0.445236300001852","1","1","1","1","1","1","1","1","1"
"260027","img/object_images/bucket01.jpg","img/object_images/badminton01.jpg","img/object_images/jewel02.jpg","1","1","1","1","1","0","0.445236300001852","0.402207899955101","0.465297400020063","1","1","1","1","1","1","1","1","1"
"260027","img/object_images/jewel02.jpg","img/object_images/bucket01.jpg","img/object_images/yoga_mat01.jpg","1","1","1","0","1","0","0.465297400020063","0.445236300001852","0.551252800039947","1","1","1","1","1","1","1","1","1"
"260027","img/object_images/yoga_mat01.jpg","img/object_images/jewel02.jpg","img/object_images/headset02.jpg","1","1","1","0","0","0","0.551252800039947","0.465297400020063","0.93058129993733","1","1","1","1","1","1","1","1","1"
"260027","img/object_images/headset02.jpg","img/object_images/yoga_mat01.jpg","img/object_images/ToolBag01.jpg","1","1","0","0","0","0","0.93058129993733","0.551252800039947","0.546451499918476","1","1","1","1","1","1","1","1","1"
"260027","img/object_images/ToolBag01.jpg","img/object_images/headset02.jpg","img/object_images/bottle06.jpg","0","1","1","0","0","0","0.546451499918476","0.93058129993733","0.4958904000232","1","1","1","1","1","1","1","1","1"
"260027","img/object_images/bottle06.jpg","img/object_images/ToolBag01.jpg","img/object_images/scale02.jpg","1","0","1","0","0","0","0.4958904000232","0.546451499918476","0.307874000049196","1","1","1","1","1","1","1","1","1"
"260027","img/object_images/scale02.jpg","img/object_images/bottle06.jpg","img/object_images/usb03.jpg","1","1","1","0","0","0","0.307874000049196","0.4958904000232","0.643484900007024","1","1","1","1","1","1","1","1","1"
"260027","img/object_images/usb03.jpg","img/object_images/scale02.jpg","img/object_images/tennis_racket01.jpg","1","1","1","0","0","1","0.643484900007024","0.307874000049196","0.474189099972136","1","1","1","1","1","1","1","1","1"
"260027","img/object_images/tennis_racket01.jpg","img/object_images/usb03.jpg","img/object_images/helmet03.jpg","1","1","1","1","0","1","0.474189099972136","0.643484900007024","0.707570099970326","1","1","1","1","1","1","1","1","1"
"260027","img/object_images/helmet03.jpg","img/object_images/tennis_racket01.jpg","img/object_images/Safe01.jpg","1","1","1","1","1","1","0.707570099970326","0.474189099972136","0.833035600022413","1","1","1","1","1","1","1","1","1"
"260027","img/object_images/Safe01.jpg","img/object_images/helmet03.jpg","img/object_images/egg_basket01.jpg","1","1","1","1","1","1","0.833035600022413","0.707570099970326","0.592752100084908","1","1","1","1","1","1","1","1","1"
"260027","img/object_images/egg_basket01.jpg","img/object_images/Safe01.jpg",NA,"1","1",NA,"1","1",NA,"0.592752100084908","0.833035600022413",NA,"1","1",NA,"1","1",NA,"1","1",NA
"260027","img/object_images/Vacuum01.jpg",NA,"img/object_images/frisbee01.jpg","1",NA,"1","0",NA,"1","0.542645100038499",NA,"0.501853100024164","1",NA,"1","1",NA,"1","1",NA,"1"
"260027","img/object_images/frisbee01.jpg","img/object_images/Vacuum01.jpg","img/object_images/shovel03.jpg","1","1","1","1","0","1","0.501853100024164","0.542645100038499","0.536748299957253","1","1","1","1","1","1","1","1","1"
"260027","img/object_images/shovel03.jpg","img/object_images/frisbee01.jpg","img/object_images/Stool01.jpg","1","1","0","1","1","0","0.536748299957253","0.501853100024164","0.456082699936815","1","1","1","1","1","1","1","1","1"
"260027","img/object_images/Stool01.jpg","img/object_images/shovel03.jpg","img/object_images/tool09.jpg","0","1","1","0","1","1","0.456082699936815","0.536748299957253","0.547551900031976","1","1","1","1","1","1","1","1","1"
"260027","img/object_images/tool09.jpg","img/object_images/Stool01.jpg","img/object_images/crown02.jpg","1","0","1","1","0","1","0.547551900031976","0.456082699936815","0.506632800097577","1","1","1","1","1","1","1","1","1"
"260027","img/object_images/crown02.jpg","img/object_images/tool09.jpg","img/object_images/ornament01.jpg","1","1","1","1","1","1","0.506632800097577","0.547551900031976","0.494820899912156","1","1","1","1","1","1","1","1","1"
"260027","img/object_images/ornament01.jpg","img/object_images/crown02.jpg","img/object_images/outlet01.jpg","1","1","1","1","1","0","0.494820899912156","0.506632800097577","0.331027499982156","1","1","1","1","1","1","1","1","1"
"260027","img/object_images/outlet01.jpg","img/object_images/ornament01.jpg","img/object_images/watch01.jpg","1","1","1","0","1","0","0.331027499982156","0.494820899912156","0.543914300040342","1","1","1","1","1","1","1","1","1"
"260027","img/object_images/watch01.jpg","img/object_images/outlet01.jpg","img/object_images/judge_gavel01.jpg","1","1","1","0","0","1","0.543914300040342","0.331027499982156","0.68748309998773","1","1","1","1","1","1","1","1","1"
"260027","img/object_images/judge_gavel01.jpg","img/object_images/watch01.jpg","img/object_images/gauze01.jpg","1","1","1","1","0","0","0.68748309998773","0.543914300040342","0.53777799999807","1","1","1","1","1","1","1","1","1"
"260027","img/object_images/gauze01.jpg","img/object_images/judge_gavel01.jpg","img/object_images/MetalWire01.jpg","1","1","0","0","1","0","0.53777799999807","0.68748309998773","0.39425609994214","1","1","1","1","1","1","1","1","1"
"260027","img/object_images/MetalWire01.jpg","img/object_images/gauze01.jpg","img/object_images/bow01.jpg","0","1","1","0","0","1","0.39425609994214","0.53777799999807","0.559175600064918","1","1","1","1","1","1","1","1","1"
"260027","img/object_images/bow01.jpg","img/object_images/MetalWire01.jpg","img/object_images/acoustic_capo01.jpg","1","0","0","1","0","1","0.559175600064918","0.39425609994214","0.465807200060226","1","1","1","1","1","1","1","1","1"
"260027","img/object_images/acoustic_capo01.jpg","img/object_images/bow01.jpg","img/object_images/Tin01.jpg","0","1","1","1","1","1","0.465807200060226","0.559175600064918","0.515362899983302","1","1","1","1","1","1","1","1","1"
"260027","img/object_images/Tin01.jpg","img/object_images/acoustic_capo01.jpg","img/object_images/guitar02.jpg","1","0","1","1","1","0","0.515362899983302","0.465807200060226","0.457657500053756","1","1","1","1","1","1","1","1","1"
"260027","img/object_images/guitar02.jpg","img/object_images/Tin01.jpg","img/object_images/mirror01.jpg","1","1","1","0","1","1","0.457657500053756","0.515362899983302","0.385991499992087","1","1","1","1","1","1","1","1","1"
"260027","img/object_images/mirror01.jpg","img/object_images/guitar02.jpg","img/object_images/fridge03.jpg","1","1","1","1","0","0","0.385991499992087","0.457657500053756","0.460532700060867","1","1","1","1","1","1","1","1","1"
"260027","img/object_images/fridge03.jpg","img/object_images/mirror01.jpg","img/object_images/Ring02.jpg","1","1","1","0","1","0","0.460532700060867","0.385991499992087","0.454425000003539","1","1","1","1","1","1","1","1","1"
"260027","img/object_images/Ring02.jpg","img/object_images/fridge03.jpg","img/object_images/video_game07.jpg","1","1","1","0","0","1","0.454425000003539","0.460532700060867","0.455218199989758","1","1","1","1","1","1","1","1","1"
"260027","img/object_images/video_game07.jpg","img/object_images/Ring02.jpg","img/object_images/bottle05.jpg","1","1","1","1","0","0","0.455218199989758","0.454425000003539","0.555678200093098","1","1","1","1","1","1","1","1","1"
"260027","img/object_images/bottle05.jpg","img/object_images/video_game07.jpg","img/object_images/helmet01.jpg","1","1","1","0","1","0","0.555678200093098","0.455218199989758","0.542559800087474","1","1","1","1","1","1","1","1","1"
"260027","img/object_images/helmet01.jpg","img/object_images/bottle05.jpg","img/object_images/sink01.jpg","1","1","1","0","0","0","0.542559800087474","0.555678200093098","0.496562500018627","1","1","1","1","1","1","1","1","1"
"260027","img/object_images/sink01.jpg","img/object_images/helmet01.jpg","img/object_images/dart01.jpg","1","1","1","0","0","0","0.496562500018627","0.542559800087474","0.548740400001407","1","1","1","1","1","1","1","1","1"
"260027","img/object_images/dart01.jpg","img/object_images/sink01.jpg","img/object_images/stapler.jpg","1","1","0","0","0","1","0.548740400001407","0.496562500018627","0.431312300032005","1","1","1","1","1","1","1","1","1"
"260027","img/object_images/stapler.jpg","img/object_images/dart01.jpg","img/object_images/toy03.jpg","0","1","0","1","0","1","0.431312300032005","0.548740400001407","0.96503500000108","1","1","1","1","1","1","1","1","1"
"260027","img/object_images/toy03.jpg","img/object_images/stapler.jpg","img/object_images/towel02.jpg","0","0","1","1","1","1","0.96503500000108","0.431312300032005","0.852985300007276","1","1","1","1","1","1","1","1","1"
"260027","img/object_images/towel02.jpg","img/object_images/toy03.jpg","img/object_images/bird_house02.jpg","1","0","0","1","1","1","0.852985300007276","0.96503500000108","0.491401700070128","1","1","1","1","1","1","1","1","1"
"260027","img/object_images/bird_house02.jpg","img/object_images/towel02.jpg","img/object_images/jewel04.jpg","0","1","1","1","1","0","0.491401700070128","0.852985300007276","0.549333400093019","1","1","1","1","1","1","1","1","1"
"260027","img/object_images/jewel04.jpg","img/object_images/bird_house02.jpg","img/object_images/pot01 (1).jpg","1","0","1","0","1","0","0.549333400093019","0.491401700070128","0.626922500086948","1","1","1","1","1","1","1","1","1"
"260027","img/object_images/pot01 (1).jpg","img/object_images/jewel04.jpg","img/object_images/toy04.jpg","1","1","1","0","0","0","0.626922500086948","0.549333400093019","0.530249399947934","1","1","1","1","1","1","1","1","1"
"260027","img/object_images/toy04.jpg","img/object_images/pot01 (1).jpg","img/object_images/tool02.jpg","1","1","1","0","0","1","0.530249399947934","0.626922500086948","0.486875099944882","1","1","1","1","1","1","1","1","1"
"260027","img/object_images/tool02.jpg","img/object_images/toy04.jpg",NA,"1","1",NA,"1","0",NA,"0.486875099944882","0.530249399947934",NA,"1","1",NA,"1","1",NA,"1","1",NA
"260027","img/object_images/lighter01.jpg",NA,"img/object_images/cellphone02.jpg","1",NA,"1","1",NA,"1","1.29008509998675",NA,"0.512177200056612","1",NA,"1","1",NA,"1","1",NA,"1"
"260027","img/object_images/cellphone02.jpg","img/object_images/lighter01.jpg","img/object_images/exfoliater_brush01.jpg","1","1","1","1","1","0","0.512177200056612","1.29008509998675","0.484137099934742","1","1","1","1","1","1","1","1","1"
"260027","img/object_images/exfoliater_brush01.jpg","img/object_images/cellphone02.jpg","img/object_images/blanket01.jpg","1","1","1","0","1","1","0.484137099934742","0.512177200056612","0.492019600002095","1","1","1","1","1","1","1","1","1"
"260027","img/object_images/blanket01.jpg","img/object_images/exfoliater_brush01.jpg","img/object_images/purse01.jpg","1","1","1","1","0","1","0.492019600002095","0.484137099934742","0.452270400011912","1","1","1","1","1","1","1","1","1"
"260027","img/object_images/purse01.jpg","img/object_images/blanket01.jpg","img/object_images/Pottery01.jpg","1","1","1","1","1","0","0.452270400011912","0.492019600002095","0.641170599963516","1","1","1","1","1","1","1","1","1"
"260027","img/object_images/Pottery01.jpg","img/object_images/purse01.jpg","img/object_images/tool07.jpg","1","1","1","0","1","0","0.641170599963516","0.452270400011912","0.548841599957086","1","1","1","1","1","1","1","1","1"
"260027","img/object_images/tool07.jpg","img/object_images/Pottery01.jpg","img/object_images/gift_box04.jpg","1","1","1","0","0","0","0.548841599957086","0.641170599963516","0.597580999950878","1","1","1","1","1","1","1","1","1"
"260027","img/object_images/gift_box04.jpg","img/object_images/tool07.jpg","img/object_images/bicycle_lock01.jpg","1","1","1","0","0","0","0.597580999950878","0.548841599957086","0.649506899993867","1","1","1","1","1","1","1","1","1"
"260027","img/object_images/bicycle_lock01.jpg","img/object_images/gift_box04.jpg","img/object_images/hole_puncher01.jpg","1","1","1","0","0","1","0.649506899993867","0.597580999950878","0.459027000004426","1","1","1","1","1","1","1","1","1"
"260027","img/object_images/hole_puncher01.jpg","img/object_images/bicycle_lock01.jpg","img/object_images/glasses06.jpg","1","1","1","1","0","1","0.459027000004426","0.649506899993867","0.58317600004375","1","1","1","1","1","1","1","1","1"
"260027","img/object_images/glasses06.jpg","img/object_images/hole_puncher01.jpg","img/object_images/Kitchen_Towel.jpg","1","1","1","1","1","0","0.58317600004375","0.459027000004426","0.630429500015453","1","1","1","1","1","1","1","1","1"
"260027","img/object_images/Kitchen_Towel.jpg","img/object_images/glasses06.jpg","img/object_images/Traffic Sign 01.jpg","1","1","1","0","1","0","0.630429500015453","0.58317600004375","0.587754099979065","1","1","1","1","1","1","1","1","1"
"260027","img/object_images/Traffic Sign 01.jpg","img/object_images/Kitchen_Towel.jpg","img/object_images/jewelry09.jpg","1","1","1","0","0","1","0.587754099979065","0.630429500015453","0.362703699967824","1","1","1","1","1","1","1","1","1"
"260027","img/object_images/jewelry09.jpg","img/object_images/Traffic Sign 01.jpg","img/object_images/hair_clips01.jpg","1","1","1","1","0","1","0.362703699967824","0.587754099979065","0.478111800039187","1","1","1","1","1","1","1","1","1"
"260027","img/object_images/hair_clips01.jpg","img/object_images/jewelry09.jpg","img/object_images/tool08.jpg","1","1","1","1","1","0","0.478111800039187","0.362703699967824","0.838898399961181","1","1","1","1","1","1","1","1","1"
"260027","img/object_images/tool08.jpg","img/object_images/hair_clips01.jpg","img/object_images/faucet01.jpg","1","1","1","0","1","0","0.838898399961181","0.478111800039187","0.71695000003092","1","1","1","1","1","1","1","1","1"
"260027","img/object_images/faucet01.jpg","img/object_images/tool08.jpg","img/object_images/cup03.jpg","1","1","1","0","0","1","0.71695000003092","0.838898399961181","0.600079499999993","1","1","1","1","1","1","1","1","1"
"260027","img/object_images/cup03.jpg","img/object_images/faucet01.jpg","img/object_images/tray01.jpg","1","1","1","1","0","1","0.600079499999993","0.71695000003092","0.553708799998276","1","1","1","1","1","1","1","1","1"
"260027","img/object_images/tray01.jpg","img/object_images/cup03.jpg","img/object_images/glasses07.jpg","1","1","1","1","1","1","0.553708799998276","0.600079499999993","0.493413699907251","1","1","1","1","1","1","1","1","1"
"260027","img/object_images/glasses07.jpg","img/object_images/tray01.jpg","img/object_images/projector01.jpg","1","1","1","1","1","0","0.493413699907251","0.553708799998276","0.602740600006655","1","1","1","1","1","1","1","1","1"
"260027","img/object_images/projector01.jpg","img/object_images/glasses07.jpg","img/object_images/ring03.jpg","1","1","1","0","1","1","0.602740600006655","0.493413699907251","0.492217399994843","1","1","1","1","1","1","1","1","1"
"260027","img/object_images/ring03.jpg","img/object_images/projector01.jpg","img/object_images/handcuffs01.jpg","1","1","1","1","0","0","0.492217399994843","0.602740600006655","0.640196199994534","1","1","1","1","1","1","1","1","1"
"260027","img/object_images/handcuffs01.jpg","img/object_images/ring03.jpg","img/object_images/speaker01.jpg","1","1","1","0","1","1","0.640196199994534","0.492217399994843","1.09780280000996","1","1","1","1","1","1","1","1","1"
"260027","img/object_images/speaker01.jpg","img/object_images/handcuffs01.jpg","img/object_images/book01.jpg","1","1","1","1","0","1","1.09780280000996","0.640196199994534","0.587212499929592","1","1","1","1","1","1","1","1","1"
"260027","img/object_images/book01.jpg","img/object_images/speaker01.jpg","img/object_images/colander01.jpg","1","1","1","1","1","0","0.587212499929592","1.09780280000996","0.58352909993846","1","1","1","1","1","1","1","1","1"
"260027","img/object_images/colander01.jpg","img/object_images/book01.jpg","img/object_images/Sprayer01.jpg","1","1","0","0","1","0","0.58352909993846","0.587212499929592","0.738476800033823","1","1","1","1","1","1","1","1","1"
"260027","img/object_images/Sprayer01.jpg","img/object_images/colander01.jpg","img/object_images/fire_extinguisher01.jpg","0","1","1","0","0","0","0.738476800033823","0.58352909993846","0.495004200027324","1","1","1","1","1","1","1","1","1"
"260027","img/object_images/fire_extinguisher01.jpg","img/object_images/Sprayer01.jpg","img/object_images/pan01.jpg","1","0","1","0","0","1","0.495004200027324","0.738476800033823","0.47437660000287","1","1","1","1","1","1","1","1","1"
"260027","img/object_images/pan01.jpg","img/object_images/fire_extinguisher01.jpg","img/object_images/yo_yo01.jpg","1","1","1","1","0","0","0.47437660000287","0.495004200027324","0.688364599947818","1","1","1","1","1","1","1","1","1"
"260027","img/object_images/yo_yo01.jpg","img/object_images/pan01.jpg","img/object_images/TrashCan02.jpg","1","1","1","0","1","1","0.688364599947818","0.47437660000287","0.541974400053732","1","1","1","1","1","1","1","1","1"
"260027","img/object_images/TrashCan02.jpg","img/object_images/yo_yo01.jpg","img/object_images/basket02.jpg","1","1","1","1","0","0","0.541974400053732","0.688364599947818","0.551532699959353","1","1","1","1","1","1","1","1","1"
"260027","img/object_images/basket02.jpg","img/object_images/TrashCan02.jpg",NA,"1","1",NA,"0","1",NA,"0.551532699959353","0.541974400053732",NA,"1","1",NA,"1","1",NA,"1","1",NA
"260027","img/object_images/car03.jpg",NA,"img/object_images/jewelry07.jpg","1",NA,"1","0",NA,"1","0.494399900082499",NA,"0.661985899903812","1",NA,"1","1",NA,"1","1",NA,"1"
"260027","img/object_images/jewelry07.jpg","img/object_images/car03.jpg","img/object_images/screwdriver01.jpg","1","1","1","1","0","0","0.661985899903812","0.494399900082499","0.444468999980018","1","1","1","1","1","1","1","1","1"
"260027","img/object_images/screwdriver01.jpg","img/object_images/jewelry07.jpg","img/object_images/dress03.jpg","1","1","0","0","1","1","0.444468999980018","0.661985899903812","0.438856500084512","1","1","1","1","1","1","1","1","1"
"260027","img/object_images/dress03.jpg","img/object_images/screwdriver01.jpg","img/object_images/jewel01.jpg","0","1","1","1","0","0","0.438856500084512","0.444468999980018","1.10824390000198","1","1","1","1","1","1","1","1","1"
"260027","img/object_images/jewel01.jpg","img/object_images/dress03.jpg","img/object_images/bag06.jpg","1","0","1","0","1","1","1.10824390000198","0.438856500084512","0.593151599983685","1","1","1","1","1","1","1","1","1"
"260027","img/object_images/bag06.jpg","img/object_images/jewel01.jpg","img/object_images/ladle02.jpg","1","1","1","1","0","0","0.593151599983685","1.10824390000198","0.553414800087921","1","1","1","1","1","1","1","1","1"
"260027","img/object_images/ladle02.jpg","img/object_images/bag06.jpg","img/object_images/belt01.jpg","1","1","1","0","1","0","0.553414800087921","0.593151599983685","0.570704799960367","1","1","1","1","1","1","1","1","1"
"260027","img/object_images/belt01.jpg","img/object_images/ladle02.jpg","img/object_images/cutting_board01.jpg","1","1","1","0","0","1","0.570704799960367","0.553414800087921","0.726075400016271","1","1","1","1","1","1","1","1","1"
"260027","img/object_images/cutting_board01.jpg","img/object_images/belt01.jpg","img/object_images/chair04.jpg","1","1","1","1","0","1","0.726075400016271","0.570704799960367","0.352214199956506","1","1","1","1","1","1","1","1","1"
"260027","img/object_images/chair04.jpg","img/object_images/cutting_board01.jpg","img/object_images/ice_tray03.jpg","1","1","0","1","1","1","0.352214199956506","0.726075400016271","0.357254200032912","1","1","1","1","1","1","1","1","1"
"260027","img/object_images/ice_tray03.jpg","img/object_images/chair04.jpg","img/object_images/razor01.jpg","0","1","1","1","1","0","0.357254200032912","0.352214199956506","0.568693700013682","1","1","1","1","1","1","1","1","1"
"260027","img/object_images/razor01.jpg","img/object_images/ice_tray03.jpg","img/object_images/ribbon01.jpg","1","0","1","0","1","0","0.568693700013682","0.357254200032912","0.561778399976902","1","1","1","1","1","1","1","1","1"
"260027","img/object_images/ribbon01.jpg","img/object_images/razor01.jpg","img/object_images/lemon_squeezer02.jpg","1","1","1","0","0","1","0.561778399976902","0.568693700013682","0.760551700019278","1","1","1","1","1","1","1","1","1"
"260027","img/object_images/lemon_squeezer02.jpg","img/object_images/ribbon01.jpg","img/object_images/mask01.jpg","1","1","1","1","0","0","0.760551700019278","0.561778399976902","0.964199600042775","1","1","1","1","1","1","1","1","1"
"260027","img/object_images/mask01.jpg","img/object_images/lemon_squeezer02.jpg","img/object_images/fan05.jpg","1","1","1","0","1","0","0.964199600042775","0.760551700019278","0.464119500014931","1","1","1","1","1","1","1","1","1"
"260027","img/object_images/fan05.jpg","img/object_images/mask01.jpg","img/object_images/shower_head03.jpg","1","1","1","0","0","1","0.464119500014931","0.964199600042775","1.0992464000592","1","1","1","1","1","1","1","1","1"
"260027","img/object_images/shower_head03.jpg","img/object_images/fan05.jpg","img/object_images/satellite01.jpg","1","1","1","1","0","0","1.0992464000592","0.464119500014931","0.65488429996185","1","1","1","1","1","1","1","1","1"
"260027","img/object_images/satellite01.jpg","img/object_images/shower_head03.jpg","img/object_images/yarn02.jpg","1","1","1","0","1","0","0.65488429996185","1.0992464000592","0.420037200092338","1","1","1","1","1","1","1","1","1"
"260027","img/object_images/yarn02.jpg","img/object_images/satellite01.jpg","img/object_images/WitchHat02.jpg","1","1","1","0","0","1","0.420037200092338","0.65488429996185","0.843239299952984","1","1","1","1","1","1","1","1","1"
"260027","img/object_images/WitchHat02.jpg","img/object_images/yarn02.jpg","img/object_images/cards01.jpg","1","1","1","1","0","0","0.843239299952984","0.420037200092338","0.610551599995233","1","1","1","1","1","1","1","1","1"
"260027","img/object_images/cards01.jpg","img/object_images/WitchHat02.jpg","img/object_images/key02.jpg","1","1","1","0","1","1","0.610551599995233","0.843239299952984","0.4948929999955","1","1","1","1","1","1","1","1","1"
"260027","img/object_images/key02.jpg","img/object_images/cards01.jpg","img/object_images/tool11.jpg","1","1","1","1","0","1","0.4948929999955","0.610551599995233","0.479783999966457","1","1","1","1","1","1","1","1","1"
"260027","img/object_images/tool11.jpg","img/object_images/key02.jpg","img/object_images/MeasuringCup01.jpg","1","1","1","1","1","1","0.479783999966457","0.4948929999955","0.287677100044675","1","1","1","1","1","1","1","1","1"
"260027","img/object_images/MeasuringCup01.jpg","img/object_images/tool11.jpg","img/object_images/rock03.jpg","1","1","0","1","1","0","0.287677100044675","0.479783999966457","0.458846200024709","1","1","1","1","1","1","1","1","1"
"260027","img/object_images/rock03.jpg","img/object_images/MeasuringCup01.jpg","img/object_images/toaster02.jpg","0","1","1","0","1","1","0.458846200024709","0.287677100044675","0.545615699957125","1","1","1","1","1","1","1","1","1"
"260027","img/object_images/toaster02.jpg","img/object_images/rock03.jpg","img/object_images/tv01.jpg","1","0","1","1","0","0","0.545615699957125","0.458846200024709","0.657220600056462","1","1","1","1","1","1","1","1","1"
"260027","img/object_images/tv01.jpg","img/object_images/toaster02.jpg","img/object_images/hair_brush05.jpg","1","1","1","0","1","1","0.657220600056462","0.545615699957125","0.460511700017378","1","1","1","1","1","1","1","1","1"
"260027","img/object_images/hair_brush05.jpg","img/object_images/tv01.jpg","img/object_images/binoculars03.jpg","1","1","1","1","0","1","0.460511700017378","0.657220600056462","0.55854310002178","1","1","1","1","1","1","1","1","1"
"260027","img/object_images/binoculars03.jpg","img/object_images/hair_brush05.jpg","img/object_images/slinky_toy01.jpg","1","1","1","1","1","1","0.55854310002178","0.460511700017378","0.563836500048637","1","1","1","1","1","1","1","1","1"
"260027","img/object_images/slinky_toy01.jpg","img/object_images/binoculars03.jpg","img/object_images/car04.jpg","1","1","1","1","1","0","0.563836500048637","0.55854310002178","0.707955199992284","1","1","1","1","1","1","1","1","1"
"260027","img/object_images/car04.jpg","img/object_images/slinky_toy01.jpg","img/object_images/shoes10.jpg","1","1","0","0","1","0","0.707955199992284","0.563836500048637","0.726123300031759","1","1","1","1","1","1","1","1","1"
"260027","img/object_images/shoes10.jpg","img/object_images/car04.jpg",NA,"0","1",NA,"0","0",NA,"0.726123300031759","0.707955199992284",NA,"1","1",NA,"1","1",NA,"1","1",NA
"260027","img/object_images/piggy_bank01.jpg",NA,"img/object_images/bottle09.jpg","1",NA,"1","1",NA,"0","0.434879700071178",NA,"0.481351800030097","1",NA,"1","1",NA,"1","1",NA,"1"
"260027","img/object_images/bottle09.jpg","img/object_images/piggy_bank01.jpg","img/object_images/flask01.jpg","1","1","1","0","1","0","0.481351800030097","0.434879700071178","0.527436399948783","1","1","1","1","1","1","1","1","1"
"260027","img/object_images/flask01.jpg","img/object_images/bottle09.jpg","img/object_images/toilet_paper_dispenser01.jpg","1","1","1","0","0","1","0.527436399948783","0.481351800030097","0.480531699955463","1","1","1","1","1","1","1","1","1"
"260027","img/object_images/toilet_paper_dispenser01.jpg","img/object_images/flask01.jpg","img/object_images/bottle10.jpg","1","1","0","1","0","1","0.480531699955463","0.527436399948783","0.377017899998464","1","1","1","1","1","1","1","1","1"
"260027","img/object_images/bottle10.jpg","img/object_images/toilet_paper_dispenser01.jpg","img/object_images/scoreboard01.jpg","0","1","1","1","1","1","0.377017899998464","0.480531699955463","0.555471300031058","1","1","1","1","1","1","1","1","1"
"260027","img/object_images/scoreboard01.jpg","img/object_images/bottle10.jpg","img/object_images/wagon_cart03.jpg","1","0","1","1","1","1","0.555471300031058","0.377017899998464","0.503211400005966","1","1","1","1","1","1","1","1","1"
"260027","img/object_images/wagon_cart03.jpg","img/object_images/scoreboard01.jpg","img/object_images/pen05.jpg","1","1","1","1","1","0","0.503211400005966","0.555471300031058","0.477399499970488","1","1","1","1","1","1","1","1","1"
"260027","img/object_images/pen05.jpg","img/object_images/wagon_cart03.jpg","img/object_images/helmet04.jpg","1","1","1","0","1","1","0.477399499970488","0.503211400005966","0.385486099985428","1","1","1","1","1","1","1","1","1"
"260027","img/object_images/helmet04.jpg","img/object_images/pen05.jpg","img/object_images/perfume02.jpg","1","1","0","1","0","0","0.385486099985428","0.477399499970488","0.402878700057045","1","1","1","1","1","1","1","1","1"
"260027","img/object_images/perfume02.jpg","img/object_images/helmet04.jpg","img/object_images/toaster01.jpg","0","1","1","0","1","1","0.402878700057045","0.385486099985428","0.479878400103189","1","1","1","1","1","1","1","1","1"
"260027","img/object_images/toaster01.jpg","img/object_images/perfume02.jpg","img/object_images/bicycle01.jpg","1","0","1","1","0","1","0.479878400103189","0.402878700057045","0.386011499911547","1","1","1","1","1","1","1","1","1"
"260027","img/object_images/bicycle01.jpg","img/object_images/toaster01.jpg","img/object_images/coloring_pencil02.jpg","1","1","1","1","1","0","0.386011499911547","0.479878400103189","0.557008299976587","1","1","1","1","1","1","1","1","1"
"260027","img/object_images/coloring_pencil02.jpg","img/object_images/bicycle01.jpg","img/object_images/boat02.jpg","1","1","1","0","1","1","0.557008299976587","0.386011499911547","0.443260399973951","1","1","1","1","1","1","1","1","1"
"260027","img/object_images/boat02.jpg","img/object_images/coloring_pencil02.jpg","img/object_images/water_scooter01.jpg","1","1","1","1","0","1","0.443260399973951","0.557008299976587","0.415958099998534","1","1","1","1","1","1","1","1","1"
"260027","img/object_images/water_scooter01.jpg","img/object_images/boat02.jpg","img/object_images/camera_lens01.jpg","1","1","1","1","1","1","0.415958099998534","0.443260399973951","0.407964700018056","1","1","1","1","1","1","1","1","1"
"260027","img/object_images/camera_lens01.jpg","img/object_images/water_scooter01.jpg","img/object_images/tie02.jpg","1","1","1","1","1","0","0.407964700018056","0.415958099998534","0.324437199975364","1","1","1","1","1","1","1","1","1"
"260027","img/object_images/tie02.jpg","img/object_images/camera_lens01.jpg","img/object_images/dog_leash01.jpg","1","1","1","0","1","0","0.324437199975364","0.407964700018056","0.364265999989584","1","1","1","1","1","1","1","1","1"
"260027","img/object_images/dog_leash01.jpg","img/object_images/tie02.jpg","img/object_images/knit01.jpg","1","1","1","0","0","0","0.364265999989584","0.324437199975364","0.449172299937345","1","1","1","1","1","1","1","1","1"
"260027","img/object_images/knit01.jpg","img/object_images/dog_leash01.jpg","img/object_images/shoes07.jpg","1","1","0","0","0","0","0.449172299937345","0.364265999989584","0.362441200064495","1","1","1","1","1","1","1","1","1"
"260027","img/object_images/shoes07.jpg","img/object_images/knit01.jpg","img/object_images/audio_port01.jpg","0","1","0","0","0","1","0.362441200064495","0.449172299937345","0.462366499938071","1","1","1","1","1","1","1","1","1"
"260027","img/object_images/audio_port01.jpg","img/object_images/shoes07.jpg","img/object_images/boat_toy10.jpg","0","0","1","1","0","0","0.462366499938071","0.362441200064495","0.465124899987131","1","1","1","1","1","1","1","1","1"
"260027","img/object_images/boat_toy10.jpg","img/object_images/audio_port01.jpg","img/object_images/hot_air_balloon02.jpg","1","0","1","0","1","0","0.465124899987131","0.462366499938071","0.6051693999907","1","1","1","1","1","1","1","1","1"
"260027","img/object_images/hot_air_balloon02.jpg","img/object_images/boat_toy10.jpg","img/object_images/cellphone03.jpg","1","1","1","0","0","0","0.6051693999907","0.465124899987131","0.545672800042666","1","1","1","1","1","1","1","1","1"
"260027","img/object_images/cellphone03.jpg","img/object_images/hot_air_balloon02.jpg","img/object_images/WoodBox01.jpg","1","1","1","0","0","0","0.545672800042666","0.6051693999907","0.419677400030196","1","1","1","1","1","1","1","1","1"
"260027","img/object_images/WoodBox01.jpg","img/object_images/cellphone03.jpg","img/object_images/purse04.jpg","1","1","1","0","0","1","0.419677400030196","0.545672800042666","0.560965100070462","1","1","1","1","1","1","1","1","1"
"260027","img/object_images/purse04.jpg","img/object_images/WoodBox01.jpg","img/object_images/tool19.jpg","1","1","0","1","0","1","0.560965100070462","0.419677400030196","0.445028900052421","1","1","1","1","1","1","1","1","1"
"260027","img/object_images/tool19.jpg","img/object_images/purse04.jpg","img/object_images/chair03.jpg","0","1","1","1","1","0","0.445028900052421","0.560965100070462","0.290373599971645","1","1","1","1","1","1","1","1","1"
"260027","img/object_images/chair03.jpg","img/object_images/tool19.jpg","img/object_images/hat06.jpg","1","0","1","0","1","0","0.290373599971645","0.445028900052421","0.558562500053085","1","1","1","1","1","1","1","1","1"
"260027","img/object_images/hat06.jpg","img/object_images/chair03.jpg","img/object_images/fan02.jpg","1","1","1","0","0","0","0.558562500053085","0.290373599971645","0.452455700025894","1","1","1","1","1","1","1","1","1"
"260027","img/object_images/fan02.jpg","img/object_images/hat06.jpg","img/object_images/bottle02.jpg","1","1","0","0","0","1","0.452455700025894","0.558562500053085","0.504633600008674","1","1","1","1","1","1","1","1","1"
"260027","img/object_images/bottle02.jpg","img/object_images/fan02.jpg","img/object_images/bean_bag02.jpg","0","1","1","1","0","1","0.504633600008674","0.452455700025894","0.511968800099567","1","1","1","1","1","1","1","1","1"
"260027","img/object_images/bean_bag02.jpg","img/object_images/bottle02.jpg",NA,"1","0",NA,"1","1",NA,"0.511968800099567","0.504633600008674",NA,"1","1",NA,"1","1",NA,"1","1",NA
"260027","img/object_images/robe01.jpg",NA,"img/object_images/vase01.jpg","1",NA,"0","1",NA,"0","0.571858100011013",NA,"0.351477999938652","1",NA,"1","1",NA,"1","1",NA,"1"
"260027","img/object_images/vase01.jpg","img/object_images/robe01.jpg","img/object_images/Lint_Roller02.jpg","0","1","1","0","1","0","0.351477999938652","0.571858100011013","0.486493999953382","1","1","1","1","1","1","1","1","1"
"260027","img/object_images/Lint_Roller02.jpg","img/object_images/vase01.jpg","img/object_images/trash_can03.jpg","1","0","1","0","0","1","0.486493999953382","0.351477999938652","0.416772399912588","1","1","1","1","1","1","1","1","1"
"260027","img/object_images/trash_can03.jpg","img/object_images/Lint_Roller02.jpg","img/object_images/fan04.jpg","1","1","1","1","0","0","0.416772399912588","0.486493999953382","0.413152600056492","1","1","1","1","1","1","1","1","1"
"260027","img/object_images/fan04.jpg","img/object_images/trash_can03.jpg","img/object_images/calculator01.jpg","1","1","1","0","1","1","0.413152600056492","0.416772399912588","0.295502100023441","1","1","1","1","1","1","1","1","1"
"260027","img/object_images/calculator01.jpg","img/object_images/fan04.jpg","img/object_images/toy05.jpg","1","1","1","1","0","0","0.295502100023441","0.413152600056492","0.552636499982327","1","1","1","1","1","1","1","1","1"
"260027","img/object_images/toy05.jpg","img/object_images/calculator01.jpg","img/object_images/Vest02.jpg","1","1","0","0","1","0","0.552636499982327","0.295502100023441","0.351600000052713","1","1","1","1","1","1","1","1","2"
"260027","img/object_images/Vest02.jpg","img/object_images/toy05.jpg","img/object_images/laptop01.jpg","0","1","1","0","0","0","0.351600000052713","0.552636499982327","0.321397599996999","1","1","1","1","1","1","2","1","1"
"260027","img/object_images/laptop01.jpg","img/object_images/Vest02.jpg","img/object_images/towels01.jpg","1","0","1","0","0","0","0.321397599996999","0.351600000052713","0.374767599976622","1","1","1","1","1","1","1","2","1"
"260027","img/object_images/towels01.jpg","img/object_images/laptop01.jpg","img/object_images/accardion01.jpg","1","1","0","0","0","1","0.374767599976622","0.321397599996999","0.335695699905045","1","1","1","1","1","1","1","1","1"
"260027","img/object_images/accardion01.jpg","img/object_images/towels01.jpg","img/object_images/laptop03.jpg","0","1","1","1","0","1","0.335695699905045","0.374767599976622","0.417112899944186","1","1","1","1","1","1","1","1","1"
"260027","img/object_images/laptop03.jpg","img/object_images/accardion01.jpg","img/object_images/trash_can05.jpg","1","0","0","1","1","1","0.417112899944186","0.335695699905045","0.369802100001834","1","1","1","1","1","1","1","1","1"
"260027","img/object_images/trash_can05.jpg","img/object_images/laptop03.jpg","img/object_images/ball02.jpg","0","1","1","1","1","1","0.369802100001834","0.417112899944186","0.494595000054687","1","1","1","1","1","1","1","1","1"
"260027","img/object_images/ball02.jpg","img/object_images/trash_can05.jpg","img/object_images/jewel03.jpg","1","0","1","1","1","1","0.494595000054687","0.369802100001834","0.310647799982689","1","1","1","1","1","1","1","1","1"
"260027","img/object_images/jewel03.jpg","img/object_images/ball02.jpg","img/object_images/helmet02.jpg","1","1","0","1","1","0","0.310647799982689","0.494595000054687","0.321588299935684","1","1","1","1","1","1","1","1","1"
"260027","img/object_images/helmet02.jpg","img/object_images/jewel03.jpg","img/object_images/bucket02.jpg","0","1","0","0","1","1","0.321588299935684","0.310647799982689","0.455474800080992","1","1","1","1","1","1","1","1","1"
"260027","img/object_images/bucket02.jpg","img/object_images/helmet02.jpg","img/object_images/hair_dryer01.jpg","0","0","1","1","0","0","0.455474800080992","0.321588299935684","0.618967400048859","1","1","1","1","1","1","1","1","1"
"260027","img/object_images/hair_dryer01.jpg","img/object_images/bucket02.jpg","img/object_images/shoes08.jpg","1","0","1","0","1","1","0.618967400048859","0.455474800080992","0.458474299986847","1","1","1","1","1","1","1","1","1"
"260027","img/object_images/shoes08.jpg","img/object_images/hair_dryer01.jpg","img/object_images/umbrella01.jpg","1","1","1","1","0","0","0.458474299986847","0.618967400048859","0.384755800012499","1","1","1","1","1","1","1","1","2"
"260027","img/object_images/umbrella01.jpg","img/object_images/shoes08.jpg","img/object_images/lock01.jpg","1","1","1","0","1","0","0.384755800012499","0.458474299986847","0.678878300008364","1","1","1","1","1","1","2","1","1"
"260027","img/object_images/lock01.jpg","img/object_images/umbrella01.jpg","img/object_images/combs01.jpg","1","1","0","0","0","1","0.678878300008364","0.384755800012499","0.37545329995919","1","1","1","1","1","1","1","2","1"
"260027","img/object_images/combs01.jpg","img/object_images/lock01.jpg","img/object_images/microphone03.jpg","0","1","1","1","0","1","0.37545329995919","0.678878300008364","0.544592999969609","1","1","1","1","1","1","1","1","1"
"260027","img/object_images/microphone03.jpg","img/object_images/combs01.jpg","img/object_images/hair_brush02.jpg","1","0","1","1","1","0","0.544592999969609","0.37545329995919","0.54714410007","1","1","1","1","1","1","1","1","1"
"260027","img/object_images/hair_brush02.jpg","img/object_images/microphone03.jpg","img/object_images/stove01.jpg","1","1","0","0","1","0","0.54714410007","0.544592999969609","0.445558800012805","1","1","1","1","1","1","1","1","1"
"260027","img/object_images/stove01.jpg","img/object_images/hair_brush02.jpg","img/object_images/gift_box05.jpg","0","1","0","0","0","0","0.445558800012805","0.54714410007","0.678455699933693","1","1","1","1","1","1","1","1","1"
"260027","img/object_images/gift_box05.jpg","img/object_images/stove01.jpg","img/object_images/pitcher05.jpg","0","0","1","0","0","0","0.678455699933693","0.445558800012805","0.9654986000387","1","1","1","1","1","1","1","1","1"
"260027","img/object_images/pitcher05.jpg","img/object_images/gift_box05.jpg","img/object_images/chess_piece01.jpg","1","0","0","0","0","0","0.9654986000387","0.678455699933693","0.582140799961053","1","1","1","1","1","1","1","1","1"
"260027","img/object_images/chess_piece01.jpg","img/object_images/pitcher05.jpg","img/object_images/chair02.jpg","0","1","1","0","0","1","0.582140799961053","0.9654986000387","0.435109800077043","1","1","1","1","1","1","1","1","1"
"260027","img/object_images/chair02.jpg","img/object_images/chess_piece01.jpg","img/object_images/backpack03.jpg","1","0","1","1","0","1","0.435109800077043","0.582140799961053","0.556889900006354","1","1","1","1","1","1","1","1","1"
"260027","img/object_images/backpack03.jpg","img/object_images/chair02.jpg","img/object_images/surf_board01.jpg","1","1","1","1","1","1","0.556889900006354","0.435109800077043","0.522629200015217","1","1","1","1","1","1","1","1","1"
"260027","img/object_images/surf_board01.jpg","img/object_images/backpack03.jpg","img/object_images/spatula02.jpg","1","1","1","1","1","1","0.522629200015217","0.556889900006354","0.600602100021206","1","1","1","1","1","1","1","1","1"
"260027","img/object_images/spatula02.jpg","img/object_images/surf_board01.jpg",NA,"1","1",NA,"1","1",NA,"0.600602100021206","0.522629200015217",NA,"1","1",NA,"1","1",NA,"1","1",NA
"260027","img/object_images/gloves02.jpg",NA,"img/object_images/mail_box01.jpg","1",NA,"1","0",NA,"0","0.717305600061081",NA,"0.575344999902882","1",NA,"1","1",NA,"1","1",NA,"1"
"260027","img/object_images/mail_box01.jpg","img/object_images/gloves02.jpg","img/object_images/stereo02.jpg","1","1","1","0","0","0","0.575344999902882","0.717305600061081","0.473939500050619","1","1","1","1","1","1","1","1","1"
"260027","img/object_images/stereo02.jpg","img/object_images/mail_box01.jpg","img/object_images/keyboard02.jpg","1","1","1","0","0","1","0.473939500050619","0.575344999902882","0.754558600019664","1","1","1","1","1","1","1","1","1"
"260027","img/object_images/keyboard02.jpg","img/object_images/stereo02.jpg","img/object_images/knit03.jpg","1","1","1","1","0","1","0.754558600019664","0.473939500050619","0.736196999903768","1","1","1","1","1","1","1","1","1"
"260027","img/object_images/knit03.jpg","img/object_images/keyboard02.jpg","img/object_images/blender02.jpg","1","1","1","1","1","1","0.736196999903768","0.754558600019664","0.430330400005914","1","1","1","1","1","1","1","1","1"
"260027","img/object_images/blender02.jpg","img/object_images/knit03.jpg","img/object_images/sponge03.jpg","1","1","1","1","1","1","0.430330400005914","0.736196999903768","0.527673300006427","1","1","1","1","1","1","1","1","1"
"260027","img/object_images/sponge03.jpg","img/object_images/blender02.jpg","img/object_images/matches02.jpg","1","1","0","1","1","0","0.527673300006427","0.430330400005914","0.342433399986476","1","1","1","1","1","1","1","1","1"
"260027","img/object_images/matches02.jpg","img/object_images/sponge03.jpg","img/object_images/backpack01.jpg","0","1","0","0","1","0","0.342433399986476","0.527673300006427","0.524264200008474","1","1","1","1","1","1","1","1","1"
"260027","img/object_images/backpack01.jpg","img/object_images/matches02.jpg","img/object_images/paper_cup02.jpg","0","0","1","0","0","1","0.524264200008474","0.342433399986476","0.587430499959737","1","1","1","1","1","1","1","1","1"
"260027","img/object_images/paper_cup02.jpg","img/object_images/backpack01.jpg","img/object_images/boat04.jpg","1","0","1","1","0","0","0.587430499959737","0.524264200008474","0.406166200060397","1","1","1","1","1","1","1","1","1"
"260027","img/object_images/boat04.jpg","img/object_images/paper_cup02.jpg","img/object_images/car01.jpg","1","1","1","0","1","1","0.406166200060397","0.587430499959737","0.507438299944624","1","1","1","1","1","1","1","1","1"
"260027","img/object_images/car01.jpg","img/object_images/boat04.jpg","img/object_images/remote_controller01.jpg","1","1","1","1","0","1","0.507438299944624","0.406166200060397","1.05180569994263","1","1","1","1","1","1","1","1","1"
"260027","img/object_images/remote_controller01.jpg","img/object_images/car01.jpg","img/object_images/phone02.jpg","1","1","1","1","1","1","1.05180569994263","0.507438299944624","0.529473699978553","1","1","1","1","1","1","1","1","1"
"260027","img/object_images/phone02.jpg","img/object_images/remote_controller01.jpg","img/object_images/hoverboard01.jpg","1","1","1","1","1","0","0.529473699978553","1.05180569994263","0.459127399954014","1","1","1","1","1","1","1","1","1"
"260027","img/object_images/hoverboard01.jpg","img/object_images/phone02.jpg","img/object_images/kite01.jpg","1","1","1","0","1","1","0.459127399954014","0.529473699978553","0.464023899985477","1","1","1","1","1","1","1","1","1"
"260027","img/object_images/kite01.jpg","img/object_images/hoverboard01.jpg","img/object_images/tool18.jpg","1","1","1","1","0","0","0.464023899985477","0.459127399954014","0.608156300033443","1","1","1","1","1","1","1","1","1"
"260027","img/object_images/tool18.jpg","img/object_images/kite01.jpg","img/object_images/Statue01.jpg","1","1","1","0","1","1","0.608156300033443","0.464023899985477","1.82969879999291","1","1","1","1","1","1","1","1","1"
"260027","img/object_images/Statue01.jpg","img/object_images/tool18.jpg","img/object_images/knit04.jpg","1","1","1","1","0","1","1.82969879999291","0.608156300033443","0.555767599958926","1","1","1","1","1","1","1","1","1"
"260027","img/object_images/knit04.jpg","img/object_images/Statue01.jpg","img/object_images/shower_head01.jpg","1","1","1","1","1","1","0.555767599958926","1.82969879999291","0.517253200057894","1","1","1","1","1","1","1","1","1"
"260027","img/object_images/shower_head01.jpg","img/object_images/knit04.jpg","img/object_images/curtain02.jpg","1","1","1","1","1","0","0.517253200057894","0.555767599958926","0.487228300073184","1","1","1","1","1","1","1","1","1"
"260027","img/object_images/curtain02.jpg","img/object_images/shower_head01.jpg","img/object_images/video_game01.jpg","1","1","1","0","1","1","0.487228300073184","0.517253200057894","0.408679299987853","1","1","1","1","1","1","1","1","1"
"260027","img/object_images/video_game01.jpg","img/object_images/curtain02.jpg","img/object_images/basket04.jpg","1","1","0","1","0","1","0.408679299987853","0.487228300073184","0.371550599928014","1","1","1","1","1","1","1","1","1"
"260027","img/object_images/basket04.jpg","img/object_images/video_game01.jpg","img/object_images/toy08.jpg","0","1","1","1","1","0","0.371550599928014","0.408679299987853","0.643054399988614","1","1","1","1","1","1","1","1","1"
"260027","img/object_images/toy08.jpg","img/object_images/basket04.jpg","img/object_images/flashlight03.jpg","1","0","1","0","1","0","0.643054399988614","0.371550599928014","0.635809300001711","1","1","1","1","1","1","1","1","1"
"260027","img/object_images/flashlight03.jpg","img/object_images/toy08.jpg","img/object_images/knife02.jpg","1","1","1","0","0","0","0.635809300001711","0.643054399988614","0.437724499963224","1","1","1","1","1","1","1","1","1"
"260027","img/object_images/knife02.jpg","img/object_images/flashlight03.jpg","img/object_images/remover01.jpg","1","1","1","0","0","1","0.437724499963224","0.635809300001711","0.524666000041179","1","1","1","1","1","1","1","1","1"
"260027","img/object_images/remover01.jpg","img/object_images/knife02.jpg","img/object_images/dresser03.jpg","1","1","1","1","0","0","0.524666000041179","0.437724499963224","0.385317699983716","1","1","1","1","1","1","1","1","1"
"260027","img/object_images/dresser03.jpg","img/object_images/remover01.jpg","img/object_images/bottle07.jpg","1","1","1","0","1","1","0.385317699983716","0.524666000041179","0.51027550001163","1","1","1","1","1","1","1","1","1"
"260027","img/object_images/bottle07.jpg","img/object_images/dresser03.jpg","img/object_images/camera03.jpg","1","1","1","1","0","0","0.51027550001163","0.385317699983716","0.696127400035039","1","1","1","1","1","1","1","1","1"
"260027","img/object_images/camera03.jpg","img/object_images/bottle07.jpg","img/object_images/hand_grip_exerciser01.jpg","1","1","0","0","1","0","0.696127400035039","0.51027550001163","0.41813030000776","1","1","1","1","1","1","1","1","1"
"260027","img/object_images/hand_grip_exerciser01.jpg","img/object_images/camera03.jpg","img/object_images/jacket04.jpg","0","1","1","0","0","0","0.41813030000776","0.696127400035039","0.54633530008141","1","1","1","1","1","1","1","1","1"
"260027","img/object_images/jacket04.jpg","img/object_images/hand_grip_exerciser01.jpg",NA,"1","0",NA,"0","0",NA,"0.54633530008141","0.41813030000776",NA,"1","1",NA,"1","1",NA,"1","1",NA
"260027","img/object_images/cup01.jpg",NA,"img/object_images/Confetti 01.jpg","1",NA,"1","0",NA,"0","0.457095399964601",NA,"0.614440499921329","1",NA,"1","1",NA,"1","1",NA,"1"
"260027","img/object_images/Confetti 01.jpg","img/object_images/cup01.jpg","img/object_images/socks01.jpg","1","1","1","0","0","1","0.614440499921329","0.457095399964601","0.450151500059292","1","1","1","1","1","1","1","1","1"
"260027","img/object_images/socks01.jpg","img/object_images/Confetti 01.jpg","img/object_images/clipboard01.jpg","1","1","1","1","0","1","0.450151500059292","0.614440499921329","0.463103799964301","1","1","1","1","1","1","1","1","1"
"260027","img/object_images/clipboard01.jpg","img/object_images/socks01.jpg","img/object_images/hat09.jpg","1","1","1","1","1","0","0.463103799964301","0.450151500059292","0.374267400009558","1","1","1","1","1","1","1","1","1"
"260027","img/object_images/hat09.jpg","img/object_images/clipboard01.jpg","img/object_images/bow_tie03.jpg","1","1","1","0","1","1","0.374267400009558","0.463103799964301","0.604531400022097","1","1","1","1","1","1","1","1","1"
"260027","img/object_images/bow_tie03.jpg","img/object_images/hat09.jpg","img/object_images/vase02.jpg","1","1","1","1","0","1","0.604531400022097","0.374267400009558","0.557765800040215","1","1","1","1","1","1","1","1","1"
"260027","img/object_images/vase02.jpg","img/object_images/bow_tie03.jpg","img/object_images/bag04.jpg","1","1","1","1","1","0","0.557765800040215","0.604531400022097","0.595801100018434","1","1","1","1","1","1","1","1","1"
"260027","img/object_images/bag04.jpg","img/object_images/vase02.jpg","img/object_images/duster01.jpg","1","1","1","0","1","0","0.595801100018434","0.557765800040215","0.482169799972326","1","1","1","1","1","1","1","1","1"
"260027","img/object_images/duster01.jpg","img/object_images/bag04.jpg","img/object_images/camera05.jpg","1","1","1","0","0","0","0.482169799972326","0.595801100018434","0.531683000037447","1","1","1","1","1","1","1","1","1"
"260027","img/object_images/camera05.jpg","img/object_images/duster01.jpg","img/object_images/sign02.jpg","1","1","0","0","0","0","0.531683000037447","0.482169799972326","0.440048899967223","1","1","1","1","1","1","1","1","1"
"260027","img/object_images/sign02.jpg","img/object_images/camera05.jpg","img/object_images/office_supplies01.jpg","0","1","1","0","0","1","0.440048899967223","0.531683000037447","0.699566300027072","1","1","1","1","1","1","1","1","1"
"260027","img/object_images/office_supplies01.jpg","img/object_images/sign02.jpg","img/object_images/lemon_squeezer01.jpg","1","0","1","1","0","1","0.699566300027072","0.440048899967223","0.476211300003342","1","1","1","1","1","1","1","1","1"
"260027","img/object_images/lemon_squeezer01.jpg","img/object_images/office_supplies01.jpg","img/object_images/floss01.jpg","1","1","1","1","1","1","0.476211300003342","0.699566300027072","0.875555100035854","1","1","1","1","1","1","1","1","1"
"260027","img/object_images/floss01.jpg","img/object_images/lemon_squeezer01.jpg","img/object_images/spray_can01.jpg","1","1","1","1","1","0","0.875555100035854","0.476211300003342","0.475637399940751","1","1","1","1","1","1","1","1","1"
"260027","img/object_images/spray_can01.jpg","img/object_images/floss01.jpg","img/object_images/pan03.jpg","1","1","1","0","1","1","0.475637399940751","0.875555100035854","0.435275300056674","1","1","1","1","1","1","1","1","1"
"260027","img/object_images/pan03.jpg","img/object_images/spray_can01.jpg","img/object_images/sink_filter01 (1).jpg","1","1","1","1","0","0","0.435275300056674","0.475637399940751","0.444559599971399","1","1","1","1","1","1","1","1","1"
"260027","img/object_images/sink_filter01 (1).jpg","img/object_images/pan03.jpg","img/object_images/glasses03.jpg","1","1","1","0","1","0","0.444559599971399","0.435275300056674","0.898617899976671","1","1","1","1","1","1","1","1","1"
"260027","img/object_images/glasses03.jpg","img/object_images/sink_filter01 (1).jpg","img/object_images/dust_pan01.jpg","1","1","1","0","0","1","0.898617899976671","0.444559599971399","0.512006200035103","1","1","1","1","1","1","1","1","1"
"260027","img/object_images/dust_pan01.jpg","img/object_images/glasses03.jpg","img/object_images/candle02.jpg","1","1","1","1","0","0","0.512006200035103","0.898617899976671","0.466262900037691","1","1","1","1","1","1","1","1","1"
"260027","img/object_images/candle02.jpg","img/object_images/dust_pan01.jpg","img/object_images/tool13.jpg","1","1","1","0","1","1","0.466262900037691","0.512006200035103","0.493069699965417","1","1","1","1","1","1","1","1","1"
"260027","img/object_images/tool13.jpg","img/object_images/candle02.jpg","img/object_images/video_game02.jpg","1","1","0","1","0","1","0.493069699965417","0.466262900037691","0.529683499946259","1","1","1","1","1","1","1","1","1"
"260027","img/object_images/video_game02.jpg","img/object_images/tool13.jpg","img/object_images/ruler02.jpg","0","1","1","1","1","1","0.529683499946259","0.493069699965417","0.431005400023423","1","1","1","1","1","1","1","1","1"
"260027","img/object_images/ruler02.jpg","img/object_images/video_game02.jpg","img/object_images/hat13.jpg","1","0","1","1","1","1","0.431005400023423","0.529683499946259","0.55822080001235","1","1","1","1","1","1","1","1","1"
"260027","img/object_images/hat13.jpg","img/object_images/ruler02.jpg","img/object_images/knife01.jpg","1","1","1","1","1","1","0.55822080001235","0.431005400023423","0.549560999963433","1","1","1","1","1","1","1","1","1"
"260027","img/object_images/knife01.jpg","img/object_images/hat13.jpg","img/object_images/board01.jpg","1","1","1","1","1","1","0.549560999963433","0.55822080001235","0.460368899977766","1","1","1","1","1","1","1","1","1"
"260027","img/object_images/board01.jpg","img/object_images/knife01.jpg","img/object_images/razor02.jpg","1","1","1","1","1","1","0.460368899977766","0.549560999963433","0.47235479997471","1","1","1","1","1","1","1","1","1"
"260027","img/object_images/razor02.jpg","img/object_images/board01.jpg","img/object_images/pen06.jpg","1","1","1","1","1","0","0.47235479997471","0.460368899977766","0.523206699988805","1","1","1","1","1","1","1","1","1"
"260027","img/object_images/pen06.jpg","img/object_images/razor02.jpg","img/object_images/Candle_Holder01.jpg","1","1","1","0","1","0","0.523206699988805","0.47235479997471","0.478333200095221","1","1","1","1","1","1","1","1","1"
"260027","img/object_images/Candle_Holder01.jpg","img/object_images/pen06.jpg","img/object_images/tool20.jpg","1","1","1","0","0","0","0.478333200095221","0.523206699988805","0.416755300015211","1","1","1","1","1","1","1","1","1"
"260027","img/object_images/tool20.jpg","img/object_images/Candle_Holder01.jpg","img/object_images/hammer02.jpg","1","1","0","0","0","0","0.416755300015211","0.478333200095221","0.629371999995783","1","1","1","1","1","1","1","1","1"
"260027","img/object_images/hammer02.jpg","img/object_images/tool20.jpg","img/object_images/perfume01.jpg","0","1","1","0","0","0","0.629371999995783","0.416755300015211","0.561683200066909","1","1","1","1","1","1","1","1","1"
"260027","img/object_images/perfume01.jpg","img/object_images/hammer02.jpg",NA,"1","0",NA,"0","0",NA,"0.561683200066909","0.629371999995783",NA,"1","1",NA,"1","1",NA,"1","1",NA
"260027","img/object_images/video_game06.jpg",NA,"img/object_images/cochlear_implant01.jpg","1",NA,"1","0",NA,"0","0.710585699998774",NA,"0.495239600073546","1",NA,"1","1",NA,"1","1",NA,"1"
"260027","img/object_images/cochlear_implant01.jpg","img/object_images/video_game06.jpg","img/object_images/soap01.jpg","1","1","1","0","0","0","0.495239600073546","0.710585699998774","0.515459700021893","1","1","1","1","1","1","1","1","1"
"260027","img/object_images/soap01.jpg","img/object_images/cochlear_implant01.jpg","img/object_images/brief_case01.jpg","1","1","1","0","0","0","0.515459700021893","0.495239600073546","0.506820300011896","1","1","1","1","1","1","1","1","1"
"260027","img/object_images/brief_case01.jpg","img/object_images/soap01.jpg","img/object_images/lantern01.jpg","1","1","1","0","0","1","0.506820300011896","0.515459700021893","0.505477700033225","1","1","1","1","1","1","1","1","1"
"260027","img/object_images/lantern01.jpg","img/object_images/brief_case01.jpg","img/object_images/pitcher03.jpg","1","1","0","1","0","1","0.505477700033225","0.506820300011896","0.451568300020881","1","1","1","1","1","1","1","1","1"
"260027","img/object_images/pitcher03.jpg","img/object_images/lantern01.jpg","img/object_images/airfryer01.jpg","0","1","1","1","1","0","0.451568300020881","0.505477700033225","0.4982659999514","1","1","1","1","1","1","1","1","1"
"260027","img/object_images/airfryer01.jpg","img/object_images/pitcher03.jpg","img/object_images/broom01.jpg","1","0","1","0","1","1","0.4982659999514","0.451568300020881","0.54480929998681","1","1","1","1","1","1","1","1","1"
"260027","img/object_images/broom01.jpg","img/object_images/airfryer01.jpg","img/object_images/guitar01.jpg","1","1","1","1","0","1","0.54480929998681","0.4982659999514","0.48370270000305","1","1","1","1","1","1","1","1","1"
"260027","img/object_images/guitar01.jpg","img/object_images/broom01.jpg","img/object_images/helmet05.jpg","1","1","1","1","1","1","0.48370270000305","0.54480929998681","0.776226699934341","1","1","1","1","1","1","1","1","1"
"260027","img/object_images/helmet05.jpg","img/object_images/guitar01.jpg","img/object_images/brief_case02.jpg","1","1","1","1","1","1","0.776226699934341","0.48370270000305","0.434341299929656","1","1","1","1","1","1","1","1","1"
"260027","img/object_images/brief_case02.jpg","img/object_images/helmet05.jpg","img/object_images/container01.jpg","1","1","1","1","1","0","0.434341299929656","0.776226699934341","0.483532599988393","1","1","1","1","1","1","1","1","1"
"260027","img/object_images/container01.jpg","img/object_images/brief_case02.jpg","img/object_images/drone02.jpg","1","1","1","0","1","0","0.483532599988393","0.434341299929656","0.494687799946405","1","1","1","1","1","1","1","1","1"
"260027","img/object_images/drone02.jpg","img/object_images/container01.jpg","img/object_images/bottle12.jpg","1","1","0","0","0","1","0.494687799946405","0.483532599988393","0.466424399986863","1","1","1","1","1","1","1","1","1"
"260027","img/object_images/bottle12.jpg","img/object_images/drone02.jpg","img/object_images/basketball_hoop02.jpg","0","1","1","1","0","0","0.466424399986863","0.494687799946405","0.451719100004993","1","1","1","1","1","1","1","1","1"
"260027","img/object_images/basketball_hoop02.jpg","img/object_images/bottle12.jpg","img/object_images/ironing_table02.jpg","1","0","1","0","1","0","0.451719100004993","0.466424399986863","0.554275800008327","1","1","1","1","1","1","1","1","1"
"260027","img/object_images/ironing_table02.jpg","img/object_images/basketball_hoop02.jpg","img/object_images/pot01.jpg","1","1","1","0","0","0","0.554275800008327","0.451719100004993","0.685881400015205","1","1","1","1","1","1","1","1","1"
"260027","img/object_images/pot01.jpg","img/object_images/ironing_table02.jpg","img/object_images/chair01.jpg","1","1","1","0","0","0","0.685881400015205","0.554275800008327","0.523273699916899","1","1","1","1","1","1","1","1","1"
"260027","img/object_images/chair01.jpg","img/object_images/pot01.jpg","img/object_images/Recycling01.jpg","1","1","1","0","0","1","0.523273699916899","0.685881400015205","0.456436299951747","1","1","1","1","1","1","1","1","1"
"260027","img/object_images/Recycling01.jpg","img/object_images/chair01.jpg","img/object_images/lamp01.jpg","1","1","1","1","0","1","0.456436299951747","0.523273699916899","0.512904500006698","1","1","1","1","1","1","1","1","1"
"260027","img/object_images/lamp01.jpg","img/object_images/Recycling01.jpg","img/object_images/couch04.jpg","1","1","1","1","1","1","0.512904500006698","0.456436299951747","0.715958899934776","1","1","1","1","1","1","1","1","1"
"260027","img/object_images/couch04.jpg","img/object_images/lamp01.jpg","img/object_images/Woopie01.jpg","1","1","1","1","1","1","0.715958899934776","0.512904500006698","0.657501399982721","1","1","1","1","1","1","1","1","1"
"260027","img/object_images/Woopie01.jpg","img/object_images/couch04.jpg","img/object_images/tie01.jpg","1","1","1","1","1","0","0.657501399982721","0.715958899934776","0.911679200013168","1","1","1","1","1","1","1","1","1"
"260027","img/object_images/tie01.jpg","img/object_images/Woopie01.jpg","img/object_images/razor03.jpg","1","1","1","0","1","0","0.911679200013168","0.657501399982721","0.51559699990321","1","1","1","1","1","1","1","1","1"
"260027","img/object_images/razor03.jpg","img/object_images/tie01.jpg","img/object_images/ball01.jpg","1","1","1","0","0","1","0.51559699990321","0.911679200013168","0.510363699984737","1","1","1","1","1","1","1","1","1"
"260027","img/object_images/ball01.jpg","img/object_images/razor03.jpg","img/object_images/hat02.jpg","1","1","1","1","0","0","0.510363699984737","0.51559699990321","0.853857099893503","1","1","1","1","1","1","1","1","1"
"260027","img/object_images/hat02.jpg","img/object_images/ball01.jpg","img/object_images/toy_train02.jpg","1","1","1","0","1","1","0.853857099893503","0.510363699984737","0.439888799912296","1","1","1","1","1","1","1","1","1"
"260027","img/object_images/toy_train02.jpg","img/object_images/hat02.jpg","img/object_images/Wisk01.jpg","1","1","1","1","0","1","0.439888799912296","0.853857099893503","0.732448499999009","1","1","1","1","1","1","1","1","1"
"260027","img/object_images/Wisk01.jpg","img/object_images/toy_train02.jpg","img/object_images/gloves05.jpg","1","1","1","1","1","1","0.732448499999009","0.439888799912296","0.506433099973947","1","1","1","1","1","1","1","1","1"
"260027","img/object_images/gloves05.jpg","img/object_images/Wisk01.jpg","img/object_images/car02.jpg","1","1","1","1","1","0","0.506433099973947","0.732448499999009","0.594173100078478","1","1","1","1","1","1","1","1","1"
"260027","img/object_images/car02.jpg","img/object_images/gloves05.jpg","img/object_images/decorative02.jpg","1","1","1","0","1","0","0.594173100078478","0.506433099973947","0.708983700023964","1","1","1","1","1","1","1","1","1"
"260027","img/object_images/decorative02.jpg","img/object_images/car02.jpg","img/object_images/toilet_paper01.jpg","1","1","1","0","0","1","0.708983700023964","0.594173100078478","0.654875700012781","1","1","1","1","1","1","1","1","1"
"260027","img/object_images/toilet_paper01.jpg","img/object_images/decorative02.jpg",NA,"1","1",NA,"1","0",NA,"0.654875700012781","0.708983700023964",NA,"1","1",NA,"1","1",NA,"1","1",NA
"260027","img/object_images/usb02.jpg",NA,"img/object_images/Oven01.jpg","1",NA,"1","0",NA,"1","0.698082900024019",NA,"0.511379100033082","1",NA,"1","1",NA,"1","1",NA,"1"
"260027","img/object_images/Oven01.jpg","img/object_images/usb02.jpg","img/object_images/tennis_racket02.jpg","1","1","1","1","0","1","0.511379100033082","0.698082900024019","0.577807400026359","1","1","1","1","1","1","1","1","1"
"260027","img/object_images/tennis_racket02.jpg","img/object_images/Oven01.jpg","img/object_images/hammer03.jpg","1","1","1","1","1","1","0.577807400026359","0.511379100033082","0.507793400087394","1","1","1","1","1","1","1","1","1"
"260027","img/object_images/hammer03.jpg","img/object_images/tennis_racket02.jpg","img/object_images/pitcher01.jpg","1","1","1","1","1","0","0.507793400087394","0.577807400026359","0.413130400003865","1","1","1","1","1","1","1","1","1"
"260027","img/object_images/pitcher01.jpg","img/object_images/hammer03.jpg","img/object_images/crutches02.jpg","1","1","1","0","1","0","0.413130400003865","0.507793400087394","0.619502800051123","1","1","1","1","1","1","1","1","1"
"260027","img/object_images/crutches02.jpg","img/object_images/pitcher01.jpg","img/object_images/knit05.jpg","1","1","1","0","0","1","0.619502800051123","0.413130400003865","0.692673799931072","1","1","1","1","1","1","1","1","1"
"260027","img/object_images/knit05.jpg","img/object_images/crutches02.jpg","img/object_images/cellphone01.jpg","1","1","1","1","0","1","0.692673799931072","0.619502800051123","0.483036100049503","1","1","1","1","1","1","1","1","1"
"260027","img/object_images/cellphone01.jpg","img/object_images/knit05.jpg","img/object_images/clock02.jpg","1","1","0","1","1","0","0.483036100049503","0.692673799931072","0.453133900067769","1","1","1","1","1","1","1","1","1"
"260027","img/object_images/clock02.jpg","img/object_images/cellphone01.jpg","img/object_images/compass01.jpg","0","1","1","0","1","1","0.453133900067769","0.483036100049503","1.52996209997218","1","1","1","1","1","1","1","1","1"
"260027","img/object_images/compass01.jpg","img/object_images/clock02.jpg","img/object_images/bell02.jpg","1","0","1","1","0","0","1.52996209997218","0.453133900067769","0.478679700056091","1","1","1","1","1","1","1","1","1"
"260027","img/object_images/bell02.jpg","img/object_images/compass01.jpg","img/object_images/retainer01.jpg","1","1","1","0","1","0","0.478679700056091","1.52996209997218","0.535575099987909","1","1","1","1","1","1","1","1","1"
"260027","img/object_images/retainer01.jpg","img/object_images/bell02.jpg","img/object_images/floppy_disk03.jpg","1","1","1","0","0","1","0.535575099987909","0.478679700056091","0.680839300039224","1","1","1","1","1","1","1","1","1"
"260027","img/object_images/floppy_disk03.jpg","img/object_images/retainer01.jpg","img/object_images/pen03.jpg","1","1","1","1","0","0","0.680839300039224","0.535575099987909","0.359616099973209","1","1","1","1","1","1","1","1","1"
"260027","img/object_images/pen03.jpg","img/object_images/floppy_disk03.jpg","img/object_images/clip03.jpg","1","1","1","0","1","0","0.359616099973209","0.680839300039224","0.572990500018932","1","1","1","1","1","1","1","1","1"
"260027","img/object_images/clip03.jpg","img/object_images/pen03.jpg","img/object_images/wire02.jpg","1","1","1","0","0","1","0.572990500018932","0.359616099973209","0.375640799989924","1","1","1","1","1","1","1","1","1"
"260027","img/object_images/wire02.jpg","img/object_images/clip03.jpg","img/object_images/lid01.jpg","1","1","1","1","0","1","0.375640799989924","0.572990500018932","0.442235599970445","1","1","1","1","1","1","1","1","1"
"260027","img/object_images/lid01.jpg","img/object_images/wire02.jpg","img/object_images/chess_piece02.jpg","1","1","0","1","1","1","0.442235599970445","0.375640799989924","0.597720099962316","1","1","1","1","1","1","1","1","1"
"260027","img/object_images/chess_piece02.jpg","img/object_images/lid01.jpg","img/object_images/pillows01.jpg","0","1","1","1","1","1","0.597720099962316","0.442235599970445","0.413546300027519","1","1","1","1","1","1","1","1","1"
"260027","img/object_images/pillows01.jpg","img/object_images/chess_piece02.jpg","img/object_images/microscope01.jpg","1","0","1","1","1","0","0.413546300027519","0.597720099962316","0.555423200014047","1","1","1","1","1","1","1","1","1"
"260027","img/object_images/microscope01.jpg","img/object_images/pillows01.jpg","img/object_images/chair05.jpg","1","1","0","0","1","0","0.555423200014047","0.413546300027519","1.23458940000273","1","1","1","1","1","1","1","1","1"
"260027","img/object_images/chair05.jpg","img/object_images/microscope01.jpg","img/object_images/knife04.jpg","0","1","0","0","0","1","1.23458940000273","0.555423200014047","0.398164900019765","1","1","1","1","1","1","1","1","1"
"260027","img/object_images/knife04.jpg","img/object_images/chair05.jpg","img/object_images/paint_brush04.jpg","0","0","1","1","0","0","0.398164900019765","1.23458940000273","0.62801850005053","1","1","1","1","1","1","1","1","1"
"260027","img/object_images/paint_brush04.jpg","img/object_images/knife04.jpg","img/object_images/book03.jpg","1","0","1","0","1","1","0.62801850005053","0.398164900019765","0.473230400006287","1","1","1","1","1","1","1","1","1"
"260027","img/object_images/book03.jpg","img/object_images/paint_brush04.jpg","img/object_images/Staples01.jpg","1","1","1","1","0","1","0.473230400006287","0.62801850005053","0.424007399939001","1","1","1","1","1","1","1","1","1"
"260027","img/object_images/Staples01.jpg","img/object_images/book03.jpg","img/object_images/motorcycle01.jpg","1","1","1","1","1","1","0.424007399939001","0.473230400006287","0.475030899979174","1","1","1","1","1","1","1","1","1"
"260027","img/object_images/motorcycle01.jpg","img/object_images/Staples01.jpg","img/object_images/tv02.jpg","1","1","1","1","1","0","0.475030899979174","0.424007399939001","0.419291199999861","1","1","1","1","1","1","1","1","1"
"260027","img/object_images/tv02.jpg","img/object_images/motorcycle01.jpg","img/object_images/note_book01.jpg","1","1","1","0","1","0","0.419291199999861","0.475030899979174","0.532976099988446","1","1","1","1","1","1","1","1","1"
"260027","img/object_images/note_book01.jpg","img/object_images/tv02.jpg","img/object_images/ear_bud01.jpg","1","1","1","0","0","1","0.532976099988446","0.419291199999861","0.51739490008913","1","1","1","1","1","1","1","1","1"
"260027","img/object_images/ear_bud01.jpg","img/object_images/note_book01.jpg","img/object_images/bottle01.jpg","1","1","0","1","0","0","0.51739490008913","0.532976099988446","0.510209399973974","1","1","1","1","1","1","1","1","1"
"260027","img/object_images/bottle01.jpg","img/object_images/ear_bud01.jpg","img/object_images/floppy_disk02.jpg","0","1","1","0","1","0","0.510209399973974","0.51739490008913","0.663012700038962","1","1","1","1","1","1","1","1","1"
"260027","img/object_images/floppy_disk02.jpg","img/object_images/bottle01.jpg","img/object_images/Thermometer01.jpg","1","0","1","0","0","0","0.663012700038962","0.510209399973974","0.657908299937844","1","1","1","1","1","1","1","1","1"
"260027","img/object_images/Thermometer01.jpg","img/object_images/floppy_disk02.jpg",NA,"1","1",NA,"0","0",NA,"0.657908299937844","0.663012700038962",NA,"1","1",NA,"1","1",NA,"1","1",NA
