"participant_id","current_trial_object","pre_trial_object","post_trial_object","current_trial_accuracy","pre_trial_accuracy","post_trial_accuracy","current_trial_congruency","pre_trial_congruency","post_trial_congruency","current_trial_rt","pre_trial_rt","post_trial_rt","current_trial_responded","pre_trial_responded","post_trial_responded","current_trial_legitResponse","pre_trial_legitResponse","post_trial_legitResponse","current_trial_resp_nums","pre_trial_resp_nums","post_trial_resp_nums"
"260062","img/object_images/screwdriver01.jpg",NA,"img/object_images/cutting_board01.jpg","1",NA,"1","0",NA,"1","0.427219799999875",NA,"0.379098400000657","1",NA,"1","1",NA,"1","1",NA,"1"
"260062","img/object_images/cutting_board01.jpg","img/object_images/screwdriver01.jpg","img/object_images/shower_head03.jpg","1","1","1","1","0","1","0.379098400000657","0.427219799999875","0.395018199999868","1","1","1","1","1","1","1","1","1"
"260062","img/object_images/shower_head03.jpg","img/object_images/cutting_board01.jpg","img/object_images/shoes10.jpg","1","1","1","1","1","0","0.395018199999868","0.379098400000657","0.447967800000697","1","1","1","1","1","1","1","1","1"
"260062","img/object_images/shoes10.jpg","img/object_images/shower_head03.jpg","img/object_images/belt01.jpg","1","1","1","0","1","0","0.447967800000697","0.395018199999868","0.330930300000546","1","1","1","1","1","1","1","1","1"
"260062","img/object_images/belt01.jpg","img/object_images/shoes10.jpg","img/object_images/bag06.jpg","1","1","1","0","0","1","0.330930300000546","0.447967800000697","0.331470700000864","1","1","1","1","1","1","1","1","1"
"260062","img/object_images/bag06.jpg","img/object_images/belt01.jpg","img/object_images/slinky_toy01.jpg","1","1","1","1","0","1","0.331470700000864","0.330930300000546","0.339365400000133","1","1","1","1","1","1","1","1","1"
"260062","img/object_images/slinky_toy01.jpg","img/object_images/bag06.jpg","img/object_images/MeasuringCup01.jpg","1","1","1","1","1","1","0.339365400000133","0.331470700000864","0.354099600000154","1","1","1","1","1","1","1","1","1"
"260062","img/object_images/MeasuringCup01.jpg","img/object_images/slinky_toy01.jpg","img/object_images/jewelry07.jpg","1","1","1","1","1","1","0.354099600000154","0.339365400000133","0.342582300000686","1","1","1","1","1","1","1","1","1"
"260062","img/object_images/jewelry07.jpg","img/object_images/MeasuringCup01.jpg","img/object_images/ice_tray03.jpg","1","1","1","1","1","1","0.342582300000686","0.354099600000154","0.367811799999799","1","1","1","1","1","1","1","1","1"
"260062","img/object_images/ice_tray03.jpg","img/object_images/jewelry07.jpg","img/object_images/key02.jpg","1","1","1","1","1","1","0.367811799999799","0.342582300000686","0.348602600000049","1","1","1","1","1","1","1","1","1"
"260062","img/object_images/key02.jpg","img/object_images/ice_tray03.jpg","img/object_images/toaster02.jpg","1","1","1","1","1","1","0.348602600000049","0.367811799999799","0.358548000000155","1","1","1","1","1","1","1","1","1"
"260062","img/object_images/toaster02.jpg","img/object_images/key02.jpg","img/object_images/ladle02.jpg","1","1","1","1","1","0","0.358548000000155","0.348602600000049","0.394400299999688","1","1","1","1","1","1","1","1","1"
"260062","img/object_images/ladle02.jpg","img/object_images/toaster02.jpg","img/object_images/hair_brush05.jpg","1","1","1","0","1","1","0.394400299999688","0.358548000000155","0.38264910000089","1","1","1","1","1","1","1","1","1"
"260062","img/object_images/hair_brush05.jpg","img/object_images/ladle02.jpg","img/object_images/car03.jpg","1","1","1","1","0","0","0.38264910000089","0.394400299999688","0.433526100000563","1","1","1","1","1","1","1","1","1"
"260062","img/object_images/car03.jpg","img/object_images/hair_brush05.jpg","img/object_images/binoculars03.jpg","1","1","1","0","1","1","0.433526100000563","0.38264910000089","0.314934600000925","1","1","1","1","1","1","1","1","1"
"260062","img/object_images/binoculars03.jpg","img/object_images/car03.jpg","img/object_images/tool11.jpg","1","1","1","1","0","1","0.314934600000925","0.433526100000563","0.363168300000325","1","1","1","1","1","1","1","1","1"
"260062","img/object_images/tool11.jpg","img/object_images/binoculars03.jpg","img/object_images/rock03.jpg","1","1","1","1","1","0","0.363168300000325","0.314934600000925","0.421795700000075","1","1","1","1","1","1","1","1","1"
"260062","img/object_images/rock03.jpg","img/object_images/tool11.jpg","img/object_images/dress03.jpg","1","1","1","0","1","1","0.421795700000075","0.363168300000325","0.41098779999993","1","1","1","1","1","1","1","1","1"
"260062","img/object_images/dress03.jpg","img/object_images/rock03.jpg","img/object_images/lemon_squeezer02.jpg","1","1","1","1","0","1","0.41098779999993","0.421795700000075","0.348209699999643","1","1","1","1","1","1","1","1","1"
"260062","img/object_images/lemon_squeezer02.jpg","img/object_images/dress03.jpg","img/object_images/jewel01.jpg","1","1","1","1","1","0","0.348209699999643","0.41098779999993","0.375423399999818","1","1","1","1","1","1","1","1","1"
"260062","img/object_images/jewel01.jpg","img/object_images/lemon_squeezer02.jpg","img/object_images/razor01.jpg","1","1","1","0","1","0","0.375423399999818","0.348209699999643","0.302458400000432","1","1","1","1","1","1","1","1","1"
"260062","img/object_images/razor01.jpg","img/object_images/jewel01.jpg","img/object_images/chair04.jpg","1","1","1","0","0","1","0.302458400000432","0.375423399999818","0.331152100000509","1","1","1","1","1","1","1","1","1"
"260062","img/object_images/chair04.jpg","img/object_images/razor01.jpg","img/object_images/cards01.jpg","1","1","1","1","0","0","0.331152100000509","0.302458400000432","0.402788800000053","1","1","1","1","1","1","1","1","1"
"260062","img/object_images/cards01.jpg","img/object_images/chair04.jpg","img/object_images/car04.jpg","1","1","1","0","1","0","0.402788800000053","0.331152100000509","0.400940499999706","1","1","1","1","1","1","1","1","1"
"260062","img/object_images/car04.jpg","img/object_images/cards01.jpg","img/object_images/mask01.jpg","1","1","1","0","0","0","0.400940499999706","0.402788800000053","0.395814900000005","1","1","1","1","1","1","1","1","1"
"260062","img/object_images/mask01.jpg","img/object_images/car04.jpg","img/object_images/fan05.jpg","1","1","1","0","0","0","0.395814900000005","0.400940499999706","0.358364400000937","1","1","1","1","1","1","1","1","1"
"260062","img/object_images/fan05.jpg","img/object_images/mask01.jpg","img/object_images/ribbon01.jpg","1","1","1","0","0","0","0.358364400000937","0.395814900000005","0.362084100000175","1","1","1","1","1","1","1","1","1"
"260062","img/object_images/ribbon01.jpg","img/object_images/fan05.jpg","img/object_images/tv01.jpg","1","1","1","0","0","0","0.362084100000175","0.358364400000937","0.380084200000056","1","1","1","1","1","1","1","1","1"
"260062","img/object_images/tv01.jpg","img/object_images/ribbon01.jpg","img/object_images/yarn02.jpg","1","1","1","0","0","0","0.380084200000056","0.362084100000175","0.382789199999934","1","1","1","1","1","1","1","1","1"
"260062","img/object_images/yarn02.jpg","img/object_images/tv01.jpg","img/object_images/satellite01.jpg","1","1","1","0","0","0","0.382789199999934","0.380084200000056","0.416572900000574","1","1","1","1","1","1","1","1","2"
"260062","img/object_images/satellite01.jpg","img/object_images/yarn02.jpg","img/object_images/WitchHat02.jpg","1","1","1","0","0","1","0.416572900000574","0.382789199999934","0.332463800000369","1","1","1","1","1","1","2","1","1"
"260062","img/object_images/WitchHat02.jpg","img/object_images/satellite01.jpg",NA,"1","1",NA,"1","0",NA,"0.332463800000369","0.416572900000574",NA,"1","1",NA,"1","1",NA,"1","2",NA
"260062","img/object_images/soap03.jpg",NA,"img/object_images/box03.jpg","1",NA,"1","0",NA,"0","0.406616300000678",NA,"0.369465700000546","1",NA,"1","1",NA,"1","1",NA,"1"
"260062","img/object_images/box03.jpg","img/object_images/soap03.jpg","img/object_images/book02.jpg","1","1","1","0","0","1","0.369465700000546","0.406616300000678","0.339162400000532","1","1","1","1","1","1","1","1","1"
"260062","img/object_images/book02.jpg","img/object_images/box03.jpg","img/object_images/scarf01.jpg","1","1","1","1","0","1","0.339162400000532","0.369465700000546","0.25711290000072","1","1","1","1","1","1","1","1","1"
"260062","img/object_images/scarf01.jpg","img/object_images/book02.jpg","img/object_images/fork02.jpg","1","1","0","1","1","0","0.25711290000072","0.339162400000532","0.311613300000317","1","1","1","1","1","1","1","1","1"
"260062","img/object_images/fork02.jpg","img/object_images/scarf01.jpg","img/object_images/pitcher09.jpg","0","1","1","0","1","1","0.311613300000317","0.25711290000072","0.307877199999893","1","1","1","1","1","1","1","1","1"
"260062","img/object_images/pitcher09.jpg","img/object_images/fork02.jpg","img/object_images/drone01.jpg","1","0","1","1","0","1","0.307877199999893","0.311613300000317","0.30306660000042","1","1","1","1","1","1","1","1","1"
"260062","img/object_images/drone01.jpg","img/object_images/pitcher09.jpg","img/object_images/skate_board01.jpg","1","1","1","1","1","0","0.30306660000042","0.307877199999893","0.378850500000226","1","1","1","1","1","1","1","1","1"
"260062","img/object_images/skate_board01.jpg","img/object_images/drone01.jpg","img/object_images/pen01.jpg","1","1","0","0","1","0","0.378850500000226","0.30306660000042","0.365481800000452","1","1","1","1","1","1","1","1","1"
"260062","img/object_images/pen01.jpg","img/object_images/skate_board01.jpg","img/object_images/couch01.jpg","0","1","1","0","0","0","0.365481800000452","0.378850500000226","0.425348800000393","1","1","1","1","1","1","1","1","1"
"260062","img/object_images/couch01.jpg","img/object_images/pen01.jpg","img/object_images/chair06.jpg","1","0","1","0","0","0","0.425348800000393","0.365481800000452","0.38568320000013","1","1","1","1","1","1","1","1","1"
"260062","img/object_images/chair06.jpg","img/object_images/couch01.jpg","img/object_images/bag_pipes01.jpg","1","1","1","0","0","1","0.38568320000013","0.425348800000393","0.30560080000032","1","1","1","1","1","1","1","1","1"
"260062","img/object_images/bag_pipes01.jpg","img/object_images/chair06.jpg","img/object_images/egg_slicer01.jpg","1","1","1","1","0","1","0.30560080000032","0.38568320000013","0.280608900000516","1","1","1","1","1","1","1","1","1"
"260062","img/object_images/egg_slicer01.jpg","img/object_images/bag_pipes01.jpg","img/object_images/chain01.jpg","1","1","1","1","1","0","0.280608900000516","0.30560080000032","0.421078800000942","1","1","1","1","1","1","1","1","1"
"260062","img/object_images/chain01.jpg","img/object_images/egg_slicer01.jpg","img/object_images/bell03.jpg","1","1","1","0","1","0","0.421078800000942","0.280608900000516","0.3859266999998","1","1","1","1","1","1","1","1","1"
"260062","img/object_images/bell03.jpg","img/object_images/chain01.jpg","img/object_images/Violin01.jpg","1","1","1","0","0","0","0.3859266999998","0.421078800000942","0.364315499999975","1","1","1","1","1","1","1","1","1"
"260062","img/object_images/Violin01.jpg","img/object_images/bell03.jpg","img/object_images/shoes12.jpg","1","1","1","0","0","1","0.364315499999975","0.3859266999998","0.326049300000705","1","1","1","1","1","1","1","1","1"
"260062","img/object_images/shoes12.jpg","img/object_images/Violin01.jpg","img/object_images/video_game03.jpg","1","1","1","1","0","1","0.326049300000705","0.364315499999975","0.345453800000541","1","1","1","1","1","1","1","1","1"
"260062","img/object_images/video_game03.jpg","img/object_images/shoes12.jpg","img/object_images/hair_brush01.jpg","1","1","1","1","1","1","0.345453800000541","0.326049300000705","0.310655500000394","1","1","1","1","1","1","1","1","1"
"260062","img/object_images/hair_brush01.jpg","img/object_images/video_game03.jpg","img/object_images/Trowel01.jpg","1","1","1","1","1","0","0.310655500000394","0.345453800000541","0.445566999999755","1","1","1","1","1","1","1","1","1"
"260062","img/object_images/Trowel01.jpg","img/object_images/hair_brush01.jpg","img/object_images/clip04.jpg","1","1","1","0","1","1","0.445566999999755","0.310655500000394","0.365592400000423","1","1","1","1","1","1","1","1","1"
"260062","img/object_images/clip04.jpg","img/object_images/Trowel01.jpg","img/object_images/tool06.jpg","1","1","1","1","0","0","0.365592400000423","0.445566999999755","0.353026499999942","1","1","1","1","1","1","1","1","1"
"260062","img/object_images/tool06.jpg","img/object_images/clip04.jpg","img/object_images/tripod01.jpg","1","1","1","0","1","1","0.353026499999942","0.365592400000423","0.344059300000481","1","1","1","1","1","1","1","1","1"
"260062","img/object_images/tripod01.jpg","img/object_images/tool06.jpg","img/object_images/toy01.jpg","1","1","1","1","0","1","0.344059300000481","0.353026499999942","0.325298400000065","1","1","1","1","1","1","1","1","1"
"260062","img/object_images/toy01.jpg","img/object_images/tripod01.jpg","img/object_images/airfryer02.jpg","1","1","1","1","1","1","0.325298400000065","0.344059300000481","0.340097500000411","1","1","1","1","1","1","1","1","1"
"260062","img/object_images/airfryer02.jpg","img/object_images/toy01.jpg","img/object_images/toothbrush01.jpg","1","1","1","1","1","0","0.340097500000411","0.325298400000065","0.370229200000722","1","1","1","1","1","1","1","1","1"
"260062","img/object_images/toothbrush01.jpg","img/object_images/airfryer02.jpg","img/object_images/floss02.jpg","1","1","1","0","1","1","0.370229200000722","0.340097500000411","0.301588100000117","1","1","1","1","1","1","1","1","1"
"260062","img/object_images/floss02.jpg","img/object_images/toothbrush01.jpg","img/object_images/computer_mouse01.jpg","1","1","1","1","0","1","0.301588100000117","0.370229200000722","0.289479500000198","1","1","1","1","1","1","1","1","1"
"260062","img/object_images/computer_mouse01.jpg","img/object_images/floss02.jpg","img/object_images/computer_mouse02.jpg","1","1","1","1","1","0","0.289479500000198","0.301588100000117","0.374861800000872","1","1","1","1","1","1","1","1","1"
"260062","img/object_images/computer_mouse02.jpg","img/object_images/computer_mouse01.jpg","img/object_images/blender01.jpg","1","1","0","0","1","0","0.374861800000872","0.289479500000198","0.315432700000201","1","1","1","1","1","1","1","1","1"
"260062","img/object_images/blender01.jpg","img/object_images/computer_mouse02.jpg","img/object_images/rock02.jpg","0","1","1","0","0","0","0.315432700000201","0.374861800000872","0.383071600000221","1","1","1","1","1","1","1","1","1"
"260062","img/object_images/rock02.jpg","img/object_images/blender01.jpg","img/object_images/mail_box02.jpg","1","0","1","0","0","1","0.383071600000221","0.315432700000201","0.306305500000235","1","1","1","1","1","1","1","1","1"
"260062","img/object_images/mail_box02.jpg","img/object_images/rock02.jpg",NA,"1","1",NA,"1","0",NA,"0.306305500000235","0.383071600000221",NA,"1","1",NA,"1","1",NA,"1","1",NA
"260062","img/object_images/faucet01.jpg",NA,"img/object_images/projector01.jpg","1",NA,"1","0",NA,"0","0.440306000000419",NA,"0.345344400000613","1",NA,"1","1",NA,"1","1",NA,"1"
"260062","img/object_images/projector01.jpg","img/object_images/faucet01.jpg","img/object_images/ring03.jpg","1","1","1","0","0","1","0.345344400000613","0.440306000000419","0.310527700000421","1","1","1","1","1","1","1","1","1"
"260062","img/object_images/ring03.jpg","img/object_images/projector01.jpg","img/object_images/basket02.jpg","1","1","1","1","0","0","0.310527700000421","0.345344400000613","0.36101140000028","1","1","1","1","1","1","1","1","1"
"260062","img/object_images/basket02.jpg","img/object_images/ring03.jpg","img/object_images/Traffic Sign 01.jpg","1","1","1","0","1","0","0.36101140000028","0.310527700000421","0.361098200000015","1","1","1","1","1","1","1","1","1"
"260062","img/object_images/Traffic Sign 01.jpg","img/object_images/basket02.jpg","img/object_images/fire_extinguisher01.jpg","1","1","1","0","0","0","0.361098200000015","0.36101140000028","0.329177100000379","1","1","1","1","1","1","1","1","1"
"260062","img/object_images/fire_extinguisher01.jpg","img/object_images/Traffic Sign 01.jpg","img/object_images/exfoliater_brush01.jpg","1","1","1","0","0","0","0.329177100000379","0.361098200000015","0.331902300000365","1","1","1","1","1","1","1","1","1"
"260062","img/object_images/exfoliater_brush01.jpg","img/object_images/fire_extinguisher01.jpg","img/object_images/glasses06.jpg","1","1","1","0","0","1","0.331902300000365","0.329177100000379","0.332135599999674","1","1","1","1","1","1","1","1","1"
"260062","img/object_images/glasses06.jpg","img/object_images/exfoliater_brush01.jpg","img/object_images/cup03.jpg","1","1","1","1","0","1","0.332135599999674","0.331902300000365","0.281000100000711","1","1","1","1","1","1","1","1","1"
"260062","img/object_images/cup03.jpg","img/object_images/glasses06.jpg","img/object_images/gift_box04.jpg","1","1","1","1","1","0","0.281000100000711","0.332135599999674","0.340161099999932","1","1","1","1","1","1","1","1","1"
"260062","img/object_images/gift_box04.jpg","img/object_images/cup03.jpg","img/object_images/yo_yo01.jpg","1","1","0","0","1","0","0.340161099999932","0.281000100000711","0.319152100000792","1","1","1","1","1","1","1","1","1"
"260062","img/object_images/yo_yo01.jpg","img/object_images/gift_box04.jpg","img/object_images/blanket01.jpg","0","1","1","0","0","1","0.319152100000792","0.340161099999932","0.320005499999752","1","1","1","1","1","1","1","1","1"
"260062","img/object_images/blanket01.jpg","img/object_images/yo_yo01.jpg","img/object_images/pan01.jpg","1","0","1","1","0","1","0.320005499999752","0.319152100000792","0.28413829999954","1","1","1","1","1","1","1","1","1"
"260062","img/object_images/pan01.jpg","img/object_images/blanket01.jpg","img/object_images/jewelry09.jpg","1","1","1","1","1","1","0.28413829999954","0.320005499999752","0.291024099999959","1","1","1","1","1","1","1","1","1"
"260062","img/object_images/jewelry09.jpg","img/object_images/pan01.jpg","img/object_images/hole_puncher01.jpg","1","1","1","1","1","1","0.291024099999959","0.28413829999954","0.263302000000294","1","1","1","1","1","1","1","1","1"
"260062","img/object_images/hole_puncher01.jpg","img/object_images/jewelry09.jpg","img/object_images/speaker01.jpg","1","1","1","1","1","1","0.263302000000294","0.291024099999959","0.316269900000407","1","1","1","1","1","1","1","1","1"
"260062","img/object_images/speaker01.jpg","img/object_images/hole_puncher01.jpg","img/object_images/bicycle_lock01.jpg","1","1","1","1","1","0","0.316269900000407","0.263302000000294","0.25003740000011","1","1","1","1","1","1","1","1","1"
"260062","img/object_images/bicycle_lock01.jpg","img/object_images/speaker01.jpg","img/object_images/hair_clips01.jpg","1","1","0","0","1","1","0.25003740000011","0.316269900000407","0.337313199999698","1","1","1","1","1","1","1","1","1"
"260062","img/object_images/hair_clips01.jpg","img/object_images/bicycle_lock01.jpg","img/object_images/lighter01.jpg","0","1","1","1","0","1","0.337313199999698","0.25003740000011","0.336600800000269","1","1","1","1","1","1","1","1","1"
"260062","img/object_images/lighter01.jpg","img/object_images/hair_clips01.jpg","img/object_images/Pottery01.jpg","1","0","0","1","1","0","0.336600800000269","0.337313199999698","0.327538599999571","1","1","1","1","1","1","1","1","2"
"260062","img/object_images/Pottery01.jpg","img/object_images/lighter01.jpg","img/object_images/book01.jpg","0","1","1","0","1","1","0.327538599999571","0.336600800000269","0.316872200000034","1","1","1","1","1","1","2","1","1"
"260062","img/object_images/book01.jpg","img/object_images/Pottery01.jpg","img/object_images/cellphone02.jpg","1","0","1","1","0","1","0.316872200000034","0.327538599999571","0.290675100000044","1","1","1","1","1","1","1","2","1"
"260062","img/object_images/cellphone02.jpg","img/object_images/book01.jpg","img/object_images/Sprayer01.jpg","1","1","1","1","1","0","0.290675100000044","0.316872200000034","0.317845100000341","1","1","1","1","1","1","1","1","1"
"260062","img/object_images/Sprayer01.jpg","img/object_images/cellphone02.jpg","img/object_images/Kitchen_Towel.jpg","1","1","0","0","1","0","0.317845100000341","0.290675100000044","0.289879300000393","1","1","1","1","1","1","1","1","1"
"260062","img/object_images/Kitchen_Towel.jpg","img/object_images/Sprayer01.jpg","img/object_images/purse01.jpg","0","1","1","0","0","1","0.289879300000393","0.317845100000341","0.313527000000249","1","1","1","1","1","1","1","1","1"
"260062","img/object_images/purse01.jpg","img/object_images/Kitchen_Towel.jpg","img/object_images/TrashCan02.jpg","1","0","1","1","0","1","0.313527000000249","0.289879300000393","0.325917799999843","1","1","1","1","1","1","1","1","1"
"260062","img/object_images/TrashCan02.jpg","img/object_images/purse01.jpg","img/object_images/tool08.jpg","1","1","1","1","1","0","0.325917799999843","0.313527000000249","0.348790600000939","1","1","1","1","1","1","1","1","1"
"260062","img/object_images/tool08.jpg","img/object_images/TrashCan02.jpg","img/object_images/handcuffs01.jpg","1","1","0","0","1","0","0.348790600000939","0.325917799999843","0.260942100000648","1","1","1","1","1","1","1","1","1"
"260062","img/object_images/handcuffs01.jpg","img/object_images/tool08.jpg","img/object_images/colander01.jpg","0","1","1","0","0","0","0.260942100000648","0.348790600000939","0.40367520000018","1","1","1","1","1","1","1","1","1"
"260062","img/object_images/colander01.jpg","img/object_images/handcuffs01.jpg","img/object_images/tool07.jpg","1","0","1","0","0","0","0.40367520000018","0.260942100000648","0.451650200000586","1","1","1","1","1","1","1","1","1"
"260062","img/object_images/tool07.jpg","img/object_images/colander01.jpg","img/object_images/tray01.jpg","1","1","1","0","0","1","0.451650200000586","0.40367520000018","0.300937500001055","1","1","1","1","1","1","1","1","1"
"260062","img/object_images/tray01.jpg","img/object_images/tool07.jpg","img/object_images/glasses07.jpg","1","1","1","1","0","1","0.300937500001055","0.451650200000586","0.349859600000855","1","1","1","1","1","1","1","1","1"
"260062","img/object_images/glasses07.jpg","img/object_images/tray01.jpg",NA,"1","1",NA,"1","1",NA,"0.349859600000855","0.300937500001055",NA,"1","1",NA,"1","1",NA,"1","1",NA
"260062","img/object_images/airfryer01.jpg",NA,"img/object_images/gloves05.jpg","1",NA,"1","0",NA,"1","0.481787599999734",NA,"0.294829300000856","1",NA,"1","1",NA,"1","1",NA,"1"
"260062","img/object_images/gloves05.jpg","img/object_images/airfryer01.jpg","img/object_images/bottle12.jpg","1","1","1","1","0","1","0.294829300000856","0.481787599999734","0.296986700000161","1","1","1","1","1","1","1","1","1"
"260062","img/object_images/bottle12.jpg","img/object_images/gloves05.jpg","img/object_images/brief_case02.jpg","1","1","1","1","1","1","0.296986700000161","0.294829300000856","0.283500399999866","1","1","1","1","1","1","1","1","1"
"260062","img/object_images/brief_case02.jpg","img/object_images/bottle12.jpg","img/object_images/decorative02.jpg","1","1","0","1","1","0","0.283500399999866","0.296986700000161","0.288513499999681","1","1","1","1","1","1","1","1","2"
"260062","img/object_images/decorative02.jpg","img/object_images/brief_case02.jpg","img/object_images/helmet05.jpg","0","1","1","0","1","1","0.288513499999681","0.283500399999866","0.303756799999974","1","1","1","1","1","1","2","1","1"
"260062","img/object_images/helmet05.jpg","img/object_images/decorative02.jpg","img/object_images/couch04.jpg","1","0","1","1","0","1","0.303756799999974","0.288513499999681","0.287178700000368","1","1","1","1","1","1","1","2","1"
"260062","img/object_images/couch04.jpg","img/object_images/helmet05.jpg","img/object_images/lantern01.jpg","1","1","1","1","1","1","0.287178700000368","0.303756799999974","0.319637000000512","1","1","1","1","1","1","1","1","1"
"260062","img/object_images/lantern01.jpg","img/object_images/couch04.jpg","img/object_images/video_game06.jpg","1","1","1","1","1","0","0.319637000000512","0.287178700000368","0.344178100000136","1","1","1","1","1","1","1","1","1"
"260062","img/object_images/video_game06.jpg","img/object_images/lantern01.jpg","img/object_images/cochlear_implant01.jpg","1","1","1","0","1","0","0.344178100000136","0.319637000000512","0.361402800000178","1","1","1","1","1","1","1","1","1"
"260062","img/object_images/cochlear_implant01.jpg","img/object_images/video_game06.jpg","img/object_images/Recycling01.jpg","1","1","1","0","0","1","0.361402800000178","0.344178100000136","0.317197999999735","1","1","1","1","1","1","1","1","1"
"260062","img/object_images/Recycling01.jpg","img/object_images/cochlear_implant01.jpg","img/object_images/basketball_hoop02.jpg","1","1","1","1","0","0","0.317197999999735","0.361402800000178","0.358819100000801","1","1","1","1","1","1","1","1","1"
"260062","img/object_images/basketball_hoop02.jpg","img/object_images/Recycling01.jpg","img/object_images/ball01.jpg","1","1","1","0","1","1","0.358819100000801","0.317197999999735","0.339672799999789","1","1","1","1","1","1","1","1","1"
"260062","img/object_images/ball01.jpg","img/object_images/basketball_hoop02.jpg","img/object_images/ironing_table02.jpg","1","1","1","1","0","0","0.339672799999789","0.358819100000801","0.279443500000525","1","1","1","1","1","1","1","1","1"
"260062","img/object_images/ironing_table02.jpg","img/object_images/ball01.jpg","img/object_images/car02.jpg","1","1","1","0","1","0","0.279443500000525","0.339672799999789","0.346110300000873","1","1","1","1","1","1","1","1","1"
"260062","img/object_images/car02.jpg","img/object_images/ironing_table02.jpg","img/object_images/tie01.jpg","1","1","0","0","0","0","0.346110300000873","0.279443500000525","0.308564700000716","1","1","1","1","1","1","1","1","1"
"260062","img/object_images/tie01.jpg","img/object_images/car02.jpg","img/object_images/toilet_paper01.jpg","0","1","1","0","0","1","0.308564700000716","0.346110300000873","0.329414699999688","1","1","1","1","1","1","1","1","1"
"260062","img/object_images/toilet_paper01.jpg","img/object_images/tie01.jpg","img/object_images/container01.jpg","1","0","1","1","0","0","0.329414699999688","0.308564700000716","0.338686800000687","1","1","1","1","1","1","1","1","1"
"260062","img/object_images/container01.jpg","img/object_images/toilet_paper01.jpg","img/object_images/chair01.jpg","1","1","0","0","1","0","0.338686800000687","0.329414699999688","0.322245899999871","1","1","1","1","1","1","1","1","2"
"260062","img/object_images/chair01.jpg","img/object_images/container01.jpg","img/object_images/soap01.jpg","0","1","1","0","0","0","0.322245899999871","0.338686800000687","0.341309899999942","1","1","1","1","1","1","2","1","1"
"260062","img/object_images/soap01.jpg","img/object_images/chair01.jpg","img/object_images/pitcher03.jpg","1","0","1","0","0","1","0.341309899999942","0.322245899999871","0.284297900000638","1","1","1","1","1","1","1","2","1"
"260062","img/object_images/pitcher03.jpg","img/object_images/soap01.jpg","img/object_images/lamp01.jpg","1","1","1","1","0","1","0.284297900000638","0.341309899999942","0.290129400000296","1","1","1","1","1","1","1","1","1"
"260062","img/object_images/lamp01.jpg","img/object_images/pitcher03.jpg","img/object_images/toy_train02.jpg","1","1","0","1","1","1","0.290129400000296","0.284297900000638","0.35685310000008","1","1","1","1","1","1","1","1","1"
"260062","img/object_images/toy_train02.jpg","img/object_images/lamp01.jpg","img/object_images/Woopie01.jpg","0","1","1","1","1","1","0.35685310000008","0.290129400000296","0.301503100000446","1","1","1","1","1","1","1","1","1"
"260062","img/object_images/Woopie01.jpg","img/object_images/toy_train02.jpg","img/object_images/pot01.jpg","1","0","0","1","1","0","0.301503100000446","0.35685310000008","0.300696199999948","1","1","1","1","1","1","1","1","1"
"260062","img/object_images/pot01.jpg","img/object_images/Woopie01.jpg","img/object_images/razor03.jpg","0","1","0","0","1","0","0.300696199999948","0.301503100000446","0.409552399999484","1","1","1","1","1","1","1","1","1"
"260062","img/object_images/razor03.jpg","img/object_images/pot01.jpg","img/object_images/brief_case01.jpg","0","0","1","0","0","0","0.409552399999484","0.300696199999948","0.282570100000157","1","1","1","1","1","1","1","1","1"
"260062","img/object_images/brief_case01.jpg","img/object_images/razor03.jpg","img/object_images/guitar01.jpg","1","0","1","0","0","1","0.282570100000157","0.409552399999484","0.285114500000418","1","1","1","1","1","1","1","1","1"
"260062","img/object_images/guitar01.jpg","img/object_images/brief_case01.jpg","img/object_images/Wisk01.jpg","1","1","1","1","0","1","0.285114500000418","0.282570100000157","0.402150100000654","1","1","1","1","1","1","1","1","1"
"260062","img/object_images/Wisk01.jpg","img/object_images/guitar01.jpg","img/object_images/broom01.jpg","1","1","1","1","1","1","0.402150100000654","0.285114500000418","0.295260100000633","1","1","1","1","1","1","1","1","1"
"260062","img/object_images/broom01.jpg","img/object_images/Wisk01.jpg","img/object_images/drone02.jpg","1","1","1","1","1","0","0.295260100000633","0.402150100000654","0.297210699999596","1","1","1","1","1","1","1","1","1"
"260062","img/object_images/drone02.jpg","img/object_images/broom01.jpg","img/object_images/hat02.jpg","1","1","0","0","1","0","0.297210699999596","0.295260100000633","0.308097000000089","1","1","1","1","1","1","1","1","1"
"260062","img/object_images/hat02.jpg","img/object_images/drone02.jpg",NA,"0","1",NA,"0","0",NA,"0.308097000000089","0.297210699999596",NA,"1","1",NA,"1","1",NA,"1","1",NA
"260062","img/object_images/toy04.jpg",NA,"img/object_images/judge_gavel01.jpg","1",NA,"1","0",NA,"1","0.377753300000222",NA,"0.336856500000067","1",NA,"1","1",NA,"1","1",NA,"1"
"260062","img/object_images/judge_gavel01.jpg","img/object_images/toy04.jpg","img/object_images/toy03.jpg","1","1","1","1","0","1","0.336856500000067","0.377753300000222","0.332393099999535","1","1","1","1","1","1","1","1","1"
"260062","img/object_images/toy03.jpg","img/object_images/judge_gavel01.jpg","img/object_images/sink01.jpg","1","1","0","1","1","0","0.332393099999535","0.336856500000067","0.294393399999535","1","1","1","1","1","1","1","1","1"
"260062","img/object_images/sink01.jpg","img/object_images/toy03.jpg","img/object_images/helmet01.jpg","0","1","1","0","1","0","0.294393399999535","0.332393099999535","0.277187599999706","1","1","1","1","1","1","1","1","1"
"260062","img/object_images/helmet01.jpg","img/object_images/sink01.jpg","img/object_images/bird_house02.jpg","1","0","1","0","0","1","0.277187599999706","0.294393399999535","0.338403400000061","1","1","1","1","1","1","1","1","1"
"260062","img/object_images/bird_house02.jpg","img/object_images/helmet01.jpg","img/object_images/guitar02.jpg","1","1","0","1","0","0","0.338403400000061","0.277187599999706","0.265875600000072","1","1","1","1","1","1","1","1","1"
"260062","img/object_images/guitar02.jpg","img/object_images/bird_house02.jpg","img/object_images/MetalWire01.jpg","0","1","0","0","1","0","0.265875600000072","0.338403400000061","0.471396099999765","1","1","1","1","1","1","1","1","1"
"260062","img/object_images/MetalWire01.jpg","img/object_images/guitar02.jpg","img/object_images/Tin01.jpg","0","0","1","0","0","1","0.471396099999765","0.265875600000072","0.289012899999761","1","1","1","1","1","1","1","1","1"
"260062","img/object_images/Tin01.jpg","img/object_images/MetalWire01.jpg","img/object_images/towel02.jpg","1","0","1","1","0","1","0.289012899999761","0.471396099999765","0.289584600001035","1","1","1","1","1","1","1","1","1"
"260062","img/object_images/towel02.jpg","img/object_images/Tin01.jpg","img/object_images/stapler.jpg","1","1","1","1","1","1","0.289584600001035","0.289012899999761","0.301815699999679","1","1","1","1","1","1","1","1","1"
"260062","img/object_images/stapler.jpg","img/object_images/towel02.jpg","img/object_images/bow01.jpg","1","1","0","1","1","1","0.301815699999679","0.289584600001035","0.354333600000245","1","1","1","1","1","1","1","1","1"
"260062","img/object_images/bow01.jpg","img/object_images/stapler.jpg","img/object_images/mirror01.jpg","0","1","1","1","1","1","0.354333600000245","0.301815699999679","0.327281400000174","1","1","1","1","1","1","1","1","1"
"260062","img/object_images/mirror01.jpg","img/object_images/bow01.jpg","img/object_images/jewel04.jpg","1","0","1","1","1","0","0.327281400000174","0.354333600000245","0.336312700000235","1","1","1","1","1","1","1","1","1"
"260062","img/object_images/jewel04.jpg","img/object_images/mirror01.jpg","img/object_images/gauze01.jpg","1","1","0","0","1","0","0.336312700000235","0.327281400000174","0.317985399999998","1","1","1","1","1","1","1","1","1"
"260062","img/object_images/gauze01.jpg","img/object_images/jewel04.jpg","img/object_images/pot01 (1).jpg","0","1","0","0","0","0","0.317985399999998","0.336312700000235","0.340052900000046","1","1","1","1","1","1","1","1","1"
"260062","img/object_images/pot01 (1).jpg","img/object_images/gauze01.jpg","img/object_images/acoustic_capo01.jpg","0","0","1","0","0","1","0.340052900000046","0.317985399999998","0.310142300000734","1","1","1","1","1","1","1","1","1"
"260062","img/object_images/acoustic_capo01.jpg","img/object_images/pot01 (1).jpg","img/object_images/dart01.jpg","1","0","1","1","0","0","0.310142300000734","0.340052900000046","0.428670700001021","1","1","1","1","1","1","1","1","1"
"260062","img/object_images/dart01.jpg","img/object_images/acoustic_capo01.jpg","img/object_images/crown02.jpg","1","1","1","0","1","1","0.428670700001021","0.310142300000734","0.302360599999702","1","1","1","1","1","1","1","1","1"
"260062","img/object_images/crown02.jpg","img/object_images/dart01.jpg","img/object_images/watch01.jpg","1","1","1","1","0","0","0.302360599999702","0.428670700001021","0.380586799999946","1","1","1","1","1","1","1","1","1"
"260062","img/object_images/watch01.jpg","img/object_images/crown02.jpg","img/object_images/tool09.jpg","1","1","1","0","1","1","0.380586799999946","0.302360599999702","0.338002000000415","1","1","1","1","1","1","1","1","1"
"260062","img/object_images/tool09.jpg","img/object_images/watch01.jpg","img/object_images/Stool01.jpg","1","1","0","1","0","0","0.338002000000415","0.380586799999946","0.327314899999692","1","1","1","1","1","1","1","1","1"
"260062","img/object_images/Stool01.jpg","img/object_images/tool09.jpg","img/object_images/Ring02.jpg","0","1","1","0","1","0","0.327314899999692","0.338002000000415","0.351662000000942","1","1","1","1","1","1","1","1","1"
"260062","img/object_images/Ring02.jpg","img/object_images/Stool01.jpg","img/object_images/outlet01.jpg","1","0","1","0","0","0","0.351662000000942","0.327314899999692","0.353055000000495","1","1","1","1","1","1","1","1","1"
"260062","img/object_images/outlet01.jpg","img/object_images/Ring02.jpg","img/object_images/bottle05.jpg","1","1","0","0","0","0","0.353055000000495","0.351662000000942","0.322204400000373","1","1","1","1","1","1","1","1","1"
"260062","img/object_images/bottle05.jpg","img/object_images/outlet01.jpg","img/object_images/fridge03.jpg","0","1","1","0","0","0","0.322204400000373","0.353055000000495","0.348621999999523","1","1","1","1","1","1","1","1","1"
"260062","img/object_images/fridge03.jpg","img/object_images/bottle05.jpg","img/object_images/ornament01.jpg","1","0","1","0","0","1","0.348621999999523","0.322204400000373","0.254784100000506","1","1","1","1","1","1","1","1","1"
"260062","img/object_images/ornament01.jpg","img/object_images/fridge03.jpg","img/object_images/frisbee01.jpg","1","1","1","1","0","1","0.254784100000506","0.348621999999523","0.354020400000081","1","1","1","1","1","1","1","1","1"
"260062","img/object_images/frisbee01.jpg","img/object_images/ornament01.jpg","img/object_images/shovel03.jpg","1","1","1","1","1","1","0.354020400000081","0.254784100000506","0.328848600000128","1","1","1","1","1","1","1","1","1"
"260062","img/object_images/shovel03.jpg","img/object_images/frisbee01.jpg","img/object_images/video_game07.jpg","1","1","1","1","1","1","0.328848600000128","0.354020400000081","0.30740330000026","1","1","1","1","1","1","1","1","1"
"260062","img/object_images/video_game07.jpg","img/object_images/shovel03.jpg","img/object_images/Vacuum01.jpg","1","1","0","1","1","0","0.30740330000026","0.328848600000128","0.326456300000245","1","1","1","1","1","1","1","1","1"
"260062","img/object_images/Vacuum01.jpg","img/object_images/video_game07.jpg","img/object_images/tool02.jpg","0","1","1","0","1","1","0.326456300000245","0.30740330000026","0.265471500000785","1","1","1","1","1","1","1","1","1"
"260062","img/object_images/tool02.jpg","img/object_images/Vacuum01.jpg",NA,"1","0",NA,"1","0",NA,"0.265471500000785","0.326456300000245",NA,"1","1",NA,"1","1",NA,"1","1",NA
"260062","img/object_images/jacket03.jpg",NA,"img/object_images/gift_box02.jpg","1",NA,"1","0",NA,"1","0.359485200000563",NA,"0.32795890000034","1",NA,"1","1",NA,"1","1",NA,"1"
"260062","img/object_images/gift_box02.jpg","img/object_images/jacket03.jpg","img/object_images/couch03.jpg","1","1","1","1","0","0","0.32795890000034","0.359485200000563","0.369600699999865","1","1","1","1","1","1","1","1","1"
"260062","img/object_images/couch03.jpg","img/object_images/gift_box02.jpg","img/object_images/socks02.jpg","1","1","1","0","1","0","0.369600699999865","0.32795890000034","0.385010599999987","1","1","1","1","1","1","1","1","1"
"260062","img/object_images/socks02.jpg","img/object_images/couch03.jpg","img/object_images/lawn_mower01.jpg","1","1","1","0","0","1","0.385010599999987","0.369600699999865","0.463878600000498","1","1","1","1","1","1","1","1","1"
"260062","img/object_images/lawn_mower01.jpg","img/object_images/socks02.jpg","img/object_images/bow_tie01.jpg","1","1","1","1","0","0","0.463878600000498","0.385010599999987","0.352524599999924","1","1","1","1","1","1","1","1","1"
"260062","img/object_images/bow_tie01.jpg","img/object_images/lawn_mower01.jpg","img/object_images/bath_tub01.jpg","1","1","1","0","1","0","0.352524599999924","0.463878600000498","0.382518899999923","1","1","1","1","1","1","1","1","1"
"260062","img/object_images/bath_tub01.jpg","img/object_images/bow_tie01.jpg","img/object_images/golf_ball03.jpg","1","1","1","0","0","1","0.382518899999923","0.352524599999924","0.335245800000848","1","1","1","1","1","1","1","1","1"
"260062","img/object_images/golf_ball03.jpg","img/object_images/bath_tub01.jpg","img/object_images/bow_tie02.jpg","1","1","0","1","0","0","0.335245800000848","0.382518899999923","0.330083000000741","1","1","1","1","1","1","1","1","1"
"260062","img/object_images/bow_tie02.jpg","img/object_images/golf_ball03.jpg","img/object_images/Witchhat01.jpg","0","1","0","0","1","1","0.330083000000741","0.335245800000848","0.298199099999692","1","1","1","1","1","1","1","1","1"
"260062","img/object_images/Witchhat01.jpg","img/object_images/bow_tie02.jpg","img/object_images/jewelry01.jpg","0","0","1","1","0","1","0.298199099999692","0.330083000000741","0.297673200000645","1","1","1","1","1","1","1","1","1"
"260062","img/object_images/jewelry01.jpg","img/object_images/Witchhat01.jpg","img/object_images/funnel01.jpg","1","0","0","1","1","0","0.297673200000645","0.298199099999692","0.262276999999813","1","1","1","1","1","1","1","1","1"
"260062","img/object_images/funnel01.jpg","img/object_images/jewelry01.jpg","img/object_images/fork03.jpg","0","1","1","0","1","1","0.262276999999813","0.297673200000645","0.287610200000927","1","1","1","1","1","1","1","1","1"
"260062","img/object_images/fork03.jpg","img/object_images/funnel01.jpg","img/object_images/hammer01.jpg","1","0","0","1","0","0","0.287610200000927","0.262276999999813","0.300720300000648","1","1","1","1","1","1","1","1","1"
"260062","img/object_images/hammer01.jpg","img/object_images/fork03.jpg","img/object_images/paper_cup01.jpg","0","1","0","0","1","0","0.300720300000648","0.287610200000927","0.300156500000412","1","1","1","1","1","1","1","1","1"
"260062","img/object_images/paper_cup01.jpg","img/object_images/hammer01.jpg","img/object_images/sleeping_bag01.jpg","0","0","1","0","0","0","0.300156500000412","0.300720300000648","0.378752599999643","1","1","1","1","1","1","1","1","1"
"260062","img/object_images/sleeping_bag01.jpg","img/object_images/paper_cup01.jpg","img/object_images/pitcher02.jpg","1","0","1","0","0","1","0.378752599999643","0.300156500000412","0.28518510000049","1","1","1","1","1","1","1","1","1"
"260062","img/object_images/pitcher02.jpg","img/object_images/sleeping_bag01.jpg","img/object_images/measuring_tape02.jpg","1","1","1","1","0","1","0.28518510000049","0.378752599999643","0.320314900000994","1","1","1","1","1","1","1","1","1"
"260062","img/object_images/measuring_tape02.jpg","img/object_images/pitcher02.jpg","img/object_images/Screws01.jpg","1","1","1","1","1","1","0.320314900000994","0.28518510000049","0.315608699999757","1","1","1","1","1","1","1","1","1"
"260062","img/object_images/Screws01.jpg","img/object_images/measuring_tape02.jpg","img/object_images/coloring_pencil01.jpg","1","1","1","1","1","1","0.315608699999757","0.320314900000994","0.328612199999952","1","1","1","1","1","1","1","1","1"
"260062","img/object_images/coloring_pencil01.jpg","img/object_images/Screws01.jpg","img/object_images/ironing_table01.jpg","1","1","1","1","1","0","0.328612199999952","0.315608699999757","0.390327699999943","1","1","1","1","1","1","1","1","1"
"260062","img/object_images/ironing_table01.jpg","img/object_images/coloring_pencil01.jpg","img/object_images/gift_box03.jpg","1","1","0","0","1","0","0.390327699999943","0.328612199999952","0.283927000000403","1","1","1","1","1","1","1","1","1"
"260062","img/object_images/gift_box03.jpg","img/object_images/ironing_table01.jpg","img/object_images/camera07.jpg","0","1","1","0","0","1","0.283927000000403","0.390327699999943","0.341170900000179","1","1","1","1","1","1","1","1","1"
"260062","img/object_images/camera07.jpg","img/object_images/gift_box03.jpg","img/object_images/balloon01.jpg","1","0","1","1","0","0","0.341170900000179","0.283927000000403","0.461087800000314","1","1","1","1","1","1","1","1","1"
"260062","img/object_images/balloon01.jpg","img/object_images/camera07.jpg","img/object_images/gift_box01.jpg","1","1","1","0","1","1","0.461087800000314","0.341170900000179","0.338611000000128","1","1","1","1","1","1","1","1","1"
"260062","img/object_images/gift_box01.jpg","img/object_images/balloon01.jpg","img/object_images/clip02.jpg","1","1","1","1","0","1","0.338611000000128","0.461087800000314","0.312349699999686","1","1","1","1","1","1","1","1","1"
"260062","img/object_images/clip02.jpg","img/object_images/gift_box01.jpg","img/object_images/vga_port 01.jpg","1","1","1","1","1","0","0.312349699999686","0.338611000000128","0.354768900000636","1","1","1","1","1","1","1","1","1"
"260062","img/object_images/vga_port 01.jpg","img/object_images/clip02.jpg","img/object_images/dresser04.jpg","1","1","1","0","1","0","0.354768900000636","0.312349699999686","0.364588600000388","1","1","1","1","1","1","1","1","1"
"260062","img/object_images/dresser04.jpg","img/object_images/vga_port 01.jpg","img/object_images/grater01.jpg","1","1","1","0","0","1","0.364588600000388","0.354768900000636","0.310517300000356","1","1","1","1","1","1","1","1","1"
"260062","img/object_images/grater01.jpg","img/object_images/dresser04.jpg","img/object_images/handkerchief01.jpg","1","1","1","1","0","0","0.310517300000356","0.364588600000388","0.290747900000497","1","1","1","1","1","1","1","1","1"
"260062","img/object_images/handkerchief01.jpg","img/object_images/grater01.jpg","img/object_images/wallet02.jpg","1","1","1","0","1","1","0.290747900000497","0.310517300000356","0.298140000000785","1","1","1","1","1","1","1","1","1"
"260062","img/object_images/wallet02.jpg","img/object_images/handkerchief01.jpg","img/object_images/lock04.jpg","1","1","1","1","0","1","0.298140000000785","0.290747900000497","0.31466569999975","1","1","1","1","1","1","1","1","1"
"260062","img/object_images/lock04.jpg","img/object_images/wallet02.jpg",NA,"1","1",NA,"1","1",NA,"0.31466569999975","0.298140000000785",NA,"1","1",NA,"1","1",NA,"1","1",NA
"260062","img/object_images/knit03.jpg",NA,"img/object_images/remote_controller01.jpg","1",NA,"1","1",NA,"1","0.357911999999487",NA,"0.376080300000467","1",NA,"1","1",NA,"1","1",NA,"1"
"260062","img/object_images/remote_controller01.jpg","img/object_images/knit03.jpg","img/object_images/shower_head01.jpg","1","1","1","1","1","1","0.376080300000467","0.357911999999487","0.345089000000371","1","1","1","1","1","1","1","1","1"
"260062","img/object_images/shower_head01.jpg","img/object_images/remote_controller01.jpg","img/object_images/paper_cup02.jpg","1","1","1","1","1","1","0.345089000000371","0.376080300000467","0.331253799999104","1","1","1","1","1","1","1","1","1"
"260062","img/object_images/paper_cup02.jpg","img/object_images/shower_head01.jpg","img/object_images/dresser03.jpg","1","1","0","1","1","0","0.331253799999104","0.345089000000371","0.276794600000358","1","1","1","1","1","1","1","1","1"
"260062","img/object_images/dresser03.jpg","img/object_images/paper_cup02.jpg","img/object_images/basket04.jpg","0","1","1","0","1","1","0.276794600000358","0.331253799999104","0.289790400000129","1","1","1","1","1","1","1","1","1"
"260062","img/object_images/basket04.jpg","img/object_images/dresser03.jpg","img/object_images/phone02.jpg","1","0","1","1","0","1","0.289790400000129","0.276794600000358","0.378650700000435","1","1","1","1","1","1","1","1","1"
"260062","img/object_images/phone02.jpg","img/object_images/basket04.jpg","img/object_images/jacket04.jpg","1","1","0","1","1","0","0.378650700000435","0.289790400000129","0.31429879999996","1","1","1","1","1","1","1","1","1"
"260062","img/object_images/jacket04.jpg","img/object_images/phone02.jpg","img/object_images/Statue01.jpg","0","1","1","0","1","1","0.31429879999996","0.378650700000435","0.415199800001574","1","1","1","1","1","1","1","1","1"
"260062","img/object_images/Statue01.jpg","img/object_images/jacket04.jpg","img/object_images/video_game01.jpg","1","0","1","1","0","1","0.415199800001574","0.31429879999996","0.308634600000005","1","1","1","1","1","1","1","1","1"
"260062","img/object_images/video_game01.jpg","img/object_images/Statue01.jpg","img/object_images/mail_box01.jpg","1","1","1","1","1","0","0.308634600000005","0.415199800001574","0.233952599999611","1","1","1","1","1","1","1","1","1"
"260062","img/object_images/mail_box01.jpg","img/object_images/video_game01.jpg","img/object_images/hand_grip_exerciser01.jpg","1","1","0","0","1","0","0.233952599999611","0.308634600000005","0.263655900000231","1","1","1","1","1","1","1","1","1"
"260062","img/object_images/hand_grip_exerciser01.jpg","img/object_images/mail_box01.jpg","img/object_images/tool18.jpg","0","1","0","0","0","0","0.263655900000231","0.233952599999611","0.353758499999458","1","1","1","1","1","1","1","1","1"
"260062","img/object_images/tool18.jpg","img/object_images/hand_grip_exerciser01.jpg","img/object_images/curtain02.jpg","0","0","1","0","0","0","0.353758499999458","0.263655900000231","0.375223299999561","1","1","1","1","1","1","1","1","1"
"260062","img/object_images/curtain02.jpg","img/object_images/tool18.jpg","img/object_images/hoverboard01.jpg","1","0","0","0","0","0","0.375223299999561","0.353758499999458","0.39795950000007","1","1","1","1","1","1","1","1","1"
"260062","img/object_images/hoverboard01.jpg","img/object_images/curtain02.jpg","img/object_images/blender02.jpg","0","1","1","0","0","1","0.39795950000007","0.375223299999561","0.316187700000228","1","1","1","1","1","1","1","1","1"
"260062","img/object_images/blender02.jpg","img/object_images/hoverboard01.jpg","img/object_images/sponge03.jpg","1","0","1","1","0","1","0.316187700000228","0.39795950000007","0.289303300001848","1","1","1","1","1","1","1","1","1"
"260062","img/object_images/sponge03.jpg","img/object_images/blender02.jpg","img/object_images/matches02.jpg","1","1","1","1","1","0","0.289303300001848","0.316187700000228","0.331365199999709","1","1","1","1","1","1","1","1","1"
"260062","img/object_images/matches02.jpg","img/object_images/sponge03.jpg","img/object_images/knit04.jpg","1","1","1","0","1","1","0.331365199999709","0.289303300001848","0.290452500001265","1","1","1","1","1","1","1","1","1"
"260062","img/object_images/knit04.jpg","img/object_images/matches02.jpg","img/object_images/backpack01.jpg","1","1","0","1","0","0","0.290452500001265","0.331365199999709","0.3082744000003","1","1","1","1","1","1","1","1","1"
"260062","img/object_images/backpack01.jpg","img/object_images/knit04.jpg","img/object_images/remover01.jpg","0","1","1","0","1","1","0.3082744000003","0.290452500001265","0.303484699999899","1","1","1","1","1","1","1","1","1"
"260062","img/object_images/remover01.jpg","img/object_images/backpack01.jpg","img/object_images/car01.jpg","1","0","1","1","0","1","0.303484699999899","0.3082744000003","0.304900500001168","1","1","1","1","1","1","1","1","1"
"260062","img/object_images/car01.jpg","img/object_images/remover01.jpg","img/object_images/stereo02.jpg","1","1","0","1","1","0","0.304900500001168","0.303484699999899","0.333338000000367","1","1","1","1","1","1","1","1","1"
"260062","img/object_images/stereo02.jpg","img/object_images/car01.jpg","img/object_images/boat04.jpg","0","1","1","0","1","0","0.333338000000367","0.304900500001168","0.319126599999436","1","1","1","1","1","1","1","1","1"
"260062","img/object_images/boat04.jpg","img/object_images/stereo02.jpg","img/object_images/toy08.jpg","1","0","1","0","0","0","0.319126599999436","0.333338000000367","0.308265900001061","1","1","1","1","1","1","1","1","1"
"260062","img/object_images/toy08.jpg","img/object_images/boat04.jpg","img/object_images/flashlight03.jpg","1","1","1","0","0","0","0.308265900001061","0.319126599999436","0.349690099999862","1","1","1","1","1","1","1","1","1"
"260062","img/object_images/flashlight03.jpg","img/object_images/toy08.jpg","img/object_images/knife02.jpg","1","1","0","0","0","0","0.349690099999862","0.308265900001061","0.307633700000224","1","1","1","1","1","1","1","1","1"
"260062","img/object_images/knife02.jpg","img/object_images/flashlight03.jpg","img/object_images/kite01.jpg","0","1","1","0","0","1","0.307633700000224","0.349690099999862","0.29627359999904","1","1","1","1","1","1","1","1","1"
"260062","img/object_images/kite01.jpg","img/object_images/knife02.jpg","img/object_images/bottle07.jpg","1","0","1","1","0","1","0.29627359999904","0.307633700000224","0.286024499999257","1","1","1","1","1","1","1","1","1"
"260062","img/object_images/bottle07.jpg","img/object_images/kite01.jpg","img/object_images/camera03.jpg","1","1","0","1","1","0","0.286024499999257","0.29627359999904","0.341466700001547","1","1","1","1","1","1","1","1","1"
"260062","img/object_images/camera03.jpg","img/object_images/bottle07.jpg","img/object_images/gloves02.jpg","0","1","1","0","1","0","0.341466700001547","0.286024499999257","0.484093200000643","1","1","1","1","1","1","1","1","1"
"260062","img/object_images/gloves02.jpg","img/object_images/camera03.jpg","img/object_images/keyboard02.jpg","1","0","1","0","0","1","0.484093200000643","0.341466700001547","0.313977700001487","1","1","1","1","1","1","1","1","1"
"260062","img/object_images/keyboard02.jpg","img/object_images/gloves02.jpg",NA,"1","1",NA,"1","0",NA,"0.313977700001487","0.484093200000643",NA,"1","1",NA,"1","1",NA,"1","1",NA
"260062","img/object_images/tv02.jpg",NA,"img/object_images/Thermometer01.jpg","1",NA,"1","0",NA,"0","0.366569400001026",NA,"0.417536000000837","1",NA,"1","1",NA,"1","1",NA,"1"
"260062","img/object_images/Thermometer01.jpg","img/object_images/tv02.jpg","img/object_images/chess_piece02.jpg","1","1","1","0","0","1","0.417536000000837","0.366569400001026","0.349977699999727","1","1","1","1","1","1","1","1","1"
"260062","img/object_images/chess_piece02.jpg","img/object_images/Thermometer01.jpg","img/object_images/ear_bud01.jpg","1","1","1","1","0","1","0.349977699999727","0.417536000000837","0.296277999999802","1","1","1","1","1","1","1","1","1"
"260062","img/object_images/ear_bud01.jpg","img/object_images/chess_piece02.jpg","img/object_images/pen03.jpg","1","1","0","1","1","0","0.296277999999802","0.349977699999727","0.348089600000094","1","1","1","1","1","1","1","1","2"
"260062","img/object_images/pen03.jpg","img/object_images/ear_bud01.jpg","img/object_images/microscope01.jpg","0","1","0","0","1","0","0.348089600000094","0.296277999999802","0.393037400001049","1","1","1","1","1","1","2","1","1"
"260062","img/object_images/microscope01.jpg","img/object_images/pen03.jpg","img/object_images/clip03.jpg","0","0","0","0","0","0","0.393037400001049","0.348089600000094","0.334713299998839","1","1","1","1","1","1","1","2","1"
"260062","img/object_images/clip03.jpg","img/object_images/microscope01.jpg","img/object_images/knit05.jpg","0","0","1","0","0","1","0.334713299998839","0.393037400001049","0.326950800001214","1","1","1","1","1","1","1","1","1"
"260062","img/object_images/knit05.jpg","img/object_images/clip03.jpg","img/object_images/tennis_racket02.jpg","1","0","1","1","0","1","0.326950800001214","0.334713299998839","0.304616400000668","1","1","1","1","1","1","1","1","1"
"260062","img/object_images/tennis_racket02.jpg","img/object_images/knit05.jpg","img/object_images/hammer03.jpg","1","1","1","1","1","1","0.304616400000668","0.326950800001214","0.286105999999563","1","1","1","1","1","1","1","1","1"
"260062","img/object_images/hammer03.jpg","img/object_images/tennis_racket02.jpg","img/object_images/crutches02.jpg","1","1","1","1","1","0","0.286105999999563","0.304616400000668","0.345415600000706","1","1","1","1","1","1","1","1","1"
"260062","img/object_images/crutches02.jpg","img/object_images/hammer03.jpg","img/object_images/book03.jpg","1","1","1","0","1","1","0.345415600000706","0.286105999999563","0.327619300000151","1","1","1","1","1","1","1","1","1"
"260062","img/object_images/book03.jpg","img/object_images/crutches02.jpg","img/object_images/paint_brush04.jpg","1","1","1","1","0","0","0.327619300000151","0.345415600000706","0.299391399999877","1","1","1","1","1","1","1","1","1"
"260062","img/object_images/paint_brush04.jpg","img/object_images/book03.jpg","img/object_images/Oven01.jpg","1","1","1","0","1","1","0.299391399999877","0.327619300000151","0.298005900000135","1","1","1","1","1","1","1","1","1"
"260062","img/object_images/Oven01.jpg","img/object_images/paint_brush04.jpg","img/object_images/wire02.jpg","1","1","1","1","0","1","0.298005900000135","0.299391399999877","0.37606009999945","1","1","1","1","1","1","1","1","1"
"260062","img/object_images/wire02.jpg","img/object_images/Oven01.jpg","img/object_images/knife04.jpg","1","1","1","1","1","1","0.37606009999945","0.298005900000135","0.289619900000616","1","1","1","1","1","1","1","1","1"
"260062","img/object_images/knife04.jpg","img/object_images/wire02.jpg","img/object_images/floppy_disk03.jpg","1","1","1","1","1","1","0.289619900000616","0.37606009999945","0.2891254999995","1","1","1","1","1","1","1","1","1"
"260062","img/object_images/floppy_disk03.jpg","img/object_images/knife04.jpg","img/object_images/floppy_disk02.jpg","1","1","1","1","1","0","0.2891254999995","0.289619900000616","0.369720500000767","1","1","1","1","1","1","1","1","1"
"260062","img/object_images/floppy_disk02.jpg","img/object_images/floppy_disk03.jpg","img/object_images/usb02.jpg","1","1","1","0","1","0","0.369720500000767","0.2891254999995","0.358702800001993","1","1","1","1","1","1","1","1","1"
"260062","img/object_images/usb02.jpg","img/object_images/floppy_disk02.jpg","img/object_images/retainer01.jpg","1","1","1","0","0","0","0.358702800001993","0.369720500000767","0.334025200001633","1","1","1","1","1","1","1","1","1"
"260062","img/object_images/retainer01.jpg","img/object_images/usb02.jpg","img/object_images/cellphone01.jpg","1","1","1","0","0","1","0.334025200001633","0.358702800001993","0.29534909999893","1","1","1","1","1","1","1","1","1"
"260062","img/object_images/cellphone01.jpg","img/object_images/retainer01.jpg","img/object_images/lid01.jpg","1","1","1","1","0","1","0.29534909999893","0.334025200001633","0.289183400000184","1","1","1","1","1","1","1","1","1"
"260062","img/object_images/lid01.jpg","img/object_images/cellphone01.jpg","img/object_images/compass01.jpg","1","1","1","1","1","1","0.289183400000184","0.29534909999893","0.302529200000208","1","1","1","1","1","1","1","1","1"
"260062","img/object_images/compass01.jpg","img/object_images/lid01.jpg","img/object_images/note_book01.jpg","1","1","1","1","1","0","0.302529200000208","0.289183400000184","0.348934199999348","1","1","1","1","1","1","1","1","1"
"260062","img/object_images/note_book01.jpg","img/object_images/compass01.jpg","img/object_images/motorcycle01.jpg","1","1","1","0","1","1","0.348934199999348","0.302529200000208","0.299764700001106","1","1","1","1","1","1","1","1","1"
"260062","img/object_images/motorcycle01.jpg","img/object_images/note_book01.jpg","img/object_images/pitcher01.jpg","1","1","1","1","0","0","0.299764700001106","0.348934199999348","0.346023599999171","1","1","1","1","1","1","1","1","1"
"260062","img/object_images/pitcher01.jpg","img/object_images/motorcycle01.jpg","img/object_images/Staples01.jpg","1","1","1","0","1","1","0.346023599999171","0.299764700001106","0.297969700000976","1","1","1","1","1","1","1","1","1"
"260062","img/object_images/Staples01.jpg","img/object_images/pitcher01.jpg","img/object_images/chair05.jpg","1","1","1","1","0","0","0.297969700000976","0.346023599999171","0.317443799998728","1","1","1","1","1","1","1","1","1"
"260062","img/object_images/chair05.jpg","img/object_images/Staples01.jpg","img/object_images/bell02.jpg","1","1","0","0","1","0","0.317443799998728","0.297969700000976","0.30971899999895","1","1","1","1","1","1","1","1","1"
"260062","img/object_images/bell02.jpg","img/object_images/chair05.jpg","img/object_images/pillows01.jpg","0","1","1","0","0","1","0.30971899999895","0.317443799998728","0.350833899999998","1","1","1","1","1","1","1","1","1"
"260062","img/object_images/pillows01.jpg","img/object_images/bell02.jpg","img/object_images/bottle01.jpg","1","0","1","1","0","0","0.350833899999998","0.30971899999895","0.358831100000316","1","1","1","1","1","1","1","1","1"
"260062","img/object_images/bottle01.jpg","img/object_images/pillows01.jpg","img/object_images/clock02.jpg","1","1","1","0","1","0","0.358831100000316","0.350833899999998","0.341754999999466","1","1","1","1","1","1","1","1","1"
"260062","img/object_images/clock02.jpg","img/object_images/bottle01.jpg",NA,"1","1",NA,"0","0",NA,"0.341754999999466","0.358831100000316",NA,"1","1",NA,"1","1",NA,"1","1",NA
"260062","img/object_images/camera_lens01.jpg",NA,"img/object_images/purse04.jpg","1",NA,"1","1",NA,"1","0.303656800000681",NA,"0.324639899999966","1",NA,"1","1",NA,"1","1",NA,"1"
"260062","img/object_images/purse04.jpg","img/object_images/camera_lens01.jpg","img/object_images/helmet04.jpg","1","1","0","1","1","1","0.324639899999966","0.303656800000681","0.299837900000057","1","1","1","1","1","1","1","1","1"
"260062","img/object_images/helmet04.jpg","img/object_images/purse04.jpg","img/object_images/scoreboard01.jpg","0","1","1","1","1","1","0.299837900000057","0.324639899999966","0.35669770000095","1","1","1","1","1","1","1","1","1"
"260062","img/object_images/scoreboard01.jpg","img/object_images/helmet04.jpg","img/object_images/boat_toy10.jpg","1","0","1","1","1","0","0.35669770000095","0.299837900000057","0.321342299999742","1","1","1","1","1","1","1","1","1"
"260062","img/object_images/boat_toy10.jpg","img/object_images/scoreboard01.jpg","img/object_images/hot_air_balloon02.jpg","1","1","0","0","1","0","0.321342299999742","0.35669770000095","0.302350600000864","1","1","1","1","1","1","1","1","1"
"260062","img/object_images/hot_air_balloon02.jpg","img/object_images/boat_toy10.jpg","img/object_images/bicycle01.jpg","0","1","1","0","0","1","0.302350600000864","0.321342299999742","0.28686209999978","1","1","1","1","1","1","1","1","1"
"260062","img/object_images/bicycle01.jpg","img/object_images/hot_air_balloon02.jpg","img/object_images/perfume02.jpg","1","0","1","1","0","0","0.28686209999978","0.302350600000864","0.282145400000445","1","1","1","1","1","1","1","1","1"
"260062","img/object_images/perfume02.jpg","img/object_images/bicycle01.jpg","img/object_images/bottle02.jpg","1","1","1","0","1","1","0.282145400000445","0.28686209999978","0.316183799999635","1","1","1","1","1","1","1","1","1"
"260062","img/object_images/bottle02.jpg","img/object_images/perfume02.jpg","img/object_images/bottle09.jpg","1","1","0","1","0","0","0.316183799999635","0.282145400000445","0.310072300000684","1","1","1","1","1","1","1","1","2"
"260062","img/object_images/bottle09.jpg","img/object_images/bottle02.jpg","img/object_images/hat06.jpg","0","1","0","0","1","0","0.310072300000684","0.316183799999635","0.378464999999778","1","1","1","1","1","1","2","1","1"
"260062","img/object_images/hat06.jpg","img/object_images/bottle09.jpg","img/object_images/wagon_cart03.jpg","0","0","1","0","0","1","0.378464999999778","0.310072300000684","0.307701800000359","1","1","1","1","1","1","1","2","1"
"260062","img/object_images/wagon_cart03.jpg","img/object_images/hat06.jpg","img/object_images/cellphone03.jpg","1","0","0","1","0","0","0.307701800000359","0.378464999999778","0.261392999998861","1","1","1","1","1","1","1","1","1"
"260062","img/object_images/cellphone03.jpg","img/object_images/wagon_cart03.jpg","img/object_images/audio_port01.jpg","0","1","1","0","1","1","0.261392999998861","0.307701800000359","0.300169599999208","1","1","1","1","1","1","1","1","1"
"260062","img/object_images/audio_port01.jpg","img/object_images/cellphone03.jpg","img/object_images/flask01.jpg","1","0","0","1","0","0","0.300169599999208","0.261392999998861","0.346565400001055","1","1","1","1","1","1","1","1","1"
"260062","img/object_images/flask01.jpg","img/object_images/audio_port01.jpg","img/object_images/knit01.jpg","0","1","0","0","1","0","0.346565400001055","0.300169599999208","0.291736500001207","1","1","1","1","1","1","1","1","1"
"260062","img/object_images/knit01.jpg","img/object_images/flask01.jpg","img/object_images/pen05.jpg","0","0","1","0","0","0","0.291736500001207","0.346565400001055","0.360653900001125","1","1","1","1","1","1","1","1","1"
"260062","img/object_images/pen05.jpg","img/object_images/knit01.jpg","img/object_images/dog_leash01.jpg","1","0","1","0","0","0","0.360653900001125","0.291736500001207","0.362035400001332","1","1","1","1","1","1","1","1","1"
"260062","img/object_images/dog_leash01.jpg","img/object_images/pen05.jpg","img/object_images/chair03.jpg","1","1","1","0","0","0","0.362035400001332","0.360653900001125","0.395759899998666","1","1","1","1","1","1","1","1","1"
"260062","img/object_images/chair03.jpg","img/object_images/dog_leash01.jpg","img/object_images/coloring_pencil02.jpg","1","1","1","0","0","0","0.395759899998666","0.362035400001332","0.330847799999901","1","1","1","1","1","1","1","1","1"
"260062","img/object_images/coloring_pencil02.jpg","img/object_images/chair03.jpg","img/object_images/tool19.jpg","1","1","1","0","0","1","0.330847799999901","0.395759899998666","0.291055900001084","1","1","1","1","1","1","1","1","1"
"260062","img/object_images/tool19.jpg","img/object_images/coloring_pencil02.jpg","img/object_images/bottle10.jpg","1","1","1","1","0","1","0.291055900001084","0.330847799999901","0.338419600000634","1","1","1","1","1","1","1","1","1"
"260062","img/object_images/bottle10.jpg","img/object_images/tool19.jpg","img/object_images/bean_bag02.jpg","1","1","1","1","1","1","0.338419600000634","0.291055900001084","0.302008700000442","1","1","1","1","1","1","1","1","1"
"260062","img/object_images/bean_bag02.jpg","img/object_images/bottle10.jpg","img/object_images/piggy_bank01.jpg","1","1","1","1","1","1","0.302008700000442","0.338419600000634","0.301354100000026","1","1","1","1","1","1","1","1","1"
"260062","img/object_images/piggy_bank01.jpg","img/object_images/bean_bag02.jpg","img/object_images/shoes07.jpg","1","1","1","1","1","0","0.301354100000026","0.302008700000442","0.300460800001019","1","1","1","1","1","1","1","1","1"
"260062","img/object_images/shoes07.jpg","img/object_images/piggy_bank01.jpg","img/object_images/water_scooter01.jpg","1","1","1","0","1","1","0.300460800001019","0.301354100000026","0.353095399999802","1","1","1","1","1","1","1","1","1"
"260062","img/object_images/water_scooter01.jpg","img/object_images/shoes07.jpg","img/object_images/fan02.jpg","1","1","1","1","0","0","0.353095399999802","0.300460800001019","0.322333899999649","1","1","1","1","1","1","1","1","1"
"260062","img/object_images/fan02.jpg","img/object_images/water_scooter01.jpg","img/object_images/boat02.jpg","1","1","1","0","1","1","0.322333899999649","0.353095399999802","0.297972800000935","1","1","1","1","1","1","1","1","1"
"260062","img/object_images/boat02.jpg","img/object_images/fan02.jpg","img/object_images/toilet_paper_dispenser01.jpg","1","1","1","1","0","1","0.297972800000935","0.322333899999649","0.312885200000892","1","1","1","1","1","1","1","1","1"
"260062","img/object_images/toilet_paper_dispenser01.jpg","img/object_images/boat02.jpg","img/object_images/WoodBox01.jpg","1","1","1","1","1","0","0.312885200000892","0.297972800000935","0.367998399999124","1","1","1","1","1","1","1","1","1"
"260062","img/object_images/WoodBox01.jpg","img/object_images/toilet_paper_dispenser01.jpg","img/object_images/toaster01.jpg","1","1","1","0","1","1","0.367998399999124","0.312885200000892","0.298242999999275","1","1","1","1","1","1","1","1","1"
"260062","img/object_images/toaster01.jpg","img/object_images/WoodBox01.jpg","img/object_images/tie02.jpg","1","1","1","1","0","0","0.298242999999275","0.367998399999124","0.374340899999879","1","1","1","1","1","1","1","1","1"
"260062","img/object_images/tie02.jpg","img/object_images/toaster01.jpg",NA,"1","1",NA,"0","1",NA,"0.374340899999879","0.298242999999275",NA,"1","1",NA,"1","1",NA,"1","1",NA
"260062","img/object_images/spray_can01.jpg",NA,"img/object_images/tool13.jpg","1",NA,"1","0",NA,"1","0.38589200000024",NA,"0.30625610000061","1",NA,"1","1",NA,"1","1",NA,"1"
"260062","img/object_images/tool13.jpg","img/object_images/spray_can01.jpg","img/object_images/hammer02.jpg","1","1","1","1","0","0","0.30625610000061","0.38589200000024","0.56189870000162","1","1","1","1","1","1","1","1","1"
"260062","img/object_images/hammer02.jpg","img/object_images/tool13.jpg","img/object_images/socks01.jpg","1","1","1","0","1","1","0.56189870000162","0.30625610000061","0.31822689999899","1","1","1","1","1","1","1","1","1"
"260062","img/object_images/socks01.jpg","img/object_images/hammer02.jpg","img/object_images/vase02.jpg","1","1","1","1","0","1","0.31822689999899","0.56189870000162","0.318588300000556","1","1","1","1","1","1","1","1","1"
"260062","img/object_images/vase02.jpg","img/object_images/socks01.jpg","img/object_images/razor02.jpg","1","1","1","1","1","1","0.318588300000556","0.31822689999899","0.320958799999062","1","1","1","1","1","1","1","1","1"
"260062","img/object_images/razor02.jpg","img/object_images/vase02.jpg","img/object_images/sink_filter01 (1).jpg","1","1","1","1","1","0","0.320958799999062","0.318588300000556","0.283494600000267","1","1","1","1","1","1","1","1","1"
"260062","img/object_images/sink_filter01 (1).jpg","img/object_images/razor02.jpg","img/object_images/Candle_Holder01.jpg","1","1","1","0","1","0","0.283494600000267","0.320958799999062","0.334795600001598","1","1","1","1","1","1","1","1","1"
"260062","img/object_images/Candle_Holder01.jpg","img/object_images/sink_filter01 (1).jpg","img/object_images/floss01.jpg","1","1","1","0","0","1","0.334795600001598","0.283494600000267","0.34466440000142","1","1","1","1","1","1","1","1","1"
"260062","img/object_images/floss01.jpg","img/object_images/Candle_Holder01.jpg","img/object_images/board01.jpg","1","1","1","1","0","1","0.34466440000142","0.334795600001598","0.303048199999466","1","1","1","1","1","1","1","1","1"
"260062","img/object_images/board01.jpg","img/object_images/floss01.jpg","img/object_images/tool20.jpg","1","1","1","1","1","0","0.303048199999466","0.34466440000142","0.387381599999571","1","1","1","1","1","1","1","1","1"
"260062","img/object_images/tool20.jpg","img/object_images/board01.jpg","img/object_images/pen06.jpg","1","1","0","0","1","0","0.387381599999571","0.303048199999466","0.295451300000423","1","1","1","1","1","1","1","1","1"
"260062","img/object_images/pen06.jpg","img/object_images/tool20.jpg","img/object_images/video_game02.jpg","0","1","1","0","0","1","0.295451300000423","0.387381599999571","0.320710200001486","1","1","1","1","1","1","1","1","1"
"260062","img/object_images/video_game02.jpg","img/object_images/pen06.jpg","img/object_images/glasses03.jpg","1","0","0","1","0","0","0.320710200001486","0.295451300000423","0.305684999999357","1","1","1","1","1","1","1","1","1"
"260062","img/object_images/glasses03.jpg","img/object_images/video_game02.jpg","img/object_images/ruler02.jpg","0","1","1","0","1","1","0.305684999999357","0.320710200001486","0.30502080000042","1","1","1","1","1","1","1","1","1"
"260062","img/object_images/ruler02.jpg","img/object_images/glasses03.jpg","img/object_images/cup01.jpg","1","0","1","1","0","0","0.30502080000042","0.305684999999357","0.339787800001432","1","1","1","1","1","1","1","1","1"
"260062","img/object_images/cup01.jpg","img/object_images/ruler02.jpg","img/object_images/Confetti 01.jpg","1","1","1","0","1","0","0.339787800001432","0.30502080000042","0.381371499999659","1","1","1","1","1","1","1","1","1"
"260062","img/object_images/Confetti 01.jpg","img/object_images/cup01.jpg","img/object_images/bow_tie03.jpg","1","1","1","0","0","1","0.381371499999659","0.339787800001432","0.341482199999518","1","1","1","1","1","1","1","1","1"
"260062","img/object_images/bow_tie03.jpg","img/object_images/Confetti 01.jpg","img/object_images/perfume01.jpg","1","1","0","1","0","0","0.341482199999518","0.381371499999659","0.352502699999604","1","1","1","1","1","1","1","1","1"
"260062","img/object_images/perfume01.jpg","img/object_images/bow_tie03.jpg","img/object_images/pan03.jpg","0","1","1","0","1","1","0.352502699999604","0.341482199999518","0.327361000001474","1","1","1","1","1","1","1","1","1"
"260062","img/object_images/pan03.jpg","img/object_images/perfume01.jpg","img/object_images/duster01.jpg","1","0","1","1","0","0","0.327361000001474","0.352502699999604","0.372116600001391","1","1","1","1","1","1","1","1","1"
"260062","img/object_images/duster01.jpg","img/object_images/pan03.jpg","img/object_images/hat13.jpg","1","1","1","0","1","1","0.372116600001391","0.327361000001474","0.334811900000204","1","1","1","1","1","1","1","1","1"
"260062","img/object_images/hat13.jpg","img/object_images/duster01.jpg","img/object_images/candle02.jpg","1","1","0","1","0","0","0.334811900000204","0.372116600001391","0.352409400000397","1","1","1","1","1","1","1","1","1"
"260062","img/object_images/candle02.jpg","img/object_images/hat13.jpg","img/object_images/clipboard01.jpg","0","1","1","0","1","1","0.352409400000397","0.334811900000204","0.333501400000387","1","1","1","1","1","1","1","1","1"
"260062","img/object_images/clipboard01.jpg","img/object_images/candle02.jpg","img/object_images/knife01.jpg","1","0","1","1","0","1","0.333501400000387","0.352409400000397","0.316431999999622","1","1","1","1","1","1","1","1","1"
"260062","img/object_images/knife01.jpg","img/object_images/clipboard01.jpg","img/object_images/camera05.jpg","1","1","1","1","1","0","0.316431999999622","0.333501400000387","0.40707840000141","1","1","1","1","1","1","1","1","1"
"260062","img/object_images/camera05.jpg","img/object_images/knife01.jpg","img/object_images/dust_pan01.jpg","1","1","1","0","1","1","0.40707840000141","0.316431999999622","0.36480230000052","1","1","1","1","1","1","1","1","1"
"260062","img/object_images/dust_pan01.jpg","img/object_images/camera05.jpg","img/object_images/office_supplies01.jpg","1","1","1","1","0","1","0.36480230000052","0.40707840000141","0.320018300000811","1","1","1","1","1","1","1","1","1"
"260062","img/object_images/office_supplies01.jpg","img/object_images/dust_pan01.jpg","img/object_images/hat09.jpg","1","1","1","1","1","0","0.320018300000811","0.36480230000052","0.342576799999733","1","1","1","1","1","1","1","1","1"
"260062","img/object_images/hat09.jpg","img/object_images/office_supplies01.jpg","img/object_images/bag04.jpg","1","1","1","0","1","0","0.342576799999733","0.320018300000811","0.427702200000567","1","1","1","1","1","1","1","1","1"
"260062","img/object_images/bag04.jpg","img/object_images/hat09.jpg","img/object_images/sign02.jpg","1","1","0","0","0","0","0.427702200000567","0.342576799999733","0.304553800000576","1","1","1","1","1","1","1","1","1"
"260062","img/object_images/sign02.jpg","img/object_images/bag04.jpg","img/object_images/lemon_squeezer01.jpg","0","1","1","0","0","1","0.304553800000576","0.427702200000567","0.303430899999512","1","1","1","1","1","1","1","1","1"
"260062","img/object_images/lemon_squeezer01.jpg","img/object_images/sign02.jpg",NA,"1","0",NA,"1","0",NA,"0.303430899999512","0.304553800000576",NA,"1","1",NA,"1","1",NA,"1","1",NA
"260062","img/object_images/gift_box05.jpg",NA,"img/object_images/shoes08.jpg","1",NA,"1","0",NA,"1","0.305798700001105",NA,"0.323194800001147","1",NA,"1","1",NA,"1","1",NA,"1"
"260062","img/object_images/shoes08.jpg","img/object_images/gift_box05.jpg","img/object_images/ball02.jpg","1","1","1","1","0","1","0.323194800001147","0.305798700001105","0.320027600000685","1","1","1","1","1","1","1","1","1"
"260062","img/object_images/ball02.jpg","img/object_images/shoes08.jpg","img/object_images/laptop03.jpg","1","1","1","1","1","1","0.320027600000685","0.323194800001147","0.314906699999483","1","1","1","1","1","1","1","1","1"
"260062","img/object_images/laptop03.jpg","img/object_images/ball02.jpg","img/object_images/towels01.jpg","1","1","1","1","1","0","0.314906699999483","0.320027600000685","0.363891299999523","1","1","1","1","1","1","1","1","1"
"260062","img/object_images/towels01.jpg","img/object_images/laptop03.jpg","img/object_images/lock01.jpg","1","1","1","0","1","0","0.363891299999523","0.314906699999483","0.33330930000011","1","1","1","1","1","1","1","1","1"
"260062","img/object_images/lock01.jpg","img/object_images/towels01.jpg","img/object_images/hair_dryer01.jpg","1","1","0","0","0","0","0.33330930000011","0.363891299999523","0.285483699999531","1","1","1","1","1","1","1","1","1"
"260062","img/object_images/hair_dryer01.jpg","img/object_images/lock01.jpg","img/object_images/trash_can03.jpg","0","1","1","0","0","1","0.285483699999531","0.33330930000011","0.289042600001267","1","1","1","1","1","1","1","1","1"
"260062","img/object_images/trash_can03.jpg","img/object_images/hair_dryer01.jpg","img/object_images/combs01.jpg","1","0","1","1","0","1","0.289042600001267","0.285483699999531","0.301162300000215","1","1","1","1","1","1","1","1","1"
"260062","img/object_images/combs01.jpg","img/object_images/trash_can03.jpg","img/object_images/accardion01.jpg","1","1","1","1","1","1","0.301162300000215","0.289042600001267","0.346510199999102","1","1","1","1","1","1","1","1","1"
"260062","img/object_images/accardion01.jpg","img/object_images/combs01.jpg","img/object_images/chess_piece01.jpg","1","1","0","1","1","0","0.346510199999102","0.301162300000215","0.316349000000628","1","1","1","1","1","1","1","1","1"
"260062","img/object_images/chess_piece01.jpg","img/object_images/accardion01.jpg","img/object_images/calculator01.jpg","0","1","1","0","1","1","0.316349000000628","0.346510199999102","0.309891099999732","1","1","1","1","1","1","1","1","1"
"260062","img/object_images/calculator01.jpg","img/object_images/chess_piece01.jpg","img/object_images/microphone03.jpg","1","0","1","1","0","1","0.309891099999732","0.316349000000628","0.303794699999344","1","1","1","1","1","1","1","1","1"
"260062","img/object_images/microphone03.jpg","img/object_images/calculator01.jpg","img/object_images/backpack03.jpg","1","1","1","1","1","1","0.303794699999344","0.309891099999732","0.294947700000193","1","1","1","1","1","1","1","1","1"
"260062","img/object_images/backpack03.jpg","img/object_images/microphone03.jpg","img/object_images/jewel03.jpg","1","1","1","1","1","1","0.294947700000193","0.303794699999344","0.275144999999611","1","1","1","1","1","1","1","1","1"
"260062","img/object_images/jewel03.jpg","img/object_images/backpack03.jpg","img/object_images/chair02.jpg","1","1","1","1","1","1","0.275144999999611","0.294947700000193","0.374909500000285","1","1","1","1","1","1","1","1","1"
"260062","img/object_images/chair02.jpg","img/object_images/jewel03.jpg","img/object_images/laptop01.jpg","1","1","0","1","1","0","0.374909500000285","0.275144999999611","0.275845599999229","1","1","1","1","1","1","1","1","1"
"260062","img/object_images/laptop01.jpg","img/object_images/chair02.jpg","img/object_images/trash_can05.jpg","0","1","1","0","1","1","0.275845599999229","0.374909500000285","0.303717400000096","1","1","1","1","1","1","1","1","1"
"260062","img/object_images/trash_can05.jpg","img/object_images/laptop01.jpg","img/object_images/fan04.jpg","1","0","1","1","0","0","0.303717400000096","0.275845599999229","0.399099700000079","1","1","1","1","1","1","1","1","1"
"260062","img/object_images/fan04.jpg","img/object_images/trash_can05.jpg","img/object_images/Vest02.jpg","1","1","1","0","1","0","0.399099700000079","0.303717400000096","0.333550999999716","1","1","1","1","1","1","1","1","1"
"260062","img/object_images/Vest02.jpg","img/object_images/fan04.jpg","img/object_images/stove01.jpg","1","1","1","0","0","0","0.333550999999716","0.399099700000079","0.31370859999879","1","1","1","1","1","1","1","1","1"
"260062","img/object_images/stove01.jpg","img/object_images/Vest02.jpg","img/object_images/pitcher05.jpg","1","1","0","0","0","0","0.31370859999879","0.333550999999716","0.283333000001221","1","1","1","1","1","1","1","1","1"
"260062","img/object_images/pitcher05.jpg","img/object_images/stove01.jpg","img/object_images/robe01.jpg","0","1","1","0","0","1","0.283333000001221","0.31370859999879","0.315291900000375","1","1","1","1","1","1","1","1","1"
"260062","img/object_images/robe01.jpg","img/object_images/pitcher05.jpg","img/object_images/umbrella01.jpg","1","0","0","1","0","0","0.315291900000375","0.283333000001221","0.39278000000013","1","1","1","1","1","1","1","1","1"
"260062","img/object_images/umbrella01.jpg","img/object_images/robe01.jpg","img/object_images/bucket02.jpg","0","1","1","0","1","1","0.39278000000013","0.315291900000375","0.361850600000253","1","1","1","1","1","1","1","1","1"
"260062","img/object_images/bucket02.jpg","img/object_images/umbrella01.jpg","img/object_images/vase01.jpg","1","0","0","1","0","0","0.361850600000253","0.39278000000013","0.31482109999888","1","1","1","1","1","1","1","1","1"
"260062","img/object_images/vase01.jpg","img/object_images/bucket02.jpg","img/object_images/Lint_Roller02.jpg","0","1","1","0","1","0","0.31482109999888","0.361850600000253","0.41267020000123","1","1","1","1","1","1","1","1","1"
"260062","img/object_images/Lint_Roller02.jpg","img/object_images/vase01.jpg","img/object_images/toy05.jpg","1","0","1","0","0","0","0.41267020000123","0.31482109999888","0.341623200001777","1","1","1","1","1","1","1","1","1"
"260062","img/object_images/toy05.jpg","img/object_images/Lint_Roller02.jpg","img/object_images/spatula02.jpg","1","1","1","0","0","1","0.341623200001777","0.41267020000123","0.336094500000399","1","1","1","1","1","1","1","1","1"
"260062","img/object_images/spatula02.jpg","img/object_images/toy05.jpg","img/object_images/surf_board01.jpg","1","1","1","1","0","1","0.336094500000399","0.341623200001777","0.441220400001839","1","1","1","1","1","1","1","1","1"
"260062","img/object_images/surf_board01.jpg","img/object_images/spatula02.jpg","img/object_images/helmet02.jpg","1","1","1","1","1","0","0.441220400001839","0.336094500000399","0.344323000001168","1","1","1","1","1","1","1","1","1"
"260062","img/object_images/helmet02.jpg","img/object_images/surf_board01.jpg","img/object_images/hair_brush02.jpg","1","1","1","0","1","0","0.344323000001168","0.441220400001839","0.359430900000007","1","1","1","1","1","1","1","1","1"
"260062","img/object_images/hair_brush02.jpg","img/object_images/helmet02.jpg",NA,"1","1",NA,"0","0",NA,"0.359430900000007","0.344323000001168",NA,"1","1",NA,"1","1",NA,"1","1",NA
"260062","img/object_images/bucket01.jpg",NA,"img/object_images/bookmark01.jpg","1",NA,"1","1",NA,"0","0.301699400000871",NA,"0.374765900000057","1",NA,"1","1",NA,"1","1",NA,"1"
"260062","img/object_images/bookmark01.jpg","img/object_images/bucket01.jpg","img/object_images/phone04.jpg","1","1","1","0","1","1","0.374765900000057","0.301699400000871","0.34707089999938","1","1","1","1","1","1","1","1","1"
"260062","img/object_images/phone04.jpg","img/object_images/bookmark01.jpg","img/object_images/yoga_mat01.jpg","1","1","1","1","0","0","0.34707089999938","0.374765900000057","0.36495400000058","1","1","1","1","1","1","1","1","1"
"260062","img/object_images/yoga_mat01.jpg","img/object_images/phone04.jpg","img/object_images/piano03.jpg","1","1","0","0","1","0","0.36495400000058","0.34707089999938","0.293438099999548","1","1","1","1","1","1","1","1","1"
"260062","img/object_images/piano03.jpg","img/object_images/yoga_mat01.jpg","img/object_images/TreeSlice01.jpg","0","1","1","0","0","1","0.293438099999548","0.36495400000058","0.315071900000476","1","1","1","1","1","1","1","1","1"
"260062","img/object_images/TreeSlice01.jpg","img/object_images/piano03.jpg","img/object_images/jewel02.jpg","1","0","0","1","0","0","0.315071900000476","0.293438099999548","0.292864000000918","1","1","1","1","1","1","1","1","1"
"260062","img/object_images/jewel02.jpg","img/object_images/TreeSlice01.jpg","img/object_images/helmet03.jpg","0","1","1","0","1","1","0.292864000000918","0.315071900000476","0.340173500000674","1","1","1","1","1","1","1","1","1"
"260062","img/object_images/helmet03.jpg","img/object_images/jewel02.jpg","img/object_images/bottle06.jpg","1","0","1","1","0","0","0.340173500000674","0.292864000000918","0.3070459999999","1","1","1","1","1","1","1","1","1"
"260062","img/object_images/bottle06.jpg","img/object_images/helmet03.jpg","img/object_images/Shoes05.jpg","1","1","1","0","1","0","0.3070459999999","0.340173500000674","0.34872870000072","1","1","1","1","1","1","1","1","1"
"260062","img/object_images/Shoes05.jpg","img/object_images/bottle06.jpg","img/object_images/badminton01.jpg","1","1","1","0","0","1","0.34872870000072","0.3070459999999","0.333671000000322","1","1","1","1","1","1","1","1","1"
"260062","img/object_images/badminton01.jpg","img/object_images/Shoes05.jpg","img/object_images/water_gun01.jpg","1","1","1","1","0","1","0.333671000000322","0.34872870000072","0.311064299999998","1","1","1","1","1","1","1","1","1"
"260062","img/object_images/water_gun01.jpg","img/object_images/badminton01.jpg","img/object_images/dice01.jpg","1","1","0","1","1","0","0.311064299999998","0.333671000000322","0.312024600001678","1","1","1","1","1","1","1","1","1"
"260062","img/object_images/dice01.jpg","img/object_images/water_gun01.jpg","img/object_images/ToolBag01.jpg","0","1","0","0","1","0","0.312024600001678","0.311064299999998","0.31664230000024","1","1","1","1","1","1","1","1","1"
"260062","img/object_images/ToolBag01.jpg","img/object_images/dice01.jpg","img/object_images/Eyeliner01.jpg","0","0","1","0","0","1","0.31664230000024","0.312024600001678","0.332206000000951","1","1","1","1","1","1","1","1","1"
"260062","img/object_images/Eyeliner01.jpg","img/object_images/ToolBag01.jpg","img/object_images/nut_cracker01.jpg","1","0","1","1","0","1","0.332206000000951","0.31664230000024","0.328678000001673","1","1","1","1","1","1","1","1","1"
"260062","img/object_images/nut_cracker01.jpg","img/object_images/Eyeliner01.jpg","img/object_images/pitcher07.jpg","1","1","1","1","1","1","0.328678000001673","0.332206000000951","0.309195200001341","1","1","1","1","1","1","1","1","1"
"260062","img/object_images/pitcher07.jpg","img/object_images/nut_cracker01.jpg","img/object_images/lock03.jpg","1","1","1","1","1","1","0.309195200001341","0.328678000001673","0.291449800000919","1","1","1","1","1","1","1","1","1"
"260062","img/object_images/lock03.jpg","img/object_images/pitcher07.jpg","img/object_images/belt03.jpg","1","1","0","1","1","0","0.291449800000919","0.309195200001341","0.292598699999871","1","1","1","1","1","1","1","1","1"
"260062","img/object_images/belt03.jpg","img/object_images/lock03.jpg","img/object_images/egg_basket01.jpg","0","1","1","0","1","1","0.292598699999871","0.291449800000919","0.325547200000074","1","1","1","1","1","1","1","1","1"
"260062","img/object_images/egg_basket01.jpg","img/object_images/belt03.jpg","img/object_images/headset02.jpg","1","0","1","1","0","0","0.325547200000074","0.292598699999871","0.329650099998616","1","1","1","1","1","1","1","1","1"
"260062","img/object_images/headset02.jpg","img/object_images/egg_basket01.jpg","img/object_images/joystick03.jpg","1","1","1","0","1","1","0.329650099998616","0.325547200000074","0.293310299999575","1","1","1","1","1","1","1","1","1"
"260062","img/object_images/joystick03.jpg","img/object_images/headset02.jpg","img/object_images/tennis_racket01.jpg","1","1","1","1","0","1","0.293310299999575","0.329650099998616","0.328480899999704","1","1","1","1","1","1","1","1","1"
"260062","img/object_images/tennis_racket01.jpg","img/object_images/joystick03.jpg","img/object_images/usb03.jpg","1","1","1","1","1","0","0.328480899999704","0.293310299999575","0.363338200000726","1","1","1","1","1","1","1","1","1"
"260062","img/object_images/usb03.jpg","img/object_images/tennis_racket01.jpg","img/object_images/Safe01.jpg","1","1","1","0","1","1","0.363338200000726","0.328480899999704","0.330214999999953","1","1","1","1","1","1","1","1","1"
"260062","img/object_images/Safe01.jpg","img/object_images/usb03.jpg","img/object_images/trumpet01.jpg","1","1","1","1","0","0","0.330214999999953","0.363338200000726","0.38150350000069","1","1","1","1","1","1","1","1","1"
"260062","img/object_images/trumpet01.jpg","img/object_images/Safe01.jpg","img/object_images/frame01.jpg","1","1","1","0","1","1","0.38150350000069","0.330214999999953","0.337136199999804","1","1","1","1","1","1","1","1","1"
"260062","img/object_images/frame01.jpg","img/object_images/trumpet01.jpg","img/object_images/shovel01.jpg","1","1","0","1","0","0","0.337136199999804","0.38150350000069","0.304922600000282","1","1","1","1","1","1","1","1","1"
"260062","img/object_images/shovel01.jpg","img/object_images/frame01.jpg","img/object_images/origami01.jpg","0","1","1","0","1","1","0.304922600000282","0.337136199999804","0.321449499999289","1","1","1","1","1","1","1","1","1"
"260062","img/object_images/origami01.jpg","img/object_images/shovel01.jpg","img/object_images/scale02.jpg","1","0","0","1","0","0","0.321449499999289","0.304922600000282","0.471028200001456","1","1","1","1","1","1","1","1","1"
"260062","img/object_images/scale02.jpg","img/object_images/origami01.jpg","img/object_images/note_book02.jpg","0","1","1","0","1","0","0.471028200001456","0.321449499999289","0.360652999999729","1","1","1","1","1","1","1","1","1"
"260062","img/object_images/note_book02.jpg","img/object_images/scale02.jpg","img/object_images/fan01.jpg","1","0","1","0","0","0","0.360652999999729","0.471028200001456","0.36066319999918","1","1","1","1","1","1","1","1","1"
"260062","img/object_images/fan01.jpg","img/object_images/note_book02.jpg",NA,"1","1",NA,"0","0",NA,"0.36066319999918","0.360652999999729",NA,"1","1",NA,"1","1",NA,"1","1",NA
