"participant_id","object","surpAcc","memory_surp_responses","memory_surp_rt","keep_surp_memory_trial_based_on_rt","surp_block_num","exclude_block","number_of_surp_resp_items_used","num_blocks_excluded"
"260032","img/object_images/microphone03.jpg","1","k","1.17594470002223",1,1,0,2,0
"260032","img/object_images/bird_house02.jpg","1","s","0.900236600078642",1,1,0,2,0
"260032","img/object_images/sink01.jpg","1","s","1.42828430002555",1,1,0,2,0
"260032","img/object_images/flashlight03.jpg","1","s","1.14114029996563",1,1,0,2,0
"260032","img/object_images/jewel04.jpg","1","s","1.41286559996661",1,1,0,2,0
"260032","img/object_images/fan01.jpg","0","k","0.882864599931054",1,1,0,2,0
"260032","img/object_images/knife02.jpg","0","s","1.07172729994636",1,1,0,2,0
"260032","img/object_images/vase01.jpg","1","s","2.11856690002605",1,1,0,2,0
"260032","img/object_images/Lint_Roller02.jpg","0","s","1.37303639994934",1,1,0,2,0
"260032","img/object_images/WoodBox01.jpg","1","s","1.3036420000717",1,1,0,2,0
"260032","img/object_images/bow_tie01.jpg","1","k","1.00407519994769",1,1,0,2,0
"260032","img/object_images/cellphone03.jpg","1","s","3.28828019998036",1,1,0,2,0
"260032","img/object_images/pen03.jpg","0","s","2.20141029998194",1,1,0,2,0
"260032","img/object_images/accardion01.jpg","1","s","1.30507239990402",1,1,0,2,0
"260032","img/object_images/hair_brush02.jpg","0","s","1.66006299993023",1,1,0,2,0
"260032","img/object_images/video_game02.jpg","1","k","1.22429370007012",1,1,0,2,0
"260032","img/object_images/dress03.jpg","1","s","1.09131659998093",1,1,0,2,0
"260032","img/object_images/bow_tie03.jpg","1","s","1.29288600001018",1,1,0,2,0
"260032","img/object_images/Thermometer01.jpg","1","k","1.6479952998925",1,1,0,2,0
"260032","img/object_images/perfume02.jpg","1","k","1.4619781000074",1,1,0,2,0
"260032","img/object_images/matches02.jpg","1","s","0.838343400042504",1,1,0,2,0
"260032","img/object_images/purse04.jpg","1","k","0.775478599942289",1,1,0,2,0
"260032","img/object_images/brief_case02.jpg","0","s","1.39448330004234",1,1,0,2,0
"260032","img/object_images/pitcher02.jpg","1","k","1.36712920002174",1,1,0,2,0
"260032","img/object_images/ornament01.jpg","1","s","1.42652989993803",1,1,0,2,0
"260032","img/object_images/knit05.jpg","1","k","1.33680839999579",1,1,0,2,0
"260032","img/object_images/toaster01.jpg","1","s","1.83676430000924",1,1,0,2,0
"260032","img/object_images/mask01.jpg","1","s","1.60043520003092",1,1,0,2,0
"260032","img/object_images/bottle05.jpg","1","k","1.22559099993668",1,1,0,2,0
"260032","img/object_images/ToolBag01.jpg","1","s","2.78145080001559",1,1,0,2,0
"260032","img/object_images/knife01.jpg","1","s","1.30680030002259",1,1,0,2,0
"260032","img/object_images/boat04.jpg","0","s","1.37425799993798",1,1,0,2,0
"260032","img/object_images/scarf01.jpg","1","k","1.12564860004932",1,1,0,2,0
"260032","img/object_images/MetalWire01.jpg","1","k","1.2936773999827",1,1,0,2,0
"260032","img/object_images/key02.jpg","0","s","1.21083829994313",1,1,0,2,0
"260032","img/object_images/Traffic Sign 01.jpg","1","s","1.46545609994791",1,1,0,2,0
"260032","img/object_images/pot01.jpg","1","k","1.10455729998648",1,1,0,2,0
"260032","img/object_images/book03.jpg","0","s","1.2090955999447",1,1,0,2,0
"260032","img/object_images/razor01.jpg","0","s","1.21853309997823",1,1,0,2,0
"260032","img/object_images/Vest02.jpg","1","k","2.55250629992224",1,1,0,2,0
"260032","img/object_images/shower_head01.jpg","1","s","1.35518359998241",1,1,0,2,0
"260032","img/object_images/ruler02.jpg","1","k","1.10237139998935",1,1,0,2,0
"260032","img/object_images/crown02.jpg","1","k","1.35562859999482",1,1,0,2,0
"260032","img/object_images/broom01.jpg","1","s","1.27982430008706",1,1,0,2,0
"260032","img/object_images/clip02.jpg","0","s","1.61274309991859",1,1,0,2,0
"260032","img/object_images/tv01.jpg","1","s","0.872240499942563",1,1,0,2,0
"260032","img/object_images/knife04.jpg","1","s","1.2563908000011",1,1,0,2,0
"260032","img/object_images/guitar02.jpg","0","k","1.79066880000755",1,1,0,2,0
"260032","img/object_images/pan01.jpg","1","k","1.1011183001101",1,2,0,2,0
"260032","img/object_images/hammer03.jpg","1","s","1.29415329999756",1,2,0,2,0
"260032","img/object_images/pen01.jpg","1","s","1.33627510000952",1,2,0,2,0
"260032","img/object_images/gauze01.jpg","0","s","1.25364300003275",1,2,0,2,0
"260032","img/object_images/gift_box02.jpg","1","s","1.11868799990043",1,2,0,2,0
"260032","img/object_images/crutches02.jpg","1","k","1.21489629999269",1,2,0,2,0
"260032","img/object_images/pitcher01.jpg","0","k","1.6537313000299",1,2,0,2,0
"260032","img/object_images/airfryer01.jpg","1","s","1.59254710003734",1,2,0,2,0
"260032","img/object_images/dice01.jpg","1","s","1.00674830004573",1,2,0,2,0
"260032","img/object_images/knit01.jpg","1","k","0.996098299976438",1,2,0,2,0
"260032","img/object_images/microscope01.jpg","1","s","1.24224299995694",1,2,0,2,0
"260032","img/object_images/WitchHat02.jpg","1","k","1.45410229999106",1,2,0,2,0
"260032","img/object_images/tool07.jpg","0","s","1.53318509995006",1,2,0,2,0
"260032","img/object_images/TreeSlice01.jpg","1","k","2.11973090004176",1,2,0,2,0
"260032","img/object_images/note_book02.jpg","0","k","3.15644709998742",1,2,0,2,0
"260032","img/object_images/tripod01.jpg","1","k","1.18749480007682",1,2,0,2,0
"260032","img/object_images/glasses03.jpg","1","k","2.00766310002655",1,2,0,2,0
"260032","img/object_images/clip04.jpg","1","s","1.15753880003467",1,2,0,2,0
"260032","img/object_images/ear_bud01.jpg","1","s","0.942231999943033",1,2,0,2,0
"260032","img/object_images/backpack01.jpg","0","k","1.30141549999826",1,2,0,2,0
"260032","img/object_images/boat_toy10.jpg","1","k","1.42463660007343",1,2,0,2,0
"260032","img/object_images/tool11.jpg","1","s","1.68333699996583",1,2,0,2,0
"260032","img/object_images/slinky_toy01.jpg","1","k","1.39527089998592",1,2,0,2,0
"260032","img/object_images/projector01.jpg","1","s","2.2251526999753",1,2,0,2,0
"260032","img/object_images/helmet01.jpg","1","k","1.64842460001819",1,2,0,2,0
"260032","img/object_images/hat13.jpg","0","s","1.65886620001402",1,2,0,2,0
"260032","img/object_images/bath_tub01.jpg","1","s","1.28360550000798",1,2,0,2,0
"260032","img/object_images/tie02.jpg","1","s","1.32645060005598",1,2,0,2,0
"260032","img/object_images/board01.jpg","1","s","1.50519130006433",1,2,0,2,0
"260032","img/object_images/soap01.jpg","1","k","1.34739479993004",1,2,0,2,0
"260032","img/object_images/lemon_squeezer02.jpg","1","s","0.939835899975151",1,2,0,2,0
"260032","img/object_images/lemon_squeezer01.jpg","1","k","1.00221479998436",1,2,0,2,0
"260032","img/object_images/trash_can05.jpg","1","s","1.54902409994975",1,2,0,2,0
"260032","img/object_images/retainer01.jpg","1","s","1.02771290007513",1,2,0,2,0
"260032","img/object_images/surf_board01.jpg","0","s","2.53880149999168",1,2,0,2,0
"260032","img/object_images/wallet02.jpg","1","s","0.861738999956287",1,2,0,2,0
"260032","img/object_images/toothbrush01.jpg","1","s","1.07421059999615",1,2,0,2,0
"260032","img/object_images/vase02.jpg","1","s","1.37170050002169",1,2,0,2,0
"260032","img/object_images/curtain02.jpg","1","s","0.879022400011308",1,2,0,2,0
"260032","img/object_images/Witchhat01.jpg","0","s","1.40585990005638",1,2,0,2,0
"260032","img/object_images/ironing_table01.jpg","1","k","2.25236879999284",1,2,0,2,0
"260032","img/object_images/ice_tray03.jpg","1","s","1.69356129993685",1,2,0,2,0
"260032","img/object_images/mail_box02.jpg","1","s","0.849356699967757",1,2,0,2,0
"260032","img/object_images/acoustic_capo01.jpg","1","s","1.79744039999787",1,2,0,2,0
"260032","img/object_images/pen05.jpg","0","k","2.29500370007008",1,2,0,2,0
"260032","img/object_images/ball02.jpg","1","s","0.724023799994029",1,2,0,2,0
"260032","img/object_images/hole_puncher01.jpg","1","s","1.09909100004006",1,2,0,2,0
"260032","img/object_images/robe01.jpg","0","s","1.27593620005064",1,2,0,2,0
"260032","img/object_images/trumpet01.jpg","1","s","2.10729389998596",1,3,0,2,0
"260032","img/object_images/blender01.jpg","0","s","1.27623029996175",1,3,0,2,0
"260032","img/object_images/MeasuringCup01.jpg","1","s","0.944909299956635",1,3,0,2,0
"260032","img/object_images/fan04.jpg","0","k","1.42864679999184",1,3,0,2,0
"260032","img/object_images/exfoliater_brush01.jpg","1","s","0.987836099928245",1,3,0,2,0
"260032","img/object_images/tool02.jpg","0","s","1.48942289990373",1,3,0,2,0
"260032","img/object_images/combs01.jpg","1","k","1.04744890006259",1,3,0,2,0
"260032","img/object_images/kite01.jpg","1","s","1.31659029994626",1,3,0,2,0
"260032","img/object_images/book02.jpg","0","k","1.23982200003229",1,3,0,2,0
"260032","img/object_images/sleeping_bag01.jpg","0","s","1.36024399998132",1,3,0,2,0
"260032","img/object_images/water_gun01.jpg","1","s","0.90632149996236",1,3,0,2,0
"260032","img/object_images/bottle02.jpg","1","k","1.22615400003269",1,3,0,2,0
"260032","img/object_images/yarn02.jpg","0","s","1.16161770001054",1,3,0,2,0
"260032","img/object_images/candle02.jpg","0","k","1.10929200006649",1,3,0,2,0
"260032","img/object_images/shovel01.jpg","0","s","1.65177340002265",1,3,0,2,0
"260032","img/object_images/toy01.jpg","1","s","1.23881849995814",1,3,0,2,0
"260032","img/object_images/toy_train02.jpg","1","k","1.29391030000988",1,3,0,2,0
"260032","img/object_images/camera05.jpg","1","s","1.66025570000056",1,3,0,2,0
"260032","img/object_images/hoverboard01.jpg","1","k","1.06960970000364",1,3,0,2,0
"260032","img/object_images/backpack03.jpg","1","s","1.25088760000654",1,3,0,2,0
"260032","img/object_images/clock02.jpg","1","k","1.18974149995483",1,3,0,2,0
"260032","img/object_images/tool08.jpg","0","s","0.843713599955663",1,3,0,2,0
"260032","img/object_images/bottle12.jpg","1","k","1.21509349998087",1,3,0,2,0
"260032","img/object_images/floppy_disk02.jpg","1","s","1.34959280001931",1,3,0,2,0
"260032","img/object_images/audio_port01.jpg","1","k","1.25392679998185",1,3,0,2,0
"260032","img/object_images/bag04.jpg","0","k","1.40999809990171",1,3,0,2,0
"260032","img/object_images/Violin01.jpg","1","k","1.18460340006277",1,3,0,2,0
"260032","img/object_images/toy08.jpg","1","s","1.26724560000002",1,3,0,2,0
"260032","img/object_images/Ring02.jpg","1","k","1.11258109996561",1,3,0,2,0
"260032","img/object_images/dog_leash01.jpg","1","s","1.16372479998972",1,3,0,2,0
"260032","img/object_images/book01.jpg","1","s","1.92401189997327",1,3,0,2,0
"260032","img/object_images/basket02.jpg","1","k","0.983955299947411",1,3,0,2,0
"260032","img/object_images/stereo02.jpg","0","s","1.01683310000226",1,3,0,2,0
"260032","img/object_images/sink_filter01 (1).jpg","1","s","0.758261599927209",1,3,0,2,0
"260032","img/object_images/spatula02.jpg","1","k","1.18701290001627",1,3,0,2,0
"260032","img/object_images/bucket02.jpg","0","s","1.45218780008145",1,3,0,2,0
"260032","img/object_images/note_book01.jpg","0","s","0.80546239996329",1,3,0,2,0
"260032","img/object_images/TrashCan02.jpg","0","k","2.1384177999571",1,3,0,2,0
"260032","img/object_images/video_game06.jpg","1","s","1.11726169998292",1,3,0,2,0
"260032","img/object_images/Tin01.jpg","0","k","1.16063819988631",1,3,0,2,0
"260032","img/object_images/computer_mouse01.jpg","1","s","1.41274780000094",1,3,0,2,0
"260032","img/object_images/bookmark01.jpg","1","s","0.828930099960417",1,3,0,2,0
"260032","img/object_images/toy03.jpg","1","s","1.25070930004586",1,3,0,2,0
"260032","img/object_images/gloves05.jpg","0","k","1.50339960004203",1,3,0,2,0
"260032","img/object_images/Candle_Holder01.jpg","1","s","1.07456620002631",1,3,0,2,0
"260032","img/object_images/origami01.jpg","1","s","1.41059529990889",1,3,0,2,0
"260032","img/object_images/lock03.jpg","1","s","1.10046320001129",1,3,0,2,0
"260032","img/object_images/jewelry01.jpg","1","s","0.957623700029217",1,3,0,2,0
"260032","img/object_images/water_scooter01.jpg","1","k","1.00120500009507",1,4,0,2,0
"260032","img/object_images/brief_case01.jpg","1","s","0.649503100081347",1,4,0,2,0
"260032","img/object_images/Pottery01.jpg","1","s","0.685454299906269",1,4,0,2,0
"260032","img/object_images/bottle01.jpg","1","k","1.28940670005977",1,4,0,2,0
"260032","img/object_images/hat02.jpg","1","s","0.709497299976647",1,4,0,2,0
"260032","img/object_images/bean_bag02.jpg","1","k","0.988762399996631",1,4,0,2,0
"260032","img/object_images/joystick03.jpg","1","k","1.94950919994153",1,4,0,2,0
"260032","img/object_images/golf_ball03.jpg","1","s","1.08385240007192",1,4,0,2,0
"260032","img/object_images/piggy_bank01.jpg","1","s","1.25883000006434",1,4,0,2,0
"260032","img/object_images/judge_gavel01.jpg","1","k","1.29867620009463",1,4,0,2,0
"260032","img/object_images/bow01.jpg","0","k","1.63221680000424",1,4,0,2,0
"260032","img/object_images/video_game07.jpg","1","s","1.09390870004427",1,4,0,2,0
"260032","img/object_images/bottle09.jpg","1","s","0.932389199966565",1,4,0,2,0
"260032","img/object_images/Woopie01.jpg","1","s","1.51211160002276",1,4,0,2,0
"260032","img/object_images/Statue01.jpg","1","s","1.90274279995356",1,4,0,2,0
"260032","img/object_images/jacket04.jpg","0","s","1.23094909999054",1,4,0,2,0
"260032","img/object_images/Wisk01.jpg","1","k","1.21199109998997",1,4,0,2,0
"260032","img/object_images/ball01.jpg","1","k","0.96124219999183",1,4,0,2,0
"260032","img/object_images/mirror01.jpg","0","s","1.47157580009662",1,4,0,2,0
"260032","img/object_images/yo_yo01.jpg","1","k","1.32989579997957",1,4,0,2,0
"260032","img/object_images/hammer01.jpg","1","s","1.17150329996366",1,4,0,2,0
"260032","img/object_images/bicycle_lock01.jpg","1","k","1.31628889997955",1,4,0,2,0
"260032","img/object_images/chess_piece02.jpg","1","k","1.55992650007829",1,4,0,2,0
"260032","img/object_images/chair05.jpg","1","s","1.17405909998342",1,4,0,2,0
"260032","img/object_images/lighter01.jpg","1","s","2.10682479990646",1,4,0,2,0
"260032","img/object_images/bag_pipes01.jpg","0","s","2.00399280001875",1,4,0,2,0
"260032","img/object_images/Trowel01.jpg","0","k","1.514889699989",1,4,0,2,0
"260032","img/object_images/motorcycle01.jpg","1","k","1.11161590006668",1,4,0,2,0
"260032","img/object_images/usb03.jpg","0","s","1.3965082000941",1,4,0,2,0
"260032","img/object_images/speaker01.jpg","1","s","1.39637380000204",1,4,0,2,0
"260032","img/object_images/lamp01.jpg","1","k","1.64222659997176",1,4,0,2,0
"260032","img/object_images/flask01.jpg","1","s","2.11744220007677",1,4,0,2,0
"260032","img/object_images/pitcher05.jpg","0","k","1.04342189989984",1,4,0,2,0
"260032","img/object_images/colander01.jpg","1","s","0.689659900031984",1,4,0,2,0
"260032","img/object_images/egg_slicer01.jpg","1","k","1.04713169997558",1,4,0,2,0
"260032","img/object_images/knit03.jpg","1","k","1.02965099993162",1,4,0,2,0
"260032","img/object_images/tool18.jpg","1","k","1.2961613999214",1,4,0,2,0
"260032","img/object_images/handcuffs01.jpg","1","k","1.46945049997885",1,4,0,2,0
"260032","img/object_images/basket04.jpg","1","s","1.3323724999791",1,4,0,2,0
"260032","img/object_images/jewel02.jpg","0","s","1.48199670005124",1,4,0,2,0
"260032","img/object_images/cards01.jpg","1","k","1.16609830001835",1,4,0,2,0
"260032","img/object_images/hair_brush05.jpg","0","k","0.93392209999729",1,4,0,2,0
"260032","img/object_images/container01.jpg","1","s","1.28400840004906",1,4,0,2,0
"260032","img/object_images/Staples01.jpg","1","k","1.32656069996301",1,4,0,2,0
"260032","img/object_images/guitar01.jpg","1","s","1.21775190008339",1,4,0,2,0
"260032","img/object_images/couch03.jpg","1","s","1.02356259990484",1,4,0,2,0
"260032","img/object_images/chain01.jpg","1","s","0.775012500002049",1,4,0,2,0
"260032","img/object_images/chair02.jpg","1","s","1.89075859996956",1,4,0,2,0
"260032","img/object_images/lock04.jpg","1","s","1.16958690003958",1,5,0,2,0
"260032","img/object_images/socks01.jpg","0","s","1.72247450007126",1,5,0,2,0
"260032","img/object_images/lock01.jpg","1","s","1.53053290001117",1,5,0,2,0
"260032","img/object_images/hammer02.jpg","1","s","0.927357599954121",1,5,0,2,0
"260032","img/object_images/coloring_pencil02.jpg","1","s","2.11291029991116",1,5,0,2,0
"260032","img/object_images/tool13.jpg","1","s","1.05780900001992",1,5,0,2,0
"260032","img/object_images/jewelry09.jpg","1","s","1.18088960007299",1,5,0,2,0
"260032","img/object_images/razor02.jpg","1","s","1.39558779995423",1,5,0,2,0
"260032","img/object_images/paint_brush04.jpg","1","s","0.892561299959198",1,5,0,2,0
"260032","img/object_images/lid01.jpg","1","s","0.780097399954684",1,5,0,2,0
"260032","img/object_images/jewel01.jpg","1","k","1.39007109997328",1,5,0,2,0
"260032","img/object_images/laptop01.jpg","1","k","1.20404179999605",1,5,0,2,0
"260032","img/object_images/toy04.jpg","1","k","2.15620179998223",1,5,0,2,0
"260032","img/object_images/bag06.jpg","1","k","1.81846560002305",1,5,0,2,0
"260032","img/object_images/camera07.jpg","0","s","1.83537220000289",1,5,0,2,0
"260032","img/object_images/sign02.jpg","1","s","1.49583579995669",1,5,0,2,0
"260032","img/object_images/tie01.jpg","1","k","1.30074209999293",1,5,0,2,0
"260032","img/object_images/dresser03.jpg","1","s","0.913376500015147",1,5,0,2,0
"260032","img/object_images/bow_tie02.jpg","1","s","1.05920859996695",1,5,0,2,0
"260032","img/object_images/shoes10.jpg","1","s","1.57566760003101",1,5,0,2,0
"260032","img/object_images/video_game01.jpg","1","s","0.781397699960507",1,5,0,2,0
"260032","img/object_images/tennis_racket01.jpg","1","s","1.35997170000337",1,5,0,2,0
"260032","img/object_images/pitcher03.jpg","1","s","1.13339289999567",1,5,0,2,0
"260032","img/object_images/headset02.jpg","1","k","2.46994450001512",1,5,0,2,0
"260032","img/object_images/balloon01.jpg","0","k","1.0841241000453",1,5,0,2,0
"260032","img/object_images/couch04.jpg","1","s","1.41504019999411",1,5,0,2,0
"260032","img/object_images/bottle10.jpg","0","s","1.24717530002818",1,5,0,2,0
"260032","img/object_images/office_supplies01.jpg","1","k","1.16873589996248",1,5,0,2,0
"260032","img/object_images/pitcher09.jpg","1","k","1.44217469997238",1,5,0,2,0
"260032","img/object_images/helmet05.jpg","1","s","1.19092910003383",1,5,0,2,0
"260032","img/object_images/Vacuum01.jpg","1","k","1.17893609998282",1,5,0,2,0
"260032","img/object_images/shoes08.jpg","0","s","1.9721731999889",1,5,0,2,0
"260032","img/object_images/bell03.jpg","1","s","1.11012009996921",1,5,0,2,0
"260032","img/object_images/car04.jpg","0","s","0.804456300102174",1,5,0,2,0
"260032","img/object_images/socks02.jpg","1","k","1.17111029999796",1,5,0,2,0
"260032","img/object_images/Kitchen_Towel.jpg","1","k","1.40725009993184",1,5,0,2,0
"260032","img/object_images/badminton01.jpg","0","k","0.899370900006033",1,5,0,2,0
"260032","img/object_images/faucet01.jpg","1","k","1.18149659992196",1,5,0,2,0
"260032","img/object_images/lawn_mower01.jpg","1","k","1.34662660001777",1,5,0,2,0
"260032","img/object_images/phone02.jpg","1","s","1.15855910000391",1,5,0,2,0
"260032","img/object_images/clip03.jpg","1","k","1.01553580001928",1,5,0,2,0
"260032","img/object_images/fan05.jpg","1","k","2.1974395000143",1,5,0,2,0
"260032","img/object_images/helmet03.jpg","0","s","1.76238980004564",1,5,0,2,0
"260032","img/object_images/grater01.jpg","0","k","2.15612349996809",1,5,0,2,0
"260032","img/object_images/coloring_pencil01.jpg","1","s","0.942166200024076",1,5,0,2,0
"260032","img/object_images/watch01.jpg","1","k","2.11257779994048",1,5,0,2,0
"260032","img/object_images/binoculars03.jpg","1","k","1.23607179999817",1,5,0,2,0
"260032","img/object_images/vga_port 01.jpg","1","s","0.92178450000938",1,5,0,2,0
"260032","img/object_images/paper_cup01.jpg","1","k","1.05213189998176",1,6,0,2,0
"260032","img/object_images/ribbon01.jpg","1","k","1.29957639996428",1,6,0,2,0
"260032","img/object_images/perfume01.jpg","1","k","0.905015200027265",1,6,0,2,0
"260032","img/object_images/car02.jpg","1","s","1.53812749998178",1,6,0,2,0
"260032","img/object_images/blender02.jpg","1","k","1.96667810005601",1,6,0,2,0
"260032","img/object_images/belt01.jpg","0","s","0.932607700000517",1,6,0,2,0
"260032","img/object_images/Eyeliner01.jpg","1","k","1.46927799994592",1,6,0,2,0
"260032","img/object_images/cup03.jpg","1","k","3.54404940002132",1,6,0,2,0
"260032","img/object_images/hair_dryer01.jpg","1","k","1.32789860002231",1,6,0,2,0
"260032","img/object_images/glasses07.jpg","0","k","0.981488800025545",1,6,0,2,0
"260032","img/object_images/toaster02.jpg","1","s","1.40664679999463",1,6,0,2,0
"260032","img/object_images/gift_box05.jpg","1","s","1.14499150007032",1,6,0,2,0
"260032","img/object_images/hair_brush01.jpg","1","k","2.2323329000501",1,6,0,2,0
"260032","img/object_images/jewel03.jpg","1","s","1.56783019995783",1,6,0,2,0
"260032","img/object_images/cutting_board01.jpg","0","k","1.10895240004174",1,6,0,2,0
"260032","img/object_images/hand_grip_exerciser01.jpg","1","k","1.21312470000703",1,6,0,2,0
"260032","img/object_images/chair04.jpg","1","k","0.97198719996959",1,6,0,2,0
"260032","img/object_images/usb02.jpg","1","s","1.62232439999934",1,6,0,2,0
"260032","img/object_images/piano03.jpg","1","k","2.07531920005567",1,6,0,2,0
"260032","img/object_images/trash_can03.jpg","1","k","1.09488999994937",1,6,0,2,0
"260032","img/object_images/bucket01.jpg","0","s","1.11400139995385",1,6,0,2,0
"260032","img/object_images/computer_mouse02.jpg","1","k","1.88432369998191",1,6,0,2,0
"260032","img/object_images/funnel01.jpg","1","k","0.979067999986",1,6,0,2,0
"260032","img/object_images/scale02.jpg","0","s","1.64724550000392",1,6,0,2,0
"260032","img/object_images/Sprayer01.jpg","0","s","2.71955439995509",1,6,0,2,0
"260032","img/object_images/tray01.jpg","0","k","1.00626850000117",1,6,0,2,0
"260032","img/object_images/keyboard02.jpg","1","k","2.43290900008287",1,6,0,2,0
"260032","img/object_images/fork02.jpg","1","s","1.81515020004008",1,6,0,2,0
"260032","img/object_images/purse01.jpg","1","k","2.11665580002591",1,6,0,2,0
"260032","img/object_images/fridge03.jpg","1","k","1.11998590000439",1,6,0,2,0
"260032","img/object_images/remote_controller01.jpg","1","s","0.900664299959317",1,6,0,2,0
"260032","img/object_images/tool06.jpg","1","k","1.17033229989465",1,6,0,2,0
"260032","img/object_images/pitcher07.jpg","1","k","1.14273009996396",1,6,0,2,0
"260032","img/object_images/jewelry07.jpg","1","s","1.07321209996007",1,6,0,2,0
"260032","img/object_images/camera_lens01.jpg","1","k","1.03755239991006",1,6,0,2,0
"260032","img/object_images/paper_cup02.jpg","0","s","1.38852329994552",1,6,0,2,0
"260032","img/object_images/hot_air_balloon02.jpg","0","k","1.07247809995897",1,6,0,2,0
"260032","img/object_images/toy05.jpg","1","k","1.73804919992108",1,6,0,2,0
"260032","img/object_images/shoes07.jpg","1","k","1.13323879998643",1,6,0,2,0
"260032","img/object_images/shoes12.jpg","0","k","1.74517610005569",1,6,0,2,0
"260032","img/object_images/spray_can01.jpg","0","s","1.76742859999649",1,6,0,2,0
"260032","img/object_images/drone02.jpg","0","s","2.7791556000011",1,6,0,2,0
"260032","img/object_images/tool19.jpg","1","k","1.24953409994487",1,6,0,2,0
"260032","img/object_images/ironing_table02.jpg","0","s","1.55012210004497",1,6,0,2,0
"260032","img/object_images/umbrella01.jpg","0","k","0.974050400080159",1,6,0,2,0
"260032","img/object_images/soap03.jpg","0","k","1.17837540002074",1,6,0,2,0
"260032","img/object_images/shower_head03.jpg","1","s","1.10796910000499",1,6,0,2,0
"260032","img/object_images/rock02.jpg","1","k","0.970855199964717",1,6,0,2,0
"260032","img/object_images/bicycle01.jpg","0","k","1.1665653999662",1,7,0,2,0
"260032","img/object_images/cochlear_implant01.jpg","1","s","0.885273899999447",1,7,0,2,0
"260032","img/object_images/tv02.jpg","0","k","2.6169888000004",1,7,0,2,0
"260032","img/object_images/floss02.jpg","1","s","0.89087030000519",1,7,0,2,0
"260032","img/object_images/pen06.jpg","0","s","1.28082999994513",1,7,0,2,0
"260032","img/object_images/Oven01.jpg","1","s","1.2295746000018",1,7,0,2,0
"260032","img/object_images/hat09.jpg","0","k","2.07527079991996",1,7,0,2,0
"260032","img/object_images/mail_box01.jpg","1","k","1.13202430005185",1,7,0,2,0
"260032","img/object_images/decorative02.jpg","1","k","1.3574374000309",1,7,0,2,0
"260032","img/object_images/stapler.jpg","1","s","0.723285499960184",1,7,0,2,0
"260032","img/object_images/box03.jpg","1","s","1.46472789999098",1,7,0,2,0
"260032","img/object_images/frame01.jpg","1","s","1.04579600004945",1,7,0,2,0
"260032","img/object_images/outlet01.jpg","1","s","0.75693220004905",1,7,0,2,0
"260032","img/object_images/car03.jpg","1","k","1.18327110004611",1,7,0,2,0
"260032","img/object_images/basketball_hoop02.jpg","1","s","0.731606199988164",1,7,0,2,0
"260032","img/object_images/video_game03.jpg","1","s","0.871933300048113",1,7,0,2,0
"260032","img/object_images/boat02.jpg","0","s","1.0796766000567",1,7,0,2,0
"260032","img/object_images/gloves02.jpg","1","s","1.23005580005702",1,7,0,2,0
"260032","img/object_images/yoga_mat01.jpg","0","k","1.89815879997332",1,7,0,2,0
"260032","img/object_images/glasses06.jpg","1","k","1.01685230003204",1,7,0,2,0
"260032","img/object_images/stove01.jpg","1","k","1.19038559996989",1,7,0,2,0
"260032","img/object_images/camera03.jpg","1","s","0.938103699940257",1,7,0,2,0
"260032","img/object_images/wire02.jpg","0","k","1.72806999995373",1,7,0,2,0
"260032","img/object_images/measuring_tape02.jpg","1","s","1.50880010006949",1,7,0,2,0
"260032","img/object_images/chair03.jpg","1","s","0.769158400013112",1,7,0,2,0
"260032","img/object_images/hair_clips01.jpg","1","s","1.0226700999774",1,7,0,2,0
"260032","img/object_images/compass01.jpg","1","k","1.3030952999834",1,7,0,2,0
"260032","img/object_images/remover01.jpg","1","k","1.0576538000023",1,7,0,2,0
"260032","img/object_images/jacket03.jpg","0","s","1.37211370002478",1,7,0,2,0
"260032","img/object_images/car01.jpg","1","k","1.82168060005642",1,7,0,2,0
"260032","img/object_images/ring03.jpg","1","k","1.12267109996174",1,7,0,2,0
"260032","img/object_images/bell02.jpg","0","k","1.57711369998287",1,7,0,2,0
"260032","img/object_images/handkerchief01.jpg","0","k","1.95178130001295",1,7,0,2,0
"260032","img/object_images/towels01.jpg","1","k","1.56169569992926",1,7,0,2,0
"260032","img/object_images/fan02.jpg","1","s","1.76534619997256",1,7,0,2,0
"260032","img/object_images/Stool01.jpg","0","s","3.79702190007083",1,7,0,2,0
"260032","img/object_images/rock03.jpg","1","k","3.36839379998855",1,7,0,2,0
"260032","img/object_images/cup01.jpg","0","k","2.60227219993249",1,7,0,2,0
"260032","img/object_images/screwdriver01.jpg","1","s","1.14449099998455",1,7,0,2,0
"260032","img/object_images/razor03.jpg","1","k","1.09859249996953",1,7,0,2,0
"260032","img/object_images/fork03.jpg","1","k","1.15949099999852",1,7,0,2,0
"260032","img/object_images/duster01.jpg","0","k","1.95367139996961",1,7,0,2,0
"260032","img/object_images/tennis_racket02.jpg","0","s","1.84277200000361",1,7,0,2,0
"260032","img/object_images/bottle06.jpg","1","k","1.3505055999849",1,7,0,2,0
"260032","img/object_images/clipboard01.jpg","0","s","1.61492149997503",1,7,0,2,0
"260032","img/object_images/chair06.jpg","1","s","1.07931699999608",1,7,0,2,0
"260032","img/object_images/towel02.jpg","0","k","0.969647800084204",1,7,0,2,0
"260032","img/object_images/Confetti 01.jpg","1","s","1.00342079997063",1,7,0,2,0
"260032","img/object_images/ladle02.jpg","1","k","1.29340019996744",1,8,0,2,0
"260032","img/object_images/calculator01.jpg","0","k","2.4614551999839",1,8,0,2,0
"260032","img/object_images/tool20.jpg","1","k","1.16858960001264",1,8,0,2,0
"260032","img/object_images/hat06.jpg","0","s","2.42487160000019",1,8,0,2,0
"260032","img/object_images/egg_basket01.jpg","0","k","1.06123230000958",1,8,0,2,0
"260032","img/object_images/pillows01.jpg","1","k","1.13434190000407",1,8,0,2,0
"260032","img/object_images/helmet04.jpg","1","s","2.30886280001141",1,8,0,2,0
"260032","img/object_images/toilet_paper_dispenser01.jpg","0","s","1.69425669999328",1,8,0,2,0
"260032","img/object_images/knit04.jpg","0","k","1.1659644000465",1,8,0,2,0
"260032","img/object_images/wagon_cart03.jpg","0","s","1.8624818000244",1,8,0,2,0
"260032","img/object_images/Safe01.jpg","1","k","1.65113280003425",1,8,0,2,0
"260032","img/object_images/Shoes05.jpg","0","s","1.99264870001934",1,8,0,2,0
"260032","img/object_images/floss01.jpg","1","s","1.93239149998408",1,8,0,2,0
"260032","img/object_images/blanket01.jpg","1","k","1.18970760004595",1,8,0,2,0
"260032","img/object_images/phone04.jpg","1","s","1.28296610002872",1,8,0,2,0
"260032","img/object_images/dart01.jpg","1","s","1.70628949999809",1,8,0,2,0
"260032","img/object_images/nut_cracker01.jpg","1","k","1.03165290004108",1,8,0,2,0
"260032","img/object_images/dresser04.jpg","1","k","2.11987400008366",1,8,0,2,0
"260032","img/object_images/bottle07.jpg","1","s","1.25997000001371",1,8,0,2,0
"260032","img/object_images/lantern01.jpg","1","k","1.34786000009626",1,8,0,2,0
"260032","img/object_images/satellite01.jpg","1","k","1.49228320003022",1,8,0,2,0
"260032","img/object_images/gift_box01.jpg","1","s","1.46939479990397",1,8,0,2,0
"260032","img/object_images/toilet_paper01.jpg","0","s","2.4621380000608",1,8,0,2,0
"260032","img/object_images/belt03.jpg","1","k","2.71916209999472",1,8,0,2,0
"260032","img/object_images/sponge03.jpg","0","s","1.60355430003256",1,8,0,2,0
"260032","img/object_images/gift_box04.jpg","1","s","0.872744499938563",1,8,0,2,0
"260032","img/object_images/shovel03.jpg","1","k","1.3178625999717",1,8,0,2,0
"260032","img/object_images/cellphone02.jpg","1","k","1.18926259991713",1,8,0,2,0
"260032","img/object_images/floppy_disk03.jpg","1","s","0.806714400066994",1,8,0,2,0
"260032","img/object_images/gift_box03.jpg","1","k","1.00343630008865",1,8,0,2,0
"260032","img/object_images/Screws01.jpg","0","s","1.42445649998263",1,8,0,2,0
"260032","img/object_images/fire_extinguisher01.jpg","1","k","1.06058529997244",1,8,0,2,0
"260032","img/object_images/scoreboard01.jpg","0","k","1.18512509996071",1,8,0,2,0
"260032","img/object_images/dust_pan01.jpg","0","k","1.15278040000703",1,8,0,2,0
"260032","img/object_images/chair01.jpg","1","s","1.73810230009258",1,8,0,2,0
"260032","img/object_images/pan03.jpg","1","s","1.57282759994268",1,8,0,2,0
"260032","img/object_images/chess_piece01.jpg","1","k","1.71715709997807",1,8,0,2,0
"260032","img/object_images/pot01 (1).jpg","1","s","1.98963399999775",1,8,0,2,0
"260032","img/object_images/laptop03.jpg","1","k","1.21906919998582",1,8,0,2,0
"260032","img/object_images/skate_board01.jpg","1","k","1.284359900048",1,8,0,2,0
"260032","img/object_images/cellphone01.jpg","1","k","1.04415960004553",1,8,0,2,0
"260032","img/object_images/frisbee01.jpg","0","s","1.9156815999886",1,8,0,2,0
"260032","img/object_images/tool09.jpg","1","k","1.26059099996928",1,8,0,2,0
"260032","img/object_images/helmet02.jpg","0","k","2.30915210000239",1,8,0,2,0
"260032","img/object_images/couch01.jpg","0","s","1.21318489999976",1,8,0,2,0
"260032","img/object_images/airfryer02.jpg","0","s","0.842308099963702",1,8,0,2,0
"260032","img/object_images/Recycling01.jpg","1","s","1.67989540006965",1,8,0,2,0
"260032","img/object_images/drone01.jpg","1","k","1.4432598000858",1,8,0,2,0
