"participant_id","current_trial_object","pre_trial_object","post_trial_object","current_trial_accuracy","pre_trial_accuracy","post_trial_accuracy","current_trial_congruency","pre_trial_congruency","post_trial_congruency","current_trial_rt","pre_trial_rt","post_trial_rt","current_trial_responded","pre_trial_responded","post_trial_responded","current_trial_legitResponse","pre_trial_legitResponse","post_trial_legitResponse","current_trial_resp_nums","pre_trial_resp_nums","post_trial_resp_nums"
"260052","img/object_images/gift_box04.jpg",NA,"img/object_images/Kitchen_Towel.jpg","1",NA,"0","0",NA,"0","0.427115099999355",NA,"0.469351600011578","1",NA,"1","1",NA,"1","1",NA,"1"
"260052","img/object_images/Kitchen_Towel.jpg","img/object_images/gift_box04.jpg","img/object_images/faucet01.jpg","0","1","0","0","0","0","0.469351600011578","0.427115099999355","0.349281899994821","1","1","1","1","1","1","1","1","1"
"260052","img/object_images/faucet01.jpg","img/object_images/Kitchen_Towel.jpg","img/object_images/cup03.jpg","0","0","1","0","0","1","0.349281899994821","0.469351600011578","0.31973210000433","1","1","1","1","1","1","1","1","1"
"260052","img/object_images/cup03.jpg","img/object_images/faucet01.jpg","img/object_images/lighter01.jpg","1","0","1","1","0","1","0.31973210000433","0.349281899994821","0.363623800003552","1","1","1","1","1","1","1","1","1"
"260052","img/object_images/lighter01.jpg","img/object_images/cup03.jpg","img/object_images/speaker01.jpg","1","1","1","1","1","1","0.363623800003552","0.31973210000433","0.339057199991657","1","1","1","1","1","1","1","1","1"
"260052","img/object_images/speaker01.jpg","img/object_images/lighter01.jpg","img/object_images/handcuffs01.jpg","1","1","1","1","1","0","0.339057199991657","0.363623800003552","0.497504200000549","1","1","1","1","1","1","1","1","1"
"260052","img/object_images/handcuffs01.jpg","img/object_images/speaker01.jpg","img/object_images/book01.jpg","1","1","1","0","1","1","0.497504200000549","0.339057199991657","0.404135400007362","1","1","1","1","1","1","1","1","1"
"260052","img/object_images/book01.jpg","img/object_images/handcuffs01.jpg","img/object_images/hole_puncher01.jpg","1","1","1","1","0","1","0.404135400007362","0.497504200000549","0.45293899999524","1","1","1","1","1","1","1","1","1"
"260052","img/object_images/hole_puncher01.jpg","img/object_images/book01.jpg","img/object_images/bicycle_lock01.jpg","1","1","1","1","1","0","0.45293899999524","0.404135400007362","0.471588400003384","1","1","1","1","1","1","1","1","1"
"260052","img/object_images/bicycle_lock01.jpg","img/object_images/hole_puncher01.jpg","img/object_images/fire_extinguisher01.jpg","1","1","1","0","1","0","0.471588400003384","0.45293899999524","0.406075100007001","1","1","1","1","1","1","1","1","1"
"260052","img/object_images/fire_extinguisher01.jpg","img/object_images/bicycle_lock01.jpg","img/object_images/tray01.jpg","1","1","1","0","0","1","0.406075100007001","0.471588400003384","0.421409899994614","1","1","1","1","1","1","1","1","1"
"260052","img/object_images/tray01.jpg","img/object_images/fire_extinguisher01.jpg","img/object_images/tool08.jpg","1","1","0","1","0","0","0.421409899994614","0.406075100007001","0.475190600001952","1","1","1","1","1","1","1","1","1"
"260052","img/object_images/tool08.jpg","img/object_images/tray01.jpg","img/object_images/Traffic Sign 01.jpg","0","1","1","0","1","0","0.475190600001952","0.421409899994614","0.490660499999649","1","1","1","1","1","1","1","1","1"
"260052","img/object_images/Traffic Sign 01.jpg","img/object_images/tool08.jpg","img/object_images/blanket01.jpg","1","0","1","0","0","1","0.490660499999649","0.475190600001952","0.379884499998298","1","1","1","1","1","1","1","1","1"
"260052","img/object_images/blanket01.jpg","img/object_images/Traffic Sign 01.jpg","img/object_images/projector01.jpg","1","1","1","1","0","0","0.379884499998298","0.490660499999649","0.45495430000301","1","1","1","1","1","1","1","1","1"
"260052","img/object_images/projector01.jpg","img/object_images/blanket01.jpg","img/object_images/ring03.jpg","1","1","1","0","1","1","0.45495430000301","0.379884499998298","0.433231100003468","1","1","1","1","1","1","1","1","1"
"260052","img/object_images/ring03.jpg","img/object_images/projector01.jpg","img/object_images/cellphone02.jpg","1","1","1","1","0","1","0.433231100003468","0.45495430000301","0.406295900000259","1","1","1","1","1","1","1","1","1"
"260052","img/object_images/cellphone02.jpg","img/object_images/ring03.jpg","img/object_images/TrashCan02.jpg","1","1","1","1","1","1","0.406295900000259","0.433231100003468","0.451683899998898","1","1","1","1","1","1","1","1","1"
"260052","img/object_images/TrashCan02.jpg","img/object_images/cellphone02.jpg","img/object_images/tool07.jpg","1","1","1","1","1","0","0.451683899998898","0.406295900000259","0.49330609999015","1","1","1","1","1","1","1","1","1"
"260052","img/object_images/tool07.jpg","img/object_images/TrashCan02.jpg","img/object_images/Pottery01.jpg","1","1","1","0","1","0","0.49330609999015","0.451683899998898","0.431083600007696","1","1","1","1","1","1","1","1","1"
"260052","img/object_images/Pottery01.jpg","img/object_images/tool07.jpg","img/object_images/exfoliater_brush01.jpg","1","1","0","0","0","0","0.431083600007696","0.49330609999015","0.511852099996759","1","1","1","1","1","1","1","1","1"
"260052","img/object_images/exfoliater_brush01.jpg","img/object_images/Pottery01.jpg","img/object_images/glasses07.jpg","0","1","1","0","0","1","0.511852099996759","0.431083600007696","0.456373900000472","1","1","1","1","1","1","1","1","1"
"260052","img/object_images/glasses07.jpg","img/object_images/exfoliater_brush01.jpg","img/object_images/basket02.jpg","1","0","1","1","0","0","0.456373900000472","0.511852099996759","0.457623800000874","1","1","1","1","1","1","1","1","1"
"260052","img/object_images/basket02.jpg","img/object_images/glasses07.jpg","img/object_images/yo_yo01.jpg","1","1","1","0","1","0","0.457623800000874","0.456373900000472","0.455842099996516","1","1","1","1","1","1","1","1","1"
"260052","img/object_images/yo_yo01.jpg","img/object_images/basket02.jpg","img/object_images/jewelry09.jpg","1","1","1","0","0","1","0.455842099996516","0.457623800000874","0.672546200003126","1","1","1","1","1","1","1","1","1"
"260052","img/object_images/jewelry09.jpg","img/object_images/yo_yo01.jpg","img/object_images/glasses06.jpg","1","1","1","1","0","1","0.672546200003126","0.455842099996516","0.479662199999439","1","1","1","1","1","1","1","1","1"
"260052","img/object_images/glasses06.jpg","img/object_images/jewelry09.jpg","img/object_images/colander01.jpg","1","1","1","1","1","0","0.479662199999439","0.672546200003126","0.509441200003494","1","1","1","1","1","1","1","1","1"
"260052","img/object_images/colander01.jpg","img/object_images/glasses06.jpg","img/object_images/Sprayer01.jpg","1","1","1","0","1","0","0.509441200003494","0.479662199999439","0.452211399999214","1","1","1","1","1","1","1","1","1"
"260052","img/object_images/Sprayer01.jpg","img/object_images/colander01.jpg","img/object_images/pan01.jpg","1","1","1","0","0","1","0.452211399999214","0.509441200003494","0.420161500005634","1","1","1","1","1","1","1","1","1"
"260052","img/object_images/pan01.jpg","img/object_images/Sprayer01.jpg","img/object_images/purse01.jpg","1","1","1","1","0","1","0.420161500005634","0.452211399999214","0.389909499994246","1","1","1","1","1","1","1","1","1"
"260052","img/object_images/purse01.jpg","img/object_images/pan01.jpg","img/object_images/hair_clips01.jpg","1","1","1","1","1","1","0.389909499994246","0.420161500005634","0.403702900002827","1","1","1","1","1","1","1","1","1"
"260052","img/object_images/hair_clips01.jpg","img/object_images/purse01.jpg",NA,"1","1",NA,"1","1",NA,"0.403702900002827","0.389909499994246",NA,"1","1",NA,"1","1",NA,"1","1",NA
"260052","img/object_images/bell02.jpg",NA,"img/object_images/Thermometer01.jpg","1",NA,"1","0",NA,"0","0.524660800001584",NA,"0.480266999991727","1",NA,"1","1",NA,"1","1",NA,"1"
"260052","img/object_images/Thermometer01.jpg","img/object_images/bell02.jpg","img/object_images/lid01.jpg","1","1","1","0","0","1","0.480266999991727","0.524660800001584","0.402739400000428","1","1","1","1","1","1","1","1","1"
"260052","img/object_images/lid01.jpg","img/object_images/Thermometer01.jpg","img/object_images/book03.jpg","1","1","1","1","0","1","0.402739400000428","0.480266999991727","0.359138800005894","1","1","1","1","1","1","1","1","1"
"260052","img/object_images/book03.jpg","img/object_images/lid01.jpg","img/object_images/note_book01.jpg","1","1","1","1","1","0","0.359138800005894","0.402739400000428","0.49105789999885","1","1","1","1","1","1","1","1","1"
"260052","img/object_images/note_book01.jpg","img/object_images/book03.jpg","img/object_images/retainer01.jpg","1","1","1","0","1","0","0.49105789999885","0.359138800005894","0.433276800002204","1","1","1","1","1","1","1","1","1"
"260052","img/object_images/retainer01.jpg","img/object_images/note_book01.jpg","img/object_images/chair05.jpg","1","1","1","0","0","0","0.433276800002204","0.49105789999885","0.426021399995079","1","1","1","1","1","1","1","1","1"
"260052","img/object_images/chair05.jpg","img/object_images/retainer01.jpg","img/object_images/usb02.jpg","1","1","1","0","0","0","0.426021399995079","0.433276800002204","0.557574199992814","1","1","1","1","1","1","1","1","1"
"260052","img/object_images/usb02.jpg","img/object_images/chair05.jpg","img/object_images/motorcycle01.jpg","1","1","1","0","0","1","0.557574199992814","0.426021399995079","0.53609600001073","1","1","1","1","1","1","1","1","1"
"260052","img/object_images/motorcycle01.jpg","img/object_images/usb02.jpg","img/object_images/tv02.jpg","1","1","1","1","0","0","0.53609600001073","0.557574199992814","0.495489900000393","1","1","1","1","1","1","1","1","1"
"260052","img/object_images/tv02.jpg","img/object_images/motorcycle01.jpg","img/object_images/ear_bud01.jpg","1","1","1","0","1","1","0.495489900000393","0.53609600001073","0.382652600004803","1","1","1","1","1","1","1","1","1"
"260052","img/object_images/ear_bud01.jpg","img/object_images/tv02.jpg","img/object_images/pillows01.jpg","1","1","1","1","0","1","0.382652600004803","0.495489900000393","0.573959900008049","1","1","1","1","1","1","1","1","1"
"260052","img/object_images/pillows01.jpg","img/object_images/ear_bud01.jpg","img/object_images/tennis_racket02.jpg","1","1","1","1","1","1","0.573959900008049","0.382652600004803","0.467017500006477","1","1","1","1","1","1","1","1","1"
"260052","img/object_images/tennis_racket02.jpg","img/object_images/pillows01.jpg","img/object_images/pen03.jpg","1","1","1","1","1","0","0.467017500006477","0.573959900008049","0.47026650000771","1","1","1","1","1","1","1","1","1"
"260052","img/object_images/pen03.jpg","img/object_images/tennis_racket02.jpg","img/object_images/compass01.jpg","1","1","1","0","1","1","0.47026650000771","0.467017500006477","0.420545100001618","1","1","1","1","1","1","1","1","1"
"260052","img/object_images/compass01.jpg","img/object_images/pen03.jpg","img/object_images/Staples01.jpg","1","1","1","1","0","1","0.420545100001618","0.47026650000771","0.357750000010128","1","1","1","1","1","1","1","1","1"
"260052","img/object_images/Staples01.jpg","img/object_images/compass01.jpg","img/object_images/Oven01.jpg","1","1","1","1","1","1","0.357750000010128","0.420545100001618","0.416018499992788","1","1","1","1","1","1","1","1","1"
"260052","img/object_images/Oven01.jpg","img/object_images/Staples01.jpg","img/object_images/pitcher01.jpg","1","1","1","1","1","0","0.416018499992788","0.357750000010128","0.516258400006336","1","1","1","1","1","1","1","1","1"
"260052","img/object_images/pitcher01.jpg","img/object_images/Oven01.jpg","img/object_images/floppy_disk02.jpg","1","1","0","0","1","0","0.516258400006336","0.416018499992788","0.473593200003961","1","1","1","1","1","1","1","1","2"
"260052","img/object_images/floppy_disk02.jpg","img/object_images/pitcher01.jpg","img/object_images/microscope01.jpg","0","1","1","0","0","0","0.473593200003961","0.516258400006336","0.467600999996648","1","1","1","1","1","1","2","1","1"
"260052","img/object_images/microscope01.jpg","img/object_images/floppy_disk02.jpg","img/object_images/knife04.jpg","1","0","1","0","0","1","0.467600999996648","0.473593200003961","0.474770600005286","1","1","1","1","1","1","1","2","1"
"260052","img/object_images/knife04.jpg","img/object_images/microscope01.jpg","img/object_images/clip03.jpg","1","1","1","1","0","0","0.474770600005286","0.467600999996648","0.542697400000179","1","1","1","1","1","1","1","1","1"
"260052","img/object_images/clip03.jpg","img/object_images/knife04.jpg","img/object_images/floppy_disk03.jpg","1","1","1","0","1","1","0.542697400000179","0.474770600005286","0.453368299989961","1","1","1","1","1","1","1","1","1"
"260052","img/object_images/floppy_disk03.jpg","img/object_images/clip03.jpg","img/object_images/paint_brush04.jpg","1","1","1","1","0","0","0.453368299989961","0.542697400000179","0.438336500010337","1","1","1","1","1","1","1","1","1"
"260052","img/object_images/paint_brush04.jpg","img/object_images/floppy_disk03.jpg","img/object_images/hammer03.jpg","1","1","1","0","1","1","0.438336500010337","0.453368299989961","0.394515799998771","1","1","1","1","1","1","1","1","1"
"260052","img/object_images/hammer03.jpg","img/object_images/paint_brush04.jpg","img/object_images/cellphone01.jpg","1","1","1","1","0","1","0.394515799998771","0.438336500010337","0.401617800001986","1","1","1","1","1","1","1","1","1"
"260052","img/object_images/cellphone01.jpg","img/object_images/hammer03.jpg","img/object_images/knit05.jpg","1","1","1","1","1","1","0.401617800001986","0.394515799998771","0.475974999993923","1","1","1","1","1","1","1","1","1"
"260052","img/object_images/knit05.jpg","img/object_images/cellphone01.jpg","img/object_images/bottle01.jpg","1","1","1","1","1","0","0.475974999993923","0.401617800001986","0.424336100011715","1","1","1","1","1","1","1","1","1"
"260052","img/object_images/bottle01.jpg","img/object_images/knit05.jpg","img/object_images/clock02.jpg","1","1","1","0","1","0","0.424336100011715","0.475974999993923","0.648626700000023","1","1","1","1","1","1","1","1","1"
"260052","img/object_images/clock02.jpg","img/object_images/bottle01.jpg","img/object_images/crutches02.jpg","1","1","1","0","0","0","0.648626700000023","0.424336100011715","0.521698500000639","1","1","1","1","1","1","1","1","1"
"260052","img/object_images/crutches02.jpg","img/object_images/clock02.jpg","img/object_images/wire02.jpg","1","1","1","0","0","1","0.521698500000639","0.648626700000023","0.427078400010942","1","1","1","1","1","1","1","1","1"
"260052","img/object_images/wire02.jpg","img/object_images/crutches02.jpg","img/object_images/chess_piece02.jpg","1","1","1","1","0","1","0.427078400010942","0.521698500000639","0.445238899992546","1","1","1","1","1","1","1","1","1"
"260052","img/object_images/chess_piece02.jpg","img/object_images/wire02.jpg",NA,"1","1",NA,"1","1",NA,"0.445238899992546","0.427078400010942",NA,"1","1",NA,"1","1",NA,"1","1",NA
"260052","img/object_images/gift_box05.jpg",NA,"img/object_images/stove01.jpg","1",NA,"1","0",NA,"0","0.427363199996762",NA,"0.444846200000029","1",NA,"1","1",NA,"1","1",NA,"1"
"260052","img/object_images/stove01.jpg","img/object_images/gift_box05.jpg","img/object_images/trash_can05.jpg","1","1","1","0","0","1","0.444846200000029","0.427363199996762","0.362753299996257","1","1","1","1","1","1","1","1","1"
"260052","img/object_images/trash_can05.jpg","img/object_images/stove01.jpg","img/object_images/calculator01.jpg","1","1","1","1","0","1","0.362753299996257","0.444846200000029","0.351779000004171","1","1","1","1","1","1","1","1","1"
"260052","img/object_images/calculator01.jpg","img/object_images/trash_can05.jpg","img/object_images/helmet02.jpg","1","1","1","1","1","0","0.351779000004171","0.362753299996257","0.428679599994211","1","1","1","1","1","1","1","1","1"
"260052","img/object_images/helmet02.jpg","img/object_images/calculator01.jpg","img/object_images/fan04.jpg","1","1","1","0","1","0","0.428679599994211","0.351779000004171","0.428762499999721","1","1","1","1","1","1","1","1","1"
"260052","img/object_images/fan04.jpg","img/object_images/helmet02.jpg","img/object_images/jewel03.jpg","1","1","1","0","0","1","0.428762499999721","0.428679599994211","0.457410899995011","1","1","1","1","1","1","1","1","1"
"260052","img/object_images/jewel03.jpg","img/object_images/fan04.jpg","img/object_images/microphone03.jpg","1","1","1","1","0","1","0.457410899995011","0.428762499999721","0.487292899997556","1","1","1","1","1","1","1","1","1"
"260052","img/object_images/microphone03.jpg","img/object_images/jewel03.jpg","img/object_images/chair02.jpg","1","1","1","1","1","1","0.487292899997556","0.457410899995011","0.383144799998263","1","1","1","1","1","1","1","1","1"
"260052","img/object_images/chair02.jpg","img/object_images/microphone03.jpg","img/object_images/hair_dryer01.jpg","1","1","1","1","1","0","0.383144799998263","0.487292899997556","0.473401299997931","1","1","1","1","1","1","1","1","1"
"260052","img/object_images/hair_dryer01.jpg","img/object_images/chair02.jpg","img/object_images/Vest02.jpg","1","1","1","0","1","0","0.473401299997931","0.383144799998263","0.486366500001168","1","1","1","1","1","1","1","1","1"
"260052","img/object_images/Vest02.jpg","img/object_images/hair_dryer01.jpg","img/object_images/toy05.jpg","1","1","1","0","0","0","0.486366500001168","0.473401299997931","0.449525199990603","1","1","1","1","1","1","1","1","1"
"260052","img/object_images/toy05.jpg","img/object_images/Vest02.jpg","img/object_images/laptop01.jpg","1","1","1","0","0","0","0.449525199990603","0.486366500001168","0.456809900002554","1","1","1","1","1","1","1","1","1"
"260052","img/object_images/laptop01.jpg","img/object_images/toy05.jpg","img/object_images/ball02.jpg","1","1","1","0","0","1","0.456809900002554","0.449525199990603","0.423617000007653","1","1","1","1","1","1","1","1","1"
"260052","img/object_images/ball02.jpg","img/object_images/laptop01.jpg","img/object_images/surf_board01.jpg","1","1","1","1","0","1","0.423617000007653","0.456809900002554","0.386861200007843","1","1","1","1","1","1","1","1","1"
"260052","img/object_images/surf_board01.jpg","img/object_images/ball02.jpg","img/object_images/chess_piece01.jpg","1","1","0","1","1","0","0.386861200007843","0.423617000007653","0.472212699998636","1","1","1","1","1","1","1","1","1"
"260052","img/object_images/chess_piece01.jpg","img/object_images/surf_board01.jpg","img/object_images/combs01.jpg","0","1","1","0","1","1","0.472212699998636","0.386861200007843","0.395214399992255","1","1","1","1","1","1","1","1","1"
"260052","img/object_images/combs01.jpg","img/object_images/chess_piece01.jpg","img/object_images/laptop03.jpg","1","0","1","1","0","1","0.395214399992255","0.472212699998636","0.454701499998919","1","1","1","1","1","1","1","1","1"
"260052","img/object_images/laptop03.jpg","img/object_images/combs01.jpg","img/object_images/backpack03.jpg","1","1","1","1","1","1","0.454701499998919","0.395214399992255","0.395882400000119","1","1","1","1","1","1","1","1","1"
"260052","img/object_images/backpack03.jpg","img/object_images/laptop03.jpg","img/object_images/pitcher05.jpg","1","1","0","1","1","0","0.395882400000119","0.454701499998919","0.360672599999816","1","1","1","1","1","1","1","1","1"
"260052","img/object_images/pitcher05.jpg","img/object_images/backpack03.jpg","img/object_images/shoes08.jpg","0","1","1","0","1","1","0.360672599999816","0.395882400000119","0.452636100002564","1","1","1","1","1","1","1","1","1"
"260052","img/object_images/shoes08.jpg","img/object_images/pitcher05.jpg","img/object_images/robe01.jpg","1","0","1","1","0","1","0.452636100002564","0.360672599999816","0.432638599988422","1","1","1","1","1","1","1","1","1"
"260052","img/object_images/robe01.jpg","img/object_images/shoes08.jpg","img/object_images/lock01.jpg","1","1","1","1","1","0","0.432638599988422","0.452636100002564","0.489737099997001","1","1","1","1","1","1","1","1","1"
"260052","img/object_images/lock01.jpg","img/object_images/robe01.jpg","img/object_images/accardion01.jpg","1","1","1","0","1","1","0.489737099997001","0.432638599988422","0.441362600002321","1","1","1","1","1","1","1","1","1"
"260052","img/object_images/accardion01.jpg","img/object_images/lock01.jpg","img/object_images/spatula02.jpg","1","1","1","1","0","1","0.441362600002321","0.489737099997001","0.425732200004859","1","1","1","1","1","1","1","1","1"
"260052","img/object_images/spatula02.jpg","img/object_images/accardion01.jpg","img/object_images/umbrella01.jpg","1","1","0","1","1","0","0.425732200004859","0.441362600002321","0.432679100005771","1","1","1","1","1","1","1","1","1"
"260052","img/object_images/umbrella01.jpg","img/object_images/spatula02.jpg","img/object_images/bucket02.jpg","0","1","1","0","1","1","0.432679100005771","0.425732200004859","0.460781200003112","1","1","1","1","1","1","1","1","1"
"260052","img/object_images/bucket02.jpg","img/object_images/umbrella01.jpg","img/object_images/hair_brush02.jpg","1","0","1","1","0","0","0.460781200003112","0.432679100005771","0.618038299988257","1","1","1","1","1","1","1","1","1"
"260052","img/object_images/hair_brush02.jpg","img/object_images/bucket02.jpg","img/object_images/towels01.jpg","1","1","1","0","1","0","0.618038299988257","0.460781200003112","0.617336900002556","1","1","1","1","1","1","1","1","1"
"260052","img/object_images/towels01.jpg","img/object_images/hair_brush02.jpg","img/object_images/vase01.jpg","1","1","1","0","0","0","0.617336900002556","0.618038299988257","0.464316199999303","1","1","1","1","1","1","1","1","1"
"260052","img/object_images/vase01.jpg","img/object_images/towels01.jpg","img/object_images/Lint_Roller02.jpg","1","1","1","0","0","0","0.464316199999303","0.617336900002556","0.469393299994408","1","1","1","1","1","1","1","1","1"
"260052","img/object_images/Lint_Roller02.jpg","img/object_images/vase01.jpg","img/object_images/trash_can03.jpg","1","1","1","0","0","1","0.469393299994408","0.464316199999303","0.405453700004728","1","1","1","1","1","1","1","1","1"
"260052","img/object_images/trash_can03.jpg","img/object_images/Lint_Roller02.jpg",NA,"1","1",NA,"1","0",NA,"0.405453700004728","0.469393299994408",NA,"1","1",NA,"1","1",NA,"1","1",NA
"260052","img/object_images/video_game02.jpg",NA,"img/object_images/Candle_Holder01.jpg","1",NA,"0","1",NA,"0","0.579855500007397",NA,"0.402403799991589","1",NA,"1","1",NA,"1","1",NA,"1"
"260052","img/object_images/Candle_Holder01.jpg","img/object_images/video_game02.jpg","img/object_images/lemon_squeezer01.jpg","0","1","1","0","1","1","0.402403799991589","0.579855500007397","0.409329100002651","1","1","1","1","1","1","1","1","1"
"260052","img/object_images/lemon_squeezer01.jpg","img/object_images/Candle_Holder01.jpg","img/object_images/duster01.jpg","1","0","1","1","0","0","0.409329100002651","0.402403799991589","0.447471399995266","1","1","1","1","1","1","1","1","1"
"260052","img/object_images/duster01.jpg","img/object_images/lemon_squeezer01.jpg","img/object_images/hammer02.jpg","1","1","1","0","1","0","0.447471399995266","0.409329100002651","0.50073309999425","1","1","1","1","1","1","1","1","1"
"260052","img/object_images/hammer02.jpg","img/object_images/duster01.jpg","img/object_images/floss01.jpg","1","1","1","0","0","1","0.50073309999425","0.447471399995266","0.448137999992468","1","1","1","1","1","1","1","1","1"
"260052","img/object_images/floss01.jpg","img/object_images/hammer02.jpg","img/object_images/sign02.jpg","1","1","1","1","0","0","0.448137999992468","0.50073309999425","0.575182400003541","1","1","1","1","1","1","1","1","1"
"260052","img/object_images/sign02.jpg","img/object_images/floss01.jpg","img/object_images/clipboard01.jpg","1","1","1","0","1","1","0.575182400003541","0.448137999992468","0.442927900003269","1","1","1","1","1","1","1","1","1"
"260052","img/object_images/clipboard01.jpg","img/object_images/sign02.jpg","img/object_images/perfume01.jpg","1","1","0","1","0","0","0.442927900003269","0.575182400003541","0.563907600007951","1","1","1","1","1","1","1","1","1"
"260052","img/object_images/perfume01.jpg","img/object_images/clipboard01.jpg","img/object_images/knife01.jpg","0","1","1","0","1","1","0.563907600007951","0.442927900003269","0.405832300006296","1","1","1","1","1","1","1","1","1"
"260052","img/object_images/knife01.jpg","img/object_images/perfume01.jpg","img/object_images/razor02.jpg","1","0","1","1","0","1","0.405832300006296","0.563907600007951","0.459385800000746","1","1","1","1","1","1","1","1","1"
"260052","img/object_images/razor02.jpg","img/object_images/knife01.jpg","img/object_images/office_supplies01.jpg","1","1","1","1","1","1","0.459385800000746","0.405832300006296","0.451205699995626","1","1","1","1","1","1","1","1","1"
"260052","img/object_images/office_supplies01.jpg","img/object_images/razor02.jpg","img/object_images/hat09.jpg","1","1","1","1","1","0","0.451205699995626","0.459385800000746","0.467424500006018","1","1","1","1","1","1","1","1","1"
"260052","img/object_images/hat09.jpg","img/object_images/office_supplies01.jpg","img/object_images/Confetti 01.jpg","1","1","1","0","1","0","0.467424500006018","0.451205699995626","0.541940199997043","1","1","1","1","1","1","1","1","1"
"260052","img/object_images/Confetti 01.jpg","img/object_images/hat09.jpg","img/object_images/camera05.jpg","1","1","1","0","0","0","0.541940199997043","0.467424500006018","0.510902999987593","1","1","1","1","1","1","1","1","1"
"260052","img/object_images/camera05.jpg","img/object_images/Confetti 01.jpg","img/object_images/bag04.jpg","1","1","1","0","0","0","0.510902999987593","0.541940199997043","0.497939400011091","1","1","1","1","1","1","1","1","1"
"260052","img/object_images/bag04.jpg","img/object_images/camera05.jpg","img/object_images/board01.jpg","1","1","1","0","0","1","0.497939400011091","0.510902999987593","0.417249499994796","1","1","1","1","1","1","1","1","1"
"260052","img/object_images/board01.jpg","img/object_images/bag04.jpg","img/object_images/vase02.jpg","1","1","1","1","0","1","0.417249499994796","0.497939400011091","0.378409299999475","1","1","1","1","1","1","1","1","1"
"260052","img/object_images/vase02.jpg","img/object_images/board01.jpg","img/object_images/tool13.jpg","1","1","1","1","1","1","0.378409299999475","0.417249499994796","0.450467300004675","1","1","1","1","1","1","1","1","1"
"260052","img/object_images/tool13.jpg","img/object_images/vase02.jpg","img/object_images/cup01.jpg","1","1","1","1","1","0","0.450467300004675","0.378409299999475","0.445512899997993","1","1","1","1","1","1","1","1","1"
"260052","img/object_images/cup01.jpg","img/object_images/tool13.jpg","img/object_images/tool20.jpg","1","1","0","0","1","0","0.445512899997993","0.450467300004675","0.424690500003635","1","1","1","1","1","1","1","1","1"
"260052","img/object_images/tool20.jpg","img/object_images/cup01.jpg","img/object_images/hat13.jpg","0","1","1","0","0","1","0.424690500003635","0.445512899997993","0.360682899990934","1","1","1","1","1","1","1","1","1"
"260052","img/object_images/hat13.jpg","img/object_images/tool20.jpg","img/object_images/glasses03.jpg","1","0","1","1","0","0","0.360682899990934","0.424690500003635","0.53126620000694","1","1","1","1","1","1","1","1","1"
"260052","img/object_images/glasses03.jpg","img/object_images/hat13.jpg","img/object_images/socks01.jpg","1","1","1","0","1","1","0.53126620000694","0.360682899990934","0.393702200002735","1","1","1","1","1","1","1","1","1"
"260052","img/object_images/socks01.jpg","img/object_images/glasses03.jpg","img/object_images/sink_filter01 (1).jpg","1","1","1","1","0","0","0.393702200002735","0.53126620000694","0.616856499997084","1","1","1","1","1","1","1","1","1"
"260052","img/object_images/sink_filter01 (1).jpg","img/object_images/socks01.jpg","img/object_images/candle02.jpg","1","1","1","0","1","0","0.616856499997084","0.393702200002735","0.499133999997866","1","1","1","1","1","1","1","1","1"
"260052","img/object_images/candle02.jpg","img/object_images/sink_filter01 (1).jpg","img/object_images/dust_pan01.jpg","1","1","1","0","0","1","0.499133999997866","0.616856499997084","0.404423599989968","1","1","1","1","1","1","1","1","1"
"260052","img/object_images/dust_pan01.jpg","img/object_images/candle02.jpg","img/object_images/ruler02.jpg","1","1","1","1","0","1","0.404423599989968","0.499133999997866","0.503493299998809","1","1","1","1","1","1","1","1","1"
"260052","img/object_images/ruler02.jpg","img/object_images/dust_pan01.jpg","img/object_images/pan03.jpg","1","1","1","1","1","1","0.503493299998809","0.404423599989968","0.465416399994865","1","1","1","1","1","1","1","1","1"
"260052","img/object_images/pan03.jpg","img/object_images/ruler02.jpg","img/object_images/pen06.jpg","1","1","1","1","1","0","0.465416399994865","0.503493299998809","0.401382800002466","1","1","1","1","1","1","1","1","1"
"260052","img/object_images/pen06.jpg","img/object_images/pan03.jpg","img/object_images/bow_tie03.jpg","1","1","1","0","1","1","0.401382800002466","0.465416399994865","0.382105700002285","1","1","1","1","1","1","1","1","1"
"260052","img/object_images/bow_tie03.jpg","img/object_images/pen06.jpg","img/object_images/spray_can01.jpg","1","1","1","1","0","0","0.382105700002285","0.401382800002466","0.482502400001977","1","1","1","1","1","1","1","1","1"
"260052","img/object_images/spray_can01.jpg","img/object_images/bow_tie03.jpg",NA,"1","1",NA,"0","1",NA,"0.482502400001977","0.382105700002285",NA,"1","1",NA,"1","1",NA,"1","1",NA
"260052","img/object_images/pen01.jpg",NA,"img/object_images/Violin01.jpg","1",NA,"1","0",NA,"0","0.545118699999875",NA,"0.40390400000615","1",NA,"1","1",NA,"1","1",NA,"1"
"260052","img/object_images/Violin01.jpg","img/object_images/pen01.jpg","img/object_images/computer_mouse01.jpg","1","1","1","0","0","1","0.40390400000615","0.545118699999875","0.386837199999718","1","1","1","1","1","1","1","1","1"
"260052","img/object_images/computer_mouse01.jpg","img/object_images/Violin01.jpg","img/object_images/toy01.jpg","1","1","1","1","0","1","0.386837199999718","0.40390400000615","0.382790499992552","1","1","1","1","1","1","1","1","1"
"260052","img/object_images/toy01.jpg","img/object_images/computer_mouse01.jpg","img/object_images/skate_board01.jpg","1","1","1","1","1","0","0.382790499992552","0.386837199999718","0.427455800003372","1","1","1","1","1","1","1","1","1"
"260052","img/object_images/skate_board01.jpg","img/object_images/toy01.jpg","img/object_images/computer_mouse02.jpg","1","1","1","0","1","0","0.427455800003372","0.382790499992552","0.415010199998505","1","1","1","1","1","1","1","1","1"
"260052","img/object_images/computer_mouse02.jpg","img/object_images/skate_board01.jpg","img/object_images/rock02.jpg","1","1","0","0","0","0","0.415010199998505","0.427455800003372","0.362927000009222","1","1","1","1","1","1","1","1","2"
"260052","img/object_images/rock02.jpg","img/object_images/computer_mouse02.jpg","img/object_images/tripod01.jpg","0","1","1","0","0","1","0.362927000009222","0.415010199998505","0.472928199989838","1","1","1","1","1","1","2","1","1"
"260052","img/object_images/tripod01.jpg","img/object_images/rock02.jpg","img/object_images/blender01.jpg","1","0","0","1","0","0","0.472928199989838","0.362927000009222","0.460737399989739","1","1","1","1","1","1","1","2","2"
"260052","img/object_images/blender01.jpg","img/object_images/tripod01.jpg","img/object_images/shoes12.jpg","0","1","1","0","1","1","0.460737399989739","0.472928199989838","0.420478300002287","1","1","1","1","1","1","2","1","1"
"260052","img/object_images/shoes12.jpg","img/object_images/blender01.jpg","img/object_images/soap03.jpg","1","0","1","1","0","0","0.420478300002287","0.460737399989739","0.469219599995995","1","1","1","1","1","1","1","2","1"
"260052","img/object_images/soap03.jpg","img/object_images/shoes12.jpg","img/object_images/book02.jpg","1","1","1","0","1","1","0.469219599995995","0.420478300002287","0.374469899994438","1","1","1","1","1","1","1","1","1"
"260052","img/object_images/book02.jpg","img/object_images/soap03.jpg","img/object_images/fork02.jpg","1","1","1","1","0","0","0.374469899994438","0.469219599995995","0.562089999992168","1","1","1","1","1","1","1","1","1"
"260052","img/object_images/fork02.jpg","img/object_images/book02.jpg","img/object_images/toothbrush01.jpg","1","1","0","0","1","0","0.562089999992168","0.374469899994438","0.299747999990359","1","1","1","1","1","1","1","1","1"
"260052","img/object_images/toothbrush01.jpg","img/object_images/fork02.jpg","img/object_images/chain01.jpg","0","1","1","0","0","0","0.299747999990359","0.562089999992168","0.422516399994492","1","1","1","1","1","1","1","1","1"
"260052","img/object_images/chain01.jpg","img/object_images/toothbrush01.jpg","img/object_images/airfryer02.jpg","1","0","1","0","0","1","0.422516399994492","0.299747999990359","0.412390900004539","1","1","1","1","1","1","1","1","1"
"260052","img/object_images/airfryer02.jpg","img/object_images/chain01.jpg","img/object_images/box03.jpg","1","1","1","1","0","0","0.412390900004539","0.422516399994492","0.362018100000569","1","1","1","1","1","1","1","1","1"
"260052","img/object_images/box03.jpg","img/object_images/airfryer02.jpg","img/object_images/hair_brush01.jpg","1","1","1","0","1","1","0.362018100000569","0.412390900004539","0.427714700010256","1","1","1","1","1","1","1","1","1"
"260052","img/object_images/hair_brush01.jpg","img/object_images/box03.jpg","img/object_images/tool06.jpg","1","1","1","1","0","0","0.427714700010256","0.362018100000569","0.371572999996715","1","1","1","1","1","1","1","1","1"
"260052","img/object_images/tool06.jpg","img/object_images/hair_brush01.jpg","img/object_images/couch01.jpg","1","1","1","0","1","0","0.371572999996715","0.427714700010256","0.347099600010552","1","1","1","1","1","1","1","1","1"
"260052","img/object_images/couch01.jpg","img/object_images/tool06.jpg","img/object_images/floss02.jpg","1","1","1","0","0","1","0.347099600010552","0.371572999996715","0.343849500000942","1","1","1","1","1","1","1","1","1"
"260052","img/object_images/floss02.jpg","img/object_images/couch01.jpg","img/object_images/mail_box02.jpg","1","1","1","1","0","1","0.343849500000942","0.347099600010552","0.40960030000133","1","1","1","1","1","1","1","1","1"
"260052","img/object_images/mail_box02.jpg","img/object_images/floss02.jpg","img/object_images/pitcher09.jpg","1","1","1","1","1","1","0.40960030000133","0.343849500000942","0.373136800000793","1","1","1","1","1","1","1","1","1"
"260052","img/object_images/pitcher09.jpg","img/object_images/mail_box02.jpg","img/object_images/video_game03.jpg","1","1","1","1","1","1","0.373136800000793","0.40960030000133","0.428294400000595","1","1","1","1","1","1","1","1","1"
"260052","img/object_images/video_game03.jpg","img/object_images/pitcher09.jpg","img/object_images/drone01.jpg","1","1","1","1","1","1","0.428294400000595","0.373136800000793","0.310571800000616","1","1","1","1","1","1","1","1","1"
"260052","img/object_images/drone01.jpg","img/object_images/video_game03.jpg","img/object_images/Trowel01.jpg","1","1","1","1","1","0","0.310571800000616","0.428294400000595","0.467778399994131","1","1","1","1","1","1","1","1","1"
"260052","img/object_images/Trowel01.jpg","img/object_images/drone01.jpg","img/object_images/scarf01.jpg","1","1","1","0","1","1","0.467778399994131","0.310571800000616","0.438274800006184","1","1","1","1","1","1","1","1","1"
"260052","img/object_images/scarf01.jpg","img/object_images/Trowel01.jpg","img/object_images/bag_pipes01.jpg","1","1","1","1","0","1","0.438274800006184","0.467778399994131","0.342637499998091","1","1","1","1","1","1","1","1","1"
"260052","img/object_images/bag_pipes01.jpg","img/object_images/scarf01.jpg","img/object_images/clip04.jpg","1","1","1","1","1","1","0.342637499998091","0.438274800006184","0.395352899999125","1","1","1","1","1","1","1","1","1"
"260052","img/object_images/clip04.jpg","img/object_images/bag_pipes01.jpg","img/object_images/chair06.jpg","1","1","1","1","1","0","0.395352899999125","0.342637499998091","0.580666499998188","1","1","1","1","1","1","1","1","1"
"260052","img/object_images/chair06.jpg","img/object_images/clip04.jpg","img/object_images/egg_slicer01.jpg","1","1","1","0","1","1","0.580666499998188","0.395352899999125","0.463583899996593","1","1","1","1","1","1","1","1","1"
"260052","img/object_images/egg_slicer01.jpg","img/object_images/chair06.jpg","img/object_images/bell03.jpg","1","1","0","1","0","0","0.463583899996593","0.580666499998188","0.306049399994663","1","1","1","1","1","1","1","1","1"
"260052","img/object_images/bell03.jpg","img/object_images/egg_slicer01.jpg",NA,"0","1",NA,"0","1",NA,"0.306049399994663","0.463583899996593",NA,"1","1",NA,"1","1",NA,"1","1",NA
"260052","img/object_images/container01.jpg",NA,"img/object_images/brief_case01.jpg","1",NA,"1","0",NA,"0","0.539966199998162",NA,"0.43923740000173","1",NA,"1","1",NA,"1","1",NA,"1"
"260052","img/object_images/brief_case01.jpg","img/object_images/container01.jpg","img/object_images/car02.jpg","1","1","0","0","0","0","0.43923740000173","0.539966199998162","0.548281799987308","1","1","1","1","1","1","1","1","1"
"260052","img/object_images/car02.jpg","img/object_images/brief_case01.jpg","img/object_images/chair01.jpg","0","1","1","0","0","0","0.548281799987308","0.43923740000173","0.581078099989099","1","1","1","1","1","1","1","1","1"
"260052","img/object_images/chair01.jpg","img/object_images/car02.jpg","img/object_images/toy_train02.jpg","1","0","1","0","0","1","0.581078099989099","0.548281799987308","0.352939599993988","1","1","1","1","1","1","1","1","1"
"260052","img/object_images/toy_train02.jpg","img/object_images/chair01.jpg","img/object_images/basketball_hoop02.jpg","1","1","1","1","0","0","0.352939599993988","0.581078099989099","0.518393899998046","1","1","1","1","1","1","1","1","1"
"260052","img/object_images/basketball_hoop02.jpg","img/object_images/toy_train02.jpg","img/object_images/lamp01.jpg","1","1","1","0","1","1","0.518393899998046","0.352939599993988","0.330186000006506","1","1","1","1","1","1","1","1","1"
"260052","img/object_images/lamp01.jpg","img/object_images/basketball_hoop02.jpg","img/object_images/ironing_table02.jpg","1","1","1","1","0","0","0.330186000006506","0.518393899998046","0.39302509999834","1","1","1","1","1","1","1","1","1"
"260052","img/object_images/ironing_table02.jpg","img/object_images/lamp01.jpg","img/object_images/brief_case02.jpg","1","1","1","0","1","1","0.39302509999834","0.330186000006506","0.412348500001826","1","1","1","1","1","1","1","1","1"
"260052","img/object_images/brief_case02.jpg","img/object_images/ironing_table02.jpg","img/object_images/lantern01.jpg","1","1","1","1","0","1","0.412348500001826","0.39302509999834","0.495000099996105","1","1","1","1","1","1","1","1","1"
"260052","img/object_images/lantern01.jpg","img/object_images/brief_case02.jpg","img/object_images/Woopie01.jpg","1","1","1","1","1","1","0.495000099996105","0.412348500001826","0.43533269999898","1","1","1","1","1","1","1","1","1"
"260052","img/object_images/Woopie01.jpg","img/object_images/lantern01.jpg","img/object_images/broom01.jpg","1","1","1","1","1","1","0.43533269999898","0.495000099996105","0.398404799998389","1","1","1","1","1","1","1","1","1"
"260052","img/object_images/broom01.jpg","img/object_images/Woopie01.jpg","img/object_images/pitcher03.jpg","1","1","1","1","1","1","0.398404799998389","0.43533269999898","0.456445899995742","1","1","1","1","1","1","1","1","1"
"260052","img/object_images/pitcher03.jpg","img/object_images/broom01.jpg","img/object_images/toilet_paper01.jpg","1","1","1","1","1","1","0.456445899995742","0.398404799998389","0.452299600001425","1","1","1","1","1","1","1","1","1"
"260052","img/object_images/toilet_paper01.jpg","img/object_images/pitcher03.jpg","img/object_images/drone02.jpg","1","1","1","1","1","0","0.452299600001425","0.456445899995742","0.415639200000442","1","1","1","1","1","1","1","1","1"
"260052","img/object_images/drone02.jpg","img/object_images/toilet_paper01.jpg","img/object_images/helmet05.jpg","1","1","1","0","1","1","0.415639200000442","0.452299600001425","0.4556348999904","1","1","1","1","1","1","1","1","1"
"260052","img/object_images/helmet05.jpg","img/object_images/drone02.jpg","img/object_images/bottle12.jpg","1","1","1","1","0","1","0.4556348999904","0.415639200000442","0.411673599999631","1","1","1","1","1","1","1","1","1"
"260052","img/object_images/bottle12.jpg","img/object_images/helmet05.jpg","img/object_images/ball01.jpg","1","1","1","1","1","1","0.411673599999631","0.4556348999904","0.44934849999845","1","1","1","1","1","1","1","1","1"
"260052","img/object_images/ball01.jpg","img/object_images/bottle12.jpg","img/object_images/cochlear_implant01.jpg","1","1","1","1","1","0","0.44934849999845","0.411673599999631","0.413229599987972","1","1","1","1","1","1","1","1","1"
"260052","img/object_images/cochlear_implant01.jpg","img/object_images/ball01.jpg","img/object_images/pot01.jpg","1","1","1","0","1","0","0.413229599987972","0.44934849999845","0.458136300003389","1","1","1","1","1","1","1","1","1"
"260052","img/object_images/pot01.jpg","img/object_images/cochlear_implant01.jpg","img/object_images/tie01.jpg","1","1","1","0","0","0","0.458136300003389","0.413229599987972","0.508705200001714","1","1","1","1","1","1","1","1","1"
"260052","img/object_images/tie01.jpg","img/object_images/pot01.jpg","img/object_images/Wisk01.jpg","1","1","1","0","0","1","0.508705200001714","0.458136300003389","0.477427200006787","1","1","1","1","1","1","1","1","1"
"260052","img/object_images/Wisk01.jpg","img/object_images/tie01.jpg","img/object_images/soap01.jpg","1","1","0","1","0","0","0.477427200006787","0.508705200001714","0.428831699988223","1","1","1","1","1","1","1","1","1"
"260052","img/object_images/soap01.jpg","img/object_images/Wisk01.jpg","img/object_images/gloves05.jpg","0","1","1","0","1","1","0.428831699988223","0.477427200006787","0.339947300002677","1","1","1","1","1","1","1","1","1"
"260052","img/object_images/gloves05.jpg","img/object_images/soap01.jpg","img/object_images/hat02.jpg","1","0","0","1","0","0","0.339947300002677","0.428831699988223","0.501344400006928","1","1","1","1","1","1","1","1","1"
"260052","img/object_images/hat02.jpg","img/object_images/gloves05.jpg","img/object_images/razor03.jpg","0","1","1","0","1","0","0.501344400006928","0.339947300002677","0.652006799995434","1","1","1","1","1","1","1","1","1"
"260052","img/object_images/razor03.jpg","img/object_images/hat02.jpg","img/object_images/couch04.jpg","1","0","1","0","0","1","0.652006799995434","0.501344400006928","0.428227199998219","1","1","1","1","1","1","1","1","1"
"260052","img/object_images/couch04.jpg","img/object_images/razor03.jpg","img/object_images/video_game06.jpg","1","1","1","1","0","0","0.428227199998219","0.652006799995434","0.446707899987814","1","1","1","1","1","1","1","1","1"
"260052","img/object_images/video_game06.jpg","img/object_images/couch04.jpg","img/object_images/Recycling01.jpg","1","1","1","0","1","1","0.446707899987814","0.428227199998219","0.480551999993622","1","1","1","1","1","1","1","1","1"
"260052","img/object_images/Recycling01.jpg","img/object_images/video_game06.jpg","img/object_images/airfryer01.jpg","1","1","0","1","0","0","0.480551999993622","0.446707899987814","0.577997300002608","1","1","1","1","1","1","1","1","1"
"260052","img/object_images/airfryer01.jpg","img/object_images/Recycling01.jpg","img/object_images/guitar01.jpg","0","1","1","0","1","1","0.577997300002608","0.480551999993622","0.435178900006576","1","1","1","1","1","1","1","1","1"
"260052","img/object_images/guitar01.jpg","img/object_images/airfryer01.jpg","img/object_images/decorative02.jpg","1","0","0","1","0","0","0.435178900006576","0.577997300002608","0.515224200004013","1","1","1","1","1","1","1","1","2"
"260052","img/object_images/decorative02.jpg","img/object_images/guitar01.jpg",NA,"0","1",NA,"0","1",NA,"0.515224200004013","0.435178900006576",NA,"1","1",NA,"1","1",NA,"2","1",NA
"260052","img/object_images/ironing_table01.jpg",NA,"img/object_images/Witchhat01.jpg","1",NA,"1","0",NA,"1","0.582857900008094",NA,"0.445992900000419","1",NA,"1","1",NA,"1","1",NA,"1"
"260052","img/object_images/Witchhat01.jpg","img/object_images/ironing_table01.jpg","img/object_images/camera07.jpg","1","1","1","1","0","1","0.445992900000419","0.582857900008094","0.407762400005595","1","1","1","1","1","1","1","1","1"
"260052","img/object_images/camera07.jpg","img/object_images/Witchhat01.jpg","img/object_images/bath_tub01.jpg","1","1","1","1","1","0","0.407762400005595","0.445992900000419","0.41807100000733","1","1","1","1","1","1","1","1","1"
"260052","img/object_images/bath_tub01.jpg","img/object_images/camera07.jpg","img/object_images/socks02.jpg","1","1","1","0","1","0","0.41807100000733","0.407762400005595","0.463039099995513","1","1","1","1","1","1","1","1","1"
"260052","img/object_images/socks02.jpg","img/object_images/bath_tub01.jpg","img/object_images/funnel01.jpg","1","1","1","0","0","0","0.463039099995513","0.41807100000733","0.547435800006497","1","1","1","1","1","1","1","1","1"
"260052","img/object_images/funnel01.jpg","img/object_images/socks02.jpg","img/object_images/gift_box01.jpg","1","1","1","0","0","1","0.547435800006497","0.463039099995513","0.391497000004165","1","1","1","1","1","1","1","1","1"
"260052","img/object_images/gift_box01.jpg","img/object_images/funnel01.jpg","img/object_images/paper_cup01.jpg","1","1","1","1","0","0","0.391497000004165","0.547435800006497","0.48696409999684","1","1","1","1","1","1","1","1","1"
"260052","img/object_images/paper_cup01.jpg","img/object_images/gift_box01.jpg","img/object_images/pitcher02.jpg","1","1","1","0","1","1","0.48696409999684","0.391497000004165","0.390548600000329","1","1","1","1","1","1","1","1","1"
"260052","img/object_images/pitcher02.jpg","img/object_images/paper_cup01.jpg","img/object_images/jacket03.jpg","1","1","1","1","0","0","0.390548600000329","0.48696409999684","0.400950199997169","1","1","1","1","1","1","1","1","1"
"260052","img/object_images/jacket03.jpg","img/object_images/pitcher02.jpg","img/object_images/lock04.jpg","1","1","1","0","1","1","0.400950199997169","0.390548600000329","0.464931700000307","1","1","1","1","1","1","1","1","1"
"260052","img/object_images/lock04.jpg","img/object_images/jacket03.jpg","img/object_images/sleeping_bag01.jpg","1","1","1","1","0","0","0.464931700000307","0.400950199997169","0.475147399993148","1","1","1","1","1","1","1","1","1"
"260052","img/object_images/sleeping_bag01.jpg","img/object_images/lock04.jpg","img/object_images/clip02.jpg","1","1","1","0","1","1","0.475147399993148","0.464931700000307","0.391508899992914","1","1","1","1","1","1","1","1","1"
"260052","img/object_images/clip02.jpg","img/object_images/sleeping_bag01.jpg","img/object_images/lawn_mower01.jpg","1","1","1","1","0","1","0.391508899992914","0.475147399993148","0.391373300008126","1","1","1","1","1","1","1","1","1"
"260052","img/object_images/lawn_mower01.jpg","img/object_images/clip02.jpg","img/object_images/golf_ball03.jpg","1","1","1","1","1","1","0.391373300008126","0.391508899992914","0.445036300006905","1","1","1","1","1","1","1","1","1"
"260052","img/object_images/golf_ball03.jpg","img/object_images/lawn_mower01.jpg","img/object_images/fork03.jpg","1","1","1","1","1","1","0.445036300006905","0.391373300008126","0.404942799999844","1","1","1","1","1","1","1","1","1"
"260052","img/object_images/fork03.jpg","img/object_images/golf_ball03.jpg","img/object_images/coloring_pencil01.jpg","1","1","1","1","1","1","0.404942799999844","0.445036300006905","0.456002399994759","1","1","1","1","1","1","1","1","1"
"260052","img/object_images/coloring_pencil01.jpg","img/object_images/fork03.jpg","img/object_images/bow_tie01.jpg","1","1","1","1","1","0","0.456002399994759","0.404942799999844","0.445869999995921","1","1","1","1","1","1","1","1","1"
"260052","img/object_images/bow_tie01.jpg","img/object_images/coloring_pencil01.jpg","img/object_images/grater01.jpg","1","1","1","0","1","1","0.445869999995921","0.456002399994759","0.404641600005561","1","1","1","1","1","1","1","1","1"
"260052","img/object_images/grater01.jpg","img/object_images/bow_tie01.jpg","img/object_images/bow_tie02.jpg","1","1","1","1","0","0","0.404641600005561","0.445869999995921","0.418829200003529","1","1","1","1","1","1","1","1","1"
"260052","img/object_images/bow_tie02.jpg","img/object_images/grater01.jpg","img/object_images/couch03.jpg","1","1","1","0","1","0","0.418829200003529","0.404641600005561","0.449607099988498","1","1","1","1","1","1","1","1","1"
"260052","img/object_images/couch03.jpg","img/object_images/bow_tie02.jpg","img/object_images/vga_port 01.jpg","1","1","0","0","0","0","0.449607099988498","0.418829200003529","0.408396900005755","1","1","1","1","1","1","1","1","1"
"260052","img/object_images/vga_port 01.jpg","img/object_images/couch03.jpg","img/object_images/measuring_tape02.jpg","0","1","1","0","0","1","0.408396900005755","0.449607099988498","0.391635000007227","1","1","1","1","1","1","1","1","1"
"260052","img/object_images/measuring_tape02.jpg","img/object_images/vga_port 01.jpg","img/object_images/gift_box03.jpg","1","0","1","1","0","0","0.391635000007227","0.408396900005755","0.419813000000431","1","1","1","1","1","1","1","1","1"
"260052","img/object_images/gift_box03.jpg","img/object_images/measuring_tape02.jpg","img/object_images/balloon01.jpg","1","1","1","0","1","0","0.419813000000431","0.391635000007227","0.368598300003214","1","1","1","1","1","1","1","1","1"
"260052","img/object_images/balloon01.jpg","img/object_images/gift_box03.jpg","img/object_images/dresser04.jpg","1","1","0","0","0","0","0.368598300003214","0.419813000000431","0.584883200004697","1","1","1","1","1","1","1","1","1"
"260052","img/object_images/dresser04.jpg","img/object_images/balloon01.jpg","img/object_images/gift_box02.jpg","0","1","1","0","0","1","0.584883200004697","0.368598300003214","0.413901899999473","1","1","1","1","1","1","1","1","1"
"260052","img/object_images/gift_box02.jpg","img/object_images/dresser04.jpg","img/object_images/handkerchief01.jpg","1","0","1","1","0","0","0.413901899999473","0.584883200004697","0.511316700009047","1","1","1","1","1","1","1","1","1"
"260052","img/object_images/handkerchief01.jpg","img/object_images/gift_box02.jpg","img/object_images/Screws01.jpg","1","1","1","0","1","1","0.511316700009047","0.413901899999473","0.41855800000485","1","1","1","1","1","1","1","1","1"
"260052","img/object_images/Screws01.jpg","img/object_images/handkerchief01.jpg","img/object_images/jewelry01.jpg","1","1","1","1","0","1","0.41855800000485","0.511316700009047","0.472327100011171","1","1","1","1","1","1","1","1","1"
"260052","img/object_images/jewelry01.jpg","img/object_images/Screws01.jpg","img/object_images/wallet02.jpg","1","1","1","1","1","1","0.472327100011171","0.41855800000485","0.440086600006907","1","1","1","1","1","1","1","1","1"
"260052","img/object_images/wallet02.jpg","img/object_images/jewelry01.jpg","img/object_images/hammer01.jpg","1","1","1","1","1","0","0.440086600006907","0.472327100011171","0.510197199997492","1","1","1","1","1","1","1","1","1"
"260052","img/object_images/hammer01.jpg","img/object_images/wallet02.jpg",NA,"1","1",NA,"0","1",NA,"0.510197199997492","0.440086600006907",NA,"1","1",NA,"1","1",NA,"1","1",NA
"260052","img/object_images/WitchHat02.jpg",NA,"img/object_images/screwdriver01.jpg","1",NA,"1","1",NA,"0","0.498014400000102",NA,"0.626149100004113","1",NA,"1","1",NA,"1","1",NA,"1"
"260052","img/object_images/screwdriver01.jpg","img/object_images/WitchHat02.jpg","img/object_images/lemon_squeezer02.jpg","1","1","1","0","1","1","0.626149100004113","0.498014400000102","0.318592299998272","1","1","1","1","1","1","1","1","1"
"260052","img/object_images/lemon_squeezer02.jpg","img/object_images/screwdriver01.jpg","img/object_images/hair_brush05.jpg","1","1","1","1","0","1","0.318592299998272","0.626149100004113","0.377776999986963","1","1","1","1","1","1","1","1","1"
"260052","img/object_images/hair_brush05.jpg","img/object_images/lemon_squeezer02.jpg","img/object_images/ice_tray03.jpg","1","1","1","1","1","1","0.377776999986963","0.318592299998272","0.40230660000816","1","1","1","1","1","1","1","1","1"
"260052","img/object_images/ice_tray03.jpg","img/object_images/hair_brush05.jpg","img/object_images/slinky_toy01.jpg","1","1","1","1","1","1","0.40230660000816","0.377776999986963","0.414188900002046","1","1","1","1","1","1","1","1","1"
"260052","img/object_images/slinky_toy01.jpg","img/object_images/ice_tray03.jpg","img/object_images/shoes10.jpg","1","1","1","1","1","0","0.414188900002046","0.40230660000816","0.496312500006752","1","1","1","1","1","1","1","1","1"
"260052","img/object_images/shoes10.jpg","img/object_images/slinky_toy01.jpg","img/object_images/jewel01.jpg","1","1","1","0","1","0","0.496312500006752","0.414188900002046","0.462054799994803","1","1","1","1","1","1","1","1","1"
"260052","img/object_images/jewel01.jpg","img/object_images/shoes10.jpg","img/object_images/fan05.jpg","1","1","1","0","0","0","0.462054799994803","0.496312500006752","0.426170399994589","1","1","1","1","1","1","1","1","1"
"260052","img/object_images/fan05.jpg","img/object_images/jewel01.jpg","img/object_images/binoculars03.jpg","1","1","1","0","0","1","0.426170399994589","0.462054799994803","0.401419199988595","1","1","1","1","1","1","1","1","1"
"260052","img/object_images/binoculars03.jpg","img/object_images/fan05.jpg","img/object_images/car04.jpg","1","1","1","1","0","0","0.401419199988595","0.426170399994589","0.45946530000947","1","1","1","1","1","1","1","1","1"
"260052","img/object_images/car04.jpg","img/object_images/binoculars03.jpg","img/object_images/cutting_board01.jpg","1","1","1","0","1","1","0.45946530000947","0.401419199988595","0.468914700002642","1","1","1","1","1","1","1","1","1"
"260052","img/object_images/cutting_board01.jpg","img/object_images/car04.jpg","img/object_images/key02.jpg","1","1","1","1","0","1","0.468914700002642","0.45946530000947","0.397543200000655","1","1","1","1","1","1","1","1","1"
"260052","img/object_images/key02.jpg","img/object_images/cutting_board01.jpg","img/object_images/MeasuringCup01.jpg","1","1","1","1","1","1","0.397543200000655","0.468914700002642","0.42894779999915","1","1","1","1","1","1","1","1","1"
"260052","img/object_images/MeasuringCup01.jpg","img/object_images/key02.jpg","img/object_images/tv01.jpg","1","1","0","1","1","0","0.42894779999915","0.397543200000655","0.437388799997279","1","1","1","1","1","1","1","1","1"
"260052","img/object_images/tv01.jpg","img/object_images/MeasuringCup01.jpg","img/object_images/yarn02.jpg","0","1","1","0","1","0","0.437388799997279","0.42894779999915","0.575438200001372","1","1","1","1","1","1","1","1","1"
"260052","img/object_images/yarn02.jpg","img/object_images/tv01.jpg","img/object_images/mask01.jpg","1","0","1","0","0","0","0.575438200001372","0.437388799997279","0.539627600010135","1","1","1","1","1","1","1","1","1"
"260052","img/object_images/mask01.jpg","img/object_images/yarn02.jpg","img/object_images/car03.jpg","1","1","1","0","0","0","0.539627600010135","0.575438200001372","0.448128899995936","1","1","1","1","1","1","1","1","1"
"260052","img/object_images/car03.jpg","img/object_images/mask01.jpg","img/object_images/shower_head03.jpg","1","1","1","0","0","1","0.448128899995936","0.539627600010135","0.451610199990682","1","1","1","1","1","1","1","1","1"
"260052","img/object_images/shower_head03.jpg","img/object_images/car03.jpg","img/object_images/dress03.jpg","1","1","1","1","0","1","0.451610199990682","0.448128899995936","0.451129099994432","1","1","1","1","1","1","1","1","1"
"260052","img/object_images/dress03.jpg","img/object_images/shower_head03.jpg","img/object_images/jewelry07.jpg","1","1","1","1","1","1","0.451129099994432","0.451610199990682","0.426956399998744","1","1","1","1","1","1","1","1","1"
"260052","img/object_images/jewelry07.jpg","img/object_images/dress03.jpg","img/object_images/chair04.jpg","1","1","1","1","1","1","0.426956399998744","0.451129099994432","0.428189400001429","1","1","1","1","1","1","1","1","1"
"260052","img/object_images/chair04.jpg","img/object_images/jewelry07.jpg","img/object_images/ladle02.jpg","1","1","1","1","1","0","0.428189400001429","0.426956399998744","0.482472300005611","1","1","1","1","1","1","1","1","1"
"260052","img/object_images/ladle02.jpg","img/object_images/chair04.jpg","img/object_images/rock03.jpg","1","1","0","0","1","0","0.482472300005611","0.428189400001429","0.393482500003302","1","1","1","1","1","1","1","1","1"
"260052","img/object_images/rock03.jpg","img/object_images/ladle02.jpg","img/object_images/razor01.jpg","0","1","1","0","0","0","0.393482500003302","0.482472300005611","0.457223199991859","1","1","1","1","1","1","1","1","1"
"260052","img/object_images/razor01.jpg","img/object_images/rock03.jpg","img/object_images/toaster02.jpg","1","0","1","0","0","1","0.457223199991859","0.393482500003302","0.452585999999428","1","1","1","1","1","1","1","1","1"
"260052","img/object_images/toaster02.jpg","img/object_images/razor01.jpg","img/object_images/ribbon01.jpg","1","1","1","1","0","0","0.452585999999428","0.457223199991859","0.476423200001591","1","1","1","1","1","1","1","1","1"
"260052","img/object_images/ribbon01.jpg","img/object_images/toaster02.jpg","img/object_images/satellite01.jpg","1","1","1","0","1","0","0.476423200001591","0.452585999999428","0.469739399995888","1","1","1","1","1","1","1","1","1"
"260052","img/object_images/satellite01.jpg","img/object_images/ribbon01.jpg","img/object_images/belt01.jpg","1","1","1","0","0","0","0.469739399995888","0.476423200001591","0.420181800000137","1","1","1","1","1","1","1","1","1"
"260052","img/object_images/belt01.jpg","img/object_images/satellite01.jpg","img/object_images/cards01.jpg","1","1","1","0","0","0","0.420181800000137","0.469739399995888","0.476940900000045","1","1","1","1","1","1","1","1","1"
"260052","img/object_images/cards01.jpg","img/object_images/belt01.jpg","img/object_images/tool11.jpg","1","1","1","0","0","1","0.476940900000045","0.420181800000137","0.421253599997726","1","1","1","1","1","1","1","1","1"
"260052","img/object_images/tool11.jpg","img/object_images/cards01.jpg","img/object_images/bag06.jpg","1","1","1","1","0","1","0.421253599997726","0.476940900000045","0.447548800002551","1","1","1","1","1","1","1","1","1"
"260052","img/object_images/bag06.jpg","img/object_images/tool11.jpg",NA,"1","1",NA,"1","1",NA,"0.447548800002551","0.421253599997726",NA,"1","1",NA,"1","1",NA,"1","1",NA
"260052","img/object_images/keyboard02.jpg",NA,"img/object_images/remover01.jpg","1",NA,"0","1",NA,"1","0.3903091000102",NA,"0.455105300003197","1",NA,"1","1",NA,"1","1",NA,"2"
"260052","img/object_images/remover01.jpg","img/object_images/keyboard02.jpg","img/object_images/toy08.jpg","0","1","0","1","1","0","0.455105300003197","0.3903091000102","0.502394200011622","1","1","1","1","1","1","2","1","1"
"260052","img/object_images/toy08.jpg","img/object_images/remover01.jpg","img/object_images/matches02.jpg","0","0","1","0","1","0","0.502394200011622","0.455105300003197","0.455167500011157","1","1","1","1","1","1","1","2","1"
"260052","img/object_images/matches02.jpg","img/object_images/toy08.jpg","img/object_images/kite01.jpg","1","0","1","0","0","1","0.455167500011157","0.502394200011622","0.443791300000157","1","1","1","1","1","1","1","1","1"
"260052","img/object_images/kite01.jpg","img/object_images/matches02.jpg","img/object_images/knit03.jpg","1","1","1","1","0","1","0.443791300000157","0.455167500011157","0.326641899999231","1","1","1","1","1","1","1","1","1"
"260052","img/object_images/knit03.jpg","img/object_images/kite01.jpg","img/object_images/mail_box01.jpg","1","1","1","1","1","0","0.326641899999231","0.443791300000157","0.385890899997321","1","1","1","1","1","1","1","1","1"
"260052","img/object_images/mail_box01.jpg","img/object_images/knit03.jpg","img/object_images/blender02.jpg","1","1","1","0","1","1","0.385890899997321","0.326641899999231","0.451145300001372","1","1","1","1","1","1","1","1","1"
"260052","img/object_images/blender02.jpg","img/object_images/mail_box01.jpg","img/object_images/stereo02.jpg","1","1","1","1","0","0","0.451145300001372","0.385890899997321","0.419627399998717","1","1","1","1","1","1","1","1","1"
"260052","img/object_images/stereo02.jpg","img/object_images/blender02.jpg","img/object_images/shower_head01.jpg","1","1","1","0","1","1","0.419627399998717","0.451145300001372","0.474990299990168","1","1","1","1","1","1","1","1","1"
"260052","img/object_images/shower_head01.jpg","img/object_images/stereo02.jpg","img/object_images/boat04.jpg","1","1","1","1","0","0","0.474990299990168","0.419627399998717","0.490058499999577","1","1","1","1","1","1","1","1","1"
"260052","img/object_images/boat04.jpg","img/object_images/shower_head01.jpg","img/object_images/camera03.jpg","1","1","1","0","1","0","0.490058499999577","0.474990299990168","0.439053899986902","1","1","1","1","1","1","1","1","1"
"260052","img/object_images/camera03.jpg","img/object_images/boat04.jpg","img/object_images/gloves02.jpg","1","1","0","0","0","0","0.439053899986902","0.490058499999577","0.453564999988885","1","1","1","1","1","1","1","1","1"
"260052","img/object_images/gloves02.jpg","img/object_images/camera03.jpg","img/object_images/hoverboard01.jpg","0","1","1","0","0","0","0.453564999988885","0.439053899986902","0.415209800004959","1","1","1","1","1","1","1","1","1"
"260052","img/object_images/hoverboard01.jpg","img/object_images/gloves02.jpg","img/object_images/sponge03.jpg","1","0","1","0","0","1","0.415209800004959","0.453564999988885","0.407812200006447","1","1","1","1","1","1","1","1","1"
"260052","img/object_images/sponge03.jpg","img/object_images/hoverboard01.jpg","img/object_images/car01.jpg","1","1","1","1","0","1","0.407812200006447","0.415209800004959","0.359109099998022","1","1","1","1","1","1","1","1","1"
"260052","img/object_images/car01.jpg","img/object_images/sponge03.jpg","img/object_images/knife02.jpg","1","1","1","1","1","0","0.359109099998022","0.407812200006447","0.511150599995744","1","1","1","1","1","1","1","1","1"
"260052","img/object_images/knife02.jpg","img/object_images/car01.jpg","img/object_images/dresser03.jpg","1","1","0","0","1","0","0.511150599995744","0.359109099998022","0.378910800005542","1","1","1","1","1","1","1","1","1"
"260052","img/object_images/dresser03.jpg","img/object_images/knife02.jpg","img/object_images/backpack01.jpg","0","1","1","0","0","0","0.378910800005542","0.511150599995744","0.41492740000831","1","1","1","1","1","1","1","1","1"
"260052","img/object_images/backpack01.jpg","img/object_images/dresser03.jpg","img/object_images/Statue01.jpg","1","0","1","0","0","1","0.41492740000831","0.378910800005542","0.388179899993702","1","1","1","1","1","1","1","1","1"
"260052","img/object_images/Statue01.jpg","img/object_images/backpack01.jpg","img/object_images/bottle07.jpg","1","1","1","1","0","1","0.388179899993702","0.41492740000831","0.438901099987561","1","1","1","1","1","1","1","1","1"
"260052","img/object_images/bottle07.jpg","img/object_images/Statue01.jpg","img/object_images/tool18.jpg","1","1","1","1","1","0","0.438901099987561","0.388179899993702","0.376591199994436","1","1","1","1","1","1","1","1","1"
"260052","img/object_images/tool18.jpg","img/object_images/bottle07.jpg","img/object_images/basket04.jpg","1","1","1","0","1","1","0.376591199994436","0.438901099987561","0.398708599997917","1","1","1","1","1","1","1","1","1"
"260052","img/object_images/basket04.jpg","img/object_images/tool18.jpg","img/object_images/flashlight03.jpg","1","1","1","1","0","0","0.398708599997917","0.376591199994436","0.426452100000461","1","1","1","1","1","1","1","1","1"
"260052","img/object_images/flashlight03.jpg","img/object_images/basket04.jpg","img/object_images/paper_cup02.jpg","1","1","1","0","1","1","0.426452100000461","0.398708599997917","0.453216200010502","1","1","1","1","1","1","1","1","1"
"260052","img/object_images/paper_cup02.jpg","img/object_images/flashlight03.jpg","img/object_images/phone02.jpg","1","1","1","1","0","1","0.453216200010502","0.426452100000461","0.431176500002039","1","1","1","1","1","1","1","1","1"
"260052","img/object_images/phone02.jpg","img/object_images/paper_cup02.jpg","img/object_images/curtain02.jpg","1","1","1","1","1","0","0.431176500002039","0.453216200010502","0.513518399995519","1","1","1","1","1","1","1","1","1"
"260052","img/object_images/curtain02.jpg","img/object_images/phone02.jpg","img/object_images/remote_controller01.jpg","1","1","1","0","1","1","0.513518399995519","0.431176500002039","0.379537100001471","1","1","1","1","1","1","1","1","1"
"260052","img/object_images/remote_controller01.jpg","img/object_images/curtain02.jpg","img/object_images/knit04.jpg","1","1","1","1","0","1","0.379537100001471","0.513518399995519","0.41261850000592","1","1","1","1","1","1","1","1","1"
"260052","img/object_images/knit04.jpg","img/object_images/remote_controller01.jpg","img/object_images/video_game01.jpg","1","1","1","1","1","1","0.41261850000592","0.379537100001471","0.382749399999739","1","1","1","1","1","1","1","1","1"
"260052","img/object_images/video_game01.jpg","img/object_images/knit04.jpg","img/object_images/jacket04.jpg","1","1","0","1","1","0","0.382749399999739","0.41261850000592","0.471716900006868","1","1","1","1","1","1","1","1","1"
"260052","img/object_images/jacket04.jpg","img/object_images/video_game01.jpg","img/object_images/hand_grip_exerciser01.jpg","0","1","1","0","1","0","0.471716900006868","0.382749399999739","0.43545649999578","1","1","1","1","1","1","1","1","1"
"260052","img/object_images/hand_grip_exerciser01.jpg","img/object_images/jacket04.jpg",NA,"1","0",NA,"0","0",NA,"0.43545649999578","0.471716900006868",NA,"1","1",NA,"1","1",NA,"1","1",NA
"260052","img/object_images/bottle02.jpg",NA,"img/object_images/water_scooter01.jpg","1",NA,"1","1",NA,"1","0.512618200009456",NA,"0.361824500010698","1",NA,"1","1",NA,"1","1",NA,"1"
"260052","img/object_images/water_scooter01.jpg","img/object_images/bottle02.jpg","img/object_images/knit01.jpg","1","1","1","1","1","0","0.361824500010698","0.512618200009456","0.509898799995426","1","1","1","1","1","1","1","1","1"
"260052","img/object_images/knit01.jpg","img/object_images/water_scooter01.jpg","img/object_images/bottle10.jpg","1","1","1","0","1","1","0.509898799995426","0.361824500010698","0.400526800003718","1","1","1","1","1","1","1","1","1"
"260052","img/object_images/bottle10.jpg","img/object_images/knit01.jpg","img/object_images/bean_bag02.jpg","1","1","1","1","0","1","0.400526800003718","0.509898799995426","0.447622200008482","1","1","1","1","1","1","1","1","1"
"260052","img/object_images/bean_bag02.jpg","img/object_images/bottle10.jpg","img/object_images/hat06.jpg","1","1","1","1","1","0","0.447622200008482","0.400526800003718","0.500327800007653","1","1","1","1","1","1","1","1","1"
"260052","img/object_images/hat06.jpg","img/object_images/bean_bag02.jpg","img/object_images/toilet_paper_dispenser01.jpg","1","1","1","0","1","1","0.500327800007653","0.447622200008482","0.432916899997508","1","1","1","1","1","1","1","1","1"
"260052","img/object_images/toilet_paper_dispenser01.jpg","img/object_images/hat06.jpg","img/object_images/pen05.jpg","1","1","1","1","0","0","0.432916899997508","0.500327800007653","0.364159499993548","1","1","1","1","1","1","1","1","1"
"260052","img/object_images/pen05.jpg","img/object_images/toilet_paper_dispenser01.jpg","img/object_images/tool19.jpg","1","1","1","0","1","1","0.364159499993548","0.432916899997508","0.457013699997333","1","1","1","1","1","1","1","1","1"
"260052","img/object_images/tool19.jpg","img/object_images/pen05.jpg","img/object_images/chair03.jpg","1","1","1","1","0","0","0.457013699997333","0.364159499993548","0.524521399987862","1","1","1","1","1","1","1","1","1"
"260052","img/object_images/chair03.jpg","img/object_images/tool19.jpg","img/object_images/coloring_pencil02.jpg","1","1","1","0","1","0","0.524521399987862","0.457013699997333","0.528877700009616","1","1","1","1","1","1","1","1","1"
"260052","img/object_images/coloring_pencil02.jpg","img/object_images/chair03.jpg","img/object_images/audio_port01.jpg","1","1","1","0","0","1","0.528877700009616","0.524521399987862","0.359033200002159","1","1","1","1","1","1","1","1","1"
"260052","img/object_images/audio_port01.jpg","img/object_images/coloring_pencil02.jpg","img/object_images/piggy_bank01.jpg","1","1","1","1","0","1","0.359033200002159","0.528877700009616","0.452804000000469","1","1","1","1","1","1","1","1","1"
"260052","img/object_images/piggy_bank01.jpg","img/object_images/audio_port01.jpg","img/object_images/cellphone03.jpg","1","1","1","1","1","0","0.452804000000469","0.359033200002159","0.482933699997375","1","1","1","1","1","1","1","1","1"
"260052","img/object_images/cellphone03.jpg","img/object_images/piggy_bank01.jpg","img/object_images/perfume02.jpg","1","1","1","0","1","0","0.482933699997375","0.452804000000469","0.480304299999261","1","1","1","1","1","1","1","1","1"
"260052","img/object_images/perfume02.jpg","img/object_images/cellphone03.jpg","img/object_images/boat02.jpg","1","1","1","0","0","1","0.480304299999261","0.482933699997375","0.368813499997486","1","1","1","1","1","1","1","1","1"
"260052","img/object_images/boat02.jpg","img/object_images/perfume02.jpg","img/object_images/helmet04.jpg","1","1","1","1","0","1","0.368813499997486","0.480304299999261","0.486006200007978","1","1","1","1","1","1","1","1","1"
"260052","img/object_images/helmet04.jpg","img/object_images/boat02.jpg","img/object_images/bicycle01.jpg","1","1","1","1","1","1","0.486006200007978","0.368813499997486","0.458224700007122","1","1","1","1","1","1","1","1","1"
"260052","img/object_images/bicycle01.jpg","img/object_images/helmet04.jpg","img/object_images/fan02.jpg","1","1","1","1","1","0","0.458224700007122","0.486006200007978","0.349672700001975","1","1","1","1","1","1","1","1","1"
"260052","img/object_images/fan02.jpg","img/object_images/bicycle01.jpg","img/object_images/bottle09.jpg","1","1","1","0","1","0","0.349672700001975","0.458224700007122","0.405782500005444","1","1","1","1","1","1","1","1","1"
"260052","img/object_images/bottle09.jpg","img/object_images/fan02.jpg","img/object_images/scoreboard01.jpg","1","1","1","0","0","1","0.405782500005444","0.349672700001975","0.40156250000291","1","1","1","1","1","1","1","1","1"
"260052","img/object_images/scoreboard01.jpg","img/object_images/bottle09.jpg","img/object_images/flask01.jpg","1","1","1","1","0","0","0.40156250000291","0.405782500005444","0.407534899990424","1","1","1","1","1","1","1","1","1"
"260052","img/object_images/flask01.jpg","img/object_images/scoreboard01.jpg","img/object_images/WoodBox01.jpg","1","1","1","0","1","0","0.407534899990424","0.40156250000291","0.424590100010391","1","1","1","1","1","1","1","1","1"
"260052","img/object_images/WoodBox01.jpg","img/object_images/flask01.jpg","img/object_images/wagon_cart03.jpg","1","1","1","0","0","1","0.424590100010391","0.407534899990424","0.449636399993324","1","1","1","1","1","1","1","1","1"
"260052","img/object_images/wagon_cart03.jpg","img/object_images/WoodBox01.jpg","img/object_images/dog_leash01.jpg","1","1","1","1","0","0","0.449636399993324","0.424590100010391","0.463042600007611","1","1","1","1","1","1","1","1","1"
"260052","img/object_images/dog_leash01.jpg","img/object_images/wagon_cart03.jpg","img/object_images/camera_lens01.jpg","1","1","1","0","1","1","0.463042600007611","0.449636399993324","0.414767599999323","1","1","1","1","1","1","1","1","1"
"260052","img/object_images/camera_lens01.jpg","img/object_images/dog_leash01.jpg","img/object_images/shoes07.jpg","1","1","1","1","0","0","0.414767599999323","0.463042600007611","0.469858099997509","1","1","1","1","1","1","1","1","1"
"260052","img/object_images/shoes07.jpg","img/object_images/camera_lens01.jpg","img/object_images/boat_toy10.jpg","1","1","1","0","1","0","0.469858099997509","0.414767599999323","0.464559999993071","1","1","1","1","1","1","1","1","1"
"260052","img/object_images/boat_toy10.jpg","img/object_images/shoes07.jpg","img/object_images/purse04.jpg","1","1","1","0","0","1","0.464559999993071","0.469858099997509","0.40889329998754","1","1","1","1","1","1","1","1","1"
"260052","img/object_images/purse04.jpg","img/object_images/boat_toy10.jpg","img/object_images/hot_air_balloon02.jpg","1","1","0","1","0","0","0.40889329998754","0.464559999993071","0.360734899993986","1","1","1","1","1","1","1","1","1"
"260052","img/object_images/hot_air_balloon02.jpg","img/object_images/purse04.jpg","img/object_images/toaster01.jpg","0","1","1","0","1","1","0.360734899993986","0.40889329998754","0.419429300003685","1","1","1","1","1","1","1","1","1"
"260052","img/object_images/toaster01.jpg","img/object_images/hot_air_balloon02.jpg","img/object_images/tie02.jpg","1","0","1","1","0","0","0.419429300003685","0.360734899993986","0.452410700003384","1","1","1","1","1","1","1","1","1"
"260052","img/object_images/tie02.jpg","img/object_images/toaster01.jpg",NA,"1","1",NA,"0","1",NA,"0.452410700003384","0.419429300003685",NA,"1","1",NA,"1","1",NA,"1","1",NA
"260052","img/object_images/sink01.jpg",NA,"img/object_images/gauze01.jpg","1",NA,"1","0",NA,"0","0.49985029999516",NA,"0.443315500000608","1",NA,"1","1",NA,"1","1",NA,"1"
"260052","img/object_images/gauze01.jpg","img/object_images/sink01.jpg","img/object_images/shovel03.jpg","1","1","1","0","0","1","0.443315500000608","0.49985029999516","0.401841700004297","1","1","1","1","1","1","1","1","1"
"260052","img/object_images/shovel03.jpg","img/object_images/gauze01.jpg","img/object_images/dart01.jpg","1","1","1","1","0","0","0.401841700004297","0.443315500000608","0.429262899997411","1","1","1","1","1","1","1","1","1"
"260052","img/object_images/dart01.jpg","img/object_images/shovel03.jpg","img/object_images/pot01 (1).jpg","1","1","0","0","1","0","0.429262899997411","0.401841700004297","0.336463599989656","1","1","1","1","1","1","1","1","1"
"260052","img/object_images/pot01 (1).jpg","img/object_images/dart01.jpg","img/object_images/helmet01.jpg","0","1","1","0","0","0","0.336463599989656","0.429262899997411","0.332851499988465","1","1","1","1","1","1","1","1","1"
"260052","img/object_images/helmet01.jpg","img/object_images/pot01 (1).jpg","img/object_images/crown02.jpg","1","0","1","0","0","1","0.332851499988465","0.336463599989656","0.47521949998918","1","1","1","1","1","1","1","1","1"
"260052","img/object_images/crown02.jpg","img/object_images/helmet01.jpg","img/object_images/Vacuum01.jpg","1","1","1","1","0","0","0.47521949998918","0.332851499988465","0.432438899995759","1","1","1","1","1","1","1","1","1"
"260052","img/object_images/Vacuum01.jpg","img/object_images/crown02.jpg","img/object_images/frisbee01.jpg","1","1","1","0","1","1","0.432438899995759","0.47521949998918","0.451226999997743","1","1","1","1","1","1","1","1","1"
"260052","img/object_images/frisbee01.jpg","img/object_images/Vacuum01.jpg","img/object_images/mirror01.jpg","1","1","1","1","0","1","0.451226999997743","0.432438899995759","0.450706400006311","1","1","1","1","1","1","1","1","1"
"260052","img/object_images/mirror01.jpg","img/object_images/frisbee01.jpg","img/object_images/acoustic_capo01.jpg","1","1","1","1","1","1","0.450706400006311","0.451226999997743","0.367473899998004","1","1","1","1","1","1","1","1","1"
"260052","img/object_images/acoustic_capo01.jpg","img/object_images/mirror01.jpg","img/object_images/towel02.jpg","1","1","1","1","1","1","0.367473899998004","0.450706400006311","0.407486700001755","1","1","1","1","1","1","1","1","1"
"260052","img/object_images/towel02.jpg","img/object_images/acoustic_capo01.jpg","img/object_images/watch01.jpg","1","1","0","1","1","0","0.407486700001755","0.367473899998004","0.449968600005377","1","1","1","1","1","1","1","1","1"
"260052","img/object_images/watch01.jpg","img/object_images/towel02.jpg","img/object_images/tool02.jpg","0","1","1","0","1","1","0.449968600005377","0.407486700001755","0.327077699999791","1","1","1","1","1","1","1","1","1"
"260052","img/object_images/tool02.jpg","img/object_images/watch01.jpg","img/object_images/Tin01.jpg","1","0","1","1","0","1","0.327077699999791","0.449968600005377","0.390747199999169","1","1","1","1","1","1","1","1","1"
"260052","img/object_images/Tin01.jpg","img/object_images/tool02.jpg","img/object_images/Ring02.jpg","1","1","1","1","1","0","0.390747199999169","0.327077699999791","0.411239099994418","1","1","1","1","1","1","1","1","1"
"260052","img/object_images/Ring02.jpg","img/object_images/Tin01.jpg","img/object_images/tool09.jpg","1","1","1","0","1","1","0.411239099994418","0.390747199999169","0.391035900000134","1","1","1","1","1","1","1","1","1"
"260052","img/object_images/tool09.jpg","img/object_images/Ring02.jpg","img/object_images/Stool01.jpg","1","1","0","1","0","0","0.391035900000134","0.411239099994418","0.397771599993575","1","1","1","1","1","1","1","1","1"
"260052","img/object_images/Stool01.jpg","img/object_images/tool09.jpg","img/object_images/judge_gavel01.jpg","0","1","0","0","1","1","0.397771599993575","0.391035900000134","0.344554299997981","1","1","1","1","1","1","1","1","1"
"260052","img/object_images/judge_gavel01.jpg","img/object_images/Stool01.jpg","img/object_images/MetalWire01.jpg","0","0","1","1","0","0","0.344554299997981","0.397771599993575","0.527300600006129","1","1","1","1","1","1","1","1","1"
"260052","img/object_images/MetalWire01.jpg","img/object_images/judge_gavel01.jpg","img/object_images/guitar02.jpg","1","0","1","0","1","0","0.527300600006129","0.344554299997981","0.386940599986701","1","1","1","1","1","1","1","1","1"
"260052","img/object_images/guitar02.jpg","img/object_images/MetalWire01.jpg","img/object_images/jewel04.jpg","1","1","1","0","0","0","0.386940599986701","0.527300600006129","0.402096200006781","1","1","1","1","1","1","1","1","1"
"260052","img/object_images/jewel04.jpg","img/object_images/guitar02.jpg","img/object_images/video_game07.jpg","1","1","1","0","0","1","0.402096200006781","0.386940599986701","0.392470399994636","1","1","1","1","1","1","1","1","1"
"260052","img/object_images/video_game07.jpg","img/object_images/jewel04.jpg","img/object_images/stapler.jpg","1","1","1","1","0","1","0.392470399994636","0.402096200006781","0.343828499986557","1","1","1","1","1","1","1","1","1"
"260052","img/object_images/stapler.jpg","img/object_images/video_game07.jpg","img/object_images/bow01.jpg","1","1","1","1","1","1","0.343828499986557","0.392470399994636","0.495942499997909","1","1","1","1","1","1","1","1","1"
"260052","img/object_images/bow01.jpg","img/object_images/stapler.jpg","img/object_images/ornament01.jpg","1","1","1","1","1","1","0.495942499997909","0.343828499986557","0.395759599996381","1","1","1","1","1","1","1","1","1"
"260052","img/object_images/ornament01.jpg","img/object_images/bow01.jpg","img/object_images/bird_house02.jpg","1","1","1","1","1","1","0.395759599996381","0.495942499997909","0.573189900009311","1","1","1","1","1","1","1","1","1"
"260052","img/object_images/bird_house02.jpg","img/object_images/ornament01.jpg","img/object_images/fridge03.jpg","1","1","0","1","1","0","0.573189900009311","0.395759599996381","0.298446900007548","1","1","1","1","1","1","1","1","1"
"260052","img/object_images/fridge03.jpg","img/object_images/bird_house02.jpg","img/object_images/outlet01.jpg","0","1","1","0","1","0","0.298446900007548","0.573189900009311","0.404144599990104","1","1","1","1","1","1","1","1","1"
"260052","img/object_images/outlet01.jpg","img/object_images/fridge03.jpg","img/object_images/toy03.jpg","1","0","1","0","0","1","0.404144599990104","0.298446900007548","0.39302509999834","1","1","1","1","1","1","1","1","1"
"260052","img/object_images/toy03.jpg","img/object_images/outlet01.jpg","img/object_images/bottle05.jpg","1","1","1","1","0","0","0.39302509999834","0.404144599990104","0.506233099993551","1","1","1","1","1","1","1","1","1"
"260052","img/object_images/bottle05.jpg","img/object_images/toy03.jpg","img/object_images/toy04.jpg","1","1","1","0","1","0","0.506233099993551","0.39302509999834","0.440346799994586","1","1","1","1","1","1","1","1","1"
"260052","img/object_images/toy04.jpg","img/object_images/bottle05.jpg",NA,"1","1",NA,"0","0",NA,"0.440346799994586","0.506233099993551",NA,"1","1",NA,"1","1",NA,"1","1",NA
"260052","img/object_images/egg_basket01.jpg",NA,"img/object_images/origami01.jpg","1",NA,"1","1",NA,"1","0.468715400013025",NA,"0.374813499991433","1",NA,"1","1",NA,"1","1",NA,"1"
"260052","img/object_images/origami01.jpg","img/object_images/egg_basket01.jpg","img/object_images/ToolBag01.jpg","1","1","1","1","1","0","0.374813499991433","0.468715400013025","0.492495600003167","1","1","1","1","1","1","1","1","1"
"260052","img/object_images/ToolBag01.jpg","img/object_images/origami01.jpg","img/object_images/lock03.jpg","1","1","1","0","1","1","0.492495600003167","0.374813499991433","0.385724599997047","1","1","1","1","1","1","1","1","1"
"260052","img/object_images/lock03.jpg","img/object_images/ToolBag01.jpg","img/object_images/yoga_mat01.jpg","1","1","1","1","0","0","0.385724599997047","0.492495600003167","0.428867900001933","1","1","1","1","1","1","1","1","1"
"260052","img/object_images/yoga_mat01.jpg","img/object_images/lock03.jpg","img/object_images/phone04.jpg","1","1","1","0","1","1","0.428867900001933","0.385724599997047","0.355360499990638","1","1","1","1","1","1","1","1","1"
"260052","img/object_images/phone04.jpg","img/object_images/yoga_mat01.jpg","img/object_images/pitcher07.jpg","1","1","1","1","0","1","0.355360499990638","0.428867900001933","0.36000950000016","1","1","1","1","1","1","1","1","1"
"260052","img/object_images/pitcher07.jpg","img/object_images/phone04.jpg","img/object_images/tennis_racket01.jpg","1","1","1","1","1","1","0.36000950000016","0.355360499990638","0.373404600002686","1","1","1","1","1","1","1","1","1"
"260052","img/object_images/tennis_racket01.jpg","img/object_images/pitcher07.jpg","img/object_images/water_gun01.jpg","1","1","0","1","1","1","0.373404600002686","0.36000950000016","0.424450600010459","1","1","1","1","1","1","1","1","1"
"260052","img/object_images/water_gun01.jpg","img/object_images/tennis_racket01.jpg","img/object_images/frame01.jpg","0","1","1","1","1","1","0.424450600010459","0.373404600002686","0.399974300002214","1","1","1","1","1","1","1","1","1"
"260052","img/object_images/frame01.jpg","img/object_images/water_gun01.jpg","img/object_images/trumpet01.jpg","1","0","1","1","1","0","0.399974300002214","0.424450600010459","0.434551300000749","1","1","1","1","1","1","1","1","1"
"260052","img/object_images/trumpet01.jpg","img/object_images/frame01.jpg","img/object_images/Eyeliner01.jpg","1","1","1","0","1","1","0.434551300000749","0.399974300002214","0.443396399990888","1","1","1","1","1","1","1","1","1"
"260052","img/object_images/Eyeliner01.jpg","img/object_images/trumpet01.jpg","img/object_images/scale02.jpg","1","1","1","1","0","0","0.443396399990888","0.434551300000749","0.440230300009716","1","1","1","1","1","1","1","1","1"
"260052","img/object_images/scale02.jpg","img/object_images/Eyeliner01.jpg","img/object_images/Shoes05.jpg","1","1","1","0","1","0","0.440230300009716","0.443396399990888","0.45469279999088","1","1","1","1","1","1","1","1","1"
"260052","img/object_images/Shoes05.jpg","img/object_images/scale02.jpg","img/object_images/bookmark01.jpg","1","1","1","0","0","0","0.45469279999088","0.440230300009716","0.410401700006332","1","1","1","1","1","1","1","1","1"
"260052","img/object_images/bookmark01.jpg","img/object_images/Shoes05.jpg","img/object_images/note_book02.jpg","1","1","1","0","0","0","0.410401700006332","0.45469279999088","0.420717600005446","1","1","1","1","1","1","1","1","1"
"260052","img/object_images/note_book02.jpg","img/object_images/bookmark01.jpg","img/object_images/dice01.jpg","1","1","1","0","0","0","0.420717600005446","0.410401700006332","0.410780000005616","1","1","1","1","1","1","1","1","1"
"260052","img/object_images/dice01.jpg","img/object_images/note_book02.jpg","img/object_images/headset02.jpg","1","1","1","0","0","0","0.410780000005616","0.420717600005446","0.486604799996712","1","1","1","1","1","1","1","1","1"
"260052","img/object_images/headset02.jpg","img/object_images/dice01.jpg","img/object_images/jewel02.jpg","1","1","1","0","0","0","0.486604799996712","0.410780000005616","0.434769500003313","1","1","1","1","1","1","1","1","1"
"260052","img/object_images/jewel02.jpg","img/object_images/headset02.jpg","img/object_images/badminton01.jpg","1","1","1","0","0","1","0.434769500003313","0.486604799996712","0.413847200004966","1","1","1","1","1","1","1","1","1"
"260052","img/object_images/badminton01.jpg","img/object_images/jewel02.jpg","img/object_images/bucket01.jpg","1","1","1","1","0","1","0.413847200004966","0.434769500003313","0.404389399991487","1","1","1","1","1","1","1","1","1"
"260052","img/object_images/bucket01.jpg","img/object_images/badminton01.jpg","img/object_images/usb03.jpg","1","1","1","1","1","0","0.404389399991487","0.413847200004966","0.377062500003376","1","1","1","1","1","1","1","1","1"
"260052","img/object_images/usb03.jpg","img/object_images/bucket01.jpg","img/object_images/helmet03.jpg","1","1","1","0","1","1","0.377062500003376","0.404389399991487","0.373080399993341","1","1","1","1","1","1","1","1","1"
"260052","img/object_images/helmet03.jpg","img/object_images/usb03.jpg","img/object_images/bottle06.jpg","1","1","1","1","0","0","0.373080399993341","0.377062500003376","0.47445229999721","1","1","1","1","1","1","1","1","1"
"260052","img/object_images/bottle06.jpg","img/object_images/helmet03.jpg","img/object_images/nut_cracker01.jpg","1","1","1","0","1","1","0.47445229999721","0.373080399993341","0.371396000002278","1","1","1","1","1","1","1","1","1"
"260052","img/object_images/nut_cracker01.jpg","img/object_images/bottle06.jpg","img/object_images/fan01.jpg","1","1","1","1","0","0","0.371396000002278","0.47445229999721","0.482870199994068","1","1","1","1","1","1","1","1","1"
"260052","img/object_images/fan01.jpg","img/object_images/nut_cracker01.jpg","img/object_images/Safe01.jpg","1","1","1","0","1","1","0.482870199994068","0.371396000002278","0.327306000006502","1","1","1","1","1","1","1","1","1"
"260052","img/object_images/Safe01.jpg","img/object_images/fan01.jpg","img/object_images/TreeSlice01.jpg","1","1","1","1","0","1","0.327306000006502","0.482870199994068","0.428436800008058","1","1","1","1","1","1","1","1","1"
"260052","img/object_images/TreeSlice01.jpg","img/object_images/Safe01.jpg","img/object_images/shovel01.jpg","1","1","1","1","1","0","0.428436800008058","0.327306000006502","0.394040799990762","1","1","1","1","1","1","1","1","1"
"260052","img/object_images/shovel01.jpg","img/object_images/TreeSlice01.jpg","img/object_images/joystick03.jpg","1","1","1","0","1","1","0.394040799990762","0.428436800008058","0.347141899997951","1","1","1","1","1","1","1","1","1"
"260052","img/object_images/joystick03.jpg","img/object_images/shovel01.jpg","img/object_images/piano03.jpg","1","1","1","1","0","0","0.347141899997951","0.394040799990762","0.402445900006569","1","1","1","1","1","1","1","1","1"
"260052","img/object_images/piano03.jpg","img/object_images/joystick03.jpg","img/object_images/belt03.jpg","1","1","1","0","1","0","0.402445900006569","0.347141899997951","0.578853500002879","1","1","1","1","1","1","1","1","1"
"260052","img/object_images/belt03.jpg","img/object_images/piano03.jpg",NA,"1","1",NA,"0","0",NA,"0.578853500002879","0.402445900006569",NA,"1","1",NA,"1","1",NA,"1","1",NA
