"participant_id","current_trial_object","pre_trial_object","post_trial_object","current_trial_accuracy","pre_trial_accuracy","post_trial_accuracy","current_trial_congruency","pre_trial_congruency","post_trial_congruency","current_trial_rt","pre_trial_rt","post_trial_rt","current_trial_responded","pre_trial_responded","post_trial_responded","current_trial_legitResponse","pre_trial_legitResponse","post_trial_legitResponse","current_trial_resp_nums","pre_trial_resp_nums","post_trial_resp_nums"
"260069","img/object_images/gift_box03.jpg",NA,"img/object_images/Screws01.jpg","1",NA,"1","0",NA,"1","0.592195399920456",NA,"0.528880300116725","1",NA,"1","1",NA,"1","1",NA,"1"
"260069","img/object_images/Screws01.jpg","img/object_images/gift_box03.jpg","img/object_images/bow_tie02.jpg","1","1","1","1","0","0","0.528880300116725","0.592195399920456","0.5476125999121","1","1","1","1","1","1","1","1","1"
"260069","img/object_images/bow_tie02.jpg","img/object_images/Screws01.jpg","img/object_images/wallet02.jpg","1","1","1","0","1","1","0.5476125999121","0.528880300116725","0.436445400002412","1","1","1","1","1","1","1","1","1"
"260069","img/object_images/wallet02.jpg","img/object_images/bow_tie02.jpg","img/object_images/funnel01.jpg","1","1","1","1","0","0","0.436445400002412","0.5476125999121","0.379797900095582","1","1","1","1","1","1","1","1","1"
"260069","img/object_images/funnel01.jpg","img/object_images/wallet02.jpg","img/object_images/lock04.jpg","1","1","0","0","1","1","0.379797900095582","0.436445400002412","0.328104299958795","1","1","1","1","1","1","1","1","1"
"260069","img/object_images/lock04.jpg","img/object_images/funnel01.jpg","img/object_images/Witchhat01.jpg","0","1","1","1","0","1","0.328104299958795","0.379797900095582","0.58034340001177","1","1","1","1","1","1","1","1","1"
"260069","img/object_images/Witchhat01.jpg","img/object_images/lock04.jpg","img/object_images/handkerchief01.jpg","1","0","1","1","1","0","0.58034340001177","0.328104299958795","0.507057300070301","1","1","1","1","1","1","1","1","1"
"260069","img/object_images/handkerchief01.jpg","img/object_images/Witchhat01.jpg","img/object_images/pitcher02.jpg","1","1","1","0","1","1","0.507057300070301","0.58034340001177","0.395405600080267","1","1","1","1","1","1","1","1","1"
"260069","img/object_images/pitcher02.jpg","img/object_images/handkerchief01.jpg","img/object_images/fork03.jpg","1","1","1","1","0","1","0.395405600080267","0.507057300070301","0.418249999987893","1","1","1","1","1","1","1","1","1"
"260069","img/object_images/fork03.jpg","img/object_images/pitcher02.jpg","img/object_images/bath_tub01.jpg","1","1","1","1","1","0","0.418249999987893","0.395405600080267","0.466153600020334","1","1","1","1","1","1","1","1","1"
"260069","img/object_images/bath_tub01.jpg","img/object_images/fork03.jpg","img/object_images/dresser04.jpg","1","1","1","0","1","0","0.466153600020334","0.418249999987893","0.42576069990173","1","1","1","1","1","1","1","1","1"
"260069","img/object_images/dresser04.jpg","img/object_images/bath_tub01.jpg","img/object_images/coloring_pencil01.jpg","1","1","1","0","0","1","0.42576069990173","0.466153600020334","0.46098480001092","1","1","1","1","1","1","1","1","1"
"260069","img/object_images/coloring_pencil01.jpg","img/object_images/dresser04.jpg","img/object_images/measuring_tape02.jpg","1","1","1","1","0","1","0.46098480001092","0.42576069990173","0.486989199998788","1","1","1","1","1","1","1","1","1"
"260069","img/object_images/measuring_tape02.jpg","img/object_images/coloring_pencil01.jpg","img/object_images/gift_box02.jpg","1","1","1","1","1","1","0.486989199998788","0.46098480001092","0.457816699985415","1","1","1","1","1","1","1","1","1"
"260069","img/object_images/gift_box02.jpg","img/object_images/measuring_tape02.jpg","img/object_images/bow_tie01.jpg","1","1","1","1","1","0","0.457816699985415","0.486989199998788","0.548904199968092","1","1","1","1","1","1","1","1","1"
"260069","img/object_images/bow_tie01.jpg","img/object_images/gift_box02.jpg","img/object_images/ironing_table01.jpg","1","1","1","0","1","0","0.548904199968092","0.457816699985415","0.509759399923496","1","1","1","1","1","1","1","1","1"
"260069","img/object_images/ironing_table01.jpg","img/object_images/bow_tie01.jpg","img/object_images/gift_box01.jpg","1","1","1","0","0","1","0.509759399923496","0.548904199968092","0.48362840001937","1","1","1","1","1","1","1","1","1"
"260069","img/object_images/gift_box01.jpg","img/object_images/ironing_table01.jpg","img/object_images/hammer01.jpg","1","1","1","1","0","0","0.48362840001937","0.509759399923496","0.459013200015761","1","1","1","1","1","1","1","1","1"
"260069","img/object_images/hammer01.jpg","img/object_images/gift_box01.jpg","img/object_images/lawn_mower01.jpg","1","1","1","0","1","1","0.459013200015761","0.48362840001937","0.496333199902438","1","1","1","1","1","1","1","1","1"
"260069","img/object_images/lawn_mower01.jpg","img/object_images/hammer01.jpg","img/object_images/jewelry01.jpg","1","1","1","1","0","1","0.496333199902438","0.459013200015761","0.460838499944657","1","1","1","1","1","1","1","1","1"
"260069","img/object_images/jewelry01.jpg","img/object_images/lawn_mower01.jpg","img/object_images/balloon01.jpg","1","1","1","1","1","0","0.460838499944657","0.496333199902438","0.418869099928998","1","1","1","1","1","1","1","1","1"
"260069","img/object_images/balloon01.jpg","img/object_images/jewelry01.jpg","img/object_images/clip02.jpg","1","1","1","0","1","1","0.418869099928998","0.460838499944657","0.548425800050609","1","1","1","1","1","1","1","1","1"
"260069","img/object_images/clip02.jpg","img/object_images/balloon01.jpg","img/object_images/paper_cup01.jpg","1","1","1","1","0","0","0.548425800050609","0.418869099928998","0.590544299921021","1","1","1","1","1","1","1","1","1"
"260069","img/object_images/paper_cup01.jpg","img/object_images/clip02.jpg","img/object_images/camera07.jpg","1","1","1","0","1","1","0.590544299921021","0.548425800050609","0.399765399983153","1","1","1","1","1","1","1","1","1"
"260069","img/object_images/camera07.jpg","img/object_images/paper_cup01.jpg","img/object_images/couch03.jpg","1","1","1","1","0","0","0.399765399983153","0.590544299921021","0.512559300055727","1","1","1","1","1","1","1","1","1"
"260069","img/object_images/couch03.jpg","img/object_images/camera07.jpg","img/object_images/vga_port 01.jpg","1","1","1","0","1","0","0.512559300055727","0.399765399983153","0.445338399964385","1","1","1","1","1","1","1","1","1"
"260069","img/object_images/vga_port 01.jpg","img/object_images/couch03.jpg","img/object_images/jacket03.jpg","1","1","1","0","0","0","0.445338399964385","0.512559300055727","0.530492300051264","1","1","1","1","1","1","1","1","1"
"260069","img/object_images/jacket03.jpg","img/object_images/vga_port 01.jpg","img/object_images/socks02.jpg","1","1","1","0","0","0","0.530492300051264","0.445338399964385","0.464978100033477","1","1","1","1","1","1","1","1","1"
"260069","img/object_images/socks02.jpg","img/object_images/jacket03.jpg","img/object_images/grater01.jpg","1","1","1","0","0","1","0.464978100033477","0.530492300051264","0.417612100020051","1","1","1","1","1","1","1","1","1"
"260069","img/object_images/grater01.jpg","img/object_images/socks02.jpg","img/object_images/sleeping_bag01.jpg","1","1","1","1","0","0","0.417612100020051","0.464978100033477","0.506942100008018","1","1","1","1","1","1","1","1","1"
"260069","img/object_images/sleeping_bag01.jpg","img/object_images/grater01.jpg","img/object_images/golf_ball03.jpg","1","1","1","0","1","1","0.506942100008018","0.417612100020051","0.4390256999759","1","1","1","1","1","1","1","1","1"
"260069","img/object_images/golf_ball03.jpg","img/object_images/sleeping_bag01.jpg",NA,"1","1",NA,"1","0",NA,"0.4390256999759","0.506942100008018",NA,"1","1",NA,"1","1",NA,"1","1",NA
"260069","img/object_images/rock02.jpg",NA,"img/object_images/floss02.jpg","1",NA,"1","0",NA,"1","0.466806399985217",NA,"0.439676000038162","1",NA,"1","1",NA,"1","1",NA,"1"
"260069","img/object_images/floss02.jpg","img/object_images/rock02.jpg","img/object_images/computer_mouse02.jpg","1","1","1","1","0","0","0.439676000038162","0.466806399985217","0.499834200018086","1","1","1","1","1","1","1","1","1"
"260069","img/object_images/computer_mouse02.jpg","img/object_images/floss02.jpg","img/object_images/Trowel01.jpg","1","1","1","0","1","0","0.499834200018086","0.439676000038162","0.423299000016414","1","1","1","1","1","1","1","1","1"
"260069","img/object_images/Trowel01.jpg","img/object_images/computer_mouse02.jpg","img/object_images/blender01.jpg","1","1","1","0","0","0","0.423299000016414","0.499834200018086","0.606630400056019","1","1","1","1","1","1","1","1","1"
"260069","img/object_images/blender01.jpg","img/object_images/Trowel01.jpg","img/object_images/pen01.jpg","1","1","1","0","0","0","0.606630400056019","0.423299000016414","0.362004199996591","1","1","1","1","1","1","1","1","1"
"260069","img/object_images/pen01.jpg","img/object_images/blender01.jpg","img/object_images/toothbrush01.jpg","1","1","1","0","0","0","0.362004199996591","0.606630400056019","0.420712699997239","1","1","1","1","1","1","1","1","1"
"260069","img/object_images/toothbrush01.jpg","img/object_images/pen01.jpg","img/object_images/toy01.jpg","1","1","1","0","0","1","0.420712699997239","0.362004199996591","0.460684100049548","1","1","1","1","1","1","1","1","1"
"260069","img/object_images/toy01.jpg","img/object_images/toothbrush01.jpg","img/object_images/tool06.jpg","1","1","1","1","0","0","0.460684100049548","0.420712699997239","0.402935300022364","1","1","1","1","1","1","1","1","1"
"260069","img/object_images/tool06.jpg","img/object_images/toy01.jpg","img/object_images/clip04.jpg","1","1","1","0","1","1","0.402935300022364","0.460684100049548","0.452463100082241","1","1","1","1","1","1","1","1","1"
"260069","img/object_images/clip04.jpg","img/object_images/tool06.jpg","img/object_images/drone01.jpg","1","1","1","1","0","1","0.452463100082241","0.402935300022364","0.400165900005959","1","1","1","1","1","1","1","1","1"
"260069","img/object_images/drone01.jpg","img/object_images/clip04.jpg","img/object_images/chair06.jpg","1","1","1","1","1","0","0.400165900005959","0.452463100082241","0.589801899972372","1","1","1","1","1","1","1","1","1"
"260069","img/object_images/chair06.jpg","img/object_images/drone01.jpg","img/object_images/hair_brush01.jpg","1","1","1","0","1","1","0.589801899972372","0.400165900005959","0.450518499943428","1","1","1","1","1","1","1","1","1"
"260069","img/object_images/hair_brush01.jpg","img/object_images/chair06.jpg","img/object_images/tripod01.jpg","1","1","1","1","0","1","0.450518499943428","0.589801899972372","0.411585499998182","1","1","1","1","1","1","1","1","1"
"260069","img/object_images/tripod01.jpg","img/object_images/hair_brush01.jpg","img/object_images/fork02.jpg","1","1","0","1","1","0","0.411585499998182","0.450518499943428","0.41760649997741","1","1","1","1","1","1","1","1","1"
"260069","img/object_images/fork02.jpg","img/object_images/tripod01.jpg","img/object_images/video_game03.jpg","0","1","1","0","1","1","0.41760649997741","0.411585499998182","0.508324100053869","1","1","1","1","1","1","1","1","1"
"260069","img/object_images/video_game03.jpg","img/object_images/fork02.jpg","img/object_images/skate_board01.jpg","1","0","1","1","0","0","0.508324100053869","0.41760649997741","0.540743199991994","1","1","1","1","1","1","1","1","1"
"260069","img/object_images/skate_board01.jpg","img/object_images/video_game03.jpg","img/object_images/couch01.jpg","1","1","1","0","1","0","0.540743199991994","0.508324100053869","0.413887799950317","1","1","1","1","1","1","1","1","1"
"260069","img/object_images/couch01.jpg","img/object_images/skate_board01.jpg","img/object_images/box03.jpg","1","1","1","0","0","0","0.413887799950317","0.540743199991994","0.456174799939618","1","1","1","1","1","1","1","1","1"
"260069","img/object_images/box03.jpg","img/object_images/couch01.jpg","img/object_images/bell03.jpg","1","1","1","0","0","0","0.456174799939618","0.413887799950317","0.520816700067371","1","1","1","1","1","1","1","1","1"
"260069","img/object_images/bell03.jpg","img/object_images/box03.jpg","img/object_images/scarf01.jpg","1","1","1","0","0","1","0.520816700067371","0.456174799939618","0.383052499964833","1","1","1","1","1","1","1","1","1"
"260069","img/object_images/scarf01.jpg","img/object_images/bell03.jpg","img/object_images/soap03.jpg","1","1","1","1","0","0","0.383052499964833","0.520816700067371","0.472099400009029","1","1","1","1","1","1","1","1","1"
"260069","img/object_images/soap03.jpg","img/object_images/scarf01.jpg","img/object_images/shoes12.jpg","1","1","1","0","1","1","0.472099400009029","0.383052499964833","0.429155700025149","1","1","1","1","1","1","1","1","1"
"260069","img/object_images/shoes12.jpg","img/object_images/soap03.jpg","img/object_images/mail_box02.jpg","1","1","1","1","0","1","0.429155700025149","0.472099400009029","0.364584799972363","1","1","1","1","1","1","1","1","1"
"260069","img/object_images/mail_box02.jpg","img/object_images/shoes12.jpg","img/object_images/bag_pipes01.jpg","1","1","1","1","1","1","0.364584799972363","0.429155700025149","0.432044700020924","1","1","1","1","1","1","1","1","1"
"260069","img/object_images/bag_pipes01.jpg","img/object_images/mail_box02.jpg","img/object_images/chain01.jpg","1","1","1","1","1","0","0.432044700020924","0.364584799972363","0.668853200040758","1","1","1","1","1","1","1","1","1"
"260069","img/object_images/chain01.jpg","img/object_images/bag_pipes01.jpg","img/object_images/computer_mouse01.jpg","1","1","1","0","1","1","0.668853200040758","0.432044700020924","0.401374200009741","1","1","1","1","1","1","1","1","1"
"260069","img/object_images/computer_mouse01.jpg","img/object_images/chain01.jpg","img/object_images/Violin01.jpg","1","1","1","1","0","0","0.401374200009741","0.668853200040758","0.457178100012243","1","1","1","1","1","1","1","1","1"
"260069","img/object_images/Violin01.jpg","img/object_images/computer_mouse01.jpg","img/object_images/book02.jpg","1","1","1","0","1","1","0.457178100012243","0.401374200009741","0.5751507000532","1","1","1","1","1","1","1","1","1"
"260069","img/object_images/book02.jpg","img/object_images/Violin01.jpg","img/object_images/egg_slicer01.jpg","1","1","0","1","0","1","0.5751507000532","0.457178100012243","0.43878450000193","1","1","1","1","1","1","1","1","1"
"260069","img/object_images/egg_slicer01.jpg","img/object_images/book02.jpg","img/object_images/pitcher09.jpg","0","1","1","1","1","1","0.43878450000193","0.5751507000532","0.450300100026652","1","1","1","1","1","1","1","1","1"
"260069","img/object_images/pitcher09.jpg","img/object_images/egg_slicer01.jpg","img/object_images/airfryer02.jpg","1","0","1","1","1","1","0.450300100026652","0.43878450000193","0.561999200028367","1","1","1","1","1","1","1","1","1"
"260069","img/object_images/airfryer02.jpg","img/object_images/pitcher09.jpg",NA,"1","1",NA,"1","1",NA,"0.561999200028367","0.450300100026652",NA,"1","1",NA,"1","1",NA,"1","1",NA
"260069","img/object_images/Safe01.jpg",NA,"img/object_images/pitcher07.jpg","1",NA,"1","1",NA,"1","0.440823999932036",NA,"0.414833599934354","1",NA,"1","1",NA,"1","1",NA,"1"
"260069","img/object_images/pitcher07.jpg","img/object_images/Safe01.jpg","img/object_images/ToolBag01.jpg","1","1","0","1","1","0","0.414833599934354","0.440823999932036","0.354625500040129","1","1","1","1","1","1","1","1","1"
"260069","img/object_images/ToolBag01.jpg","img/object_images/pitcher07.jpg","img/object_images/joystick03.jpg","0","1","1","0","1","1","0.354625500040129","0.414833599934354","0.356425800011493","1","1","1","1","1","1","1","1","1"
"260069","img/object_images/joystick03.jpg","img/object_images/ToolBag01.jpg","img/object_images/note_book02.jpg","1","0","1","1","0","0","0.356425800011493","0.354625500040129","0.493289100006223","1","1","1","1","1","1","1","1","1"
"260069","img/object_images/note_book02.jpg","img/object_images/joystick03.jpg","img/object_images/trumpet01.jpg","1","1","1","0","1","0","0.493289100006223","0.356425800011493","0.507793799974024","1","1","1","1","1","1","1","1","1"
"260069","img/object_images/trumpet01.jpg","img/object_images/note_book02.jpg","img/object_images/bookmark01.jpg","1","1","1","0","0","0","0.507793799974024","0.493289100006223","0.415297099971213","1","1","1","1","1","1","1","1","1"
"260069","img/object_images/bookmark01.jpg","img/object_images/trumpet01.jpg","img/object_images/badminton01.jpg","1","1","1","0","0","1","0.415297099971213","0.507793799974024","0.435699100024067","1","1","1","1","1","1","1","1","1"
"260069","img/object_images/badminton01.jpg","img/object_images/bookmark01.jpg","img/object_images/Eyeliner01.jpg","1","1","1","1","0","1","0.435699100024067","0.415297099971213","0.370726900058798","1","1","1","1","1","1","1","1","1"
"260069","img/object_images/Eyeliner01.jpg","img/object_images/badminton01.jpg","img/object_images/usb03.jpg","1","1","1","1","1","0","0.370726900058798","0.435699100024067","0.545453900005668","1","1","1","1","1","1","1","1","1"
"260069","img/object_images/usb03.jpg","img/object_images/Eyeliner01.jpg","img/object_images/nut_cracker01.jpg","1","1","1","0","1","1","0.545453900005668","0.370726900058798","0.395937600056641","1","1","1","1","1","1","1","1","1"
"260069","img/object_images/nut_cracker01.jpg","img/object_images/usb03.jpg","img/object_images/fan01.jpg","1","1","1","1","0","0","0.395937600056641","0.545453900005668","0.514546699938364","1","1","1","1","1","1","1","1","1"
"260069","img/object_images/fan01.jpg","img/object_images/nut_cracker01.jpg","img/object_images/origami01.jpg","1","1","1","0","1","1","0.514546699938364","0.395937600056641","0.452752699959092","1","1","1","1","1","1","1","1","1"
"260069","img/object_images/origami01.jpg","img/object_images/fan01.jpg","img/object_images/frame01.jpg","1","1","1","1","0","1","0.452752699959092","0.514546699938364","0.315662599983625","1","1","1","1","1","1","1","1","1"
"260069","img/object_images/frame01.jpg","img/object_images/origami01.jpg","img/object_images/tennis_racket01.jpg","1","1","0","1","1","1","0.315662599983625","0.452752699959092","0.402375400066376","1","1","1","1","1","1","1","1","2"
"260069","img/object_images/tennis_racket01.jpg","img/object_images/frame01.jpg","img/object_images/shovel01.jpg","0","1","1","1","1","0","0.402375400066376","0.315662599983625","0.578353599994443","1","1","1","1","1","1","2","1","1"
"260069","img/object_images/shovel01.jpg","img/object_images/tennis_racket01.jpg","img/object_images/yoga_mat01.jpg","1","0","1","0","1","0","0.578353599994443","0.402375400066376","0.467997999978252","1","1","1","1","1","1","1","2","1"
"260069","img/object_images/yoga_mat01.jpg","img/object_images/shovel01.jpg","img/object_images/lock03.jpg","1","1","1","0","0","1","0.467997999978252","0.578353599994443","0.468710100045428","1","1","1","1","1","1","1","1","1"
"260069","img/object_images/lock03.jpg","img/object_images/yoga_mat01.jpg","img/object_images/piano03.jpg","1","1","1","1","0","0","0.468710100045428","0.467997999978252","0.445543300011195","1","1","1","1","1","1","1","1","1"
"260069","img/object_images/piano03.jpg","img/object_images/lock03.jpg","img/object_images/belt03.jpg","1","1","1","0","1","0","0.445543300011195","0.468710100045428","0.496295799966902","1","1","1","1","1","1","1","1","1"
"260069","img/object_images/belt03.jpg","img/object_images/piano03.jpg","img/object_images/headset02.jpg","1","1","1","0","0","0","0.496295799966902","0.445543300011195","0.529235400026664","1","1","1","1","1","1","1","1","1"
"260069","img/object_images/headset02.jpg","img/object_images/belt03.jpg","img/object_images/water_gun01.jpg","1","1","1","0","0","1","0.529235400026664","0.496295799966902","0.39147040003445","1","1","1","1","1","1","1","1","1"
"260069","img/object_images/water_gun01.jpg","img/object_images/headset02.jpg","img/object_images/scale02.jpg","1","1","1","1","0","0","0.39147040003445","0.529235400026664","0.395635799970478","1","1","1","1","1","1","1","1","1"
"260069","img/object_images/scale02.jpg","img/object_images/water_gun01.jpg","img/object_images/helmet03.jpg","1","1","1","0","1","1","0.395635799970478","0.39147040003445","0.372152699972503","1","1","1","1","1","1","1","1","1"
"260069","img/object_images/helmet03.jpg","img/object_images/scale02.jpg","img/object_images/Shoes05.jpg","1","1","1","1","0","0","0.372152699972503","0.395635799970478","0.467948700068519","1","1","1","1","1","1","1","1","1"
"260069","img/object_images/Shoes05.jpg","img/object_images/helmet03.jpg","img/object_images/dice01.jpg","1","1","1","0","1","0","0.467948700068519","0.372152699972503","0.431155199999921","1","1","1","1","1","1","1","1","1"
"260069","img/object_images/dice01.jpg","img/object_images/Shoes05.jpg","img/object_images/bottle06.jpg","1","1","1","0","0","0","0.431155199999921","0.467948700068519","0.44324479997158","1","1","1","1","1","1","1","1","1"
"260069","img/object_images/bottle06.jpg","img/object_images/dice01.jpg","img/object_images/TreeSlice01.jpg","1","1","1","0","0","1","0.44324479997158","0.431155199999921","0.369002799969167","1","1","1","1","1","1","1","1","1"
"260069","img/object_images/TreeSlice01.jpg","img/object_images/bottle06.jpg","img/object_images/jewel02.jpg","1","1","1","1","0","0","0.369002799969167","0.44324479997158","0.357208000030369","1","1","1","1","1","1","1","1","1"
"260069","img/object_images/jewel02.jpg","img/object_images/TreeSlice01.jpg","img/object_images/bucket01.jpg","1","1","1","0","1","1","0.357208000030369","0.369002799969167","0.339840200031176","1","1","1","1","1","1","1","1","1"
"260069","img/object_images/bucket01.jpg","img/object_images/jewel02.jpg","img/object_images/egg_basket01.jpg","1","1","1","1","0","1","0.339840200031176","0.357208000030369","0.385714099975303","1","1","1","1","1","1","1","1","1"
"260069","img/object_images/egg_basket01.jpg","img/object_images/bucket01.jpg","img/object_images/phone04.jpg","1","1","1","1","1","1","0.385714099975303","0.339840200031176","0.446228999993764","1","1","1","1","1","1","1","1","1"
"260069","img/object_images/phone04.jpg","img/object_images/egg_basket01.jpg",NA,"1","1",NA,"1","1",NA,"0.446228999993764","0.385714099975303",NA,"1","1",NA,"1","1",NA,"1","1",NA
"260069","img/object_images/candle02.jpg",NA,"img/object_images/pen06.jpg","1",NA,"1","0",NA,"0","0.676842199987732",NA,"0.396139399963431","1",NA,"1","1",NA,"1","1",NA,"1"
"260069","img/object_images/pen06.jpg","img/object_images/candle02.jpg","img/object_images/office_supplies01.jpg","1","1","1","0","0","1","0.396139399963431","0.676842199987732","0.552497099968605","1","1","1","1","1","1","1","1","1"
"260069","img/object_images/office_supplies01.jpg","img/object_images/pen06.jpg","img/object_images/Candle_Holder01.jpg","1","1","1","1","0","0","0.552497099968605","0.396139399963431","0.498110399930738","1","1","1","1","1","1","1","1","1"
"260069","img/object_images/Candle_Holder01.jpg","img/object_images/office_supplies01.jpg","img/object_images/spray_can01.jpg","1","1","0","0","1","0","0.498110399930738","0.552497099968605","0.440991399926134","1","1","1","1","1","1","1","1","1"
"260069","img/object_images/spray_can01.jpg","img/object_images/Candle_Holder01.jpg","img/object_images/glasses03.jpg","0","1","1","0","0","0","0.440991399926134","0.498110399930738","0.361527999979444","1","1","1","1","1","1","1","1","1"
"260069","img/object_images/glasses03.jpg","img/object_images/spray_can01.jpg","img/object_images/cup01.jpg","1","0","1","0","0","0","0.361527999979444","0.440991399926134","0.343915299978107","1","1","1","1","1","1","1","1","1"
"260069","img/object_images/cup01.jpg","img/object_images/glasses03.jpg","img/object_images/camera05.jpg","1","1","1","0","0","0","0.343915299978107","0.361527999979444","0.460343000013381","1","1","1","1","1","1","1","1","1"
"260069","img/object_images/camera05.jpg","img/object_images/cup01.jpg","img/object_images/socks01.jpg","1","1","1","0","0","1","0.460343000013381","0.343915299978107","0.523186900070868","1","1","1","1","1","1","1","1","1"
"260069","img/object_images/socks01.jpg","img/object_images/camera05.jpg","img/object_images/hammer02.jpg","1","1","1","1","0","0","0.523186900070868","0.460343000013381","0.534502999973483","1","1","1","1","1","1","1","1","1"
"260069","img/object_images/hammer02.jpg","img/object_images/socks01.jpg","img/object_images/knife01.jpg","1","1","1","0","1","1","0.534502999973483","0.523186900070868","0.394923400017433","1","1","1","1","1","1","1","1","1"
"260069","img/object_images/knife01.jpg","img/object_images/hammer02.jpg","img/object_images/razor02.jpg","1","1","1","1","0","1","0.394923400017433","0.534502999973483","0.322901800042018","1","1","1","1","1","1","1","1","1"
"260069","img/object_images/razor02.jpg","img/object_images/knife01.jpg","img/object_images/video_game02.jpg","1","1","1","1","1","1","0.322901800042018","0.394923400017433","0.58284679998178","1","1","1","1","1","1","1","1","1"
"260069","img/object_images/video_game02.jpg","img/object_images/razor02.jpg","img/object_images/sign02.jpg","1","1","0","1","1","0","0.58284679998178","0.322901800042018","0.36003660003189","1","1","1","1","1","1","1","1","1"
"260069","img/object_images/sign02.jpg","img/object_images/video_game02.jpg","img/object_images/bag04.jpg","0","1","1","0","1","0","0.36003660003189","0.58284679998178","0.46675859997049","1","1","1","1","1","1","1","1","1"
"260069","img/object_images/bag04.jpg","img/object_images/sign02.jpg","img/object_images/vase02.jpg","1","0","1","0","0","1","0.46675859997049","0.36003660003189","0.453479700023308","1","1","1","1","1","1","1","1","1"
"260069","img/object_images/vase02.jpg","img/object_images/bag04.jpg","img/object_images/bow_tie03.jpg","1","1","1","1","0","1","0.453479700023308","0.46675859997049","0.464260400040075","1","1","1","1","1","1","1","1","1"
"260069","img/object_images/bow_tie03.jpg","img/object_images/vase02.jpg","img/object_images/tool13.jpg","1","1","1","1","1","1","0.464260400040075","0.453479700023308","0.460334499948658","1","1","1","1","1","1","1","1","1"
"260069","img/object_images/tool13.jpg","img/object_images/bow_tie03.jpg","img/object_images/duster01.jpg","1","1","1","1","1","0","0.460334499948658","0.464260400040075","0.514278499991633","1","1","1","1","1","1","1","1","1"
"260069","img/object_images/duster01.jpg","img/object_images/tool13.jpg","img/object_images/hat09.jpg","1","1","1","0","1","0","0.514278499991633","0.460334499948658","0.444639200111851","1","1","1","1","1","1","1","1","1"
"260069","img/object_images/hat09.jpg","img/object_images/duster01.jpg","img/object_images/pan03.jpg","1","1","1","0","0","1","0.444639200111851","0.514278499991633","0.429336000001058","1","1","1","1","1","1","1","1","1"
"260069","img/object_images/pan03.jpg","img/object_images/hat09.jpg","img/object_images/clipboard01.jpg","1","1","1","1","0","1","0.429336000001058","0.444639200111851","0.410006299964152","1","1","1","1","1","1","1","1","1"
"260069","img/object_images/clipboard01.jpg","img/object_images/pan03.jpg","img/object_images/sink_filter01 (1).jpg","1","1","0","1","1","0","0.410006299964152","0.429336000001058","0.321478100027889","1","1","1","1","1","1","1","1","1"
"260069","img/object_images/sink_filter01 (1).jpg","img/object_images/clipboard01.jpg","img/object_images/Confetti 01.jpg","0","1","1","0","1","0","0.321478100027889","0.410006299964152","0.396146800019778","1","1","1","1","1","1","1","1","1"
"260069","img/object_images/Confetti 01.jpg","img/object_images/sink_filter01 (1).jpg","img/object_images/perfume01.jpg","1","0","1","0","0","0","0.396146800019778","0.321478100027889","0.518958300002851","1","1","1","1","1","1","1","1","1"
"260069","img/object_images/perfume01.jpg","img/object_images/Confetti 01.jpg","img/object_images/lemon_squeezer01.jpg","1","1","1","0","0","1","0.518958300002851","0.396146800019778","0.381441300036386","1","1","1","1","1","1","1","1","1"
"260069","img/object_images/lemon_squeezer01.jpg","img/object_images/perfume01.jpg","img/object_images/floss01.jpg","1","1","1","1","0","1","0.381441300036386","0.518958300002851","0.341641200007871","1","1","1","1","1","1","1","1","1"
"260069","img/object_images/floss01.jpg","img/object_images/lemon_squeezer01.jpg","img/object_images/dust_pan01.jpg","1","1","1","1","1","1","0.341641200007871","0.381441300036386","0.414559099939652","1","1","1","1","1","1","1","1","1"
"260069","img/object_images/dust_pan01.jpg","img/object_images/floss01.jpg","img/object_images/ruler02.jpg","1","1","1","1","1","1","0.414559099939652","0.341641200007871","0.367971000028774","1","1","1","1","1","1","1","1","1"
"260069","img/object_images/ruler02.jpg","img/object_images/dust_pan01.jpg","img/object_images/hat13.jpg","1","1","1","1","1","1","0.367971000028774","0.414559099939652","0.404518200084567","1","1","1","1","1","1","1","1","1"
"260069","img/object_images/hat13.jpg","img/object_images/ruler02.jpg","img/object_images/tool20.jpg","1","1","0","1","1","0","0.404518200084567","0.367971000028774","0.348963800002821","1","1","1","1","1","1","1","1","1"
"260069","img/object_images/tool20.jpg","img/object_images/hat13.jpg","img/object_images/board01.jpg","0","1","1","0","1","1","0.348963800002821","0.404518200084567","0.457871200051159","1","1","1","1","1","1","1","1","1"
"260069","img/object_images/board01.jpg","img/object_images/tool20.jpg",NA,"1","0",NA,"1","0",NA,"0.457871200051159","0.348963800002821",NA,"1","1",NA,"1","1",NA,"1","1",NA
"260069","img/object_images/tool18.jpg",NA,"img/object_images/remover01.jpg","1",NA,"1","0",NA,"1","0.50653420004528",NA,"0.505588600062765","1",NA,"1","1",NA,"1","1",NA,"1"
"260069","img/object_images/remover01.jpg","img/object_images/tool18.jpg","img/object_images/hand_grip_exerciser01.jpg","1","1","1","1","0","0","0.505588600062765","0.50653420004528","0.487692399998195","1","1","1","1","1","1","1","1","1"
"260069","img/object_images/hand_grip_exerciser01.jpg","img/object_images/remover01.jpg","img/object_images/boat04.jpg","1","1","0","0","1","0","0.487692399998195","0.505588600062765","0.424949600012042","1","1","1","1","1","1","1","1","1"
"260069","img/object_images/boat04.jpg","img/object_images/hand_grip_exerciser01.jpg","img/object_images/dresser03.jpg","0","1","0","0","0","0","0.424949600012042","0.487692399998195","0.412707899929956","1","1","1","1","1","1","1","1","1"
"260069","img/object_images/dresser03.jpg","img/object_images/boat04.jpg","img/object_images/hoverboard01.jpg","0","0","0","0","0","0","0.412707899929956","0.424949600012042","0.372209300054237","1","1","1","1","1","1","1","1","1"
"260069","img/object_images/hoverboard01.jpg","img/object_images/dresser03.jpg","img/object_images/phone02.jpg","0","0","1","0","0","1","0.372209300054237","0.412707899929956","0.421729899942875","1","1","1","1","1","1","1","1","1"
"260069","img/object_images/phone02.jpg","img/object_images/hoverboard01.jpg","img/object_images/blender02.jpg","1","0","1","1","0","1","0.421729899942875","0.372209300054237","0.452105500036851","1","1","1","1","1","1","1","1","1"
"260069","img/object_images/blender02.jpg","img/object_images/phone02.jpg","img/object_images/stereo02.jpg","1","1","1","1","1","0","0.452105500036851","0.421729899942875","0.399844800005667","1","1","1","1","1","1","1","1","1"
"260069","img/object_images/stereo02.jpg","img/object_images/blender02.jpg","img/object_images/knit03.jpg","1","1","1","0","1","1","0.399844800005667","0.452105500036851","0.46023269998841","1","1","1","1","1","1","1","1","1"
"260069","img/object_images/knit03.jpg","img/object_images/stereo02.jpg","img/object_images/toy08.jpg","1","1","1","1","0","0","0.46023269998841","0.399844800005667","0.401226800051518","1","1","1","1","1","1","1","1","1"
"260069","img/object_images/toy08.jpg","img/object_images/knit03.jpg","img/object_images/matches02.jpg","1","1","1","0","1","0","0.401226800051518","0.46023269998841","0.523168800049461","1","1","1","1","1","1","1","1","1"
"260069","img/object_images/matches02.jpg","img/object_images/toy08.jpg","img/object_images/basket04.jpg","1","1","1","0","0","1","0.523168800049461","0.401226800051518","0.34264099993743","1","1","1","1","1","1","1","1","1"
"260069","img/object_images/basket04.jpg","img/object_images/matches02.jpg","img/object_images/knit04.jpg","1","1","1","1","0","1","0.34264099993743","0.523168800049461","0.416070300037973","1","1","1","1","1","1","1","1","1"
"260069","img/object_images/knit04.jpg","img/object_images/basket04.jpg","img/object_images/mail_box01.jpg","1","1","0","1","1","0","0.416070300037973","0.34264099993743","0.463813700014725","1","1","1","1","1","1","1","1","1"
"260069","img/object_images/mail_box01.jpg","img/object_images/knit04.jpg","img/object_images/remote_controller01.jpg","0","1","1","0","1","1","0.463813700014725","0.416070300037973","0.471967199933715","1","1","1","1","1","1","1","1","1"
"260069","img/object_images/remote_controller01.jpg","img/object_images/mail_box01.jpg","img/object_images/gloves02.jpg","1","0","1","1","0","0","0.471967199933715","0.463813700014725","0.492167499964126","1","1","1","1","1","1","1","1","1"
"260069","img/object_images/gloves02.jpg","img/object_images/remote_controller01.jpg","img/object_images/video_game01.jpg","1","1","1","0","1","1","0.492167499964126","0.471967199933715","0.395505100023001","1","1","1","1","1","1","1","1","1"
"260069","img/object_images/video_game01.jpg","img/object_images/gloves02.jpg","img/object_images/bottle07.jpg","1","1","1","1","0","1","0.395505100023001","0.492167499964126","0.352025100030005","1","1","1","1","1","1","1","1","1"
"260069","img/object_images/bottle07.jpg","img/object_images/video_game01.jpg","img/object_images/backpack01.jpg","1","1","0","1","1","0","0.352025100030005","0.395505100023001","0.392532399971969","1","1","1","1","1","1","1","1","1"
"260069","img/object_images/backpack01.jpg","img/object_images/bottle07.jpg","img/object_images/shower_head01.jpg","0","1","1","0","1","1","0.392532399971969","0.352025100030005","0.481868000002578","1","1","1","1","1","1","1","1","1"
"260069","img/object_images/shower_head01.jpg","img/object_images/backpack01.jpg","img/object_images/curtain02.jpg","1","0","1","1","0","0","0.481868000002578","0.392532399971969","0.47093070007395","1","1","1","1","1","1","1","1","1"
"260069","img/object_images/curtain02.jpg","img/object_images/shower_head01.jpg","img/object_images/keyboard02.jpg","1","1","1","0","1","1","0.47093070007395","0.481868000002578","0.408729700022377","1","1","1","1","1","1","1","1","1"
"260069","img/object_images/keyboard02.jpg","img/object_images/curtain02.jpg","img/object_images/flashlight03.jpg","1","1","0","1","0","0","0.408729700022377","0.47093070007395","0.385569200036116","1","1","1","1","1","1","1","1","1"
"260069","img/object_images/flashlight03.jpg","img/object_images/keyboard02.jpg","img/object_images/camera03.jpg","0","1","1","0","1","0","0.385569200036116","0.408729700022377","0.584217999945395","1","1","1","1","1","1","1","1","1"
"260069","img/object_images/camera03.jpg","img/object_images/flashlight03.jpg","img/object_images/knife02.jpg","1","0","0","0","0","0","0.584217999945395","0.385569200036116","0.459046299918555","1","1","1","1","1","1","1","1","1"
"260069","img/object_images/knife02.jpg","img/object_images/camera03.jpg","img/object_images/sponge03.jpg","0","1","1","0","0","1","0.459046299918555","0.584217999945395","0.351870900020003","1","1","1","1","1","1","1","1","1"
"260069","img/object_images/sponge03.jpg","img/object_images/knife02.jpg","img/object_images/Statue01.jpg","1","0","1","1","0","1","0.351870900020003","0.459046299918555","0.352325299987569","1","1","1","1","1","1","1","1","1"
"260069","img/object_images/Statue01.jpg","img/object_images/sponge03.jpg","img/object_images/jacket04.jpg","1","1","1","1","1","0","0.352325299987569","0.351870900020003","0.415828600060195","1","1","1","1","1","1","1","1","1"
"260069","img/object_images/jacket04.jpg","img/object_images/Statue01.jpg","img/object_images/paper_cup02.jpg","1","1","1","0","1","1","0.415828600060195","0.352325299987569","0.450313600013033","1","1","1","1","1","1","1","1","1"
"260069","img/object_images/paper_cup02.jpg","img/object_images/jacket04.jpg","img/object_images/kite01.jpg","1","1","1","1","0","1","0.450313600013033","0.415828600060195","0.495701600098982","1","1","1","1","1","1","1","1","1"
"260069","img/object_images/kite01.jpg","img/object_images/paper_cup02.jpg","img/object_images/car01.jpg","1","1","1","1","1","1","0.495701600098982","0.450313600013033","0.306403900031","1","1","1","1","1","1","1","1","1"
"260069","img/object_images/car01.jpg","img/object_images/kite01.jpg",NA,"1","1",NA,"1","1",NA,"0.306403900031","0.495701600098982",NA,"1","1",NA,"1","1",NA,"1","1",NA
"260069","img/object_images/tie01.jpg",NA,"img/object_images/toy_train02.jpg","1",NA,"1","0",NA,"1","0.454637599992566",NA,"0.391548700048588","1",NA,"1","1",NA,"1","1",NA,"1"
"260069","img/object_images/toy_train02.jpg","img/object_images/tie01.jpg","img/object_images/decorative02.jpg","1","1","1","1","0","0","0.391548700048588","0.454637599992566","0.442222699988633","1","1","1","1","1","1","1","1","1"
"260069","img/object_images/decorative02.jpg","img/object_images/toy_train02.jpg","img/object_images/broom01.jpg","1","1","1","0","1","1","0.442222699988633","0.391548700048588","0.345828299992718","1","1","1","1","1","1","1","1","1"
"260069","img/object_images/broom01.jpg","img/object_images/decorative02.jpg","img/object_images/video_game06.jpg","1","1","0","1","0","0","0.345828299992718","0.442222699988633","0.335036400007084","1","1","1","1","1","1","1","1","1"
"260069","img/object_images/video_game06.jpg","img/object_images/broom01.jpg","img/object_images/drone02.jpg","0","1","0","0","1","0","0.335036400007084","0.345828299992718","0.381522499956191","1","1","1","1","1","1","1","1","1"
"260069","img/object_images/drone02.jpg","img/object_images/video_game06.jpg","img/object_images/airfryer01.jpg","0","0","0","0","0","0","0.381522499956191","0.335036400007084","0.53231580008287","1","1","1","1","1","1","1","1","1"
"260069","img/object_images/airfryer01.jpg","img/object_images/drone02.jpg","img/object_images/Wisk01.jpg","0","0","1","0","0","1","0.53231580008287","0.381522499956191","0.460573600023054","1","1","1","1","1","1","1","1","1"
"260069","img/object_images/Wisk01.jpg","img/object_images/airfryer01.jpg","img/object_images/brief_case01.jpg","1","0","0","1","0","0","0.460573600023054","0.53231580008287","0.350235499907285","1","1","1","1","1","1","1","1","1"
"260069","img/object_images/brief_case01.jpg","img/object_images/Wisk01.jpg","img/object_images/brief_case02.jpg","0","1","1","0","1","1","0.350235499907285","0.460573600023054","0.425604999996722","1","1","1","1","1","1","1","1","1"
"260069","img/object_images/brief_case02.jpg","img/object_images/brief_case01.jpg","img/object_images/couch04.jpg","1","0","1","1","0","1","0.425604999996722","0.350235499907285","0.411177899921313","1","1","1","1","1","1","1","1","1"
"260069","img/object_images/couch04.jpg","img/object_images/brief_case02.jpg","img/object_images/chair01.jpg","1","1","1","1","1","0","0.411177899921313","0.425604999996722","0.316943200072274","1","1","1","1","1","1","1","1","1"
"260069","img/object_images/chair01.jpg","img/object_images/couch04.jpg","img/object_images/guitar01.jpg","1","1","1","0","1","1","0.316943200072274","0.411177899921313","0.559380099992268","1","1","1","1","1","1","1","1","1"
"260069","img/object_images/guitar01.jpg","img/object_images/chair01.jpg","img/object_images/pot01.jpg","1","1","1","1","0","0","0.559380099992268","0.316943200072274","0.340685199946165","1","1","1","1","1","1","1","1","1"
"260069","img/object_images/pot01.jpg","img/object_images/guitar01.jpg","img/object_images/lamp01.jpg","1","1","1","0","1","1","0.340685199946165","0.559380099992268","0.368301999988034","1","1","1","1","1","1","1","1","1"
"260069","img/object_images/lamp01.jpg","img/object_images/pot01.jpg","img/object_images/ball01.jpg","1","1","1","1","0","1","0.368301999988034","0.340685199946165","0.330095199984498","1","1","1","1","1","1","1","1","1"
"260069","img/object_images/ball01.jpg","img/object_images/lamp01.jpg","img/object_images/Recycling01.jpg","1","1","1","1","1","1","0.330095199984498","0.368301999988034","0.457989300019108","1","1","1","1","1","1","1","1","1"
"260069","img/object_images/Recycling01.jpg","img/object_images/ball01.jpg","img/object_images/car02.jpg","1","1","0","1","1","0","0.457989300019108","0.330095199984498","0.38670789997559","1","1","1","1","1","1","1","1","1"
"260069","img/object_images/car02.jpg","img/object_images/Recycling01.jpg","img/object_images/cochlear_implant01.jpg","0","1","1","0","1","0","0.38670789997559","0.457989300019108","0.433886099955998","1","1","1","1","1","1","1","1","1"
"260069","img/object_images/cochlear_implant01.jpg","img/object_images/car02.jpg","img/object_images/soap01.jpg","1","0","1","0","0","0","0.433886099955998","0.38670789997559","0.474370599957183","1","1","1","1","1","1","1","1","1"
"260069","img/object_images/soap01.jpg","img/object_images/cochlear_implant01.jpg","img/object_images/helmet05.jpg","1","1","1","0","0","1","0.474370599957183","0.433886099955998","0.557291900040582","1","1","1","1","1","1","1","1","1"
"260069","img/object_images/helmet05.jpg","img/object_images/soap01.jpg","img/object_images/toilet_paper01.jpg","1","1","1","1","0","1","0.557291900040582","0.474370599957183","0.461220200057141","1","1","1","1","1","1","1","1","1"
"260069","img/object_images/toilet_paper01.jpg","img/object_images/helmet05.jpg","img/object_images/container01.jpg","1","1","1","1","1","0","0.461220200057141","0.557291900040582","0.35989600000903","1","1","1","1","1","1","1","1","1"
"260069","img/object_images/container01.jpg","img/object_images/toilet_paper01.jpg","img/object_images/razor03.jpg","1","1","1","0","1","0","0.35989600000903","0.461220200057141","0.366820499999449","1","1","1","1","1","1","1","1","1"
"260069","img/object_images/razor03.jpg","img/object_images/container01.jpg","img/object_images/pitcher03.jpg","1","1","1","0","0","1","0.366820499999449","0.35989600000903","0.374659200082533","1","1","1","1","1","1","1","1","1"
"260069","img/object_images/pitcher03.jpg","img/object_images/razor03.jpg","img/object_images/gloves05.jpg","1","1","1","1","0","1","0.374659200082533","0.366820499999449","0.351849299971946","1","1","1","1","1","1","1","1","1"
"260069","img/object_images/gloves05.jpg","img/object_images/pitcher03.jpg","img/object_images/hat02.jpg","1","1","1","1","1","0","0.351849299971946","0.374659200082533","0.516526099992916","1","1","1","1","1","1","1","1","1"
"260069","img/object_images/hat02.jpg","img/object_images/gloves05.jpg","img/object_images/basketball_hoop02.jpg","1","1","1","0","1","0","0.516526099992916","0.351849299971946","0.564038999960758","1","1","1","1","1","1","1","1","1"
"260069","img/object_images/basketball_hoop02.jpg","img/object_images/hat02.jpg","img/object_images/ironing_table02.jpg","1","1","1","0","0","0","0.564038999960758","0.516526099992916","0.522076099994592","1","1","1","1","1","1","1","1","1"
"260069","img/object_images/ironing_table02.jpg","img/object_images/basketball_hoop02.jpg","img/object_images/bottle12.jpg","1","1","1","0","0","1","0.522076099994592","0.564038999960758","0.325208200025372","1","1","1","1","1","1","1","1","1"
"260069","img/object_images/bottle12.jpg","img/object_images/ironing_table02.jpg","img/object_images/lantern01.jpg","1","1","1","1","0","1","0.325208200025372","0.522076099994592","0.388539599953219","1","1","1","1","1","1","1","1","1"
"260069","img/object_images/lantern01.jpg","img/object_images/bottle12.jpg","img/object_images/Woopie01.jpg","1","1","1","1","1","1","0.388539599953219","0.325208200025372","0.627832500031218","1","1","1","1","1","1","1","1","1"
"260069","img/object_images/Woopie01.jpg","img/object_images/lantern01.jpg",NA,"1","1",NA,"1","1",NA,"0.627832500031218","0.388539599953219",NA,"1","1",NA,"1","1",NA,"1","1",NA
"260069","img/object_images/pot01 (1).jpg",NA,"img/object_images/sink01.jpg","1",NA,"1","0",NA,"0","0.618481399957091",NA,"0.588967500021681","1",NA,"1","1",NA,"1","1",NA,"1"
"260069","img/object_images/sink01.jpg","img/object_images/pot01 (1).jpg","img/object_images/shovel03.jpg","1","1","1","0","0","1","0.588967500021681","0.618481399957091","0.364468399900943","1","1","1","1","1","1","1","1","1"
"260069","img/object_images/shovel03.jpg","img/object_images/sink01.jpg","img/object_images/gauze01.jpg","1","1","0","1","0","0","0.364468399900943","0.588967500021681","0.433333099936135","1","1","1","1","1","1","1","1","1"
"260069","img/object_images/gauze01.jpg","img/object_images/shovel03.jpg","img/object_images/helmet01.jpg","0","1","1","0","1","0","0.433333099936135","0.364468399900943","0.565307900076732","1","1","1","1","1","1","1","1","1"
"260069","img/object_images/helmet01.jpg","img/object_images/gauze01.jpg","img/object_images/video_game07.jpg","1","0","1","0","0","1","0.565307900076732","0.433333099936135","0.440303900046274","1","1","1","1","1","1","1","1","1"
"260069","img/object_images/video_game07.jpg","img/object_images/helmet01.jpg","img/object_images/Stool01.jpg","1","1","0","1","0","0","0.440303900046274","0.565307900076732","0.372693500015885","1","1","1","1","1","1","1","1","1"
"260069","img/object_images/Stool01.jpg","img/object_images/video_game07.jpg","img/object_images/fridge03.jpg","0","1","1","0","1","0","0.372693500015885","0.440303900046274","0.454862199956551","1","1","1","1","1","1","1","1","1"
"260069","img/object_images/fridge03.jpg","img/object_images/Stool01.jpg","img/object_images/bird_house02.jpg","1","0","1","0","0","1","0.454862199956551","0.372693500015885","0.396931700059213","1","1","1","1","1","1","1","1","1"
"260069","img/object_images/bird_house02.jpg","img/object_images/fridge03.jpg","img/object_images/frisbee01.jpg","1","1","1","1","0","1","0.396931700059213","0.454862199956551","0.428366799955256","1","1","1","1","1","1","1","1","1"
"260069","img/object_images/frisbee01.jpg","img/object_images/bird_house02.jpg","img/object_images/jewel04.jpg","1","1","1","1","1","0","0.428366799955256","0.396931700059213","0.451343700056896","1","1","1","1","1","1","1","1","1"
"260069","img/object_images/jewel04.jpg","img/object_images/frisbee01.jpg","img/object_images/Ring02.jpg","1","1","1","0","1","0","0.451343700056896","0.428366799955256","0.658265799982473","1","1","1","1","1","1","1","1","1"
"260069","img/object_images/Ring02.jpg","img/object_images/jewel04.jpg","img/object_images/dart01.jpg","1","1","1","0","0","0","0.658265799982473","0.451343700056896","0.508921999949962","1","1","1","1","1","1","1","1","1"
"260069","img/object_images/dart01.jpg","img/object_images/Ring02.jpg","img/object_images/toy04.jpg","1","1","0","0","0","0","0.508921999949962","0.658265799982473","0.404179699951783","1","1","1","1","1","1","1","1","1"
"260069","img/object_images/toy04.jpg","img/object_images/dart01.jpg","img/object_images/watch01.jpg","0","1","0","0","0","0","0.404179699951783","0.508921999949962","0.386679399991408","1","1","1","1","1","1","1","1","1"
"260069","img/object_images/watch01.jpg","img/object_images/toy04.jpg","img/object_images/ornament01.jpg","0","0","1","0","0","1","0.386679399991408","0.404179699951783","0.432002799934708","1","1","1","1","1","1","1","1","1"
"260069","img/object_images/ornament01.jpg","img/object_images/watch01.jpg","img/object_images/mirror01.jpg","1","0","1","1","0","1","0.432002799934708","0.386679399991408","0.423131700023077","1","1","1","1","1","1","1","1","1"
"260069","img/object_images/mirror01.jpg","img/object_images/ornament01.jpg","img/object_images/Vacuum01.jpg","1","1","1","1","1","0","0.423131700023077","0.432002799934708","0.428484399919398","1","1","1","1","1","1","1","1","1"
"260069","img/object_images/Vacuum01.jpg","img/object_images/mirror01.jpg","img/object_images/bow01.jpg","1","1","0","0","1","1","0.428484399919398","0.423131700023077","0.425808300031349","1","1","1","1","1","1","1","1","1"
"260069","img/object_images/bow01.jpg","img/object_images/Vacuum01.jpg","img/object_images/toy03.jpg","0","1","1","1","0","1","0.425808300031349","0.428484399919398","0.503818199969828","1","1","1","1","1","1","1","1","1"
"260069","img/object_images/toy03.jpg","img/object_images/bow01.jpg","img/object_images/MetalWire01.jpg","1","0","1","1","1","0","0.503818199969828","0.425808300031349","0.526230399962515","1","1","1","1","1","1","1","1","1"
"260069","img/object_images/MetalWire01.jpg","img/object_images/toy03.jpg","img/object_images/guitar02.jpg","1","1","1","0","1","0","0.526230399962515","0.503818199969828","0.445916999946348","1","1","1","1","1","1","1","1","1"
"260069","img/object_images/guitar02.jpg","img/object_images/MetalWire01.jpg","img/object_images/crown02.jpg","1","1","1","0","0","1","0.445916999946348","0.526230399962515","0.375498599954881","1","1","1","1","1","1","1","1","1"
"260069","img/object_images/crown02.jpg","img/object_images/guitar02.jpg","img/object_images/acoustic_capo01.jpg","1","1","1","1","0","1","0.375498599954881","0.445916999946348","0.48862000007648","1","1","1","1","1","1","1","1","1"
"260069","img/object_images/acoustic_capo01.jpg","img/object_images/crown02.jpg","img/object_images/Tin01.jpg","1","1","1","1","1","1","0.48862000007648","0.375498599954881","0.437998199951835","1","1","1","1","1","1","1","1","1"
"260069","img/object_images/Tin01.jpg","img/object_images/acoustic_capo01.jpg","img/object_images/tool09.jpg","1","1","1","1","1","1","0.437998199951835","0.48862000007648","0.360638200072572","1","1","1","1","1","1","1","1","1"
"260069","img/object_images/tool09.jpg","img/object_images/Tin01.jpg","img/object_images/bottle05.jpg","1","1","0","1","1","0","0.360638200072572","0.437998199951835","0.385888100019656","1","1","1","1","1","1","1","1","1"
"260069","img/object_images/bottle05.jpg","img/object_images/tool09.jpg","img/object_images/judge_gavel01.jpg","0","1","1","0","1","1","0.385888100019656","0.360638200072572","0.314676400041208","1","1","1","1","1","1","1","1","1"
"260069","img/object_images/judge_gavel01.jpg","img/object_images/bottle05.jpg","img/object_images/towel02.jpg","1","0","1","1","0","1","0.314676400041208","0.385888100019656","0.400538999936543","1","1","1","1","1","1","1","1","1"
"260069","img/object_images/towel02.jpg","img/object_images/judge_gavel01.jpg","img/object_images/outlet01.jpg","1","1","0","1","1","0","0.400538999936543","0.314676400041208","0.341365300002508","1","1","1","1","1","1","1","1","1"
"260069","img/object_images/outlet01.jpg","img/object_images/towel02.jpg","img/object_images/tool02.jpg","0","1","1","0","1","1","0.341365300002508","0.400538999936543","0.438176199910231","1","1","1","1","1","1","1","1","1"
"260069","img/object_images/tool02.jpg","img/object_images/outlet01.jpg","img/object_images/stapler.jpg","1","0","1","1","0","1","0.438176199910231","0.341365300002508","0.532138300011866","1","1","1","1","1","1","1","1","1"
"260069","img/object_images/stapler.jpg","img/object_images/tool02.jpg",NA,"1","1",NA,"1","1",NA,"0.532138300011866","0.438176199910231",NA,"1","1",NA,"1","1",NA,"1","1",NA
"260069","img/object_images/pitcher05.jpg",NA,"img/object_images/accardion01.jpg","0",NA,"1","0",NA,"1","1.16274440009147",NA,"0.553506499971263","1",NA,"1","1",NA,"1","1",NA,"1"
"260069","img/object_images/accardion01.jpg","img/object_images/pitcher05.jpg","img/object_images/toy05.jpg","1","0","1","1","0","0","0.553506499971263","1.16274440009147","0.39490349998232","1","1","1","1","1","1","1","1","1"
"260069","img/object_images/toy05.jpg","img/object_images/accardion01.jpg","img/object_images/Lint_Roller02.jpg","1","1","1","0","1","0","0.39490349998232","0.553506499971263","0.501405199989676","1","1","1","1","1","1","1","1","1"
"260069","img/object_images/Lint_Roller02.jpg","img/object_images/toy05.jpg","img/object_images/chair02.jpg","1","1","1","0","0","1","0.501405199989676","0.39490349998232","0.352731900056824","1","1","1","1","1","1","1","1","1"
"260069","img/object_images/chair02.jpg","img/object_images/Lint_Roller02.jpg","img/object_images/vase01.jpg","1","1","1","1","0","0","0.352731900056824","0.501405199989676","0.469504999928176","1","1","1","1","1","1","1","1","1"
"260069","img/object_images/vase01.jpg","img/object_images/chair02.jpg","img/object_images/laptop01.jpg","1","1","1","0","1","0","0.469504999928176","0.352731900056824","0.322135700029321","1","1","1","1","1","1","1","1","1"
"260069","img/object_images/laptop01.jpg","img/object_images/vase01.jpg","img/object_images/surf_board01.jpg","1","1","1","0","0","1","0.322135700029321","0.469504999928176","0.409053100040182","1","1","1","1","1","1","1","1","1"
"260069","img/object_images/surf_board01.jpg","img/object_images/laptop01.jpg","img/object_images/fan04.jpg","1","1","1","1","0","0","0.409053100040182","0.322135700029321","0.458582299994305","1","1","1","1","1","1","1","1","1"
"260069","img/object_images/fan04.jpg","img/object_images/surf_board01.jpg","img/object_images/microphone03.jpg","1","1","1","0","1","1","0.458582299994305","0.409053100040182","0.390265199937858","1","1","1","1","1","1","1","1","1"
"260069","img/object_images/microphone03.jpg","img/object_images/fan04.jpg","img/object_images/laptop03.jpg","1","1","1","1","0","1","0.390265199937858","0.458582299994305","0.392281000036746","1","1","1","1","1","1","1","1","1"
"260069","img/object_images/laptop03.jpg","img/object_images/microphone03.jpg","img/object_images/chess_piece01.jpg","1","1","0","1","1","0","0.392281000036746","0.390265199937858","0.423199699958786","1","1","1","1","1","1","1","1","2"
"260069","img/object_images/chess_piece01.jpg","img/object_images/laptop03.jpg","img/object_images/jewel03.jpg","0","1","1","0","1","1","0.423199699958786","0.392281000036746","0.414408599957824","1","1","1","1","1","1","2","1","1"
"260069","img/object_images/jewel03.jpg","img/object_images/chess_piece01.jpg","img/object_images/hair_brush02.jpg","1","0","0","1","0","0","0.414408599957824","0.423199699958786","0.397694000042975","1","1","1","1","1","1","1","2","1"
"260069","img/object_images/hair_brush02.jpg","img/object_images/jewel03.jpg","img/object_images/calculator01.jpg","0","1","1","0","1","1","0.397694000042975","0.414408599957824","0.362262199982069","1","1","1","1","1","1","1","1","1"
"260069","img/object_images/calculator01.jpg","img/object_images/hair_brush02.jpg","img/object_images/robe01.jpg","1","0","1","1","0","1","0.362262199982069","0.397694000042975","0.366616799961776","1","1","1","1","1","1","1","1","1"
"260069","img/object_images/robe01.jpg","img/object_images/calculator01.jpg","img/object_images/stove01.jpg","1","1","1","1","1","0","0.366616799961776","0.362262199982069","0.502160800038837","1","1","1","1","1","1","1","1","1"
"260069","img/object_images/stove01.jpg","img/object_images/robe01.jpg","img/object_images/backpack03.jpg","1","1","1","0","1","1","0.502160800038837","0.366616799961776","0.48787169996649","1","1","1","1","1","1","1","1","1"
"260069","img/object_images/backpack03.jpg","img/object_images/stove01.jpg","img/object_images/trash_can03.jpg","1","1","1","1","0","1","0.48787169996649","0.502160800038837","0.423864600015804","1","1","1","1","1","1","1","1","1"
"260069","img/object_images/trash_can03.jpg","img/object_images/backpack03.jpg","img/object_images/lock01.jpg","1","1","1","1","1","0","0.423864600015804","0.48787169996649","0.634205900016241","1","1","1","1","1","1","1","1","1"
"260069","img/object_images/lock01.jpg","img/object_images/trash_can03.jpg","img/object_images/spatula02.jpg","1","1","1","0","1","1","0.634205900016241","0.423864600015804","0.512237100047059","1","1","1","1","1","1","1","1","1"
"260069","img/object_images/spatula02.jpg","img/object_images/lock01.jpg","img/object_images/gift_box05.jpg","1","1","1","1","0","0","0.512237100047059","0.634205900016241","0.629121400066651","1","1","1","1","1","1","1","1","1"
"260069","img/object_images/gift_box05.jpg","img/object_images/spatula02.jpg","img/object_images/trash_can05.jpg","1","1","1","0","1","1","0.629121400066651","0.512237100047059","0.366533699911088","1","1","1","1","1","1","1","1","1"
"260069","img/object_images/trash_can05.jpg","img/object_images/gift_box05.jpg","img/object_images/Vest02.jpg","1","1","1","1","0","0","0.366533699911088","0.629121400066651","0.51831980003044","1","1","1","1","1","1","1","1","1"
"260069","img/object_images/Vest02.jpg","img/object_images/trash_can05.jpg","img/object_images/bucket02.jpg","1","1","0","0","1","1","0.51831980003044","0.366533699911088","0.446155400015414","1","1","1","1","1","1","1","1","1"
"260069","img/object_images/bucket02.jpg","img/object_images/Vest02.jpg","img/object_images/combs01.jpg","0","1","1","1","0","1","0.446155400015414","0.51831980003044","0.436718800105155","1","1","1","1","1","1","1","1","1"
"260069","img/object_images/combs01.jpg","img/object_images/bucket02.jpg","img/object_images/helmet02.jpg","1","0","1","1","1","0","0.436718800105155","0.446155400015414","0.378097400069237","1","1","1","1","1","1","1","1","1"
"260069","img/object_images/helmet02.jpg","img/object_images/combs01.jpg","img/object_images/ball02.jpg","1","1","1","0","1","1","0.378097400069237","0.436718800105155","0.33799419994466","1","1","1","1","1","1","1","1","1"
"260069","img/object_images/ball02.jpg","img/object_images/helmet02.jpg","img/object_images/hair_dryer01.jpg","1","1","1","1","0","0","0.33799419994466","0.378097400069237","0.45343110000249","1","1","1","1","1","1","1","1","1"
"260069","img/object_images/hair_dryer01.jpg","img/object_images/ball02.jpg","img/object_images/shoes08.jpg","1","1","1","0","1","1","0.45343110000249","0.33799419994466","0.385358600062318","1","1","1","1","1","1","1","1","1"
"260069","img/object_images/shoes08.jpg","img/object_images/hair_dryer01.jpg","img/object_images/umbrella01.jpg","1","1","0","1","0","0","0.385358600062318","0.45343110000249","0.36392369994428","1","1","1","1","1","1","1","1","1"
"260069","img/object_images/umbrella01.jpg","img/object_images/shoes08.jpg","img/object_images/towels01.jpg","0","1","1","0","1","0","0.36392369994428","0.385358600062318","0.579421499976888","1","1","1","1","1","1","1","1","1"
"260069","img/object_images/towels01.jpg","img/object_images/umbrella01.jpg",NA,"1","0",NA,"0","0",NA,"0.579421499976888","0.36392369994428",NA,"1","1",NA,"1","1",NA,"1","1",NA
"260069","img/object_images/tv02.jpg",NA,"img/object_images/pitcher01.jpg","1",NA,"1","0",NA,"0","0.489950699964538",NA,"0.513648299966007","1",NA,"1","1",NA,"1","1",NA,"1"
"260069","img/object_images/pitcher01.jpg","img/object_images/tv02.jpg","img/object_images/hammer03.jpg","1","1","1","0","0","1","0.513648299966007","0.489950699964538","0.366940500098281","1","1","1","1","1","1","1","1","1"
"260069","img/object_images/hammer03.jpg","img/object_images/pitcher01.jpg","img/object_images/floppy_disk02.jpg","1","1","1","1","0","0","0.366940500098281","0.513648299966007","0.51350789994467","1","1","1","1","1","1","1","1","1"
"260069","img/object_images/floppy_disk02.jpg","img/object_images/hammer03.jpg","img/object_images/microscope01.jpg","1","1","0","0","1","0","0.51350789994467","0.366940500098281","0.519805500051007","1","1","1","1","1","1","1","1","1"
"260069","img/object_images/microscope01.jpg","img/object_images/floppy_disk02.jpg","img/object_images/crutches02.jpg","0","1","1","0","0","0","0.519805500051007","0.51350789994467","0.536544400034472","1","1","1","1","1","1","1","1","1"
"260069","img/object_images/crutches02.jpg","img/object_images/microscope01.jpg","img/object_images/knife04.jpg","1","0","1","0","0","1","0.536544400034472","0.519805500051007","0.442733200034127","1","1","1","1","1","1","1","1","1"
"260069","img/object_images/knife04.jpg","img/object_images/crutches02.jpg","img/object_images/retainer01.jpg","1","1","1","1","0","0","0.442733200034127","0.536544400034472","0.328539400012232","1","1","1","1","1","1","1","1","1"
"260069","img/object_images/retainer01.jpg","img/object_images/knife04.jpg","img/object_images/bottle01.jpg","1","1","1","0","1","0","0.328539400012232","0.442733200034127","0.3617425999837","1","1","1","1","1","1","1","1","1"
"260069","img/object_images/bottle01.jpg","img/object_images/retainer01.jpg","img/object_images/tennis_racket02.jpg","1","1","1","0","0","1","0.3617425999837","0.328539400012232","0.387468399945647","1","1","1","1","1","1","1","1","1"
"260069","img/object_images/tennis_racket02.jpg","img/object_images/bottle01.jpg","img/object_images/book03.jpg","1","1","1","1","0","1","0.387468399945647","0.3617425999837","0.391514900024049","1","1","1","1","1","1","1","1","1"
"260069","img/object_images/book03.jpg","img/object_images/tennis_racket02.jpg","img/object_images/Staples01.jpg","1","1","1","1","1","1","0.391514900024049","0.387468399945647","0.369389300001785","1","1","1","1","1","1","1","1","1"
"260069","img/object_images/Staples01.jpg","img/object_images/book03.jpg","img/object_images/clip03.jpg","1","1","1","1","1","0","0.369389300001785","0.391514900024049","0.351639500004239","1","1","1","1","1","1","1","1","1"
"260069","img/object_images/clip03.jpg","img/object_images/Staples01.jpg","img/object_images/floppy_disk03.jpg","1","1","1","0","1","1","0.351639500004239","0.369389300001785","0.351754800067283","1","1","1","1","1","1","1","1","1"
"260069","img/object_images/floppy_disk03.jpg","img/object_images/clip03.jpg","img/object_images/compass01.jpg","1","1","1","1","0","1","0.351754800067283","0.351639500004239","0.353034900035709","1","1","1","1","1","1","1","1","1"
"260069","img/object_images/compass01.jpg","img/object_images/floppy_disk03.jpg","img/object_images/usb02.jpg","1","1","0","1","1","0","0.353034900035709","0.351754800067283","0.398985599982552","1","1","1","1","1","1","1","1","1"
"260069","img/object_images/usb02.jpg","img/object_images/compass01.jpg","img/object_images/chair05.jpg","0","1","1","0","1","0","0.398985599982552","0.353034900035709","0.510848899953999","1","1","1","1","1","1","1","1","1"
"260069","img/object_images/chair05.jpg","img/object_images/usb02.jpg","img/object_images/ear_bud01.jpg","1","0","1","0","0","1","0.510848899953999","0.398985599982552","0.361058400012553","1","1","1","1","1","1","1","1","1"
"260069","img/object_images/ear_bud01.jpg","img/object_images/chair05.jpg","img/object_images/Thermometer01.jpg","1","1","1","1","0","0","0.361058400012553","0.510848899953999","0.439040100085549","1","1","1","1","1","1","1","1","1"
"260069","img/object_images/Thermometer01.jpg","img/object_images/ear_bud01.jpg","img/object_images/wire02.jpg","1","1","1","0","1","1","0.439040100085549","0.361058400012553","0.435182899935171","1","1","1","1","1","1","1","1","1"
"260069","img/object_images/wire02.jpg","img/object_images/Thermometer01.jpg","img/object_images/knit05.jpg","1","1","1","1","0","1","0.435182899935171","0.439040100085549","0.323419400025159","1","1","1","1","1","1","1","1","1"
"260069","img/object_images/knit05.jpg","img/object_images/wire02.jpg","img/object_images/chess_piece02.jpg","1","1","1","1","1","1","0.323419400025159","0.435182899935171","0.451964699896052","1","1","1","1","1","1","1","1","1"
"260069","img/object_images/chess_piece02.jpg","img/object_images/knit05.jpg","img/object_images/Oven01.jpg","1","1","1","1","1","1","0.451964699896052","0.323419400025159","0.374985100002959","1","1","1","1","1","1","1","1","1"
"260069","img/object_images/Oven01.jpg","img/object_images/chess_piece02.jpg","img/object_images/lid01.jpg","1","1","1","1","1","1","0.374985100002959","0.451964699896052","0.399102299939841","1","1","1","1","1","1","1","1","1"
"260069","img/object_images/lid01.jpg","img/object_images/Oven01.jpg","img/object_images/cellphone01.jpg","1","1","1","1","1","1","0.399102299939841","0.374985100002959","0.37338829995133","1","1","1","1","1","1","1","1","1"
"260069","img/object_images/cellphone01.jpg","img/object_images/lid01.jpg","img/object_images/paint_brush04.jpg","1","1","1","1","1","0","0.37338829995133","0.399102299939841","0.515942999976687","1","1","1","1","1","1","1","1","1"
"260069","img/object_images/paint_brush04.jpg","img/object_images/cellphone01.jpg","img/object_images/clock02.jpg","1","1","0","0","1","0","0.515942999976687","0.37338829995133","0.544218700029887","1","1","1","1","1","1","1","1","1"
"260069","img/object_images/clock02.jpg","img/object_images/paint_brush04.jpg","img/object_images/pillows01.jpg","0","1","1","0","0","1","0.544218700029887","0.515942999976687","0.449620799976401","1","1","1","1","1","1","1","1","1"
"260069","img/object_images/pillows01.jpg","img/object_images/clock02.jpg","img/object_images/note_book01.jpg","1","0","1","1","0","0","0.449620799976401","0.544218700029887","0.382436099927872","1","1","1","1","1","1","1","1","1"
"260069","img/object_images/note_book01.jpg","img/object_images/pillows01.jpg","img/object_images/motorcycle01.jpg","1","1","1","0","1","1","0.382436099927872","0.449620799976401","0.355393800069578","1","1","1","1","1","1","1","1","1"
"260069","img/object_images/motorcycle01.jpg","img/object_images/note_book01.jpg","img/object_images/bell02.jpg","1","1","0","1","0","0","0.355393800069578","0.382436099927872","0.391052300110459","1","1","1","1","1","1","1","1","1"
"260069","img/object_images/bell02.jpg","img/object_images/motorcycle01.jpg","img/object_images/pen03.jpg","0","1","1","0","1","0","0.391052300110459","0.355393800069578","0.595790999941528","1","1","1","1","1","1","1","1","1"
"260069","img/object_images/pen03.jpg","img/object_images/bell02.jpg",NA,"1","0",NA,"0","0",NA,"0.595790999941528","0.391052300110459",NA,"1","1",NA,"1","1",NA,"1","1",NA
"260069","img/object_images/boat02.jpg",NA,"img/object_images/coloring_pencil02.jpg","1",NA,"1","1",NA,"0","0.81342110002879",NA,"0.44756989995949","1",NA,"1","1",NA,"1","1",NA,"1"
"260069","img/object_images/coloring_pencil02.jpg","img/object_images/boat02.jpg","img/object_images/flask01.jpg","1","1","1","0","1","0","0.44756989995949","0.81342110002879","0.461116599966772","1","1","1","1","1","1","1","1","1"
"260069","img/object_images/flask01.jpg","img/object_images/coloring_pencil02.jpg","img/object_images/camera_lens01.jpg","1","1","1","0","0","1","0.461116599966772","0.44756989995949","0.365095200017095","1","1","1","1","1","1","1","1","1"
"260069","img/object_images/camera_lens01.jpg","img/object_images/flask01.jpg","img/object_images/wagon_cart03.jpg","1","1","0","1","0","1","0.365095200017095","0.461116599966772","0.478592299972661","1","1","1","1","1","1","1","1","1"
"260069","img/object_images/wagon_cart03.jpg","img/object_images/camera_lens01.jpg","img/object_images/dog_leash01.jpg","0","1","1","1","1","0","0.478592299972661","0.365095200017095","0.525797799928114","1","1","1","1","1","1","1","1","1"
"260069","img/object_images/dog_leash01.jpg","img/object_images/wagon_cart03.jpg","img/object_images/tool19.jpg","1","0","1","0","1","1","0.525797799928114","0.478592299972661","0.394711600034498","1","1","1","1","1","1","1","1","1"
"260069","img/object_images/tool19.jpg","img/object_images/dog_leash01.jpg","img/object_images/shoes07.jpg","1","1","1","1","0","0","0.394711600034498","0.525797799928114","0.509761100052856","1","1","1","1","1","1","1","1","1"
"260069","img/object_images/shoes07.jpg","img/object_images/tool19.jpg","img/object_images/pen05.jpg","1","1","0","0","1","0","0.509761100052856","0.394711600034498","0.417555300053209","1","1","1","1","1","1","1","1","1"
"260069","img/object_images/pen05.jpg","img/object_images/shoes07.jpg","img/object_images/WoodBox01.jpg","0","1","1","0","0","0","0.417555300053209","0.509761100052856","0.539626899990253","1","1","1","1","1","1","1","1","1"
"260069","img/object_images/WoodBox01.jpg","img/object_images/pen05.jpg","img/object_images/purse04.jpg","1","0","1","0","0","1","0.539626899990253","0.417555300053209","0.374727000016719","1","1","1","1","1","1","1","1","1"
"260069","img/object_images/purse04.jpg","img/object_images/WoodBox01.jpg","img/object_images/bottle09.jpg","1","1","1","1","0","0","0.374727000016719","0.539626899990253","0.447858300060034","1","1","1","1","1","1","1","1","1"
"260069","img/object_images/bottle09.jpg","img/object_images/purse04.jpg","img/object_images/toilet_paper_dispenser01.jpg","1","1","1","0","1","1","0.447858300060034","0.374727000016719","0.373873200034723","1","1","1","1","1","1","1","1","1"
"260069","img/object_images/toilet_paper_dispenser01.jpg","img/object_images/bottle09.jpg","img/object_images/bean_bag02.jpg","1","1","1","1","0","1","0.373873200034723","0.447858300060034","0.329251499962993","1","1","1","1","1","1","1","1","1"
"260069","img/object_images/bean_bag02.jpg","img/object_images/toilet_paper_dispenser01.jpg","img/object_images/cellphone03.jpg","1","1","0","1","1","0","0.329251499962993","0.373873200034723","0.390073999995366","1","1","1","1","1","1","1","1","1"
"260069","img/object_images/cellphone03.jpg","img/object_images/bean_bag02.jpg","img/object_images/fan02.jpg","0","1","1","0","1","0","0.390073999995366","0.329251499962993","0.564952300046571","1","1","1","1","1","1","1","1","1"
"260069","img/object_images/fan02.jpg","img/object_images/cellphone03.jpg","img/object_images/hot_air_balloon02.jpg","1","0","0","0","0","0","0.564952300046571","0.390073999995366","0.40045860002283","1","1","1","1","1","1","1","1","1"
"260069","img/object_images/hot_air_balloon02.jpg","img/object_images/fan02.jpg","img/object_images/helmet04.jpg","0","1","1","0","0","1","0.40045860002283","0.564952300046571","0.40459750010632","1","1","1","1","1","1","1","1","1"
"260069","img/object_images/helmet04.jpg","img/object_images/hot_air_balloon02.jpg","img/object_images/bicycle01.jpg","1","0","1","1","0","1","0.40459750010632","0.40045860002283","0.393503600033","1","1","1","1","1","1","1","1","1"
"260069","img/object_images/bicycle01.jpg","img/object_images/helmet04.jpg","img/object_images/toaster01.jpg","1","1","1","1","1","1","0.393503600033","0.40459750010632","0.364241600036621","1","1","1","1","1","1","1","1","1"
"260069","img/object_images/toaster01.jpg","img/object_images/bicycle01.jpg","img/object_images/water_scooter01.jpg","1","1","1","1","1","1","0.364241600036621","0.393503600033","0.361901200027205","1","1","1","1","1","1","1","1","1"
"260069","img/object_images/water_scooter01.jpg","img/object_images/toaster01.jpg","img/object_images/chair03.jpg","1","1","1","1","1","0","0.361901200027205","0.364241600036621","0.662259800010361","1","1","1","1","1","1","1","1","1"
"260069","img/object_images/chair03.jpg","img/object_images/water_scooter01.jpg","img/object_images/bottle02.jpg","1","1","1","0","1","1","0.662259800010361","0.361901200027205","0.457459399942309","1","1","1","1","1","1","1","1","1"
"260069","img/object_images/bottle02.jpg","img/object_images/chair03.jpg","img/object_images/bottle10.jpg","1","1","1","1","0","1","0.457459399942309","0.662259800010361","0.39544140000362","1","1","1","1","1","1","1","1","1"
"260069","img/object_images/bottle10.jpg","img/object_images/bottle02.jpg","img/object_images/knit01.jpg","1","1","1","1","1","0","0.39544140000362","0.457459399942309","0.477253500022925","1","1","1","1","1","1","1","1","1"
"260069","img/object_images/knit01.jpg","img/object_images/bottle10.jpg","img/object_images/hat06.jpg","1","1","1","0","1","0","0.477253500022925","0.39544140000362","0.36613550002221","1","1","1","1","1","1","1","1","1"
"260069","img/object_images/hat06.jpg","img/object_images/knit01.jpg","img/object_images/piggy_bank01.jpg","1","1","1","0","0","1","0.36613550002221","0.477253500022925","0.379024800029583","1","1","1","1","1","1","1","1","1"
"260069","img/object_images/piggy_bank01.jpg","img/object_images/hat06.jpg","img/object_images/boat_toy10.jpg","1","1","0","1","0","0","0.379024800029583","0.36613550002221","0.377153699984774","1","1","1","1","1","1","1","1","1"
"260069","img/object_images/boat_toy10.jpg","img/object_images/piggy_bank01.jpg","img/object_images/perfume02.jpg","0","1","0","0","1","0","0.377153699984774","0.379024800029583","0.41728209995199","1","1","1","1","1","1","1","1","1"
"260069","img/object_images/perfume02.jpg","img/object_images/boat_toy10.jpg","img/object_images/audio_port01.jpg","0","0","1","0","0","1","0.41728209995199","0.377153699984774","0.387168099987321","1","1","1","1","1","1","1","1","1"
"260069","img/object_images/audio_port01.jpg","img/object_images/perfume02.jpg","img/object_images/scoreboard01.jpg","1","0","1","1","0","1","0.387168099987321","0.41728209995199","0.368582700029947","1","1","1","1","1","1","1","1","1"
"260069","img/object_images/scoreboard01.jpg","img/object_images/audio_port01.jpg","img/object_images/tie02.jpg","1","1","0","1","1","0","0.368582700029947","0.387168099987321","0.472486299928278","1","1","1","1","1","1","1","1","1"
"260069","img/object_images/tie02.jpg","img/object_images/scoreboard01.jpg",NA,"0","1",NA,"0","1",NA,"0.472486299928278","0.368582700029947",NA,"1","1",NA,"1","1",NA,"1","1",NA
"260069","img/object_images/hair_clips01.jpg",NA,"img/object_images/tray01.jpg","1",NA,"1","1",NA,"1","0.474656300037168",NA,"0.436149899964221","1",NA,"1","1",NA,"1","1",NA,"1"
"260069","img/object_images/tray01.jpg","img/object_images/hair_clips01.jpg","img/object_images/exfoliater_brush01.jpg","1","1","1","1","1","0","0.436149899964221","0.474656300037168","0.464033499942161","1","1","1","1","1","1","1","1","1"
"260069","img/object_images/exfoliater_brush01.jpg","img/object_images/tray01.jpg","img/object_images/glasses06.jpg","1","1","1","0","1","1","0.464033499942161","0.436149899964221","0.388042000005953","1","1","1","1","1","1","1","1","1"
"260069","img/object_images/glasses06.jpg","img/object_images/exfoliater_brush01.jpg","img/object_images/Traffic Sign 01.jpg","1","1","0","1","0","0","0.388042000005953","0.464033499942161","0.417883099988103","1","1","1","1","1","1","1","1","1"
"260069","img/object_images/Traffic Sign 01.jpg","img/object_images/glasses06.jpg","img/object_images/handcuffs01.jpg","0","1","1","0","1","0","0.417883099988103","0.388042000005953","0.484494899981655","1","1","1","1","1","1","1","1","1"
"260069","img/object_images/handcuffs01.jpg","img/object_images/Traffic Sign 01.jpg","img/object_images/cellphone02.jpg","1","0","1","0","0","1","0.484494899981655","0.417883099988103","0.317125699948519","1","1","1","1","1","1","1","1","1"
"260069","img/object_images/cellphone02.jpg","img/object_images/handcuffs01.jpg","img/object_images/Kitchen_Towel.jpg","1","1","1","1","0","0","0.317125699948519","0.484494899981655","0.384393900050782","1","1","1","1","1","1","1","1","1"
"260069","img/object_images/Kitchen_Towel.jpg","img/object_images/cellphone02.jpg","img/object_images/glasses07.jpg","1","1","1","0","1","1","0.384393900050782","0.317125699948519","0.582378400024027","1","1","1","1","1","1","1","1","1"
"260069","img/object_images/glasses07.jpg","img/object_images/Kitchen_Towel.jpg","img/object_images/cup03.jpg","1","1","1","1","0","1","0.582378400024027","0.384393900050782","0.384649700019509","1","1","1","1","1","1","1","1","1"
"260069","img/object_images/cup03.jpg","img/object_images/glasses07.jpg","img/object_images/Pottery01.jpg","1","1","1","1","1","0","0.384649700019509","0.582378400024027","0.453832499915734","1","1","1","1","1","1","1","1","1"
"260069","img/object_images/Pottery01.jpg","img/object_images/cup03.jpg","img/object_images/Sprayer01.jpg","1","1","1","0","1","0","0.453832499915734","0.384649700019509","0.46273959998507","1","1","1","1","1","1","1","1","1"
"260069","img/object_images/Sprayer01.jpg","img/object_images/Pottery01.jpg","img/object_images/jewelry09.jpg","1","1","1","0","0","1","0.46273959998507","0.453832499915734","0.433478299994022","1","1","1","1","1","1","1","1","1"
"260069","img/object_images/jewelry09.jpg","img/object_images/Sprayer01.jpg","img/object_images/colander01.jpg","1","1","1","1","0","0","0.433478299994022","0.46273959998507","0.486228900030255","1","1","1","1","1","1","1","1","1"
"260069","img/object_images/colander01.jpg","img/object_images/jewelry09.jpg","img/object_images/tool08.jpg","1","1","1","0","1","0","0.486228900030255","0.433478299994022","0.500011299969628","1","1","1","1","1","1","1","1","1"
"260069","img/object_images/tool08.jpg","img/object_images/colander01.jpg","img/object_images/tool07.jpg","1","1","0","0","0","0","0.500011299969628","0.486228900030255","0.399155299994163","1","1","1","1","1","1","1","1","1"
"260069","img/object_images/tool07.jpg","img/object_images/tool08.jpg","img/object_images/purse01.jpg","0","1","1","0","0","1","0.399155299994163","0.500011299969628","0.345181800075807","1","1","1","1","1","1","1","1","1"
"260069","img/object_images/purse01.jpg","img/object_images/tool07.jpg","img/object_images/ring03.jpg","1","0","1","1","0","1","0.345181800075807","0.399155299994163","0.394189999904484","1","1","1","1","1","1","1","1","1"
"260069","img/object_images/ring03.jpg","img/object_images/purse01.jpg","img/object_images/projector01.jpg","1","1","1","1","1","0","0.394189999904484","0.345181800075807","0.468789199949242","1","1","1","1","1","1","1","1","1"
"260069","img/object_images/projector01.jpg","img/object_images/ring03.jpg","img/object_images/blanket01.jpg","1","1","1","0","1","1","0.468789199949242","0.394189999904484","0.41551249998156","1","1","1","1","1","1","1","1","1"
"260069","img/object_images/blanket01.jpg","img/object_images/projector01.jpg","img/object_images/basket02.jpg","1","1","1","1","0","0","0.41551249998156","0.468789199949242","0.547200000029989","1","1","1","1","1","1","1","1","1"
"260069","img/object_images/basket02.jpg","img/object_images/blanket01.jpg","img/object_images/TrashCan02.jpg","1","1","1","0","1","1","0.547200000029989","0.41551249998156","0.386550800059922","1","1","1","1","1","1","1","1","1"
"260069","img/object_images/TrashCan02.jpg","img/object_images/basket02.jpg","img/object_images/bicycle_lock01.jpg","1","1","1","1","0","0","0.386550800059922","0.547200000029989","0.313676499994472","1","1","1","1","1","1","1","1","1"
"260069","img/object_images/bicycle_lock01.jpg","img/object_images/TrashCan02.jpg","img/object_images/book01.jpg","1","1","1","0","1","1","0.313676499994472","0.386550800059922","0.368633900070563","1","1","1","1","1","1","1","1","1"
"260069","img/object_images/book01.jpg","img/object_images/bicycle_lock01.jpg","img/object_images/pan01.jpg","1","1","1","1","0","1","0.368633900070563","0.313676499994472","0.473269500071183","1","1","1","1","1","1","1","1","1"
"260069","img/object_images/pan01.jpg","img/object_images/book01.jpg","img/object_images/speaker01.jpg","1","1","1","1","1","1","0.473269500071183","0.368633900070563","0.505026399972849","1","1","1","1","1","1","1","1","1"
"260069","img/object_images/speaker01.jpg","img/object_images/pan01.jpg","img/object_images/lighter01.jpg","1","1","1","1","1","1","0.505026399972849","0.473269500071183","0.364067399990745","1","1","1","1","1","1","1","1","1"
"260069","img/object_images/lighter01.jpg","img/object_images/speaker01.jpg","img/object_images/faucet01.jpg","1","1","1","1","1","0","0.364067399990745","0.505026399972849","0.567870500031859","1","1","1","1","1","1","1","1","1"
"260069","img/object_images/faucet01.jpg","img/object_images/lighter01.jpg","img/object_images/hole_puncher01.jpg","1","1","1","0","1","1","0.567870500031859","0.364067399990745","0.399211200070567","1","1","1","1","1","1","1","1","1"
"260069","img/object_images/hole_puncher01.jpg","img/object_images/faucet01.jpg","img/object_images/fire_extinguisher01.jpg","1","1","1","1","0","0","0.399211200070567","0.567870500031859","0.370880699949339","1","1","1","1","1","1","1","1","1"
"260069","img/object_images/fire_extinguisher01.jpg","img/object_images/hole_puncher01.jpg","img/object_images/yo_yo01.jpg","1","1","1","0","1","0","0.370880699949339","0.399211200070567","0.658605900011025","1","1","1","1","1","1","1","1","1"
"260069","img/object_images/yo_yo01.jpg","img/object_images/fire_extinguisher01.jpg","img/object_images/gift_box04.jpg","1","1","0","0","0","0","0.658605900011025","0.370880699949339","0.490055999951437","1","1","1","1","1","1","1","1","1"
"260069","img/object_images/gift_box04.jpg","img/object_images/yo_yo01.jpg",NA,"0","1",NA,"0","0",NA,"0.490055999951437","0.658605900011025",NA,"1","1",NA,"1","1",NA,"1","1",NA
"260069","img/object_images/fan05.jpg",NA,"img/object_images/dress03.jpg","1",NA,"1","0",NA,"1","1.03453800000716",NA,"0.502088299952447","1",NA,"1","1",NA,"1","1",NA,"1"
"260069","img/object_images/dress03.jpg","img/object_images/fan05.jpg","img/object_images/car03.jpg","1","1","1","1","0","0","0.502088299952447","1.03453800000716","0.366856100037694","1","1","1","1","1","1","1","1","1"
"260069","img/object_images/car03.jpg","img/object_images/dress03.jpg","img/object_images/cards01.jpg","1","1","0","0","1","0","0.366856100037694","0.502088299952447","0.381164600024931","1","1","1","1","1","1","1","1","1"
"260069","img/object_images/cards01.jpg","img/object_images/car03.jpg","img/object_images/shower_head03.jpg","0","1","1","0","0","1","0.381164600024931","0.366856100037694","0.407093500019982","1","1","1","1","1","1","1","1","1"
"260069","img/object_images/shower_head03.jpg","img/object_images/cards01.jpg","img/object_images/shoes10.jpg","1","0","0","1","0","0","0.407093500019982","0.381164600024931","0.398777600028552","1","1","1","1","1","1","1","1","1"
"260069","img/object_images/shoes10.jpg","img/object_images/shower_head03.jpg","img/object_images/yarn02.jpg","0","1","1","0","1","0","0.398777600028552","0.407093500019982","0.486669600009918","1","1","1","1","1","1","1","1","1"
"260069","img/object_images/yarn02.jpg","img/object_images/shoes10.jpg","img/object_images/tool11.jpg","1","0","1","0","0","1","0.486669600009918","0.398777600028552","0.397569500026293","1","1","1","1","1","1","1","1","1"
"260069","img/object_images/tool11.jpg","img/object_images/yarn02.jpg","img/object_images/rock03.jpg","1","1","1","1","0","0","0.397569500026293","0.486669600009918","0.367847500019707","1","1","1","1","1","1","1","1","1"
"260069","img/object_images/rock03.jpg","img/object_images/tool11.jpg","img/object_images/jewelry07.jpg","1","1","1","0","1","1","0.367847500019707","0.397569500026293","0.372077699983492","1","1","1","1","1","1","1","1","1"
"260069","img/object_images/jewelry07.jpg","img/object_images/rock03.jpg","img/object_images/belt01.jpg","1","1","1","1","0","0","0.372077699983492","0.367847500019707","0.515395499998704","1","1","1","1","1","1","1","1","1"
"260069","img/object_images/belt01.jpg","img/object_images/jewelry07.jpg","img/object_images/razor01.jpg","1","1","1","0","1","0","0.515395499998704","0.372077699983492","0.529565799981356","1","1","1","1","1","1","1","1","1"
"260069","img/object_images/razor01.jpg","img/object_images/belt01.jpg","img/object_images/tv01.jpg","1","1","1","0","0","0","0.529565799981356","0.515395499998704","0.349890900077298","1","1","1","1","1","1","1","1","1"
"260069","img/object_images/tv01.jpg","img/object_images/razor01.jpg","img/object_images/screwdriver01.jpg","1","1","1","0","0","0","0.349890900077298","0.529565799981356","0.384607400046661","1","1","1","1","1","1","1","1","1"
"260069","img/object_images/screwdriver01.jpg","img/object_images/tv01.jpg","img/object_images/car04.jpg","1","1","1","0","0","0","0.384607400046661","0.349890900077298","0.383659800048918","1","1","1","1","1","1","1","1","1"
"260069","img/object_images/car04.jpg","img/object_images/screwdriver01.jpg","img/object_images/chair04.jpg","1","1","1","0","0","1","0.383659800048918","0.384607400046661","0.498588499962352","1","1","1","1","1","1","1","1","1"
"260069","img/object_images/chair04.jpg","img/object_images/car04.jpg","img/object_images/lemon_squeezer02.jpg","1","1","1","1","0","1","0.498588499962352","0.383659800048918","0.421741500031203","1","1","1","1","1","1","1","1","1"
"260069","img/object_images/lemon_squeezer02.jpg","img/object_images/chair04.jpg","img/object_images/toaster02.jpg","1","1","1","1","1","1","0.421741500031203","0.498588499962352","0.408426200039685","1","1","1","1","1","1","1","1","1"
"260069","img/object_images/toaster02.jpg","img/object_images/lemon_squeezer02.jpg","img/object_images/MeasuringCup01.jpg","1","1","1","1","1","1","0.408426200039685","0.421741500031203","0.319811300025322","1","1","1","1","1","1","1","1","1"
"260069","img/object_images/MeasuringCup01.jpg","img/object_images/toaster02.jpg","img/object_images/ladle02.jpg","1","1","1","1","1","0","0.319811300025322","0.408426200039685","0.561983900028281","1","1","1","1","1","1","1","1","1"
"260069","img/object_images/ladle02.jpg","img/object_images/MeasuringCup01.jpg","img/object_images/WitchHat02.jpg","1","1","0","0","1","1","0.561983900028281","0.319811300025322","0.456042999983765","1","1","1","1","1","1","1","1","1"
"260069","img/object_images/WitchHat02.jpg","img/object_images/ladle02.jpg","img/object_images/binoculars03.jpg","0","1","1","1","0","1","0.456042999983765","0.561983900028281","0.591366000007838","1","1","1","1","1","1","1","1","1"
"260069","img/object_images/binoculars03.jpg","img/object_images/WitchHat02.jpg","img/object_images/key02.jpg","1","0","1","1","1","1","0.591366000007838","0.456042999983765","0.467931800056249","1","1","1","1","1","1","1","1","1"
"260069","img/object_images/key02.jpg","img/object_images/binoculars03.jpg","img/object_images/slinky_toy01.jpg","1","1","1","1","1","1","0.467931800056249","0.591366000007838","0.383666099980474","1","1","1","1","1","1","1","1","1"
"260069","img/object_images/slinky_toy01.jpg","img/object_images/key02.jpg","img/object_images/bag06.jpg","1","1","1","1","1","1","0.383666099980474","0.467931800056249","0.353260800009593","1","1","1","1","1","1","1","1","1"
"260069","img/object_images/bag06.jpg","img/object_images/slinky_toy01.jpg","img/object_images/cutting_board01.jpg","1","1","1","1","1","1","0.353260800009593","0.383666099980474","0.386264600092545","1","1","1","1","1","1","1","1","1"
"260069","img/object_images/cutting_board01.jpg","img/object_images/bag06.jpg","img/object_images/mask01.jpg","1","1","1","1","1","0","0.386264600092545","0.353260800009593","0.399446900002658","1","1","1","1","1","1","1","1","1"
"260069","img/object_images/mask01.jpg","img/object_images/cutting_board01.jpg","img/object_images/satellite01.jpg","1","1","1","0","1","0","0.399446900002658","0.386264600092545","0.510636799968779","1","1","1","1","1","1","1","1","1"
"260069","img/object_images/satellite01.jpg","img/object_images/mask01.jpg","img/object_images/hair_brush05.jpg","1","1","1","0","0","1","0.510636799968779","0.399446900002658","0.433940000017174","1","1","1","1","1","1","1","1","1"
"260069","img/object_images/hair_brush05.jpg","img/object_images/satellite01.jpg","img/object_images/jewel01.jpg","1","1","1","1","0","0","0.433940000017174","0.510636799968779","0.540825700038113","1","1","1","1","1","1","1","1","1"
"260069","img/object_images/jewel01.jpg","img/object_images/hair_brush05.jpg","img/object_images/ice_tray03.jpg","1","1","1","0","1","1","0.540825700038113","0.433940000017174","0.567776000010781","1","1","1","1","1","1","1","1","1"
"260069","img/object_images/ice_tray03.jpg","img/object_images/jewel01.jpg","img/object_images/ribbon01.jpg","1","1","0","1","0","0","0.567776000010781","0.540825700038113","0.415725799975917","1","1","1","1","1","1","1","1","1"
"260069","img/object_images/ribbon01.jpg","img/object_images/ice_tray03.jpg",NA,"0","1",NA,"0","1",NA,"0.415725799975917","0.567776000010781",NA,"1","1",NA,"1","1",NA,"1","1",NA
