"participant_id","current_trial_object","pre_trial_object","post_trial_object","current_trial_accuracy","pre_trial_accuracy","post_trial_accuracy","current_trial_congruency","pre_trial_congruency","post_trial_congruency","current_trial_rt","pre_trial_rt","post_trial_rt","current_trial_responded","pre_trial_responded","post_trial_responded","current_trial_legitResponse","pre_trial_legitResponse","post_trial_legitResponse","current_trial_resp_nums","pre_trial_resp_nums","post_trial_resp_nums"
"260070","img/object_images/bird_house02.jpg",NA,"img/object_images/stapler.jpg","1",NA,"1","1",NA,"1","0.681760599953122",NA,"0.521743100020103","1",NA,"1","1",NA,"1","1",NA,"1"
"260070","img/object_images/stapler.jpg","img/object_images/bird_house02.jpg","img/object_images/jewel04.jpg","1","1","1","1","1","0","0.521743100020103","0.681760599953122","0.78003559994977","1","1","1","1","1","1","1","1","1"
"260070","img/object_images/jewel04.jpg","img/object_images/stapler.jpg","img/object_images/outlet01.jpg","1","1","1","0","1","0","0.78003559994977","0.521743100020103","0.734473000047728","1","1","1","1","1","1","1","1","1"
"260070","img/object_images/outlet01.jpg","img/object_images/jewel04.jpg","img/object_images/fridge03.jpg","1","1","1","0","0","0","0.734473000047728","0.78003559994977","0.608413600013591","1","1","1","1","1","1","1","1","1"
"260070","img/object_images/fridge03.jpg","img/object_images/outlet01.jpg","img/object_images/Stool01.jpg","1","1","1","0","0","0","0.608413600013591","0.734473000047728","0.974361000000499","1","1","1","1","1","1","1","1","1"
"260070","img/object_images/Stool01.jpg","img/object_images/fridge03.jpg","img/object_images/Tin01.jpg","1","1","1","0","0","1","0.974361000000499","0.608413600013591","0.590436000027694","1","1","1","1","1","1","1","1","1"
"260070","img/object_images/Tin01.jpg","img/object_images/Stool01.jpg","img/object_images/shovel03.jpg","1","1","1","1","0","1","0.590436000027694","0.974361000000499","0.591704899910837","1","1","1","1","1","1","1","1","1"
"260070","img/object_images/shovel03.jpg","img/object_images/Tin01.jpg","img/object_images/toy04.jpg","1","1","1","1","1","0","0.591704899910837","0.590436000027694","0.700015800073743","1","1","1","1","1","1","1","1","1"
"260070","img/object_images/toy04.jpg","img/object_images/shovel03.jpg","img/object_images/tool02.jpg","1","1","1","0","1","1","0.700015800073743","0.591704899910837","0.672053799964488","1","1","1","1","1","1","1","1","1"
"260070","img/object_images/tool02.jpg","img/object_images/toy04.jpg","img/object_images/MetalWire01.jpg","1","1","1","1","0","0","0.672053799964488","0.700015800073743","0.667337100021541","1","1","1","1","1","1","1","1","1"
"260070","img/object_images/MetalWire01.jpg","img/object_images/tool02.jpg","img/object_images/judge_gavel01.jpg","1","1","1","0","1","1","0.667337100021541","0.672053799964488","0.650720399920829","1","1","1","1","1","1","1","1","1"
"260070","img/object_images/judge_gavel01.jpg","img/object_images/MetalWire01.jpg","img/object_images/helmet01.jpg","1","1","1","1","0","0","0.650720399920829","0.667337100021541","0.7181948000798","1","1","1","1","1","1","1","1","1"
"260070","img/object_images/helmet01.jpg","img/object_images/judge_gavel01.jpg","img/object_images/bottle05.jpg","1","1","1","0","1","0","0.7181948000798","0.650720399920829","0.727802000008523","1","1","1","1","1","1","1","1","1"
"260070","img/object_images/bottle05.jpg","img/object_images/helmet01.jpg","img/object_images/towel02.jpg","1","1","1","0","0","1","0.727802000008523","0.7181948000798","0.700420500012115","1","1","1","1","1","1","1","1","1"
"260070","img/object_images/towel02.jpg","img/object_images/bottle05.jpg","img/object_images/mirror01.jpg","1","1","1","1","0","1","0.700420500012115","0.727802000008523","0.572201500064693","1","1","1","1","1","1","1","1","1"
"260070","img/object_images/mirror01.jpg","img/object_images/towel02.jpg","img/object_images/gauze01.jpg","1","1","1","1","1","0","0.572201500064693","0.700420500012115","0.641745100030676","1","1","1","1","1","1","1","1","1"
"260070","img/object_images/gauze01.jpg","img/object_images/mirror01.jpg","img/object_images/guitar02.jpg","1","1","1","0","1","0","0.641745100030676","0.572201500064693","1.27178469998762","1","1","1","1","1","1","1","1","1"
"260070","img/object_images/guitar02.jpg","img/object_images/gauze01.jpg","img/object_images/frisbee01.jpg","1","1","1","0","0","1","1.27178469998762","0.641745100030676","0.697158799972385","1","1","1","1","1","1","1","1","1"
"260070","img/object_images/frisbee01.jpg","img/object_images/guitar02.jpg","img/object_images/Ring02.jpg","1","1","1","1","0","0","0.697158799972385","1.27178469998762","0.784558799932711","1","1","1","1","1","1","1","1","1"
"260070","img/object_images/Ring02.jpg","img/object_images/frisbee01.jpg","img/object_images/tool09.jpg","1","1","1","0","1","1","0.784558799932711","0.697158799972385","0.642660500016063","1","1","1","1","1","1","1","1","1"
"260070","img/object_images/tool09.jpg","img/object_images/Ring02.jpg","img/object_images/ornament01.jpg","1","1","1","1","0","1","0.642660500016063","0.784558799932711","0.575497800018638","1","1","1","1","1","1","1","1","1"
"260070","img/object_images/ornament01.jpg","img/object_images/tool09.jpg","img/object_images/dart01.jpg","1","1","1","1","1","0","0.575497800018638","0.642660500016063","0.575209200032987","1","1","1","1","1","1","1","1","1"
"260070","img/object_images/dart01.jpg","img/object_images/ornament01.jpg","img/object_images/sink01.jpg","1","1","1","0","1","0","0.575209200032987","0.575497800018638","0.77553700003773","1","1","1","1","1","1","1","1","1"
"260070","img/object_images/sink01.jpg","img/object_images/dart01.jpg","img/object_images/crown02.jpg","1","1","1","0","0","1","0.77553700003773","0.575209200032987","0.57653780002147","1","1","1","1","1","1","1","1","1"
"260070","img/object_images/crown02.jpg","img/object_images/sink01.jpg","img/object_images/Vacuum01.jpg","1","1","1","1","0","0","0.57653780002147","0.77553700003773","0.731971700093709","1","1","1","1","1","1","1","1","1"
"260070","img/object_images/Vacuum01.jpg","img/object_images/crown02.jpg","img/object_images/video_game07.jpg","1","1","1","0","1","1","0.731971700093709","0.57653780002147","0.538788700010628","1","1","1","1","1","1","1","1","1"
"260070","img/object_images/video_game07.jpg","img/object_images/Vacuum01.jpg","img/object_images/bow01.jpg","1","1","1","1","0","1","0.538788700010628","0.731971700093709","0.635613600024953","1","1","1","1","1","1","1","1","1"
"260070","img/object_images/bow01.jpg","img/object_images/video_game07.jpg","img/object_images/watch01.jpg","1","1","1","1","1","0","0.635613600024953","0.538788700010628","0.612233099993318","1","1","1","1","1","1","1","1","1"
"260070","img/object_images/watch01.jpg","img/object_images/bow01.jpg","img/object_images/pot01 (1).jpg","1","1","1","0","1","0","0.612233099993318","0.635613600024953","0.775816099951044","1","1","1","1","1","1","1","1","1"
"260070","img/object_images/pot01 (1).jpg","img/object_images/watch01.jpg","img/object_images/acoustic_capo01.jpg","1","1","1","0","0","1","0.775816099951044","0.612233099993318","0.576464499928989","1","1","1","1","1","1","1","1","1"
"260070","img/object_images/acoustic_capo01.jpg","img/object_images/pot01 (1).jpg","img/object_images/toy03.jpg","1","1","1","1","0","1","0.576464499928989","0.775816099951044","0.545731099904515","1","1","1","1","1","1","1","1","1"
"260070","img/object_images/toy03.jpg","img/object_images/acoustic_capo01.jpg",NA,"1","1",NA,"1","1",NA,"0.545731099904515","0.576464499928989",NA,"1","1",NA,"1","1",NA,"1","1",NA
"260070","img/object_images/egg_basket01.jpg",NA,"img/object_images/bookmark01.jpg","1",NA,"1","1",NA,"0","0.506481799995527",NA,"0.604581299936399","1",NA,"1","1",NA,"1","1",NA,"1"
"260070","img/object_images/bookmark01.jpg","img/object_images/egg_basket01.jpg","img/object_images/note_book02.jpg","1","1","0","0","1","0","0.604581299936399","0.506481799995527","0.344245899934322","1","1","1","1","1","1","1","1","1"
"260070","img/object_images/note_book02.jpg","img/object_images/bookmark01.jpg","img/object_images/dice01.jpg","0","1","1","0","0","0","0.344245899934322","0.604581299936399","0.633367399917915","1","1","1","1","1","1","1","1","1"
"260070","img/object_images/dice01.jpg","img/object_images/note_book02.jpg","img/object_images/shovel01.jpg","1","0","1","0","0","0","0.633367399917915","0.344245899934322","0.628569700056687","1","1","1","1","1","1","1","1","1"
"260070","img/object_images/shovel01.jpg","img/object_images/dice01.jpg","img/object_images/ToolBag01.jpg","1","1","1","0","0","0","0.628569700056687","0.633367399917915","0.557002000045031","1","1","1","1","1","1","1","1","1"
"260070","img/object_images/ToolBag01.jpg","img/object_images/shovel01.jpg","img/object_images/piano03.jpg","1","1","0","0","0","0","0.557002000045031","0.628569700056687","0.492663100012578","1","1","1","1","1","1","1","1","1"
"260070","img/object_images/piano03.jpg","img/object_images/ToolBag01.jpg","img/object_images/fan01.jpg","0","1","1","0","0","0","0.492663100012578","0.557002000045031","0.823021199903451","1","1","1","1","1","1","1","1","1"
"260070","img/object_images/fan01.jpg","img/object_images/piano03.jpg","img/object_images/lock03.jpg","1","0","1","0","0","1","0.823021199903451","0.492663100012578","0.683985600015149","1","1","1","1","1","1","1","1","1"
"260070","img/object_images/lock03.jpg","img/object_images/fan01.jpg","img/object_images/Safe01.jpg","1","1","1","1","0","1","0.683985600015149","0.823021199903451","0.597806200035848","1","1","1","1","1","1","1","1","1"
"260070","img/object_images/Safe01.jpg","img/object_images/lock03.jpg","img/object_images/badminton01.jpg","1","1","1","1","1","1","0.597806200035848","0.683985600015149","0.635219100047834","1","1","1","1","1","1","1","1","1"
"260070","img/object_images/badminton01.jpg","img/object_images/Safe01.jpg","img/object_images/bottle06.jpg","1","1","1","1","1","0","0.635219100047834","0.597806200035848","0.550874599954113","1","1","1","1","1","1","1","1","1"
"260070","img/object_images/bottle06.jpg","img/object_images/badminton01.jpg","img/object_images/water_gun01.jpg","1","1","1","0","1","1","0.550874599954113","0.635219100047834","0.564446300035343","1","1","1","1","1","1","1","1","1"
"260070","img/object_images/water_gun01.jpg","img/object_images/bottle06.jpg","img/object_images/TreeSlice01.jpg","1","1","1","1","0","1","0.564446300035343","0.550874599954113","0.676907899905927","1","1","1","1","1","1","1","1","1"
"260070","img/object_images/TreeSlice01.jpg","img/object_images/water_gun01.jpg","img/object_images/pitcher07.jpg","1","1","1","1","1","1","0.676907899905927","0.564446300035343","0.518295399961062","1","1","1","1","1","1","1","1","1"
"260070","img/object_images/pitcher07.jpg","img/object_images/TreeSlice01.jpg","img/object_images/headset02.jpg","1","1","1","1","1","0","0.518295399961062","0.676907899905927","0.681322799995542","1","1","1","1","1","1","1","1","1"
"260070","img/object_images/headset02.jpg","img/object_images/pitcher07.jpg","img/object_images/scale02.jpg","1","1","1","0","1","0","0.681322799995542","0.518295399961062","0.638699000002816","1","1","1","1","1","1","1","1","1"
"260070","img/object_images/scale02.jpg","img/object_images/headset02.jpg","img/object_images/trumpet01.jpg","1","1","1","0","0","0","0.638699000002816","0.681322799995542","0.620537200011313","1","1","1","1","1","1","1","1","1"
"260070","img/object_images/trumpet01.jpg","img/object_images/scale02.jpg","img/object_images/yoga_mat01.jpg","1","1","1","0","0","0","0.620537200011313","0.638699000002816","0.794944299967028","1","1","1","1","1","1","1","1","1"
"260070","img/object_images/yoga_mat01.jpg","img/object_images/trumpet01.jpg","img/object_images/origami01.jpg","1","1","1","0","0","1","0.794944299967028","0.620537200011313","0.677467799978331","1","1","1","1","1","1","1","1","1"
"260070","img/object_images/origami01.jpg","img/object_images/yoga_mat01.jpg","img/object_images/tennis_racket01.jpg","1","1","1","1","0","1","0.677467799978331","0.794944299967028","0.570329300011508","1","1","1","1","1","1","1","1","1"
"260070","img/object_images/tennis_racket01.jpg","img/object_images/origami01.jpg","img/object_images/nut_cracker01.jpg","1","1","1","1","1","1","0.570329300011508","0.677467799978331","0.746943900012411","1","1","1","1","1","1","1","1","1"
"260070","img/object_images/nut_cracker01.jpg","img/object_images/tennis_racket01.jpg","img/object_images/jewel02.jpg","1","1","1","1","1","0","0.746943900012411","0.570329300011508","0.672744699986652","1","1","1","1","1","1","1","1","1"
"260070","img/object_images/jewel02.jpg","img/object_images/nut_cracker01.jpg","img/object_images/phone04.jpg","1","1","1","0","1","1","0.672744699986652","0.746943900012411","0.530200900044292","1","1","1","1","1","1","1","1","1"
"260070","img/object_images/phone04.jpg","img/object_images/jewel02.jpg","img/object_images/Shoes05.jpg","1","1","1","1","0","0","0.530200900044292","0.672744699986652","0.590937200002372","1","1","1","1","1","1","1","1","1"
"260070","img/object_images/Shoes05.jpg","img/object_images/phone04.jpg","img/object_images/helmet03.jpg","1","1","1","0","1","1","0.590937200002372","0.530200900044292","0.585203900001943","1","1","1","1","1","1","1","1","1"
"260070","img/object_images/helmet03.jpg","img/object_images/Shoes05.jpg","img/object_images/Eyeliner01.jpg","1","1","1","1","0","1","0.585203900001943","0.590937200002372","0.537327999947593","1","1","1","1","1","1","1","1","1"
"260070","img/object_images/Eyeliner01.jpg","img/object_images/helmet03.jpg","img/object_images/frame01.jpg","1","1","1","1","1","1","0.537327999947593","0.585203900001943","0.93147469998803","1","1","1","1","1","1","1","1","1"
"260070","img/object_images/frame01.jpg","img/object_images/Eyeliner01.jpg","img/object_images/joystick03.jpg","1","1","1","1","1","1","0.93147469998803","0.537327999947593","0.579437599983066","1","1","1","1","1","1","1","1","1"
"260070","img/object_images/joystick03.jpg","img/object_images/frame01.jpg","img/object_images/bucket01.jpg","1","1","1","1","1","1","0.579437599983066","0.93147469998803","0.489216899964958","1","1","1","1","1","1","1","1","1"
"260070","img/object_images/bucket01.jpg","img/object_images/joystick03.jpg","img/object_images/usb03.jpg","1","1","1","1","1","0","0.489216899964958","0.579437599983066","0.783386899973266","1","1","1","1","1","1","1","1","1"
"260070","img/object_images/usb03.jpg","img/object_images/bucket01.jpg","img/object_images/belt03.jpg","1","1","1","0","1","0","0.783386899973266","0.489216899964958","0.633835399989039","1","1","1","1","1","1","1","1","1"
"260070","img/object_images/belt03.jpg","img/object_images/usb03.jpg",NA,"1","1",NA,"0","0",NA,"0.633835399989039","0.783386899973266",NA,"1","1",NA,"1","1",NA,"1","1",NA
"260070","img/object_images/vase01.jpg",NA,"img/object_images/spatula02.jpg","0",NA,"1","0",NA,"1","1.08430059999228",NA,"0.68707710003946","1",NA,"1","1",NA,"1","1",NA,"1"
"260070","img/object_images/spatula02.jpg","img/object_images/vase01.jpg","img/object_images/calculator01.jpg","1","0","1","1","0","1","0.68707710003946","1.08430059999228","0.522529300069436","1","1","1","1","1","1","1","1","1"
"260070","img/object_images/calculator01.jpg","img/object_images/spatula02.jpg","img/object_images/accardion01.jpg","1","1","1","1","1","1","0.522529300069436","0.68707710003946","0.552888799924403","1","1","1","1","1","1","1","1","1"
"260070","img/object_images/accardion01.jpg","img/object_images/calculator01.jpg","img/object_images/laptop01.jpg","1","1","1","1","1","0","0.552888799924403","0.522529300069436","0.575172299984843","1","1","1","1","1","1","1","1","1"
"260070","img/object_images/laptop01.jpg","img/object_images/accardion01.jpg","img/object_images/helmet02.jpg","1","1","1","0","1","0","0.575172299984843","0.552888799924403","0.675156999961473","1","1","1","1","1","1","1","1","1"
"260070","img/object_images/helmet02.jpg","img/object_images/laptop01.jpg","img/object_images/towels01.jpg","1","1","1","0","0","0","0.675156999961473","0.575172299984843","0.6773807000136","1","1","1","1","1","1","1","1","1"
"260070","img/object_images/towels01.jpg","img/object_images/helmet02.jpg","img/object_images/robe01.jpg","1","1","1","0","0","1","0.6773807000136","0.675156999961473","0.983454199973494","1","1","1","1","1","1","1","1","1"
"260070","img/object_images/robe01.jpg","img/object_images/towels01.jpg","img/object_images/toy05.jpg","1","1","1","1","0","0","0.983454199973494","0.6773807000136","0.687473599915393","1","1","1","1","1","1","1","1","1"
"260070","img/object_images/toy05.jpg","img/object_images/robe01.jpg","img/object_images/surf_board01.jpg","1","1","1","0","1","1","0.687473599915393","0.983454199973494","0.596398799913004","1","1","1","1","1","1","1","1","1"
"260070","img/object_images/surf_board01.jpg","img/object_images/toy05.jpg","img/object_images/backpack03.jpg","1","1","1","1","0","1","0.596398799913004","0.687473599915393","0.575378300040029","1","1","1","1","1","1","1","1","1"
"260070","img/object_images/backpack03.jpg","img/object_images/surf_board01.jpg","img/object_images/bucket02.jpg","1","1","1","1","1","1","0.575378300040029","0.596398799913004","0.658035499975085","1","1","1","1","1","1","1","1","1"
"260070","img/object_images/bucket02.jpg","img/object_images/backpack03.jpg","img/object_images/chess_piece01.jpg","1","1","1","1","1","0","0.658035499975085","0.575378300040029","0.768534500035457","1","1","1","1","1","1","1","1","1"
"260070","img/object_images/chess_piece01.jpg","img/object_images/bucket02.jpg","img/object_images/trash_can03.jpg","1","1","1","0","1","1","0.768534500035457","0.658035499975085","0.580951200099662","1","1","1","1","1","1","1","1","1"
"260070","img/object_images/trash_can03.jpg","img/object_images/chess_piece01.jpg","img/object_images/lock01.jpg","1","1","1","1","0","0","0.580951200099662","0.768534500035457","0.699747600010596","1","1","1","1","1","1","1","1","1"
"260070","img/object_images/lock01.jpg","img/object_images/trash_can03.jpg","img/object_images/chair02.jpg","1","1","1","0","1","1","0.699747600010596","0.580951200099662","0.556753400014713","1","1","1","1","1","1","1","1","1"
"260070","img/object_images/chair02.jpg","img/object_images/lock01.jpg","img/object_images/microphone03.jpg","1","1","1","1","0","1","0.556753400014713","0.699747600010596","0.649160099914297","1","1","1","1","1","1","1","1","1"
"260070","img/object_images/microphone03.jpg","img/object_images/chair02.jpg","img/object_images/laptop03.jpg","1","1","1","1","1","1","0.649160099914297","0.556753400014713","0.533026400022209","1","1","1","1","1","1","1","1","1"
"260070","img/object_images/laptop03.jpg","img/object_images/microphone03.jpg","img/object_images/Lint_Roller02.jpg","1","1","1","1","1","0","0.533026400022209","0.649160099914297","0.614715100033209","1","1","1","1","1","1","1","1","1"
"260070","img/object_images/Lint_Roller02.jpg","img/object_images/laptop03.jpg","img/object_images/gift_box05.jpg","1","1","1","0","1","0","0.614715100033209","0.533026400022209","0.426104499958456","1","1","1","1","1","1","1","1","1"
"260070","img/object_images/gift_box05.jpg","img/object_images/Lint_Roller02.jpg","img/object_images/jewel03.jpg","1","1","1","0","0","1","0.426104499958456","0.614715100033209","0.553908900008537","1","1","1","1","1","1","1","1","1"
"260070","img/object_images/jewel03.jpg","img/object_images/gift_box05.jpg","img/object_images/hair_dryer01.jpg","1","1","1","1","0","0","0.553908900008537","0.426104499958456","0.537701799999923","1","1","1","1","1","1","1","1","1"
"260070","img/object_images/hair_dryer01.jpg","img/object_images/jewel03.jpg","img/object_images/pitcher05.jpg","1","1","1","0","1","0","0.537701799999923","0.553908900008537","0.6177941999631","1","1","1","1","1","1","1","1","1"
"260070","img/object_images/pitcher05.jpg","img/object_images/hair_dryer01.jpg","img/object_images/stove01.jpg","1","1","1","0","0","0","0.6177941999631","0.537701799999923","0.577971099992283","1","1","1","1","1","1","1","1","1"
"260070","img/object_images/stove01.jpg","img/object_images/pitcher05.jpg","img/object_images/hair_brush02.jpg","1","1","1","0","0","0","0.577971099992283","0.6177941999631","0.737309999996796","1","1","1","1","1","1","1","1","1"
"260070","img/object_images/hair_brush02.jpg","img/object_images/stove01.jpg","img/object_images/umbrella01.jpg","1","1","1","0","0","0","0.737309999996796","0.577971099992283","0.688854399952106","1","1","1","1","1","1","1","1","1"
"260070","img/object_images/umbrella01.jpg","img/object_images/hair_brush02.jpg","img/object_images/Vest02.jpg","1","1","1","0","0","0","0.688854399952106","0.737309999996796","0.55719780002255","1","1","1","1","1","1","1","1","1"
"260070","img/object_images/Vest02.jpg","img/object_images/umbrella01.jpg","img/object_images/shoes08.jpg","1","1","1","0","0","1","0.55719780002255","0.688854399952106","0.573443000088446","1","1","1","1","1","1","1","1","1"
"260070","img/object_images/shoes08.jpg","img/object_images/Vest02.jpg","img/object_images/trash_can05.jpg","1","1","0","1","0","1","0.573443000088446","0.55719780002255","0.64071479998529","1","1","1","1","1","1","1","1","1"
"260070","img/object_images/trash_can05.jpg","img/object_images/shoes08.jpg","img/object_images/fan04.jpg","0","1","1","1","1","0","0.64071479998529","0.573443000088446","0.842019699979573","1","1","1","1","1","1","1","1","1"
"260070","img/object_images/fan04.jpg","img/object_images/trash_can05.jpg","img/object_images/ball02.jpg","1","0","1","0","1","1","0.842019699979573","0.64071479998529","0.67567050002981","1","1","1","1","1","1","1","1","1"
"260070","img/object_images/ball02.jpg","img/object_images/fan04.jpg","img/object_images/combs01.jpg","1","1","1","1","0","1","0.67567050002981","0.842019699979573","0.576134800096042","1","1","1","1","1","1","1","1","1"
"260070","img/object_images/combs01.jpg","img/object_images/ball02.jpg",NA,"1","1",NA,"1","1",NA,"0.576134800096042","0.67567050002981",NA,"1","1",NA,"1","1",NA,"1","1",NA
"260070","img/object_images/golf_ball03.jpg",NA,"img/object_images/Screws01.jpg","0",NA,"1","1",NA,"1","1.90201660001185",NA,"0.735081100021489","1",NA,"1","1",NA,"1","1",NA,"1"
"260070","img/object_images/Screws01.jpg","img/object_images/golf_ball03.jpg","img/object_images/bow_tie02.jpg","1","0","1","1","1","0","0.735081100021489","1.90201660001185","0.680652200011536","1","1","1","1","1","1","1","1","1"
"260070","img/object_images/bow_tie02.jpg","img/object_images/Screws01.jpg","img/object_images/lawn_mower01.jpg","1","1","1","0","1","1","0.680652200011536","0.735081100021489","0.630292000016198","1","1","1","1","1","1","1","1","1"
"260070","img/object_images/lawn_mower01.jpg","img/object_images/bow_tie02.jpg","img/object_images/couch03.jpg","1","1","1","1","0","0","0.630292000016198","0.680652200011536","0.795293599949218","1","1","1","1","1","1","1","1","1"
"260070","img/object_images/couch03.jpg","img/object_images/lawn_mower01.jpg","img/object_images/bath_tub01.jpg","1","1","1","0","1","0","0.795293599949218","0.630292000016198","0.71090780000668","1","1","1","1","1","1","1","1","1"
"260070","img/object_images/bath_tub01.jpg","img/object_images/couch03.jpg","img/object_images/dresser04.jpg","1","1","1","0","0","0","0.71090780000668","0.795293599949218","0.648746700026095","1","1","1","1","1","1","1","1","1"
"260070","img/object_images/dresser04.jpg","img/object_images/bath_tub01.jpg","img/object_images/wallet02.jpg","1","1","1","0","0","1","0.648746700026095","0.71090780000668","0.63303739996627","1","1","1","1","1","1","1","1","1"
"260070","img/object_images/wallet02.jpg","img/object_images/dresser04.jpg","img/object_images/hammer01.jpg","1","1","1","1","0","0","0.63303739996627","0.648746700026095","0.653404399985448","1","1","1","1","1","1","1","1","1"
"260070","img/object_images/hammer01.jpg","img/object_images/wallet02.jpg","img/object_images/balloon01.jpg","1","1","1","0","1","0","0.653404399985448","0.63303739996627","0.62642860005144","1","1","1","1","1","1","1","1","1"
"260070","img/object_images/balloon01.jpg","img/object_images/hammer01.jpg","img/object_images/lock04.jpg","1","1","1","0","0","1","0.62642860005144","0.653404399985448","0.591753200045787","1","1","1","1","1","1","1","1","1"
"260070","img/object_images/lock04.jpg","img/object_images/balloon01.jpg","img/object_images/measuring_tape02.jpg","1","1","1","1","0","1","0.591753200045787","0.62642860005144","0.764805600047112","1","1","1","1","1","1","1","1","1"
"260070","img/object_images/measuring_tape02.jpg","img/object_images/lock04.jpg","img/object_images/coloring_pencil01.jpg","1","1","1","1","1","1","0.764805600047112","0.591753200045787","0.720608799951151","1","1","1","1","1","1","1","1","1"
"260070","img/object_images/coloring_pencil01.jpg","img/object_images/measuring_tape02.jpg","img/object_images/jacket03.jpg","1","1","1","1","1","0","0.720608799951151","0.764805600047112","0.646031999960542","1","1","1","1","1","1","1","1","1"
"260070","img/object_images/jacket03.jpg","img/object_images/coloring_pencil01.jpg","img/object_images/pitcher02.jpg","1","1","1","0","1","1","0.646031999960542","0.720608799951151","0.688813099986874","1","1","1","1","1","1","1","1","1"
"260070","img/object_images/pitcher02.jpg","img/object_images/jacket03.jpg","img/object_images/clip02.jpg","1","1","1","1","0","1","0.688813099986874","0.646031999960542","0.584415800054558","1","1","1","1","1","1","1","1","1"
"260070","img/object_images/clip02.jpg","img/object_images/pitcher02.jpg","img/object_images/ironing_table01.jpg","1","1","1","1","1","0","0.584415800054558","0.688813099986874","0.636471900041215","1","1","1","1","1","1","1","1","1"
"260070","img/object_images/ironing_table01.jpg","img/object_images/clip02.jpg","img/object_images/funnel01.jpg","1","1","0","0","1","0","0.636471900041215","0.584415800054558","0.555976299918257","1","1","1","1","1","1","1","1","1"
"260070","img/object_images/funnel01.jpg","img/object_images/ironing_table01.jpg","img/object_images/camera07.jpg","0","1","1","0","0","1","0.555976299918257","0.636471900041215","0.708082499913871","1","1","1","1","1","1","1","1","1"
"260070","img/object_images/camera07.jpg","img/object_images/funnel01.jpg","img/object_images/paper_cup01.jpg","1","0","1","1","0","0","0.708082499913871","0.555976299918257","0.705479600001127","1","1","1","1","1","1","1","1","1"
"260070","img/object_images/paper_cup01.jpg","img/object_images/camera07.jpg","img/object_images/vga_port 01.jpg","1","1","1","0","1","0","0.705479600001127","0.708082499913871","0.736741199973039","1","1","1","1","1","1","1","1","1"
"260070","img/object_images/vga_port 01.jpg","img/object_images/paper_cup01.jpg","img/object_images/bow_tie01.jpg","1","1","1","0","0","0","0.736741199973039","0.705479600001127","0.79239369998686","1","1","1","1","1","1","1","1","1"
"260070","img/object_images/bow_tie01.jpg","img/object_images/vga_port 01.jpg","img/object_images/sleeping_bag01.jpg","1","1","1","0","0","0","0.79239369998686","0.736741199973039","0.800961499917321","1","1","1","1","1","1","1","1","1"
"260070","img/object_images/sleeping_bag01.jpg","img/object_images/bow_tie01.jpg","img/object_images/Witchhat01.jpg","1","1","1","0","0","1","0.800961499917321","0.79239369998686","0.619305299944244","1","1","1","1","1","1","1","1","1"
"260070","img/object_images/Witchhat01.jpg","img/object_images/sleeping_bag01.jpg","img/object_images/grater01.jpg","1","1","1","1","0","1","0.619305299944244","0.800961499917321","0.531856199959293","1","1","1","1","1","1","1","1","1"
"260070","img/object_images/grater01.jpg","img/object_images/Witchhat01.jpg","img/object_images/socks02.jpg","1","1","1","1","1","0","0.531856199959293","0.619305299944244","0.923858999973163","1","1","1","1","1","1","1","1","1"
"260070","img/object_images/socks02.jpg","img/object_images/grater01.jpg","img/object_images/gift_box03.jpg","1","1","1","0","1","0","0.923858999973163","0.531856199959293","1.07482969993725","1","1","1","1","1","1","1","1","1"
"260070","img/object_images/gift_box03.jpg","img/object_images/socks02.jpg","img/object_images/jewelry01.jpg","1","1","1","0","0","1","1.07482969993725","0.923858999973163","0.634452499914914","1","1","1","1","1","1","1","1","1"
"260070","img/object_images/jewelry01.jpg","img/object_images/gift_box03.jpg","img/object_images/gift_box01.jpg","1","1","1","1","0","1","0.634452499914914","1.07482969993725","0.570404500002041","1","1","1","1","1","1","1","1","1"
"260070","img/object_images/gift_box01.jpg","img/object_images/jewelry01.jpg","img/object_images/handkerchief01.jpg","1","1","1","1","1","0","0.570404500002041","0.634452499914914","0.634162799920887","1","1","1","1","1","1","1","1","1"
"260070","img/object_images/handkerchief01.jpg","img/object_images/gift_box01.jpg","img/object_images/fork03.jpg","1","1","1","0","1","1","0.634162799920887","0.570404500002041","0.703378999955021","1","1","1","1","1","1","1","1","1"
"260070","img/object_images/fork03.jpg","img/object_images/handkerchief01.jpg","img/object_images/gift_box02.jpg","1","1","1","1","0","1","0.703378999955021","0.634162799920887","0.633538999943994","1","1","1","1","1","1","1","1","1"
"260070","img/object_images/gift_box02.jpg","img/object_images/fork03.jpg",NA,"1","1",NA,"1","1",NA,"0.633538999943994","0.703378999955021",NA,"1","1",NA,"1","1",NA,"1","1",NA
"260070","img/object_images/office_supplies01.jpg",NA,"img/object_images/sink_filter01 (1).jpg","1",NA,"1","1",NA,"0","0.736385900061578",NA,"0.635037099942565","1",NA,"1","1",NA,"1","1",NA,"1"
"260070","img/object_images/sink_filter01 (1).jpg","img/object_images/office_supplies01.jpg","img/object_images/camera05.jpg","1","1","1","0","1","0","0.635037099942565","0.736385900061578","0.49000019999221","1","1","1","1","1","1","1","1","1"
"260070","img/object_images/camera05.jpg","img/object_images/sink_filter01 (1).jpg","img/object_images/candle02.jpg","1","1","1","0","0","0","0.49000019999221","0.635037099942565","0.61607400001958","1","1","1","1","1","1","1","1","1"
"260070","img/object_images/candle02.jpg","img/object_images/camera05.jpg","img/object_images/pan03.jpg","1","1","1","0","0","1","0.61607400001958","0.49000019999221","0.681725999922492","1","1","1","1","1","1","1","1","1"
"260070","img/object_images/pan03.jpg","img/object_images/candle02.jpg","img/object_images/knife01.jpg","1","1","1","1","0","1","0.681725999922492","0.61607400001958","0.5213562999852","1","1","1","1","1","1","1","1","1"
"260070","img/object_images/knife01.jpg","img/object_images/pan03.jpg","img/object_images/Confetti 01.jpg","1","1","1","1","1","0","0.5213562999852","0.681725999922492","0.551480999914929","1","1","1","1","1","1","1","1","1"
"260070","img/object_images/Confetti 01.jpg","img/object_images/knife01.jpg","img/object_images/hat09.jpg","1","1","1","0","1","0","0.551480999914929","0.5213562999852","0.461826200014912","1","1","1","1","1","1","1","1","1"
"260070","img/object_images/hat09.jpg","img/object_images/Confetti 01.jpg","img/object_images/dust_pan01.jpg","1","1","1","0","0","1","0.461826200014912","0.551480999914929","0.569881899980828","1","1","1","1","1","1","1","1","1"
"260070","img/object_images/dust_pan01.jpg","img/object_images/hat09.jpg","img/object_images/socks01.jpg","1","1","1","1","0","1","0.569881899980828","0.461826200014912","0.461816800059751","1","1","1","1","1","1","1","1","1"
"260070","img/object_images/socks01.jpg","img/object_images/dust_pan01.jpg","img/object_images/clipboard01.jpg","1","1","1","1","1","1","0.461816800059751","0.569881899980828","0.559350199997425","1","1","1","1","1","1","1","1","1"
"260070","img/object_images/clipboard01.jpg","img/object_images/socks01.jpg","img/object_images/duster01.jpg","1","1","1","1","1","0","0.559350199997425","0.461816800059751","0.716905899927951","1","1","1","1","1","1","1","1","1"
"260070","img/object_images/duster01.jpg","img/object_images/clipboard01.jpg","img/object_images/sign02.jpg","1","1","1","0","1","0","0.716905899927951","0.559350199997425","0.75241700001061","1","1","1","1","1","1","1","1","1"
"260070","img/object_images/sign02.jpg","img/object_images/duster01.jpg","img/object_images/ruler02.jpg","1","1","1","0","0","1","0.75241700001061","0.716905899927951","0.58145030005835","1","1","1","1","1","1","1","1","1"
"260070","img/object_images/ruler02.jpg","img/object_images/sign02.jpg","img/object_images/Candle_Holder01.jpg","1","1","1","1","0","0","0.58145030005835","0.75241700001061","0.577149400021881","1","1","1","1","1","1","1","1","1"
"260070","img/object_images/Candle_Holder01.jpg","img/object_images/ruler02.jpg","img/object_images/bow_tie03.jpg","1","1","1","0","1","1","0.577149400021881","0.58145030005835","0.597792199929245","1","1","1","1","1","1","1","1","1"
"260070","img/object_images/bow_tie03.jpg","img/object_images/Candle_Holder01.jpg","img/object_images/bag04.jpg","1","1","1","1","0","0","0.597792199929245","0.577149400021881","0.815583199961111","1","1","1","1","1","1","1","1","1"
"260070","img/object_images/bag04.jpg","img/object_images/bow_tie03.jpg","img/object_images/video_game02.jpg","1","1","1","0","1","1","0.815583199961111","0.597792199929245","0.575474600074813","1","1","1","1","1","1","1","1","1"
"260070","img/object_images/video_game02.jpg","img/object_images/bag04.jpg","img/object_images/lemon_squeezer01.jpg","1","1","1","1","0","1","0.575474600074813","0.815583199961111","0.561193999950774","1","1","1","1","1","1","1","1","1"
"260070","img/object_images/lemon_squeezer01.jpg","img/object_images/video_game02.jpg","img/object_images/cup01.jpg","1","1","1","1","1","0","0.561193999950774","0.575474600074813","0.618026400101371","1","1","1","1","1","1","1","1","1"
"260070","img/object_images/cup01.jpg","img/object_images/lemon_squeezer01.jpg","img/object_images/tool13.jpg","1","1","1","0","1","1","0.618026400101371","0.561193999950774","1.3515316999983","1","1","1","1","1","1","1","1","1"
"260070","img/object_images/tool13.jpg","img/object_images/cup01.jpg","img/object_images/tool20.jpg","1","1","1","1","0","0","1.3515316999983","0.618026400101371","0.56700619996991","1","1","1","1","1","1","1","1","1"
"260070","img/object_images/tool20.jpg","img/object_images/tool13.jpg","img/object_images/hat13.jpg","1","1","1","0","1","1","0.56700619996991","1.3515316999983","0.772107400000095","1","1","1","1","1","1","1","1","2"
"260070","img/object_images/hat13.jpg","img/object_images/tool20.jpg","img/object_images/glasses03.jpg","1","1","1","1","0","0","0.772107400000095","0.56700619996991","0.653505600057542","1","1","1","1","1","1","2","1","1"
"260070","img/object_images/glasses03.jpg","img/object_images/hat13.jpg","img/object_images/pen06.jpg","1","1","0","0","1","0","0.653505600057542","0.772107400000095","0.545440200017765","1","1","1","1","1","1","1","2","1"
"260070","img/object_images/pen06.jpg","img/object_images/glasses03.jpg","img/object_images/floss01.jpg","0","1","1","0","0","1","0.545440200017765","0.653505600057542","0.638942899997346","1","1","1","1","1","1","1","1","1"
"260070","img/object_images/floss01.jpg","img/object_images/pen06.jpg","img/object_images/board01.jpg","1","0","1","1","0","1","0.638942899997346","0.545440200017765","0.572592600015923","1","1","1","1","1","1","1","1","1"
"260070","img/object_images/board01.jpg","img/object_images/floss01.jpg","img/object_images/hammer02.jpg","1","1","1","1","1","0","0.572592600015923","0.638942899997346","0.631755499984138","1","1","1","1","1","1","1","1","1"
"260070","img/object_images/hammer02.jpg","img/object_images/board01.jpg","img/object_images/perfume01.jpg","1","1","1","0","1","0","0.631755499984138","0.572592600015923","0.672243799897842","1","1","1","1","1","1","1","1","1"
"260070","img/object_images/perfume01.jpg","img/object_images/hammer02.jpg","img/object_images/spray_can01.jpg","1","1","1","0","0","0","0.672243799897842","0.631755499984138","0.639430899987929","1","1","1","1","1","1","1","1","1"
"260070","img/object_images/spray_can01.jpg","img/object_images/perfume01.jpg","img/object_images/vase02.jpg","1","1","1","0","0","1","0.639430899987929","0.672243799897842","0.601701800012961","1","1","1","1","1","1","1","1","1"
"260070","img/object_images/vase02.jpg","img/object_images/spray_can01.jpg","img/object_images/razor02.jpg","1","1","1","1","0","1","0.601701800012961","0.639430899987929","0.537833199952729","1","1","1","1","1","1","1","1","1"
"260070","img/object_images/razor02.jpg","img/object_images/vase02.jpg",NA,"1","1",NA,"1","1",NA,"0.537833199952729","0.601701800012961",NA,"1","1",NA,"1","1",NA,"1","1",NA
"260070","img/object_images/MeasuringCup01.jpg",NA,"img/object_images/ribbon01.jpg","1",NA,"1","1",NA,"0","1.09668229997624",NA,"0.760825800010934","1",NA,"1","1",NA,"1","1",NA,"1"
"260070","img/object_images/ribbon01.jpg","img/object_images/MeasuringCup01.jpg","img/object_images/dress03.jpg","1","1","1","0","1","1","0.760825800010934","1.09668229997624","0.562111799954437","1","1","1","1","1","1","1","1","1"
"260070","img/object_images/dress03.jpg","img/object_images/ribbon01.jpg","img/object_images/ice_tray03.jpg","1","1","1","1","0","1","0.562111799954437","0.760825800010934","0.458639100077562","1","1","1","1","1","1","1","1","1"
"260070","img/object_images/ice_tray03.jpg","img/object_images/dress03.jpg","img/object_images/cutting_board01.jpg","1","1","1","1","1","1","0.458639100077562","0.562111799954437","0.48595630005002","1","1","1","1","1","1","1","1","1"
"260070","img/object_images/cutting_board01.jpg","img/object_images/ice_tray03.jpg","img/object_images/shower_head03.jpg","1","1","1","1","1","1","0.48595630005002","0.458639100077562","0.560257100034505","1","1","1","1","1","1","1","1","1"
"260070","img/object_images/shower_head03.jpg","img/object_images/cutting_board01.jpg","img/object_images/screwdriver01.jpg","1","1","1","1","1","0","0.560257100034505","0.48595630005002","0.680519800051115","1","1","1","1","1","1","1","1","1"
"260070","img/object_images/screwdriver01.jpg","img/object_images/shower_head03.jpg","img/object_images/mask01.jpg","1","1","1","0","1","0","0.680519800051115","0.560257100034505","0.546029800083488","1","1","1","1","1","1","1","1","1"
"260070","img/object_images/mask01.jpg","img/object_images/screwdriver01.jpg","img/object_images/satellite01.jpg","1","1","1","0","0","0","0.546029800083488","0.680519800051115","0.795501100015827","1","1","1","1","1","1","1","1","1"
"260070","img/object_images/satellite01.jpg","img/object_images/mask01.jpg","img/object_images/car03.jpg","1","1","1","0","0","0","0.795501100015827","0.546029800083488","0.622765199979767","1","1","1","1","1","1","1","1","2"
"260070","img/object_images/car03.jpg","img/object_images/satellite01.jpg","img/object_images/tv01.jpg","1","1","1","0","0","0","0.622765199979767","0.795501100015827","0.686467299936339","1","1","1","1","1","1","2","1","1"
"260070","img/object_images/tv01.jpg","img/object_images/car03.jpg","img/object_images/WitchHat02.jpg","1","1","1","0","0","1","0.686467299936339","0.622765199979767","0.882919700001366","1","1","1","1","1","1","1","2","1"
"260070","img/object_images/WitchHat02.jpg","img/object_images/tv01.jpg","img/object_images/chair04.jpg","1","1","1","1","0","1","0.882919700001366","0.686467299936339","0.719248699955642","1","1","1","1","1","1","1","1","1"
"260070","img/object_images/chair04.jpg","img/object_images/WitchHat02.jpg","img/object_images/jewel01.jpg","1","1","1","1","1","0","0.719248699955642","0.882919700001366","0.580546899931505","1","1","1","1","1","1","1","1","1"
"260070","img/object_images/jewel01.jpg","img/object_images/chair04.jpg","img/object_images/lemon_squeezer02.jpg","1","1","1","0","1","1","0.580546899931505","0.719248699955642","0.879262199974619","1","1","1","1","1","1","1","1","1"
"260070","img/object_images/lemon_squeezer02.jpg","img/object_images/jewel01.jpg","img/object_images/hair_brush05.jpg","1","1","1","1","0","1","0.879262199974619","0.580546899931505","0.682285499991849","1","1","1","1","1","1","1","1","1"
"260070","img/object_images/hair_brush05.jpg","img/object_images/lemon_squeezer02.jpg","img/object_images/tool11.jpg","1","1","1","1","1","1","0.682285499991849","0.879262199974619","0.59562699997332","1","1","1","1","1","1","1","1","1"
"260070","img/object_images/tool11.jpg","img/object_images/hair_brush05.jpg","img/object_images/ladle02.jpg","1","1","1","1","1","0","0.59562699997332","0.682285499991849","0.767280000029132","1","1","1","1","1","1","1","1","1"
"260070","img/object_images/ladle02.jpg","img/object_images/tool11.jpg","img/object_images/belt01.jpg","1","1","1","0","1","0","0.767280000029132","0.59562699997332","0.760684999986552","1","1","1","1","1","1","1","1","1"
"260070","img/object_images/belt01.jpg","img/object_images/ladle02.jpg","img/object_images/car04.jpg","1","1","1","0","0","0","0.760684999986552","0.767280000029132","0.661544500035234","1","1","1","1","1","1","1","1","1"
"260070","img/object_images/car04.jpg","img/object_images/belt01.jpg","img/object_images/jewelry07.jpg","1","1","1","0","0","1","0.661544500035234","0.760684999986552","0.601173899951391","1","1","1","1","1","1","1","1","1"
"260070","img/object_images/jewelry07.jpg","img/object_images/car04.jpg","img/object_images/yarn02.jpg","1","1","1","1","0","0","0.601173899951391","0.661544500035234","0.663381700054742","1","1","1","1","1","1","1","1","1"
"260070","img/object_images/yarn02.jpg","img/object_images/jewelry07.jpg","img/object_images/rock03.jpg","1","1","1","0","1","0","0.663381700054742","0.601173899951391","0.702020499971695","1","1","1","1","1","1","1","1","1"
"260070","img/object_images/rock03.jpg","img/object_images/yarn02.jpg","img/object_images/binoculars03.jpg","1","1","1","0","0","1","0.702020499971695","0.663381700054742","0.543852699920535","1","1","1","1","1","1","1","1","1"
"260070","img/object_images/binoculars03.jpg","img/object_images/rock03.jpg","img/object_images/toaster02.jpg","1","1","1","1","0","1","0.543852699920535","0.702020499971695","0.549451000057161","1","1","1","1","1","1","1","1","1"
"260070","img/object_images/toaster02.jpg","img/object_images/binoculars03.jpg","img/object_images/shoes10.jpg","1","1","1","1","1","0","0.549451000057161","0.543852699920535","0.651496600010432","1","1","1","1","1","1","1","1","1"
"260070","img/object_images/shoes10.jpg","img/object_images/toaster02.jpg","img/object_images/razor01.jpg","1","1","1","0","1","0","0.651496600010432","0.549451000057161","0.598784200032242","1","1","1","1","1","1","1","1","1"
"260070","img/object_images/razor01.jpg","img/object_images/shoes10.jpg","img/object_images/cards01.jpg","1","1","1","0","0","0","0.598784200032242","0.651496600010432","0.576641399995424","1","1","1","1","1","1","1","1","1"
"260070","img/object_images/cards01.jpg","img/object_images/razor01.jpg","img/object_images/bag06.jpg","1","1","1","0","0","1","0.576641399995424","0.598784200032242","0.47537919995375","1","1","1","1","1","1","1","1","1"
"260070","img/object_images/bag06.jpg","img/object_images/cards01.jpg","img/object_images/slinky_toy01.jpg","1","1","1","1","0","1","0.47537919995375","0.576641399995424","0.77790049999021","1","1","1","1","1","1","1","1","1"
"260070","img/object_images/slinky_toy01.jpg","img/object_images/bag06.jpg","img/object_images/key02.jpg","1","1","1","1","1","1","0.77790049999021","0.47537919995375","0.829984299954958","1","1","1","1","1","1","1","1","1"
"260070","img/object_images/key02.jpg","img/object_images/slinky_toy01.jpg","img/object_images/fan05.jpg","1","1","1","1","1","0","0.829984299954958","0.77790049999021","0.65272910008207","1","1","1","1","1","1","1","1","1"
"260070","img/object_images/fan05.jpg","img/object_images/key02.jpg",NA,"1","1",NA,"0","1",NA,"0.65272910008207","0.829984299954958",NA,"1","1",NA,"1","1",NA,"1","1",NA
"260070","img/object_images/wagon_cart03.jpg",NA,"img/object_images/WoodBox01.jpg","1",NA,"0","1",NA,"0","0.559372000047006",NA,"0.540525900083594","1",NA,"1","1",NA,"1","1",NA,"3"
"260070","img/object_images/WoodBox01.jpg","img/object_images/wagon_cart03.jpg","img/object_images/bottle09.jpg","0","1","1","0","1","0","0.540525900083594","0.559372000047006","0.656011199927889","1","1","1","1","1","1","3","1","1"
"260070","img/object_images/bottle09.jpg","img/object_images/WoodBox01.jpg","img/object_images/camera_lens01.jpg","1","0","1","0","0","1","0.656011199927889","0.540525900083594","0.533929699915461","1","1","1","1","1","1","1","3","1"
"260070","img/object_images/camera_lens01.jpg","img/object_images/bottle09.jpg","img/object_images/dog_leash01.jpg","1","1","1","1","0","0","0.533929699915461","0.656011199927889","0.545229799929075","1","1","1","1","1","1","1","1","1"
"260070","img/object_images/dog_leash01.jpg","img/object_images/camera_lens01.jpg","img/object_images/helmet04.jpg","1","1","1","0","1","1","0.545229799929075","0.533929699915461","0.50213130004704","1","1","1","1","1","1","1","1","1"
"260070","img/object_images/helmet04.jpg","img/object_images/dog_leash01.jpg","img/object_images/toaster01.jpg","1","1","1","1","0","1","0.50213130004704","0.545229799929075","0.735180900082923","1","1","1","1","1","1","1","1","1"
"260070","img/object_images/toaster01.jpg","img/object_images/helmet04.jpg","img/object_images/fan02.jpg","1","1","1","1","1","0","0.735180900082923","0.50213130004704","0.771545400028117","1","1","1","1","1","1","1","1","1"
"260070","img/object_images/fan02.jpg","img/object_images/toaster01.jpg","img/object_images/shoes07.jpg","1","1","1","0","1","0","0.771545400028117","0.735180900082923","0.67758690007031","1","1","1","1","1","1","1","1","1"
"260070","img/object_images/shoes07.jpg","img/object_images/fan02.jpg","img/object_images/piggy_bank01.jpg","1","1","1","0","0","1","0.67758690007031","0.771545400028117","0.70666520006489","1","1","1","1","1","1","1","1","2"
"260070","img/object_images/piggy_bank01.jpg","img/object_images/shoes07.jpg","img/object_images/perfume02.jpg","1","1","1","1","0","0","0.70666520006489","0.67758690007031","0.833962299977429","1","1","1","1","1","1","2","1","1"
"260070","img/object_images/perfume02.jpg","img/object_images/piggy_bank01.jpg","img/object_images/bottle10.jpg","1","1","1","0","1","1","0.833962299977429","0.70666520006489","0.49966560001485","1","1","1","1","1","1","1","2","1"
"260070","img/object_images/bottle10.jpg","img/object_images/perfume02.jpg","img/object_images/tie02.jpg","1","1","1","1","0","0","0.49966560001485","0.833962299977429","0.714858799939975","1","1","1","1","1","1","1","1","1"
"260070","img/object_images/tie02.jpg","img/object_images/bottle10.jpg","img/object_images/boat02.jpg","1","1","1","0","1","1","0.714858799939975","0.49966560001485","0.553813999984413","1","1","1","1","1","1","1","1","1"
"260070","img/object_images/boat02.jpg","img/object_images/tie02.jpg","img/object_images/coloring_pencil02.jpg","1","1","1","1","0","0","0.553813999984413","0.714858799939975","0.569744599983096","1","1","1","1","1","1","1","1","1"
"260070","img/object_images/coloring_pencil02.jpg","img/object_images/boat02.jpg","img/object_images/scoreboard01.jpg","1","1","1","0","1","1","0.569744599983096","0.553813999984413","0.504878500010818","1","1","1","1","1","1","1","1","1"
"260070","img/object_images/scoreboard01.jpg","img/object_images/coloring_pencil02.jpg","img/object_images/chair03.jpg","1","1","1","1","0","0","0.504878500010818","0.569744599983096","0.579819300095551","1","1","1","1","1","1","1","1","1"
"260070","img/object_images/chair03.jpg","img/object_images/scoreboard01.jpg","img/object_images/hat06.jpg","1","1","1","0","1","0","0.579819300095551","0.504878500010818","0.606167800026014","1","1","1","1","1","1","1","1","1"
"260070","img/object_images/hat06.jpg","img/object_images/chair03.jpg","img/object_images/flask01.jpg","1","1","1","0","0","0","0.606167800026014","0.579819300095551","0.690217400086112","1","1","1","1","1","1","1","1","1"
"260070","img/object_images/flask01.jpg","img/object_images/hat06.jpg","img/object_images/bicycle01.jpg","1","1","1","0","0","1","0.690217400086112","0.606167800026014","0.631771399988793","1","1","1","1","1","1","1","1","1"
"260070","img/object_images/bicycle01.jpg","img/object_images/flask01.jpg","img/object_images/water_scooter01.jpg","1","1","1","1","0","1","0.631771399988793","0.690217400086112","0.588338600005955","1","1","1","1","1","1","1","1","1"
"260070","img/object_images/water_scooter01.jpg","img/object_images/bicycle01.jpg","img/object_images/bean_bag02.jpg","1","1","1","1","1","1","0.588338600005955","0.631771399988793","0.56512779998593","1","1","1","1","1","1","1","1","1"
"260070","img/object_images/bean_bag02.jpg","img/object_images/water_scooter01.jpg","img/object_images/pen05.jpg","1","1","1","1","1","0","0.56512779998593","0.588338600005955","0.608885699999519","1","1","1","1","1","1","1","1","1"
"260070","img/object_images/pen05.jpg","img/object_images/bean_bag02.jpg","img/object_images/purse04.jpg","1","1","1","0","1","1","0.608885699999519","0.56512779998593","0.500124800018966","1","1","1","1","1","1","1","1","1"
"260070","img/object_images/purse04.jpg","img/object_images/pen05.jpg","img/object_images/audio_port01.jpg","1","1","1","1","0","1","0.500124800018966","0.608885699999519","0.661457599955611","1","1","1","1","1","1","1","1","1"
"260070","img/object_images/audio_port01.jpg","img/object_images/purse04.jpg","img/object_images/bottle02.jpg","1","1","1","1","1","1","0.661457599955611","0.500124800018966","0.558444100082852","1","1","1","1","1","1","1","1","1"
"260070","img/object_images/bottle02.jpg","img/object_images/audio_port01.jpg","img/object_images/toilet_paper_dispenser01.jpg","1","1","1","1","1","1","0.558444100082852","0.661457599955611","0.517628000001423","1","1","1","1","1","1","1","1","1"
"260070","img/object_images/toilet_paper_dispenser01.jpg","img/object_images/bottle02.jpg","img/object_images/cellphone03.jpg","1","1","1","1","1","0","0.517628000001423","0.558444100082852","0.517657999997027","1","1","1","1","1","1","1","1","1"
"260070","img/object_images/cellphone03.jpg","img/object_images/toilet_paper_dispenser01.jpg","img/object_images/boat_toy10.jpg","1","1","1","0","1","0","0.517657999997027","0.517628000001423","0.642652100068517","1","1","1","1","1","1","1","1","1"
"260070","img/object_images/boat_toy10.jpg","img/object_images/cellphone03.jpg","img/object_images/knit01.jpg","1","1","1","0","0","0","0.642652100068517","0.517657999997027","0.581620699958876","1","1","1","1","1","1","1","1","1"
"260070","img/object_images/knit01.jpg","img/object_images/boat_toy10.jpg","img/object_images/tool19.jpg","1","1","1","0","0","1","0.581620699958876","0.642652100068517","0.53484999993816","1","1","1","1","1","1","1","1","1"
"260070","img/object_images/tool19.jpg","img/object_images/knit01.jpg","img/object_images/hot_air_balloon02.jpg","1","1","1","1","0","0","0.53484999993816","0.581620699958876","0.65529750008136","1","1","1","1","1","1","1","1","1"
"260070","img/object_images/hot_air_balloon02.jpg","img/object_images/tool19.jpg",NA,"1","1",NA,"0","1",NA,"0.65529750008136","0.53484999993816",NA,"1","1",NA,"1","1",NA,"1","1",NA
"260070","img/object_images/handcuffs01.jpg",NA,"img/object_images/Sprayer01.jpg","1",NA,"1","0",NA,"0","0.653536300058477",NA,"0.598201200016774","1",NA,"1","1",NA,"1","1",NA,"1"
"260070","img/object_images/Sprayer01.jpg","img/object_images/handcuffs01.jpg","img/object_images/tool08.jpg","1","1","1","0","0","0","0.598201200016774","0.653536300058477","0.50270620000083","1","1","1","1","1","1","1","1","1"
"260070","img/object_images/tool08.jpg","img/object_images/Sprayer01.jpg","img/object_images/gift_box04.jpg","1","1","1","0","0","0","0.50270620000083","0.598201200016774","0.57728790002875","1","1","1","1","1","1","1","1","1"
"260070","img/object_images/gift_box04.jpg","img/object_images/tool08.jpg","img/object_images/glasses06.jpg","1","1","1","0","0","1","0.57728790002875","0.50270620000083","0.515206100069918","1","1","1","1","1","1","1","1","1"
"260070","img/object_images/glasses06.jpg","img/object_images/gift_box04.jpg","img/object_images/Pottery01.jpg","1","1","1","1","0","0","0.515206100069918","0.57728790002875","0.686761199962348","1","1","1","1","1","1","1","1","1"
"260070","img/object_images/Pottery01.jpg","img/object_images/glasses06.jpg","img/object_images/jewelry09.jpg","1","1","1","0","1","1","0.686761199962348","0.515206100069918","0.553073299932294","1","1","1","1","1","1","1","1","1"
"260070","img/object_images/jewelry09.jpg","img/object_images/Pottery01.jpg","img/object_images/glasses07.jpg","1","1","1","1","0","1","0.553073299932294","0.686761199962348","0.505133999977261","1","1","1","1","1","1","1","1","1"
"260070","img/object_images/glasses07.jpg","img/object_images/jewelry09.jpg","img/object_images/blanket01.jpg","1","1","1","1","1","1","0.505133999977261","0.553073299932294","0.555783999967389","1","1","1","1","1","1","1","1","1"
"260070","img/object_images/blanket01.jpg","img/object_images/glasses07.jpg","img/object_images/cellphone02.jpg","1","1","1","1","1","1","0.555783999967389","0.505133999977261","0.619441900053062","1","1","1","1","1","1","1","1","1"
"260070","img/object_images/cellphone02.jpg","img/object_images/blanket01.jpg","img/object_images/Traffic Sign 01.jpg","1","1","1","1","1","0","0.619441900053062","0.555783999967389","0.690419399994425","1","1","1","1","1","1","1","1","1"
"260070","img/object_images/Traffic Sign 01.jpg","img/object_images/cellphone02.jpg","img/object_images/tray01.jpg","1","1","1","0","1","1","0.690419399994425","0.619441900053062","0.583533399971202","1","1","1","1","1","1","1","1","1"
"260070","img/object_images/tray01.jpg","img/object_images/Traffic Sign 01.jpg","img/object_images/exfoliater_brush01.jpg","1","1","1","1","0","0","0.583533399971202","0.690419399994425","0.692336099920794","1","1","1","1","1","1","1","1","1"
"260070","img/object_images/exfoliater_brush01.jpg","img/object_images/tray01.jpg","img/object_images/faucet01.jpg","1","1","1","0","1","0","0.692336099920794","0.583533399971202","0.595253200037405","1","1","1","1","1","1","1","1","1"
"260070","img/object_images/faucet01.jpg","img/object_images/exfoliater_brush01.jpg","img/object_images/fire_extinguisher01.jpg","1","1","1","0","0","0","0.595253200037405","0.692336099920794","0.657333899987862","1","1","1","1","1","1","1","1","1"
"260070","img/object_images/fire_extinguisher01.jpg","img/object_images/faucet01.jpg","img/object_images/yo_yo01.jpg","1","1","1","0","0","0","0.657333899987862","0.595253200037405","0.49855410004966","1","1","1","1","1","1","1","1","1"
"260070","img/object_images/yo_yo01.jpg","img/object_images/fire_extinguisher01.jpg","img/object_images/colander01.jpg","1","1","1","0","0","0","0.49855410004966","0.657333899987862","0.563096900004894","1","1","1","1","1","1","1","1","1"
"260070","img/object_images/colander01.jpg","img/object_images/yo_yo01.jpg","img/object_images/hair_clips01.jpg","1","1","1","0","0","1","0.563096900004894","0.49855410004966","0.377022200031206","1","1","1","1","1","1","1","1","1"
"260070","img/object_images/hair_clips01.jpg","img/object_images/colander01.jpg","img/object_images/basket02.jpg","1","1","1","1","0","0","0.377022200031206","0.563096900004894","0.753526699962094","1","1","1","1","1","1","1","1","1"
"260070","img/object_images/basket02.jpg","img/object_images/hair_clips01.jpg","img/object_images/tool07.jpg","1","1","1","0","1","0","0.753526699962094","0.377022200031206","0.448172400007024","1","1","1","1","1","1","1","1","1"
"260070","img/object_images/tool07.jpg","img/object_images/basket02.jpg","img/object_images/pan01.jpg","1","1","1","0","0","1","0.448172400007024","0.753526699962094","0.48686840001028","1","1","1","1","1","1","1","1","1"
"260070","img/object_images/pan01.jpg","img/object_images/tool07.jpg","img/object_images/lighter01.jpg","1","1","0","1","0","1","0.48686840001028","0.448172400007024","0.805299600004219","1","1","1","1","1","1","1","1","1"
"260070","img/object_images/lighter01.jpg","img/object_images/pan01.jpg","img/object_images/cup03.jpg","0","1","1","1","1","1","0.805299600004219","0.48686840001028","0.52655340009369","1","1","1","1","1","1","1","1","1"
"260070","img/object_images/cup03.jpg","img/object_images/lighter01.jpg","img/object_images/Kitchen_Towel.jpg","1","0","1","1","1","0","0.52655340009369","0.805299600004219","0.522912200074643","1","1","1","1","1","1","1","1","1"
"260070","img/object_images/Kitchen_Towel.jpg","img/object_images/cup03.jpg","img/object_images/book01.jpg","1","1","0","0","1","1","0.522912200074643","0.52655340009369","0.572055600001477","1","1","1","1","1","1","1","1","2"
"260070","img/object_images/book01.jpg","img/object_images/Kitchen_Towel.jpg","img/object_images/purse01.jpg","0","1","1","1","0","1","0.572055600001477","0.522912200074643","0.601946900016628","1","1","1","1","1","1","2","1","1"
"260070","img/object_images/purse01.jpg","img/object_images/book01.jpg","img/object_images/bicycle_lock01.jpg","1","0","1","1","1","0","0.601946900016628","0.572055600001477","0.597091999952681","1","1","1","1","1","1","1","2","1"
"260070","img/object_images/bicycle_lock01.jpg","img/object_images/purse01.jpg","img/object_images/projector01.jpg","1","1","1","0","1","0","0.597091999952681","0.601946900016628","0.776202799985185","1","1","1","1","1","1","1","1","1"
"260070","img/object_images/projector01.jpg","img/object_images/bicycle_lock01.jpg","img/object_images/speaker01.jpg","1","1","1","0","0","1","0.776202799985185","0.597091999952681","0.67832800000906","1","1","1","1","1","1","1","1","1"
"260070","img/object_images/speaker01.jpg","img/object_images/projector01.jpg","img/object_images/hole_puncher01.jpg","1","1","1","1","0","1","0.67832800000906","0.776202799985185","0.581863799947314","1","1","1","1","1","1","1","1","1"
"260070","img/object_images/hole_puncher01.jpg","img/object_images/speaker01.jpg","img/object_images/TrashCan02.jpg","1","1","1","1","1","1","0.581863799947314","0.67832800000906","0.523589199990965","1","1","1","1","1","1","1","1","1"
"260070","img/object_images/TrashCan02.jpg","img/object_images/hole_puncher01.jpg","img/object_images/ring03.jpg","1","1","1","1","1","1","0.523589199990965","0.581863799947314","0.62126669997815","1","1","1","1","1","1","1","1","1"
"260070","img/object_images/ring03.jpg","img/object_images/TrashCan02.jpg",NA,"1","1",NA,"1","1",NA,"0.62126669997815","0.523589199990965",NA,"1","1",NA,"1","1",NA,"1","1",NA
"260070","img/object_images/brief_case02.jpg",NA,"img/object_images/soap01.jpg","1",NA,"0","1",NA,"0","0.44377680006437",NA,"0.405646799947135","1",NA,"1","1",NA,"1","1",NA,"1"
"260070","img/object_images/soap01.jpg","img/object_images/brief_case02.jpg","img/object_images/guitar01.jpg","0","1","1","0","1","1","0.405646799947135","0.44377680006437","0.496069299988449","1","1","1","1","1","1","1","1","1"
"260070","img/object_images/guitar01.jpg","img/object_images/soap01.jpg","img/object_images/ball01.jpg","1","0","1","1","0","1","0.496069299988449","0.405646799947135","0.521549199940637","1","1","1","1","1","1","1","1","1"
"260070","img/object_images/ball01.jpg","img/object_images/guitar01.jpg","img/object_images/airfryer01.jpg","1","1","1","1","1","0","0.521549199940637","0.496069299988449","0.46851679997053","1","1","1","1","1","1","1","1","1"
"260070","img/object_images/airfryer01.jpg","img/object_images/ball01.jpg","img/object_images/gloves05.jpg","1","1","1","0","1","1","0.46851679997053","0.521549199940637","0.548586699995212","1","1","1","1","1","1","1","1","1"
"260070","img/object_images/gloves05.jpg","img/object_images/airfryer01.jpg","img/object_images/Woopie01.jpg","1","1","1","1","0","1","0.548586699995212","0.46851679997053","0.536289800074883","1","1","1","1","1","1","1","1","1"
"260070","img/object_images/Woopie01.jpg","img/object_images/gloves05.jpg","img/object_images/video_game06.jpg","1","1","1","1","1","0","0.536289800074883","0.548586699995212","0.574666799977422","1","1","1","1","1","1","1","1","1"
"260070","img/object_images/video_game06.jpg","img/object_images/Woopie01.jpg","img/object_images/helmet05.jpg","1","1","1","0","1","1","0.574666799977422","0.536289800074883","0.516549100051634","1","1","1","1","1","1","1","1","1"
"260070","img/object_images/helmet05.jpg","img/object_images/video_game06.jpg","img/object_images/cochlear_implant01.jpg","1","1","1","1","0","0","0.516549100051634","0.574666799977422","0.638421200099401","1","1","1","1","1","1","1","1","1"
"260070","img/object_images/cochlear_implant01.jpg","img/object_images/helmet05.jpg","img/object_images/decorative02.jpg","1","1","1","0","1","0","0.638421200099401","0.516549100051634","0.704011299996637","1","1","1","1","1","1","1","1","1"
"260070","img/object_images/decorative02.jpg","img/object_images/cochlear_implant01.jpg","img/object_images/couch04.jpg","1","1","1","0","0","1","0.704011299996637","0.638421200099401","0.558485400048085","1","1","1","1","1","1","1","1","1"
"260070","img/object_images/couch04.jpg","img/object_images/decorative02.jpg","img/object_images/basketball_hoop02.jpg","1","1","1","1","0","0","0.558485400048085","0.704011299996637","0.546135299955495","1","1","1","1","1","1","1","1","1"
"260070","img/object_images/basketball_hoop02.jpg","img/object_images/couch04.jpg","img/object_images/pitcher03.jpg","1","1","1","0","1","1","0.546135299955495","0.558485400048085","0.613776099984534","1","1","1","1","1","1","1","1","1"
"260070","img/object_images/pitcher03.jpg","img/object_images/basketball_hoop02.jpg","img/object_images/toy_train02.jpg","1","1","1","1","0","1","0.613776099984534","0.546135299955495","0.468514799955301","1","1","1","1","1","1","1","1","1"
"260070","img/object_images/toy_train02.jpg","img/object_images/pitcher03.jpg","img/object_images/brief_case01.jpg","1","1","1","1","1","0","0.468514799955301","0.613776099984534","0.642926899949089","1","1","1","1","1","1","1","1","1"
"260070","img/object_images/brief_case01.jpg","img/object_images/toy_train02.jpg","img/object_images/hat02.jpg","1","1","1","0","1","0","0.642926899949089","0.468514799955301","0.597549100057222","1","1","1","1","1","1","1","1","1"
"260070","img/object_images/hat02.jpg","img/object_images/brief_case01.jpg","img/object_images/chair01.jpg","1","1","1","0","0","0","0.597549100057222","0.642926899949089","0.624287700047716","1","1","1","1","1","1","1","1","1"
"260070","img/object_images/chair01.jpg","img/object_images/hat02.jpg","img/object_images/pot01.jpg","1","1","1","0","0","0","0.624287700047716","0.597549100057222","0.591737000038847","1","1","1","1","1","1","1","1","1"
"260070","img/object_images/pot01.jpg","img/object_images/chair01.jpg","img/object_images/container01.jpg","1","1","1","0","0","0","0.591737000038847","0.624287700047716","0.574377599987201","1","1","1","1","1","1","1","1","1"
"260070","img/object_images/container01.jpg","img/object_images/pot01.jpg","img/object_images/ironing_table02.jpg","1","1","1","0","0","0","0.574377599987201","0.591737000038847","0.583298900048248","1","1","1","1","1","1","1","1","1"
"260070","img/object_images/ironing_table02.jpg","img/object_images/container01.jpg","img/object_images/tie01.jpg","1","1","1","0","0","0","0.583298900048248","0.574377599987201","0.766070000012405","1","1","1","1","1","1","1","1","1"
"260070","img/object_images/tie01.jpg","img/object_images/ironing_table02.jpg","img/object_images/lantern01.jpg","1","1","1","0","0","1","0.766070000012405","0.583298900048248","0.489063499961048","1","1","1","1","1","1","1","1","1"
"260070","img/object_images/lantern01.jpg","img/object_images/tie01.jpg","img/object_images/broom01.jpg","1","1","1","1","0","1","0.489063499961048","0.766070000012405","0.529968300019391","1","1","1","1","1","1","1","1","1"
"260070","img/object_images/broom01.jpg","img/object_images/lantern01.jpg","img/object_images/drone02.jpg","1","1","1","1","1","0","0.529968300019391","0.489063499961048","0.54077680001501","1","1","1","1","1","1","1","1","1"
"260070","img/object_images/drone02.jpg","img/object_images/broom01.jpg","img/object_images/lamp01.jpg","1","1","1","0","1","1","0.54077680001501","0.529968300019391","0.566913999966346","1","1","1","1","1","1","1","1","1"
"260070","img/object_images/lamp01.jpg","img/object_images/drone02.jpg","img/object_images/toilet_paper01.jpg","1","1","1","1","0","1","0.566913999966346","0.54077680001501","0.855591999948956","1","1","1","1","1","1","1","1","1"
"260070","img/object_images/toilet_paper01.jpg","img/object_images/lamp01.jpg","img/object_images/Recycling01.jpg","1","1","1","1","1","1","0.855591999948956","0.566913999966346","0.56245269998908","1","1","1","1","1","1","1","1","1"
"260070","img/object_images/Recycling01.jpg","img/object_images/toilet_paper01.jpg","img/object_images/bottle12.jpg","1","1","1","1","1","1","0.56245269998908","0.855591999948956","0.644858599989675","1","1","1","1","1","1","1","1","1"
"260070","img/object_images/bottle12.jpg","img/object_images/Recycling01.jpg","img/object_images/car02.jpg","1","1","1","1","1","0","0.644858599989675","0.56245269998908","0.61164970009122","1","1","1","1","1","1","1","1","1"
"260070","img/object_images/car02.jpg","img/object_images/bottle12.jpg","img/object_images/razor03.jpg","1","1","1","0","1","0","0.61164970009122","0.644858599989675","0.73878099990543","1","1","1","1","1","1","1","1","1"
"260070","img/object_images/razor03.jpg","img/object_images/car02.jpg","img/object_images/Wisk01.jpg","1","1","1","0","0","1","0.73878099990543","0.61164970009122","0.588924799929373","1","1","1","1","1","1","1","1","1"
"260070","img/object_images/Wisk01.jpg","img/object_images/razor03.jpg",NA,"1","1",NA,"1","0",NA,"0.588924799929373","0.73878099990543",NA,"1","1",NA,"1","1",NA,"1","1",NA
"260070","img/object_images/toothbrush01.jpg",NA,"img/object_images/shoes12.jpg","1",NA,"1","0",NA,"1","0.807216400047764",NA,"0.613836899981834","1",NA,"1","1",NA,"1","1",NA,"1"
"260070","img/object_images/shoes12.jpg","img/object_images/toothbrush01.jpg","img/object_images/skate_board01.jpg","1","1","1","1","0","0","0.613836899981834","0.807216400047764","0.604156199959107","1","1","1","1","1","1","1","1","1"
"260070","img/object_images/skate_board01.jpg","img/object_images/shoes12.jpg","img/object_images/computer_mouse02.jpg","1","1","1","0","1","0","0.604156199959107","0.613836899981834","0.578063299995847","1","1","1","1","1","1","1","1","1"
"260070","img/object_images/computer_mouse02.jpg","img/object_images/skate_board01.jpg","img/object_images/rock02.jpg","1","1","1","0","0","0","0.578063299995847","0.604156199959107","0.492228600080125","1","1","1","1","1","1","1","1","1"
"260070","img/object_images/rock02.jpg","img/object_images/computer_mouse02.jpg","img/object_images/drone01.jpg","1","1","1","0","0","1","0.492228600080125","0.578063299995847","0.509661999996752","1","1","1","1","1","1","1","1","1"
"260070","img/object_images/drone01.jpg","img/object_images/rock02.jpg","img/object_images/video_game03.jpg","1","1","1","1","0","1","0.509661999996752","0.492228600080125","0.510000900016166","1","1","1","1","1","1","1","1","1"
"260070","img/object_images/video_game03.jpg","img/object_images/drone01.jpg","img/object_images/bag_pipes01.jpg","1","1","1","1","1","1","0.510000900016166","0.509661999996752","0.465475299977697","1","1","1","1","1","1","1","1","1"
"260070","img/object_images/bag_pipes01.jpg","img/object_images/video_game03.jpg","img/object_images/box03.jpg","1","1","1","1","1","0","0.465475299977697","0.510000900016166","0.655571899958886","1","1","1","1","1","1","1","1","1"
"260070","img/object_images/box03.jpg","img/object_images/bag_pipes01.jpg","img/object_images/pen01.jpg","1","1","1","0","1","0","0.655571899958886","0.465475299977697","0.620114599936642","1","1","1","1","1","1","1","1","1"
"260070","img/object_images/pen01.jpg","img/object_images/box03.jpg","img/object_images/toy01.jpg","1","1","1","0","0","1","0.620114599936642","0.655571899958886","0.635040900087915","1","1","1","1","1","1","1","1","1"
"260070","img/object_images/toy01.jpg","img/object_images/pen01.jpg","img/object_images/scarf01.jpg","1","1","1","1","0","1","0.635040900087915","0.620114599936642","0.768178900005296","1","1","1","1","1","1","1","1","1"
"260070","img/object_images/scarf01.jpg","img/object_images/toy01.jpg","img/object_images/chair06.jpg","1","1","1","1","1","0","0.768178900005296","0.635040900087915","0.580197700066492","1","1","1","1","1","1","1","1","1"
"260070","img/object_images/chair06.jpg","img/object_images/scarf01.jpg","img/object_images/egg_slicer01.jpg","1","1","1","0","1","1","0.580197700066492","0.768178900005296","0.522011299966834","1","1","1","1","1","1","1","1","1"
"260070","img/object_images/egg_slicer01.jpg","img/object_images/chair06.jpg","img/object_images/computer_mouse01.jpg","1","1","1","1","0","1","0.522011299966834","0.580197700066492","0.502969599911012","1","1","1","1","1","1","1","1","1"
"260070","img/object_images/computer_mouse01.jpg","img/object_images/egg_slicer01.jpg","img/object_images/clip04.jpg","1","1","1","1","1","1","0.502969599911012","0.522011299966834","0.633879300090484","1","1","1","1","1","1","1","1","1"
"260070","img/object_images/clip04.jpg","img/object_images/computer_mouse01.jpg","img/object_images/pitcher09.jpg","1","1","1","1","1","1","0.633879300090484","0.502969599911012","0.665908500086516","1","1","1","1","1","1","1","1","1"
"260070","img/object_images/pitcher09.jpg","img/object_images/clip04.jpg","img/object_images/mail_box02.jpg","1","1","1","1","1","1","0.665908500086516","0.633879300090484","0.665240200003609","1","1","1","1","1","1","1","1","1"
"260070","img/object_images/mail_box02.jpg","img/object_images/pitcher09.jpg","img/object_images/tripod01.jpg","1","1","1","1","1","1","0.665240200003609","0.665908500086516","0.531597999972291","1","1","1","1","1","1","1","1","1"
"260070","img/object_images/tripod01.jpg","img/object_images/mail_box02.jpg","img/object_images/book02.jpg","1","1","1","1","1","1","0.531597999972291","0.665240200003609","0.619558100006543","1","1","1","1","1","1","1","1","1"
"260070","img/object_images/book02.jpg","img/object_images/tripod01.jpg","img/object_images/blender01.jpg","1","1","1","1","1","0","0.619558100006543","0.531597999972291","0.580952500109561","1","1","1","1","1","1","1","1","1"
"260070","img/object_images/blender01.jpg","img/object_images/book02.jpg","img/object_images/hair_brush01.jpg","1","1","1","0","1","1","0.580952500109561","0.619558100006543","0.575621599913575","1","1","1","1","1","1","1","1","1"
"260070","img/object_images/hair_brush01.jpg","img/object_images/blender01.jpg","img/object_images/fork02.jpg","1","1","1","1","0","0","0.575621599913575","0.580952500109561","0.633290000027046","1","1","1","1","1","1","1","1","1"
"260070","img/object_images/fork02.jpg","img/object_images/hair_brush01.jpg","img/object_images/airfryer02.jpg","1","1","1","0","1","1","0.633290000027046","0.575621599913575","0.601877500070259","1","1","1","1","1","1","1","1","1"
"260070","img/object_images/airfryer02.jpg","img/object_images/fork02.jpg","img/object_images/tool06.jpg","1","1","1","1","0","0","0.601877500070259","0.633290000027046","0.561417999910191","1","1","1","1","1","1","1","1","1"
"260070","img/object_images/tool06.jpg","img/object_images/airfryer02.jpg","img/object_images/chain01.jpg","1","1","1","0","1","0","0.561417999910191","0.601877500070259","0.662426099996082","1","1","1","1","1","1","1","1","1"
"260070","img/object_images/chain01.jpg","img/object_images/tool06.jpg","img/object_images/Violin01.jpg","1","1","1","0","0","0","0.662426099996082","0.561417999910191","1.23538279999048","1","1","1","1","1","1","1","1","1"
"260070","img/object_images/Violin01.jpg","img/object_images/chain01.jpg","img/object_images/Trowel01.jpg","1","1","0","0","0","0","1.23538279999048","0.662426099996082","0.689902600017376","1","1","1","1","1","1","1","1","2"
"260070","img/object_images/Trowel01.jpg","img/object_images/Violin01.jpg","img/object_images/floss02.jpg","0","1","1","0","0","1","0.689902600017376","1.23538279999048","0.598087699967436","1","1","1","1","1","1","2","1","1"
"260070","img/object_images/floss02.jpg","img/object_images/Trowel01.jpg","img/object_images/soap03.jpg","1","0","1","1","0","0","0.598087699967436","0.689902600017376","0.605347599950619","1","1","1","1","1","1","1","2","1"
"260070","img/object_images/soap03.jpg","img/object_images/floss02.jpg","img/object_images/bell03.jpg","1","1","1","0","1","0","0.605347599950619","0.598087699967436","0.608324500033632","1","1","1","1","1","1","1","1","1"
"260070","img/object_images/bell03.jpg","img/object_images/soap03.jpg","img/object_images/couch01.jpg","1","1","1","0","0","0","0.608324500033632","0.605347599950619","0.549789300072007","1","1","1","1","1","1","1","1","1"
"260070","img/object_images/couch01.jpg","img/object_images/bell03.jpg",NA,"1","1",NA,"0","0",NA,"0.549789300072007","0.608324500033632",NA,"1","1",NA,"1","1",NA,"1","1",NA
"260070","img/object_images/paint_brush04.jpg",NA,"img/object_images/chess_piece02.jpg","1",NA,"1","0",NA,"1","0.624577399925329",NA,"0.501516100019217","1",NA,"1","1",NA,"1","1",NA,"1"
"260070","img/object_images/chess_piece02.jpg","img/object_images/paint_brush04.jpg","img/object_images/microscope01.jpg","1","1","1","1","0","0","0.501516100019217","0.624577399925329","0.508059400017373","1","1","1","1","1","1","1","1","1"
"260070","img/object_images/microscope01.jpg","img/object_images/chess_piece02.jpg","img/object_images/chair05.jpg","1","1","0","0","1","0","0.508059400017373","0.501516100019217","0.417753400048241","1","1","1","1","1","1","1","1","1"
"260070","img/object_images/chair05.jpg","img/object_images/microscope01.jpg","img/object_images/crutches02.jpg","0","1","1","0","0","0","0.417753400048241","0.508059400017373","0.613941499963403","1","1","1","1","1","1","1","1","1"
"260070","img/object_images/crutches02.jpg","img/object_images/chair05.jpg","img/object_images/wire02.jpg","1","0","1","0","0","1","0.613941499963403","0.417753400048241","0.529842200106941","1","1","1","1","1","1","1","1","1"
"260070","img/object_images/wire02.jpg","img/object_images/crutches02.jpg","img/object_images/tv02.jpg","1","1","1","1","0","0","0.529842200106941","0.613941499963403","0.567498099990189","1","1","1","1","1","1","1","1","1"
"260070","img/object_images/tv02.jpg","img/object_images/wire02.jpg","img/object_images/book03.jpg","1","1","1","0","1","1","0.567498099990189","0.529842200106941","0.507262700004503","1","1","1","1","1","1","1","1","1"
"260070","img/object_images/book03.jpg","img/object_images/tv02.jpg","img/object_images/retainer01.jpg","1","1","1","1","0","0","0.507262700004503","0.567498099990189","0.579533999902196","1","1","1","1","1","1","1","1","1"
"260070","img/object_images/retainer01.jpg","img/object_images/book03.jpg","img/object_images/clock02.jpg","1","1","1","0","1","0","0.579533999902196","0.507262700004503","0.725977300084196","1","1","1","1","1","1","1","1","1"
"260070","img/object_images/clock02.jpg","img/object_images/retainer01.jpg","img/object_images/clip03.jpg","1","1","1","0","0","0","0.725977300084196","0.579533999902196","0.60471540002618","1","1","1","1","1","1","1","1","1"
"260070","img/object_images/clip03.jpg","img/object_images/clock02.jpg","img/object_images/note_book01.jpg","1","1","1","0","0","0","0.60471540002618","0.725977300084196","0.728758999961428","1","1","1","1","1","1","1","1","1"
"260070","img/object_images/note_book01.jpg","img/object_images/clip03.jpg","img/object_images/compass01.jpg","1","1","0","0","0","1","0.728758999961428","0.60471540002618","0.675789500004612","1","1","1","1","1","1","1","1","1"
"260070","img/object_images/compass01.jpg","img/object_images/note_book01.jpg","img/object_images/floppy_disk02.jpg","0","1","1","1","0","0","0.675789500004612","0.728758999961428","1.10294209991116","1","1","1","1","1","1","1","1","1"
"260070","img/object_images/floppy_disk02.jpg","img/object_images/compass01.jpg","img/object_images/cellphone01.jpg","1","0","1","0","1","1","1.10294209991116","0.675789500004612","0.610754300025292","1","1","1","1","1","1","1","1","1"
"260070","img/object_images/cellphone01.jpg","img/object_images/floppy_disk02.jpg","img/object_images/pitcher01.jpg","1","1","1","1","0","0","0.610754300025292","1.10294209991116","0.60391179996077","1","1","1","1","1","1","1","1","1"
"260070","img/object_images/pitcher01.jpg","img/object_images/cellphone01.jpg","img/object_images/motorcycle01.jpg","1","1","1","0","1","1","0.60391179996077","0.610754300025292","0.561977299978025","1","1","1","1","1","1","1","1","1"
"260070","img/object_images/motorcycle01.jpg","img/object_images/pitcher01.jpg","img/object_images/Staples01.jpg","1","1","1","1","0","1","0.561977299978025","0.60391179996077","0.608901200001128","1","1","1","1","1","1","1","1","1"
"260070","img/object_images/Staples01.jpg","img/object_images/motorcycle01.jpg","img/object_images/usb02.jpg","1","1","1","1","1","0","0.608901200001128","0.561977299978025","0.579873099923134","1","1","1","1","1","1","1","1","1"
"260070","img/object_images/usb02.jpg","img/object_images/Staples01.jpg","img/object_images/ear_bud01.jpg","1","1","1","0","1","1","0.579873099923134","0.608901200001128","0.549817999941297","1","1","1","1","1","1","1","1","1"
"260070","img/object_images/ear_bud01.jpg","img/object_images/usb02.jpg","img/object_images/knit05.jpg","1","1","1","1","0","1","0.549817999941297","0.579873099923134","0.527938200044446","1","1","1","1","1","1","1","1","1"
"260070","img/object_images/knit05.jpg","img/object_images/ear_bud01.jpg","img/object_images/Thermometer01.jpg","1","1","1","1","1","0","0.527938200044446","0.549817999941297","0.629089000052772","1","1","1","1","1","1","1","1","1"
"260070","img/object_images/Thermometer01.jpg","img/object_images/knit05.jpg","img/object_images/pen03.jpg","1","1","1","0","1","0","0.629089000052772","0.527938200044446","0.503228199901059","1","1","1","1","1","1","1","1","1"
"260070","img/object_images/pen03.jpg","img/object_images/Thermometer01.jpg","img/object_images/bell02.jpg","1","1","1","0","0","0","0.503228199901059","0.629089000052772","0.753358099958859","1","1","1","1","1","1","1","1","1"
"260070","img/object_images/bell02.jpg","img/object_images/pen03.jpg","img/object_images/lid01.jpg","1","1","1","0","0","1","0.753358099958859","0.503228199901059","0.672991200000979","1","1","1","1","1","1","1","1","1"
"260070","img/object_images/lid01.jpg","img/object_images/bell02.jpg","img/object_images/bottle01.jpg","1","1","1","1","0","0","0.672991200000979","0.753358099958859","0.565305900061503","1","1","1","1","1","1","1","1","1"
"260070","img/object_images/bottle01.jpg","img/object_images/lid01.jpg","img/object_images/pillows01.jpg","1","1","1","0","1","1","0.565305900061503","0.672991200000979","1.0334418999264","1","1","1","1","1","1","1","1","1"
"260070","img/object_images/pillows01.jpg","img/object_images/bottle01.jpg","img/object_images/floppy_disk03.jpg","1","1","1","1","0","1","1.0334418999264","0.565305900061503","0.605035400018096","1","1","1","1","1","1","1","1","1"
"260070","img/object_images/floppy_disk03.jpg","img/object_images/pillows01.jpg","img/object_images/Oven01.jpg","1","1","1","1","1","1","0.605035400018096","1.0334418999264","0.725569700007327","1","1","1","1","1","1","1","1","1"
"260070","img/object_images/Oven01.jpg","img/object_images/floppy_disk03.jpg","img/object_images/tennis_racket02.jpg","1","1","1","1","1","1","0.725569700007327","0.605035400018096","0.636392500018701","1","1","1","1","1","1","1","1","1"
"260070","img/object_images/tennis_racket02.jpg","img/object_images/Oven01.jpg","img/object_images/knife04.jpg","1","1","1","1","1","1","0.636392500018701","0.725569700007327","0.507919399999082","1","1","1","1","1","1","1","1","1"
"260070","img/object_images/knife04.jpg","img/object_images/tennis_racket02.jpg","img/object_images/hammer03.jpg","1","1","1","1","1","1","0.507919399999082","0.636392500018701","0.550959600019269","1","1","1","1","1","1","1","1","1"
"260070","img/object_images/hammer03.jpg","img/object_images/knife04.jpg",NA,"1","1",NA,"1","1",NA,"0.550959600019269","0.507919399999082",NA,"1","1",NA,"1","1",NA,"1","1",NA
"260070","img/object_images/flashlight03.jpg",NA,"img/object_images/video_game01.jpg","1",NA,"1","0",NA,"1","0.591211899998598",NA,"0.477634300012142","1",NA,"1","1",NA,"1","1",NA,"1"
"260070","img/object_images/video_game01.jpg","img/object_images/flashlight03.jpg","img/object_images/knit04.jpg","1","1","1","1","0","1","0.477634300012142","0.591211899998598","0.508685000007972","1","1","1","1","1","1","1","1","1"
"260070","img/object_images/knit04.jpg","img/object_images/video_game01.jpg","img/object_images/remover01.jpg","1","1","1","1","1","1","0.508685000007972","0.477634300012142","0.467026600032113","1","1","1","1","1","1","1","1","1"
"260070","img/object_images/remover01.jpg","img/object_images/knit04.jpg","img/object_images/paper_cup02.jpg","1","1","1","1","1","1","0.467026600032113","0.508685000007972","0.498200499918312","1","1","1","1","1","1","1","1","1"
"260070","img/object_images/paper_cup02.jpg","img/object_images/remover01.jpg","img/object_images/gloves02.jpg","1","1","1","1","1","0","0.498200499918312","0.467026600032113","0.708667499944568","1","1","1","1","1","1","1","1","1"
"260070","img/object_images/gloves02.jpg","img/object_images/paper_cup02.jpg","img/object_images/jacket04.jpg","1","1","0","0","1","0","0.708667499944568","0.498200499918312","0.601869600010104","1","1","1","1","1","1","1","1","1"
"260070","img/object_images/jacket04.jpg","img/object_images/gloves02.jpg","img/object_images/kite01.jpg","0","1","1","0","0","1","0.601869600010104","0.708667499944568","0.788015200057998","1","1","1","1","1","1","1","1","1"
"260070","img/object_images/kite01.jpg","img/object_images/jacket04.jpg","img/object_images/camera03.jpg","1","0","1","1","0","0","0.788015200057998","0.601869600010104","0.725224900059402","1","1","1","1","1","1","1","1","1"
"260070","img/object_images/camera03.jpg","img/object_images/kite01.jpg","img/object_images/dresser03.jpg","1","1","1","0","1","0","0.725224900059402","0.788015200057998","0.608177600079216","1","1","1","1","1","1","1","1","1"
"260070","img/object_images/dresser03.jpg","img/object_images/camera03.jpg","img/object_images/hand_grip_exerciser01.jpg","1","1","1","0","0","0","0.608177600079216","0.725224900059402","0.560422100010328","1","1","1","1","1","1","1","1","1"
"260070","img/object_images/hand_grip_exerciser01.jpg","img/object_images/dresser03.jpg","img/object_images/sponge03.jpg","1","1","1","0","0","1","0.560422100010328","0.608177600079216","0.618033699924126","1","1","1","1","1","1","1","1","1"
"260070","img/object_images/sponge03.jpg","img/object_images/hand_grip_exerciser01.jpg","img/object_images/knit03.jpg","1","1","1","1","0","1","0.618033699924126","0.560422100010328","0.482036600005813","1","1","1","1","1","1","1","1","1"
"260070","img/object_images/knit03.jpg","img/object_images/sponge03.jpg","img/object_images/mail_box01.jpg","1","1","1","1","1","0","0.482036600005813","0.618033699924126","0.62835879996419","1","1","1","1","1","1","1","1","1"
"260070","img/object_images/mail_box01.jpg","img/object_images/knit03.jpg","img/object_images/car01.jpg","1","1","1","0","1","1","0.62835879996419","0.482036600005813","0.626599399955012","1","1","1","1","1","1","1","1","1"
"260070","img/object_images/car01.jpg","img/object_images/mail_box01.jpg","img/object_images/boat04.jpg","1","1","1","1","0","0","0.626599399955012","0.62835879996419","0.787204599939287","1","1","1","1","1","1","1","1","1"
"260070","img/object_images/boat04.jpg","img/object_images/car01.jpg","img/object_images/toy08.jpg","1","1","1","0","1","0","0.787204599939287","0.626599399955012","0.689619199954905","1","1","1","1","1","1","1","1","1"
"260070","img/object_images/toy08.jpg","img/object_images/boat04.jpg","img/object_images/phone02.jpg","1","1","1","0","0","1","0.689619199954905","0.787204599939287","0.650437099975534","1","1","1","1","1","1","1","1","1"
"260070","img/object_images/phone02.jpg","img/object_images/toy08.jpg","img/object_images/stereo02.jpg","1","1","1","1","0","0","0.650437099975534","0.689619199954905","0.627741300035268","1","1","1","1","1","1","1","1","1"
"260070","img/object_images/stereo02.jpg","img/object_images/phone02.jpg","img/object_images/keyboard02.jpg","1","1","1","0","1","1","0.627741300035268","0.650437099975534","0.611718700034544","1","1","1","1","1","1","1","1","1"
"260070","img/object_images/keyboard02.jpg","img/object_images/stereo02.jpg","img/object_images/bottle07.jpg","1","1","1","1","0","1","0.611718700034544","0.627741300035268","0.589764500036836","1","1","1","1","1","1","1","1","1"
"260070","img/object_images/bottle07.jpg","img/object_images/keyboard02.jpg","img/object_images/remote_controller01.jpg","1","1","1","1","1","1","0.589764500036836","0.611718700034544","0.550007699988782","1","1","1","1","1","1","1","1","1"
"260070","img/object_images/remote_controller01.jpg","img/object_images/bottle07.jpg","img/object_images/matches02.jpg","1","1","1","1","1","0","0.550007699988782","0.589764500036836","0.676917799981311","1","1","1","1","1","1","1","1","1"
"260070","img/object_images/matches02.jpg","img/object_images/remote_controller01.jpg","img/object_images/tool18.jpg","1","1","1","0","1","0","0.676917799981311","0.550007699988782","0.800639500026591","1","1","1","1","1","1","1","1","1"
"260070","img/object_images/tool18.jpg","img/object_images/matches02.jpg","img/object_images/blender02.jpg","1","1","1","0","0","1","0.800639500026591","0.676917799981311","0.593865600065328","1","1","1","1","1","1","1","1","1"
"260070","img/object_images/blender02.jpg","img/object_images/tool18.jpg","img/object_images/hoverboard01.jpg","1","1","1","1","0","0","0.593865600065328","0.800639500026591","0.72522929997649","1","1","1","1","1","1","1","1","1"
"260070","img/object_images/hoverboard01.jpg","img/object_images/blender02.jpg","img/object_images/backpack01.jpg","1","1","1","0","1","0","0.72522929997649","0.593865600065328","0.686201199889183","1","1","1","1","1","1","1","1","1"
"260070","img/object_images/backpack01.jpg","img/object_images/hoverboard01.jpg","img/object_images/curtain02.jpg","1","1","1","0","0","0","0.686201199889183","0.72522929997649","0.776144500006922","1","1","1","1","1","1","1","1","1"
"260070","img/object_images/curtain02.jpg","img/object_images/backpack01.jpg","img/object_images/shower_head01.jpg","1","1","1","0","0","1","0.776144500006922","0.686201199889183","0.645117499982007","1","1","1","1","1","1","1","1","1"
"260070","img/object_images/shower_head01.jpg","img/object_images/curtain02.jpg","img/object_images/Statue01.jpg","1","1","1","1","0","1","0.645117499982007","0.776144500006922","0.534936100011691","1","1","1","1","1","1","1","1","1"
"260070","img/object_images/Statue01.jpg","img/object_images/shower_head01.jpg","img/object_images/knife02.jpg","1","1","1","1","1","0","0.534936100011691","0.645117499982007","0.707502500037663","1","1","1","1","1","1","1","1","1"
"260070","img/object_images/knife02.jpg","img/object_images/Statue01.jpg","img/object_images/basket04.jpg","1","1","1","0","1","1","0.707502500037663","0.534936100011691","0.47485030000098","1","1","1","1","1","1","1","1","1"
"260070","img/object_images/basket04.jpg","img/object_images/knife02.jpg",NA,"1","1",NA,"1","0",NA,"0.47485030000098","0.707502500037663",NA,"1","1",NA,"1","1",NA,"1","1",NA
