"participant_id","current_trial_object","pre_trial_object","post_trial_object","current_trial_accuracy","pre_trial_accuracy","post_trial_accuracy","current_trial_congruency","pre_trial_congruency","post_trial_congruency","current_trial_rt","pre_trial_rt","post_trial_rt","current_trial_responded","pre_trial_responded","post_trial_responded","current_trial_legitResponse","pre_trial_legitResponse","post_trial_legitResponse","current_trial_resp_nums","pre_trial_resp_nums","post_trial_resp_nums"
"260040","img/object_images/bell03.jpg",NA,"img/object_images/mail_box02.jpg","0",NA,"0","0",NA,"1","1.01764569999068",NA,"0.787545400002273","1",NA,"1","1",NA,"1","1",NA,"1"
"260040","img/object_images/mail_box02.jpg","img/object_images/bell03.jpg","img/object_images/clip04.jpg","0","0","1","1","0","1","0.787545400002273","1.01764569999068","0.792716299998574","1","1","1","1","1","1","1","1","1"
"260040","img/object_images/clip04.jpg","img/object_images/mail_box02.jpg","img/object_images/Trowel01.jpg","1","0","1","1","1","0","0.792716299998574","0.787545400002273","1.32425380000495","1","1","1","1","1","1","1","1","1"
"260040","img/object_images/Trowel01.jpg","img/object_images/clip04.jpg","img/object_images/pen01.jpg","1","1","1","0","1","0","1.32425380000495","0.792716299998574","0.973914300004253","1","1","1","1","1","1","1","1","1"
"260040","img/object_images/pen01.jpg","img/object_images/Trowel01.jpg","img/object_images/floss02.jpg","1","1","1","0","0","1","0.973914300004253","1.32425380000495","0.778285899985349","1","1","1","1","1","1","1","1","1"
"260040","img/object_images/floss02.jpg","img/object_images/pen01.jpg","img/object_images/couch01.jpg","1","1","1","1","0","0","0.778285899985349","0.973914300004253","0.834430000017164","1","1","1","1","1","1","1","1","1"
"260040","img/object_images/couch01.jpg","img/object_images/floss02.jpg","img/object_images/toy01.jpg","1","1","1","0","1","1","0.834430000017164","0.778285899985349","0.86956530000316","1","1","1","1","1","1","1","1","1"
"260040","img/object_images/toy01.jpg","img/object_images/couch01.jpg","img/object_images/bag_pipes01.jpg","1","1","1","1","0","1","0.86956530000316","0.834430000017164","0.798160700011067","1","1","1","1","1","1","1","1","1"
"260040","img/object_images/bag_pipes01.jpg","img/object_images/toy01.jpg","img/object_images/rock02.jpg","1","1","1","1","1","0","0.798160700011067","0.86956530000316","0.677159899991238","1","1","1","1","1","1","1","1","1"
"260040","img/object_images/rock02.jpg","img/object_images/bag_pipes01.jpg","img/object_images/fork02.jpg","1","1","1","0","1","0","0.677159899991238","0.798160700011067","0.732706999988295","1","1","1","1","1","1","1","1","1"
"260040","img/object_images/fork02.jpg","img/object_images/rock02.jpg","img/object_images/shoes12.jpg","1","1","1","0","0","1","0.732706999988295","0.677159899991238","0.632201599975815","1","1","1","1","1","1","1","1","1"
"260040","img/object_images/shoes12.jpg","img/object_images/fork02.jpg","img/object_images/chain01.jpg","1","1","1","1","0","0","0.632201599975815","0.732706999988295","0.657769899989944","1","1","1","1","1","1","1","1","1"
"260040","img/object_images/chain01.jpg","img/object_images/shoes12.jpg","img/object_images/computer_mouse02.jpg","1","1","1","0","1","0","0.657769899989944","0.632201599975815","0.754895899997791","1","1","1","1","1","1","1","1","1"
"260040","img/object_images/computer_mouse02.jpg","img/object_images/chain01.jpg","img/object_images/airfryer02.jpg","1","1","1","0","0","1","0.754895899997791","0.657769899989944","0.765327500004787","1","1","1","1","1","1","1","1","1"
"260040","img/object_images/airfryer02.jpg","img/object_images/computer_mouse02.jpg","img/object_images/box03.jpg","1","1","1","1","0","0","0.765327500004787","0.754895899997791","0.788009299983969","1","1","1","1","1","1","1","1","1"
"260040","img/object_images/box03.jpg","img/object_images/airfryer02.jpg","img/object_images/tool06.jpg","1","1","1","0","1","0","0.788009299983969","0.765327500004787","0.630786499998067","1","1","1","1","1","1","1","1","1"
"260040","img/object_images/tool06.jpg","img/object_images/box03.jpg","img/object_images/toothbrush01.jpg","1","1","1","0","0","0","0.630786499998067","0.788009299983969","1.39042209999752","1","1","1","1","1","1","1","1","1"
"260040","img/object_images/toothbrush01.jpg","img/object_images/tool06.jpg","img/object_images/soap03.jpg","1","1","1","0","0","0","1.39042209999752","0.630786499998067","0.816804200003389","1","1","1","1","1","1","1","1","1"
"260040","img/object_images/soap03.jpg","img/object_images/toothbrush01.jpg","img/object_images/hair_brush01.jpg","1","1","1","0","0","1","0.816804200003389","1.39042209999752","0.601339099986944","1","1","1","1","1","1","1","1","1"
"260040","img/object_images/hair_brush01.jpg","img/object_images/soap03.jpg","img/object_images/drone01.jpg","1","1","1","1","0","1","0.601339099986944","0.816804200003389","0.829445599985775","1","1","1","1","1","1","1","1","1"
"260040","img/object_images/drone01.jpg","img/object_images/hair_brush01.jpg","img/object_images/chair06.jpg","1","1","1","1","1","0","0.829445599985775","0.601339099986944","0.676246200018795","1","1","1","1","1","1","1","1","2"
"260040","img/object_images/chair06.jpg","img/object_images/drone01.jpg","img/object_images/computer_mouse01.jpg","1","1","1","0","1","1","0.676246200018795","0.829445599985775","0.715162900014548","1","1","1","1","1","1","2","1","1"
"260040","img/object_images/computer_mouse01.jpg","img/object_images/chair06.jpg","img/object_images/tripod01.jpg","1","1","1","1","0","1","0.715162900014548","0.676246200018795","0.742530299990904","1","1","1","1","1","1","1","2","1"
"260040","img/object_images/tripod01.jpg","img/object_images/computer_mouse01.jpg","img/object_images/pitcher09.jpg","1","1","1","1","1","1","0.742530299990904","0.715162900014548","1.07361570000648","1","1","1","1","1","1","1","1","1"
"260040","img/object_images/pitcher09.jpg","img/object_images/tripod01.jpg","img/object_images/egg_slicer01.jpg","1","1","1","1","1","1","1.07361570000648","0.742530299990904","0.671592400001828","1","1","1","1","1","1","1","1","1"
"260040","img/object_images/egg_slicer01.jpg","img/object_images/pitcher09.jpg","img/object_images/skate_board01.jpg","1","1","1","1","1","0","0.671592400001828","1.07361570000648","0.593923900014488","1","1","1","1","1","1","1","1","1"
"260040","img/object_images/skate_board01.jpg","img/object_images/egg_slicer01.jpg","img/object_images/scarf01.jpg","1","1","1","0","1","1","0.593923900014488","0.671592400001828","0.682800400012638","1","1","1","1","1","1","1","1","1"
"260040","img/object_images/scarf01.jpg","img/object_images/skate_board01.jpg","img/object_images/book02.jpg","1","1","1","1","0","1","0.682800400012638","0.593923900014488","0.689533799974015","1","1","1","1","1","1","1","1","1"
"260040","img/object_images/book02.jpg","img/object_images/scarf01.jpg","img/object_images/video_game03.jpg","1","1","1","1","1","1","0.689533799974015","0.682800400012638","0.548787099978654","1","1","1","1","1","1","1","1","1"
"260040","img/object_images/video_game03.jpg","img/object_images/book02.jpg","img/object_images/blender01.jpg","1","1","1","1","1","0","0.548787099978654","0.689533799974015","0.906716099998448","1","1","1","1","1","1","1","1","1"
"260040","img/object_images/blender01.jpg","img/object_images/video_game03.jpg","img/object_images/Violin01.jpg","1","1","1","0","1","0","0.906716099998448","0.548787099978654","0.699317099992186","1","1","1","1","1","1","1","1","1"
"260040","img/object_images/Violin01.jpg","img/object_images/blender01.jpg",NA,"1","1",NA,"0","0",NA,"0.699317099992186","0.906716099998448",NA,"1","1",NA,"1","1",NA,"1","1",NA
"260040","img/object_images/tool02.jpg",NA,"img/object_images/bow01.jpg","1",NA,"1","1",NA,"1","0.512170200003311",NA,"0.572585999994772","1",NA,"1","1",NA,"1","1",NA,"1"
"260040","img/object_images/bow01.jpg","img/object_images/tool02.jpg","img/object_images/dart01.jpg","1","1","0","1","1","0","0.572585999994772","0.512170200003311","0.341044800006784","1","1","1","1","1","1","1","1","1"
"260040","img/object_images/dart01.jpg","img/object_images/bow01.jpg","img/object_images/bottle05.jpg","0","1","1","0","1","0","0.341044800006784","0.572585999994772","0.515736600005766","1","1","1","1","1","1","1","1","1"
"260040","img/object_images/bottle05.jpg","img/object_images/dart01.jpg","img/object_images/acoustic_capo01.jpg","1","0","1","0","0","1","0.515736600005766","0.341044800006784","0.496732600004179","1","1","1","1","1","1","1","1","1"
"260040","img/object_images/acoustic_capo01.jpg","img/object_images/bottle05.jpg","img/object_images/tool09.jpg","1","1","0","1","0","1","0.496732600004179","0.515736600005766","0.52594780002255","1","1","1","1","1","1","1","1","1"
"260040","img/object_images/tool09.jpg","img/object_images/acoustic_capo01.jpg","img/object_images/Vacuum01.jpg","0","1","1","1","1","0","0.52594780002255","0.496732600004179","0.593831899983343","1","1","1","1","1","1","1","1","1"
"260040","img/object_images/Vacuum01.jpg","img/object_images/tool09.jpg","img/object_images/helmet01.jpg","1","0","1","0","1","0","0.593831899983343","0.52594780002255","0.617182500020135","1","1","1","1","1","1","1","1","1"
"260040","img/object_images/helmet01.jpg","img/object_images/Vacuum01.jpg","img/object_images/bird_house02.jpg","1","1","1","0","0","1","0.617182500020135","0.593831899983343","0.578717900003539","1","1","1","1","1","1","1","1","1"
"260040","img/object_images/bird_house02.jpg","img/object_images/helmet01.jpg","img/object_images/mirror01.jpg","1","1","1","1","0","1","0.578717900003539","0.617182500020135","0.513202100002673","1","1","1","1","1","1","1","1","1"
"260040","img/object_images/mirror01.jpg","img/object_images/bird_house02.jpg","img/object_images/Tin01.jpg","1","1","1","1","1","1","0.513202100002673","0.578717900003539","0.477588899986586","1","1","1","1","1","1","1","1","1"
"260040","img/object_images/Tin01.jpg","img/object_images/mirror01.jpg","img/object_images/outlet01.jpg","1","1","1","1","1","0","0.477588899986586","0.513202100002673","0.515742099989438","1","1","1","1","1","1","1","1","1"
"260040","img/object_images/outlet01.jpg","img/object_images/Tin01.jpg","img/object_images/toy04.jpg","1","1","1","0","1","0","0.515742099989438","0.477588899986586","0.620022499992047","1","1","1","1","1","1","1","1","1"
"260040","img/object_images/toy04.jpg","img/object_images/outlet01.jpg","img/object_images/guitar02.jpg","1","1","1","0","0","0","0.620022499992047","0.515742099989438","0.587362299993401","1","1","1","1","1","1","1","1","1"
"260040","img/object_images/guitar02.jpg","img/object_images/toy04.jpg","img/object_images/gauze01.jpg","1","1","1","0","0","0","0.587362299993401","0.620022499992047","0.506324499991024","1","1","1","1","1","1","1","1","1"
"260040","img/object_images/gauze01.jpg","img/object_images/guitar02.jpg","img/object_images/jewel04.jpg","1","1","1","0","0","0","0.506324499991024","0.587362299993401","0.548793699999806","1","1","1","1","1","1","1","1","1"
"260040","img/object_images/jewel04.jpg","img/object_images/gauze01.jpg","img/object_images/frisbee01.jpg","1","1","1","0","0","1","0.548793699999806","0.506324499991024","0.658064099989133","1","1","1","1","1","1","1","1","1"
"260040","img/object_images/frisbee01.jpg","img/object_images/jewel04.jpg","img/object_images/towel02.jpg","1","1","1","1","0","1","0.658064099989133","0.548793699999806","0.404974700009916","1","1","1","1","1","1","1","1","1"
"260040","img/object_images/towel02.jpg","img/object_images/frisbee01.jpg","img/object_images/Stool01.jpg","1","1","1","1","1","0","0.404974700009916","0.658064099989133","0.502799599984428","1","1","1","1","1","1","1","1","1"
"260040","img/object_images/Stool01.jpg","img/object_images/towel02.jpg","img/object_images/crown02.jpg","1","1","1","0","1","1","0.502799599984428","0.404974700009916","0.378889099985827","1","1","1","1","1","1","1","1","1"
"260040","img/object_images/crown02.jpg","img/object_images/Stool01.jpg","img/object_images/fridge03.jpg","1","1","0","1","0","0","0.378889099985827","0.502799599984428","0.507135899999412","1","1","1","1","1","1","1","1","1"
"260040","img/object_images/fridge03.jpg","img/object_images/crown02.jpg","img/object_images/pot01 (1).jpg","0","1","1","0","1","0","0.507135899999412","0.378889099985827","0.613818700017873","1","1","1","1","1","1","1","1","1"
"260040","img/object_images/pot01 (1).jpg","img/object_images/fridge03.jpg","img/object_images/ornament01.jpg","1","0","1","0","0","1","0.613818700017873","0.507135899999412","0.512289100006456","1","1","1","1","1","1","1","1","1"
"260040","img/object_images/ornament01.jpg","img/object_images/pot01 (1).jpg","img/object_images/watch01.jpg","1","1","1","1","0","0","0.512289100006456","0.613818700017873","0.586469300003955","1","1","1","1","1","1","1","1","1"
"260040","img/object_images/watch01.jpg","img/object_images/ornament01.jpg","img/object_images/toy03.jpg","1","1","1","0","1","1","0.586469300003955","0.512289100006456","0.766902300005313","1","1","1","1","1","1","1","1","1"
"260040","img/object_images/toy03.jpg","img/object_images/watch01.jpg","img/object_images/shovel03.jpg","1","1","1","1","0","1","0.766902300005313","0.586469300003955","0.51277519998257","1","1","1","1","1","1","1","1","1"
"260040","img/object_images/shovel03.jpg","img/object_images/toy03.jpg","img/object_images/video_game07.jpg","1","1","1","1","1","1","0.51277519998257","0.766902300005313","0.52004809997743","1","1","1","1","1","1","1","1","1"
"260040","img/object_images/video_game07.jpg","img/object_images/shovel03.jpg","img/object_images/MetalWire01.jpg","1","1","1","1","1","0","0.52004809997743","0.51277519998257","0.542917999991914","1","1","1","1","1","1","1","1","1"
"260040","img/object_images/MetalWire01.jpg","img/object_images/video_game07.jpg","img/object_images/Ring02.jpg","1","1","1","0","1","0","0.542917999991914","0.52004809997743","0.508657600003062","1","1","1","1","1","1","1","1","1"
"260040","img/object_images/Ring02.jpg","img/object_images/MetalWire01.jpg","img/object_images/judge_gavel01.jpg","1","1","1","0","0","1","0.508657600003062","0.542917999991914","0.645903199998429","1","1","1","1","1","1","1","1","1"
"260040","img/object_images/judge_gavel01.jpg","img/object_images/Ring02.jpg","img/object_images/stapler.jpg","1","1","1","1","0","1","0.645903199998429","0.508657600003062","0.57569960001274","1","1","1","1","1","1","1","1","1"
"260040","img/object_images/stapler.jpg","img/object_images/judge_gavel01.jpg","img/object_images/sink01.jpg","1","1","1","1","1","0","0.57569960001274","0.645903199998429","0.72660170000745","1","1","1","1","1","1","1","1","1"
"260040","img/object_images/sink01.jpg","img/object_images/stapler.jpg",NA,"1","1",NA,"0","1",NA,"0.72660170000745","0.57569960001274",NA,"1","1",NA,"1","1",NA,"1","1",NA
"260040","img/object_images/bucket01.jpg",NA,"img/object_images/Shoes05.jpg","1",NA,"1","1",NA,"0","0.470151099987561",NA,"0.579492299992125","1",NA,"1","1",NA,"1","1",NA,"1"
"260040","img/object_images/Shoes05.jpg","img/object_images/bucket01.jpg","img/object_images/egg_basket01.jpg","1","1","1","0","1","1","0.579492299992125","0.470151099987561","0.41554129999713","1","1","1","1","1","1","1","1","1"
"260040","img/object_images/egg_basket01.jpg","img/object_images/Shoes05.jpg","img/object_images/jewel02.jpg","1","1","1","1","0","0","0.41554129999713","0.579492299992125","0.543981399998302","1","1","1","1","1","1","1","1","1"
"260040","img/object_images/jewel02.jpg","img/object_images/egg_basket01.jpg","img/object_images/tennis_racket01.jpg","1","1","1","0","1","1","0.543981399998302","0.41554129999713","0.581850999995368","1","1","1","1","1","1","1","1","1"
"260040","img/object_images/tennis_racket01.jpg","img/object_images/jewel02.jpg","img/object_images/joystick03.jpg","1","1","1","1","0","1","0.581850999995368","0.543981399998302","0.460904600011418","1","1","1","1","1","1","1","1","1"
"260040","img/object_images/joystick03.jpg","img/object_images/tennis_racket01.jpg","img/object_images/headset02.jpg","1","1","1","1","1","0","0.460904600011418","0.581850999995368","0.632027399988146","1","1","1","1","1","1","1","1","1"
"260040","img/object_images/headset02.jpg","img/object_images/joystick03.jpg","img/object_images/water_gun01.jpg","1","1","1","0","1","1","0.632027399988146","0.460904600011418","0.463599899987457","1","1","1","1","1","1","1","1","1"
"260040","img/object_images/water_gun01.jpg","img/object_images/headset02.jpg","img/object_images/helmet03.jpg","1","1","1","1","0","1","0.463599899987457","0.632027399988146","0.465442499989877","1","1","1","1","1","1","1","1","1"
"260040","img/object_images/helmet03.jpg","img/object_images/water_gun01.jpg","img/object_images/pitcher07.jpg","1","1","1","1","1","1","0.465442499989877","0.463599899987457","0.412218899989966","1","1","1","1","1","1","1","1","1"
"260040","img/object_images/pitcher07.jpg","img/object_images/helmet03.jpg","img/object_images/shovel01.jpg","1","1","1","1","1","0","0.412218899989966","0.465442499989877","0.510242599993944","1","1","1","1","1","1","1","1","1"
"260040","img/object_images/shovel01.jpg","img/object_images/pitcher07.jpg","img/object_images/fan01.jpg","1","1","1","0","1","0","0.510242599993944","0.412218899989966","0.554979600012302","1","1","1","1","1","1","1","1","1"
"260040","img/object_images/fan01.jpg","img/object_images/shovel01.jpg","img/object_images/Eyeliner01.jpg","1","1","1","0","0","1","0.554979600012302","0.510242599993944","0.538489600003231","1","1","1","1","1","1","1","1","1"
"260040","img/object_images/Eyeliner01.jpg","img/object_images/fan01.jpg","img/object_images/scale02.jpg","1","1","1","1","0","0","0.538489600003231","0.554979600012302","0.67532709997613","1","1","1","1","1","1","1","1","1"
"260040","img/object_images/scale02.jpg","img/object_images/Eyeliner01.jpg","img/object_images/frame01.jpg","1","1","1","0","1","1","0.67532709997613","0.538489600003231","0.499949399993056","1","1","1","1","1","1","1","1","1"
"260040","img/object_images/frame01.jpg","img/object_images/scale02.jpg","img/object_images/ToolBag01.jpg","1","1","1","1","0","0","0.499949399993056","0.67532709997613","0.608107300009578","1","1","1","1","1","1","1","1","1"
"260040","img/object_images/ToolBag01.jpg","img/object_images/frame01.jpg","img/object_images/belt03.jpg","1","1","1","0","1","0","0.608107300009578","0.499949399993056","0.574173600005452","1","1","1","1","1","1","1","1","1"
"260040","img/object_images/belt03.jpg","img/object_images/ToolBag01.jpg","img/object_images/yoga_mat01.jpg","1","1","1","0","0","0","0.574173600005452","0.608107300009578","0.54062809998868","1","1","1","1","1","1","1","1","1"
"260040","img/object_images/yoga_mat01.jpg","img/object_images/belt03.jpg","img/object_images/badminton01.jpg","1","1","1","0","0","1","0.54062809998868","0.574173600005452","0.484806499996921","1","1","1","1","1","1","1","1","1"
"260040","img/object_images/badminton01.jpg","img/object_images/yoga_mat01.jpg","img/object_images/bottle06.jpg","1","1","1","1","0","0","0.484806499996921","0.54062809998868","0.57461469998816","1","1","1","1","1","1","1","1","1"
"260040","img/object_images/bottle06.jpg","img/object_images/badminton01.jpg","img/object_images/usb03.jpg","1","1","1","0","1","0","0.57461469998816","0.484806499996921","0.546420900005614","1","1","1","1","1","1","1","1","1"
"260040","img/object_images/usb03.jpg","img/object_images/bottle06.jpg","img/object_images/lock03.jpg","1","1","1","0","0","1","0.546420900005614","0.57461469998816","0.426575599994976","1","1","1","1","1","1","1","1","1"
"260040","img/object_images/lock03.jpg","img/object_images/usb03.jpg","img/object_images/origami01.jpg","1","1","1","1","0","1","0.426575599994976","0.546420900005614","0.492750899982639","1","1","1","1","1","1","1","1","1"
"260040","img/object_images/origami01.jpg","img/object_images/lock03.jpg","img/object_images/piano03.jpg","1","1","0","1","1","0","0.492750899982639","0.426575599994976","1.28676160000032","1","1","1","1","1","1","1","1","1"
"260040","img/object_images/piano03.jpg","img/object_images/origami01.jpg","img/object_images/bookmark01.jpg","0","1","1","0","1","0","1.28676160000032","0.492750899982639","0.802944299997762","1","1","1","1","1","1","1","1","1"
"260040","img/object_images/bookmark01.jpg","img/object_images/piano03.jpg","img/object_images/TreeSlice01.jpg","1","0","0","0","0","1","0.802944299997762","1.28676160000032","0.540639799990458","1","1","1","1","1","1","1","1","1"
"260040","img/object_images/TreeSlice01.jpg","img/object_images/bookmark01.jpg","img/object_images/dice01.jpg","0","1","1","1","0","0","0.540639799990458","0.802944299997762","0.603513600013684","1","1","1","1","1","1","1","1","1"
"260040","img/object_images/dice01.jpg","img/object_images/TreeSlice01.jpg","img/object_images/phone04.jpg","1","0","1","0","1","1","0.603513600013684","0.540639799990458","0.499270500004059","1","1","1","1","1","1","1","1","1"
"260040","img/object_images/phone04.jpg","img/object_images/dice01.jpg","img/object_images/note_book02.jpg","1","1","1","1","0","0","0.499270500004059","0.603513600013684","0.57154759997502","1","1","1","1","1","1","1","1","1"
"260040","img/object_images/note_book02.jpg","img/object_images/phone04.jpg","img/object_images/Safe01.jpg","1","1","1","0","1","1","0.57154759997502","0.499270500004059","0.441185900010169","1","1","1","1","1","1","1","1","1"
"260040","img/object_images/Safe01.jpg","img/object_images/note_book02.jpg","img/object_images/nut_cracker01.jpg","1","1","1","1","0","1","0.441185900010169","0.57154759997502","0.480257099989103","1","1","1","1","1","1","1","1","1"
"260040","img/object_images/nut_cracker01.jpg","img/object_images/Safe01.jpg","img/object_images/trumpet01.jpg","1","1","0","1","1","0","0.480257099989103","0.441185900010169","0.758402499981457","1","1","1","1","1","1","1","1","1"
"260040","img/object_images/trumpet01.jpg","img/object_images/nut_cracker01.jpg",NA,"0","1",NA,"0","1",NA,"0.758402499981457","0.480257099989103",NA,"1","1",NA,"1","1",NA,"1","1",NA
"260040","img/object_images/gift_box04.jpg",NA,"img/object_images/yo_yo01.jpg","0",NA,"1","0",NA,"0","1.0997866000107",NA,"0.695029299997259","1",NA,"1","1",NA,"1","1",NA,"1"
"260040","img/object_images/yo_yo01.jpg","img/object_images/gift_box04.jpg","img/object_images/bicycle_lock01.jpg","1","0","1","0","0","0","0.695029299997259","1.0997866000107","0.749094300001161","1","1","1","1","1","1","1","1","1"
"260040","img/object_images/bicycle_lock01.jpg","img/object_images/yo_yo01.jpg","img/object_images/jewelry09.jpg","1","1","1","0","0","1","0.749094300001161","0.695029299997259","0.518863800010877","1","1","1","1","1","1","1","1","1"
"260040","img/object_images/jewelry09.jpg","img/object_images/bicycle_lock01.jpg","img/object_images/ring03.jpg","1","1","1","1","0","1","0.518863800010877","0.749094300001161","0.652313299971865","1","1","1","1","1","1","1","1","1"
"260040","img/object_images/ring03.jpg","img/object_images/jewelry09.jpg","img/object_images/colander01.jpg","1","1","1","1","1","0","0.652313299971865","0.518863800010877","0.66286450001644","1","1","1","1","1","1","1","1","1"
"260040","img/object_images/colander01.jpg","img/object_images/ring03.jpg","img/object_images/tray01.jpg","1","1","1","0","1","1","0.66286450001644","0.652313299971865","0.497258500021417","1","1","1","1","1","1","1","1","1"
"260040","img/object_images/tray01.jpg","img/object_images/colander01.jpg","img/object_images/glasses07.jpg","1","1","1","1","0","1","0.497258500021417","0.66286450001644","0.60582379999687","1","1","1","1","1","1","1","1","1"
"260040","img/object_images/glasses07.jpg","img/object_images/tray01.jpg","img/object_images/Traffic Sign 01.jpg","1","1","1","1","1","0","0.60582379999687","0.497258500021417","0.597144300001673","1","1","1","1","1","1","1","1","1"
"260040","img/object_images/Traffic Sign 01.jpg","img/object_images/glasses07.jpg","img/object_images/book01.jpg","1","1","1","0","1","1","0.597144300001673","0.60582379999687","0.630151199991815","1","1","1","1","1","1","1","1","1"
"260040","img/object_images/book01.jpg","img/object_images/Traffic Sign 01.jpg","img/object_images/TrashCan02.jpg","1","1","1","1","0","1","0.630151199991815","0.597144300001673","0.480953599995701","1","1","1","1","1","1","1","1","1"
"260040","img/object_images/TrashCan02.jpg","img/object_images/book01.jpg","img/object_images/handcuffs01.jpg","1","1","1","1","1","0","0.480953599995701","0.630151199991815","0.533068599994294","1","1","1","1","1","1","1","1","1"
"260040","img/object_images/handcuffs01.jpg","img/object_images/TrashCan02.jpg","img/object_images/fire_extinguisher01.jpg","1","1","1","0","1","0","0.533068599994294","0.480953599995701","0.780619999975897","1","1","1","1","1","1","1","1","1"
"260040","img/object_images/fire_extinguisher01.jpg","img/object_images/handcuffs01.jpg","img/object_images/exfoliater_brush01.jpg","1","1","1","0","0","0","0.780619999975897","0.533068599994294","0.561211799999","1","1","1","1","1","1","1","1","1"
"260040","img/object_images/exfoliater_brush01.jpg","img/object_images/fire_extinguisher01.jpg","img/object_images/pan01.jpg","1","1","1","0","0","1","0.561211799999","0.780619999975897","0.692811899993103","1","1","1","1","1","1","1","1","1"
"260040","img/object_images/pan01.jpg","img/object_images/exfoliater_brush01.jpg","img/object_images/projector01.jpg","1","1","1","1","0","0","0.692811899993103","0.561211799999","0.519209000020055","1","1","1","1","1","1","1","1","1"
"260040","img/object_images/projector01.jpg","img/object_images/pan01.jpg","img/object_images/glasses06.jpg","1","1","1","0","1","1","0.519209000020055","0.692811899993103","0.745504299993627","1","1","1","1","1","1","1","1","1"
"260040","img/object_images/glasses06.jpg","img/object_images/projector01.jpg","img/object_images/lighter01.jpg","1","1","1","1","0","1","0.745504299993627","0.519209000020055","0.557570700009819","1","1","1","1","1","1","1","1","1"
"260040","img/object_images/lighter01.jpg","img/object_images/glasses06.jpg","img/object_images/Kitchen_Towel.jpg","1","1","1","1","1","0","0.557570700009819","0.745504299993627","0.49245510000037","1","1","1","1","1","1","1","1","1"
"260040","img/object_images/Kitchen_Towel.jpg","img/object_images/lighter01.jpg","img/object_images/hair_clips01.jpg","1","1","1","0","1","1","0.49245510000037","0.557570700009819","0.625773400010075","1","1","1","1","1","1","1","1","1"
"260040","img/object_images/hair_clips01.jpg","img/object_images/Kitchen_Towel.jpg","img/object_images/faucet01.jpg","1","1","1","1","0","0","0.625773400010075","0.49245510000037","0.88060870001209","1","1","1","1","1","1","1","1","1"
"260040","img/object_images/faucet01.jpg","img/object_images/hair_clips01.jpg","img/object_images/tool07.jpg","1","1","1","0","1","0","0.88060870001209","0.625773400010075","0.579893399990397","1","1","1","1","1","1","1","1","1"
"260040","img/object_images/tool07.jpg","img/object_images/faucet01.jpg","img/object_images/blanket01.jpg","1","1","1","0","0","1","0.579893399990397","0.88060870001209","0.465448399976594","1","1","1","1","1","1","1","1","1"
"260040","img/object_images/blanket01.jpg","img/object_images/tool07.jpg","img/object_images/cellphone02.jpg","1","1","0","1","0","1","0.465448399976594","0.579893399990397","0.545135799999116","1","1","1","1","1","1","1","1","1"
"260040","img/object_images/cellphone02.jpg","img/object_images/blanket01.jpg","img/object_images/purse01.jpg","0","1","1","1","1","1","0.545135799999116","0.465448399976594","0.706925000005867","1","1","1","1","1","1","1","1","1"
"260040","img/object_images/purse01.jpg","img/object_images/cellphone02.jpg","img/object_images/tool08.jpg","1","0","1","1","1","0","0.706925000005867","0.545135799999116","0.714738200011197","1","1","1","1","1","1","1","1","1"
"260040","img/object_images/tool08.jpg","img/object_images/purse01.jpg","img/object_images/cup03.jpg","1","1","1","0","1","1","0.714738200011197","0.706925000005867","0.554513399983989","1","1","1","1","1","1","1","1","1"
"260040","img/object_images/cup03.jpg","img/object_images/tool08.jpg","img/object_images/Sprayer01.jpg","1","1","1","1","0","0","0.554513399983989","0.714738200011197","0.67239459999837","1","1","1","1","1","1","1","1","1"
"260040","img/object_images/Sprayer01.jpg","img/object_images/cup03.jpg","img/object_images/hole_puncher01.jpg","1","1","1","0","1","1","0.67239459999837","0.554513399983989","0.543411499995273","1","1","1","1","1","1","1","1","1"
"260040","img/object_images/hole_puncher01.jpg","img/object_images/Sprayer01.jpg","img/object_images/Pottery01.jpg","1","1","1","1","0","0","0.543411499995273","0.67239459999837","0.650550699996529","1","1","1","1","1","1","1","1","1"
"260040","img/object_images/Pottery01.jpg","img/object_images/hole_puncher01.jpg","img/object_images/basket02.jpg","1","1","1","0","1","0","0.650550699996529","0.543411499995273","0.976265700010117","1","1","1","1","1","1","1","1","1"
"260040","img/object_images/basket02.jpg","img/object_images/Pottery01.jpg","img/object_images/speaker01.jpg","1","1","1","0","0","1","0.976265700010117","0.650550699996529","0.671236399997724","1","1","1","1","1","1","1","1","1"
"260040","img/object_images/speaker01.jpg","img/object_images/basket02.jpg",NA,"1","1",NA,"1","0",NA,"0.671236399997724","0.976265700010117",NA,"1","1",NA,"1","1",NA,"1","1",NA
"260040","img/object_images/yarn02.jpg",NA,"img/object_images/mask01.jpg","1",NA,"0","0",NA,"0","0.703186699975049",NA,"1.54699439997785","1",NA,"1","1",NA,"1","1",NA,"1"
"260040","img/object_images/mask01.jpg","img/object_images/yarn02.jpg","img/object_images/shower_head03.jpg","0","1","0","0","0","1","1.54699439997785","0.703186699975049","1.69074950000504","1","1","1","1","1","1","1","1","1"
"260040","img/object_images/shower_head03.jpg","img/object_images/mask01.jpg","img/object_images/ladle02.jpg","0","0","1","1","0","0","1.69074950000504","1.54699439997785","0.940079299994977","1","1","1","1","1","1","1","1","1"
"260040","img/object_images/ladle02.jpg","img/object_images/shower_head03.jpg","img/object_images/MeasuringCup01.jpg","1","0","1","0","1","1","0.940079299994977","1.69074950000504","0.590239799988922","1","1","1","1","1","1","1","1","1"
"260040","img/object_images/MeasuringCup01.jpg","img/object_images/ladle02.jpg","img/object_images/lemon_squeezer02.jpg","1","1","1","1","0","1","0.590239799988922","0.940079299994977","0.445575899997493","1","1","1","1","1","1","1","1","1"
"260040","img/object_images/lemon_squeezer02.jpg","img/object_images/MeasuringCup01.jpg","img/object_images/slinky_toy01.jpg","1","1","1","1","1","1","0.445575899997493","0.590239799988922","0.485193699976662","1","1","1","1","1","1","1","1","1"
"260040","img/object_images/slinky_toy01.jpg","img/object_images/lemon_squeezer02.jpg","img/object_images/screwdriver01.jpg","1","1","1","1","1","0","0.485193699976662","0.445575899997493","0.5309728999855","1","1","1","1","1","1","1","1","1"
"260040","img/object_images/screwdriver01.jpg","img/object_images/slinky_toy01.jpg","img/object_images/ice_tray03.jpg","1","1","1","0","1","1","0.5309728999855","0.485193699976662","0.561708099994576","1","1","1","1","1","1","1","1","1"
"260040","img/object_images/ice_tray03.jpg","img/object_images/screwdriver01.jpg","img/object_images/key02.jpg","1","1","1","1","0","1","0.561708099994576","0.5309728999855","0.462335999996867","1","1","1","1","1","1","1","1","1"
"260040","img/object_images/key02.jpg","img/object_images/ice_tray03.jpg","img/object_images/WitchHat02.jpg","1","1","1","1","1","1","0.462335999996867","0.561708099994576","0.528643700003158","1","1","1","1","1","1","1","1","1"
"260040","img/object_images/WitchHat02.jpg","img/object_images/key02.jpg","img/object_images/rock03.jpg","1","1","1","1","1","0","0.528643700003158","0.462335999996867","0.570667999971192","1","1","1","1","1","1","1","1","1"
"260040","img/object_images/rock03.jpg","img/object_images/WitchHat02.jpg","img/object_images/toaster02.jpg","1","1","1","0","1","1","0.570667999971192","0.528643700003158","0.442022700008238","1","1","1","1","1","1","1","1","1"
"260040","img/object_images/toaster02.jpg","img/object_images/rock03.jpg","img/object_images/binoculars03.jpg","1","1","1","1","0","1","0.442022700008238","0.570667999971192","0.498659599979874","1","1","1","1","1","1","1","1","1"
"260040","img/object_images/binoculars03.jpg","img/object_images/toaster02.jpg","img/object_images/fan05.jpg","1","1","1","1","1","0","0.498659599979874","0.442022700008238","0.524603599973489","1","1","1","1","1","1","1","1","1"
"260040","img/object_images/fan05.jpg","img/object_images/binoculars03.jpg","img/object_images/dress03.jpg","1","1","1","0","1","1","0.524603599973489","0.498659599979874","0.536664300016128","1","1","1","1","1","1","1","1","1"
"260040","img/object_images/dress03.jpg","img/object_images/fan05.jpg","img/object_images/cutting_board01.jpg","1","1","1","1","0","1","0.536664300016128","0.524603599973489","0.454230099974666","1","1","1","1","1","1","1","1","1"
"260040","img/object_images/cutting_board01.jpg","img/object_images/dress03.jpg","img/object_images/bag06.jpg","1","1","1","1","1","1","0.454230099974666","0.536664300016128","0.575012399989646","1","1","1","1","1","1","1","1","1"
"260040","img/object_images/bag06.jpg","img/object_images/cutting_board01.jpg","img/object_images/shoes10.jpg","1","1","1","1","1","0","0.575012399989646","0.454230099974666","0.609029899991583","1","1","1","1","1","1","1","1","1"
"260040","img/object_images/shoes10.jpg","img/object_images/bag06.jpg","img/object_images/jewelry07.jpg","1","1","1","0","1","1","0.609029899991583","0.575012399989646","0.507596300012665","1","1","1","1","1","1","1","1","1"
"260040","img/object_images/jewelry07.jpg","img/object_images/shoes10.jpg","img/object_images/tv01.jpg","1","1","1","1","0","0","0.507596300012665","0.609029899991583","0.853419399994891","1","1","1","1","1","1","1","1","1"
"260040","img/object_images/tv01.jpg","img/object_images/jewelry07.jpg","img/object_images/hair_brush05.jpg","1","1","1","0","1","1","0.853419399994891","0.507596300012665","0.61488300000201","1","1","1","1","1","1","1","1","1"
"260040","img/object_images/hair_brush05.jpg","img/object_images/tv01.jpg","img/object_images/car03.jpg","1","1","1","1","0","0","0.61488300000201","0.853419399994891","0.6474145000102","1","1","1","1","1","1","1","1","1"
"260040","img/object_images/car03.jpg","img/object_images/hair_brush05.jpg","img/object_images/belt01.jpg","1","1","1","0","1","0","0.6474145000102","0.61488300000201","0.564496100007091","1","1","1","1","1","1","1","1","1"
"260040","img/object_images/belt01.jpg","img/object_images/car03.jpg","img/object_images/ribbon01.jpg","1","1","1","0","0","0","0.564496100007091","0.6474145000102","0.533389199990779","1","1","1","1","1","1","1","1","1"
"260040","img/object_images/ribbon01.jpg","img/object_images/belt01.jpg","img/object_images/razor01.jpg","1","1","1","0","0","0","0.533389199990779","0.564496100007091","0.586362999980338","1","1","1","1","1","1","1","1","1"
"260040","img/object_images/razor01.jpg","img/object_images/ribbon01.jpg","img/object_images/jewel01.jpg","1","1","1","0","0","0","0.586362999980338","0.533389199990779","1.18767959999968","1","1","1","1","1","1","1","1","1"
"260040","img/object_images/jewel01.jpg","img/object_images/razor01.jpg","img/object_images/car04.jpg","1","1","1","0","0","0","1.18767959999968","0.586362999980338","0.557181899988791","1","1","1","1","1","1","1","1","1"
"260040","img/object_images/car04.jpg","img/object_images/jewel01.jpg","img/object_images/satellite01.jpg","1","1","1","0","0","0","0.557181899988791","1.18767959999968","0.577330100000836","1","1","1","1","1","1","1","1","1"
"260040","img/object_images/satellite01.jpg","img/object_images/car04.jpg","img/object_images/cards01.jpg","1","1","1","0","0","0","0.577330100000836","0.557181899988791","0.901820399973076","1","1","1","1","1","1","1","1","1"
"260040","img/object_images/cards01.jpg","img/object_images/satellite01.jpg","img/object_images/chair04.jpg","1","1","1","0","0","1","0.901820399973076","0.577330100000836","0.724457800009986","1","1","1","1","1","1","1","1","1"
"260040","img/object_images/chair04.jpg","img/object_images/cards01.jpg","img/object_images/tool11.jpg","1","1","1","1","0","1","0.724457800009986","0.901820399973076","0.61352490002173","1","1","1","1","1","1","1","1","1"
"260040","img/object_images/tool11.jpg","img/object_images/chair04.jpg",NA,"1","1",NA,"1","1",NA,"0.61352490002173","0.724457800009986",NA,"1","1",NA,"1","1",NA,"1","1",NA
"260040","img/object_images/usb02.jpg",NA,"img/object_images/pitcher01.jpg","1",NA,"1","0",NA,"0","0.613522599975113",NA,"0.58720650000032","1",NA,"1","1",NA,"1","1",NA,"1"
"260040","img/object_images/pitcher01.jpg","img/object_images/usb02.jpg","img/object_images/Staples01.jpg","1","1","1","0","0","1","0.58720650000032","0.613522599975113","0.595697699987795","1","1","1","1","1","1","1","1","1"
"260040","img/object_images/Staples01.jpg","img/object_images/pitcher01.jpg","img/object_images/paint_brush04.jpg","1","1","1","1","0","0","0.595697699987795","0.58720650000032","0.507815099990694","1","1","1","1","1","1","1","1","1"
"260040","img/object_images/paint_brush04.jpg","img/object_images/Staples01.jpg","img/object_images/knit05.jpg","1","1","1","0","1","1","0.507815099990694","0.595697699987795","0.444848399987677","1","1","1","1","1","1","1","1","1"
"260040","img/object_images/knit05.jpg","img/object_images/paint_brush04.jpg","img/object_images/ear_bud01.jpg","1","1","1","1","0","1","0.444848399987677","0.507815099990694","0.584133299998939","1","1","1","1","1","1","1","1","1"
"260040","img/object_images/ear_bud01.jpg","img/object_images/knit05.jpg","img/object_images/Oven01.jpg","1","1","1","1","1","1","0.584133299998939","0.444848399987677","0.44964579999214","1","1","1","1","1","1","1","1","1"
"260040","img/object_images/Oven01.jpg","img/object_images/ear_bud01.jpg","img/object_images/bell02.jpg","1","1","1","1","1","0","0.44964579999214","0.584133299998939","0.509155000007013","1","1","1","1","1","1","1","1","1"
"260040","img/object_images/bell02.jpg","img/object_images/Oven01.jpg","img/object_images/cellphone01.jpg","1","1","1","0","1","1","0.509155000007013","0.44964579999214","0.492875800002366","1","1","1","1","1","1","1","1","1"
"260040","img/object_images/cellphone01.jpg","img/object_images/bell02.jpg","img/object_images/pillows01.jpg","1","1","1","1","0","1","0.492875800002366","0.509155000007013","0.562303599988809","1","1","1","1","1","1","1","1","1"
"260040","img/object_images/pillows01.jpg","img/object_images/cellphone01.jpg","img/object_images/clip03.jpg","1","1","1","1","1","0","0.562303599988809","0.492875800002366","0.494548999995459","1","1","1","1","1","1","1","1","1"
"260040","img/object_images/clip03.jpg","img/object_images/pillows01.jpg","img/object_images/note_book01.jpg","1","1","1","0","1","0","0.494548999995459","0.562303599988809","0.539297299983446","1","1","1","1","1","1","1","1","1"
"260040","img/object_images/note_book01.jpg","img/object_images/clip03.jpg","img/object_images/chess_piece02.jpg","1","1","1","0","0","1","0.539297299983446","0.494548999995459","0.44400869999663","1","1","1","1","1","1","1","1","1"
"260040","img/object_images/chess_piece02.jpg","img/object_images/note_book01.jpg","img/object_images/Thermometer01.jpg","1","1","1","1","0","0","0.44400869999663","0.539297299983446","0.469256799988216","1","1","1","1","1","1","1","1","1"
"260040","img/object_images/Thermometer01.jpg","img/object_images/chess_piece02.jpg","img/object_images/floppy_disk02.jpg","1","1","1","0","1","0","0.469256799988216","0.44400869999663","0.590500599995721","1","1","1","1","1","1","1","1","1"
"260040","img/object_images/floppy_disk02.jpg","img/object_images/Thermometer01.jpg","img/object_images/tennis_racket02.jpg","1","1","1","0","0","1","0.590500599995721","0.469256799988216","0.531370300013805","1","1","1","1","1","1","1","1","1"
"260040","img/object_images/tennis_racket02.jpg","img/object_images/floppy_disk02.jpg","img/object_images/pen03.jpg","1","1","1","1","0","0","0.531370300013805","0.590500599995721","0.58542230000603","1","1","1","1","1","1","1","1","1"
"260040","img/object_images/pen03.jpg","img/object_images/tennis_racket02.jpg","img/object_images/retainer01.jpg","1","1","1","0","1","0","0.58542230000603","0.531370300013805","0.544718199991621","1","1","1","1","1","1","1","1","1"
"260040","img/object_images/retainer01.jpg","img/object_images/pen03.jpg","img/object_images/book03.jpg","1","1","1","0","0","1","0.544718199991621","0.58542230000603","0.493726499989862","1","1","1","1","1","1","1","1","1"
"260040","img/object_images/book03.jpg","img/object_images/retainer01.jpg","img/object_images/tv02.jpg","1","1","1","1","0","0","0.493726499989862","0.544718199991621","0.609854500013171","1","1","1","1","1","1","1","1","1"
"260040","img/object_images/tv02.jpg","img/object_images/book03.jpg","img/object_images/crutches02.jpg","1","1","1","0","1","0","0.609854500013171","0.493726499989862","0.492109199985862","1","1","1","1","1","1","1","1","1"
"260040","img/object_images/crutches02.jpg","img/object_images/tv02.jpg","img/object_images/microscope01.jpg","1","1","1","0","0","0","0.492109199985862","0.609854500013171","0.502405300008832","1","1","1","1","1","1","1","1","1"
"260040","img/object_images/microscope01.jpg","img/object_images/crutches02.jpg","img/object_images/lid01.jpg","1","1","1","0","0","1","0.502405300008832","0.492109199985862","0.615077099995688","1","1","1","1","1","1","1","1","1"
"260040","img/object_images/lid01.jpg","img/object_images/microscope01.jpg","img/object_images/chair05.jpg","1","1","1","1","0","0","0.615077099995688","0.502405300008832","0.504147200001171","1","1","1","1","1","1","1","1","1"
"260040","img/object_images/chair05.jpg","img/object_images/lid01.jpg","img/object_images/hammer03.jpg","1","1","1","0","1","1","0.504147200001171","0.615077099995688","0.684929899987765","1","1","1","1","1","1","1","1","1"
"260040","img/object_images/hammer03.jpg","img/object_images/chair05.jpg","img/object_images/bottle01.jpg","1","1","1","1","0","0","0.684929899987765","0.504147200001171","0.522974499996053","1","1","1","1","1","1","1","1","1"
"260040","img/object_images/bottle01.jpg","img/object_images/hammer03.jpg","img/object_images/knife04.jpg","1","1","1","0","1","1","0.522974499996053","0.684929899987765","0.461060400004499","1","1","1","1","1","1","1","1","1"
"260040","img/object_images/knife04.jpg","img/object_images/bottle01.jpg","img/object_images/compass01.jpg","1","1","1","1","0","1","0.461060400004499","0.522974499996053","0.489038200001232","1","1","1","1","1","1","1","1","1"
"260040","img/object_images/compass01.jpg","img/object_images/knife04.jpg","img/object_images/motorcycle01.jpg","1","1","1","1","1","1","0.489038200001232","0.461060400004499","0.609198899997864","1","1","1","1","1","1","1","1","1"
"260040","img/object_images/motorcycle01.jpg","img/object_images/compass01.jpg","img/object_images/clock02.jpg","1","1","1","1","1","0","0.609198899997864","0.489038200001232","0.635108499991475","1","1","1","1","1","1","1","1","1"
"260040","img/object_images/clock02.jpg","img/object_images/motorcycle01.jpg","img/object_images/wire02.jpg","1","1","1","0","1","1","0.635108499991475","0.609198899997864","0.512103799992474","1","1","1","1","1","1","1","1","1"
"260040","img/object_images/wire02.jpg","img/object_images/clock02.jpg","img/object_images/floppy_disk03.jpg","1","1","1","1","0","1","0.512103799992474","0.635108499991475","0.484647200006293","1","1","1","1","1","1","1","1","1"
"260040","img/object_images/floppy_disk03.jpg","img/object_images/wire02.jpg",NA,"1","1",NA,"1","1",NA,"0.484647200006293","0.512103799992474",NA,"1","1",NA,"1","1",NA,"1","1",NA
"260040","img/object_images/dog_leash01.jpg",NA,"img/object_images/bottle09.jpg","0",NA,"1","0",NA,"0","0.857529999979306",NA,"0.511896399984835","1",NA,"1","1",NA,"1","1",NA,"1"
"260040","img/object_images/bottle09.jpg","img/object_images/dog_leash01.jpg","img/object_images/water_scooter01.jpg","1","0","1","0","0","1","0.511896399984835","0.857529999979306","0.406473300012294","1","1","1","1","1","1","1","1","1"
"260040","img/object_images/water_scooter01.jpg","img/object_images/bottle09.jpg","img/object_images/WoodBox01.jpg","1","1","0","1","0","0","0.406473300012294","0.511896399984835","0.417446599982213","1","1","1","1","1","1","1","1","2"
"260040","img/object_images/WoodBox01.jpg","img/object_images/water_scooter01.jpg","img/object_images/boat02.jpg","0","1","1","0","1","1","0.417446599982213","0.406473300012294","0.426935700001195","1","1","1","1","1","1","2","1","1"
"260040","img/object_images/boat02.jpg","img/object_images/WoodBox01.jpg","img/object_images/pen05.jpg","1","0","1","1","0","0","0.426935700001195","0.417446599982213","0.587348599976394","1","1","1","1","1","1","1","2","1"
"260040","img/object_images/pen05.jpg","img/object_images/boat02.jpg","img/object_images/audio_port01.jpg","1","1","1","0","1","1","0.587348599976394","0.426935700001195","0.434762199991383","1","1","1","1","1","1","1","1","1"
"260040","img/object_images/audio_port01.jpg","img/object_images/pen05.jpg","img/object_images/tie02.jpg","1","1","1","1","0","0","0.434762199991383","0.587348599976394","0.490644700010307","1","1","1","1","1","1","1","1","1"
"260040","img/object_images/tie02.jpg","img/object_images/audio_port01.jpg","img/object_images/tool19.jpg","1","1","1","0","1","1","0.490644700010307","0.434762199991383","0.539785900007701","1","1","1","1","1","1","1","1","1"
"260040","img/object_images/tool19.jpg","img/object_images/tie02.jpg","img/object_images/bicycle01.jpg","1","1","1","1","0","1","0.539785900007701","0.490644700010307","0.493261399999028","1","1","1","1","1","1","1","1","1"
"260040","img/object_images/bicycle01.jpg","img/object_images/tool19.jpg","img/object_images/chair03.jpg","1","1","0","1","1","0","0.493261399999028","0.539785900007701","0.444846200000029","1","1","1","1","1","1","1","1","1"
"260040","img/object_images/chair03.jpg","img/object_images/bicycle01.jpg","img/object_images/cellphone03.jpg","0","1","0","0","1","0","0.444846200000029","0.493261399999028","0.444104099995457","1","1","1","1","1","1","1","1","1"
"260040","img/object_images/cellphone03.jpg","img/object_images/chair03.jpg","img/object_images/bean_bag02.jpg","0","0","1","0","0","1","0.444104099995457","0.444846200000029","0.638806500006467","1","1","1","1","1","1","1","1","1"
"260040","img/object_images/bean_bag02.jpg","img/object_images/cellphone03.jpg","img/object_images/toaster01.jpg","1","0","1","1","0","1","0.638806500006467","0.444104099995457","0.506620899977861","1","1","1","1","1","1","1","1","1"
"260040","img/object_images/toaster01.jpg","img/object_images/bean_bag02.jpg","img/object_images/bottle10.jpg","1","1","1","1","1","1","0.506620899977861","0.638806500006467","0.460034099989571","1","1","1","1","1","1","1","1","1"
"260040","img/object_images/bottle10.jpg","img/object_images/toaster01.jpg","img/object_images/piggy_bank01.jpg","1","1","1","1","1","1","0.460034099989571","0.506620899977861","0.549969299987424","1","1","1","1","1","1","1","1","1"
"260040","img/object_images/piggy_bank01.jpg","img/object_images/bottle10.jpg","img/object_images/hat06.jpg","1","1","1","1","1","0","0.549969299987424","0.460034099989571","0.656083799985936","1","1","1","1","1","1","1","1","1"
"260040","img/object_images/hat06.jpg","img/object_images/piggy_bank01.jpg","img/object_images/boat_toy10.jpg","1","1","1","0","1","0","0.656083799985936","0.549969299987424","1.1463443999819","1","1","1","1","1","1","1","1","1"
"260040","img/object_images/boat_toy10.jpg","img/object_images/hat06.jpg","img/object_images/flask01.jpg","1","1","1","0","0","0","1.1463443999819","0.656083799985936","0.670828000002075","1","1","1","1","1","1","1","1","1"
"260040","img/object_images/flask01.jpg","img/object_images/boat_toy10.jpg","img/object_images/camera_lens01.jpg","1","1","1","0","0","1","0.670828000002075","1.1463443999819","0.519780099974014","1","1","1","1","1","1","1","1","1"
"260040","img/object_images/camera_lens01.jpg","img/object_images/flask01.jpg","img/object_images/shoes07.jpg","1","1","0","1","0","0","0.519780099974014","0.670828000002075","1.00850399999763","1","1","1","1","1","1","1","1","1"
"260040","img/object_images/shoes07.jpg","img/object_images/camera_lens01.jpg","img/object_images/toilet_paper_dispenser01.jpg","0","1","1","0","1","1","1.00850399999763","0.519780099974014","1.17873349998263","1","1","1","1","1","1","1","1","1"
"260040","img/object_images/toilet_paper_dispenser01.jpg","img/object_images/shoes07.jpg","img/object_images/scoreboard01.jpg","1","0","1","1","0","1","1.17873349998263","1.00850399999763","1.9164318999683","1","1","1","1","1","1","1","1","1"
"260040","img/object_images/scoreboard01.jpg","img/object_images/toilet_paper_dispenser01.jpg","img/object_images/fan02.jpg","1","1","1","1","1","0","1.9164318999683","1.17873349998263","1.73825170000782","1","1","1","1","1","1","1","1","1"
"260040","img/object_images/fan02.jpg","img/object_images/scoreboard01.jpg","img/object_images/knit01.jpg","1","1","1","0","1","0","1.73825170000782","1.9164318999683","0.772282599995378","1","1","1","1","1","1","1","1","1"
"260040","img/object_images/knit01.jpg","img/object_images/fan02.jpg","img/object_images/hot_air_balloon02.jpg","1","1","1","0","0","0","0.772282599995378","1.73825170000782","0.916869500011671","1","1","1","1","1","1","1","1","1"
"260040","img/object_images/hot_air_balloon02.jpg","img/object_images/knit01.jpg","img/object_images/bottle02.jpg","1","1","1","0","0","1","0.916869500011671","0.772282599995378","0.593668800021987","1","1","1","1","1","1","1","1","1"
"260040","img/object_images/bottle02.jpg","img/object_images/hot_air_balloon02.jpg","img/object_images/wagon_cart03.jpg","1","1","1","1","0","1","0.593668800021987","0.916869500011671","0.57664859999204","1","1","1","1","1","1","1","1","1"
"260040","img/object_images/wagon_cart03.jpg","img/object_images/bottle02.jpg","img/object_images/purse04.jpg","1","1","1","1","1","1","0.57664859999204","0.593668800021987","0.554019699979108","1","1","1","1","1","1","1","1","1"
"260040","img/object_images/purse04.jpg","img/object_images/wagon_cart03.jpg","img/object_images/helmet04.jpg","1","1","1","1","1","1","0.554019699979108","0.57664859999204","0.46931320001022","1","1","1","1","1","1","1","1","1"
"260040","img/object_images/helmet04.jpg","img/object_images/purse04.jpg","img/object_images/coloring_pencil02.jpg","1","1","1","1","1","0","0.46931320001022","0.554019699979108","0.547315099975094","1","1","1","1","1","1","1","1","1"
"260040","img/object_images/coloring_pencil02.jpg","img/object_images/helmet04.jpg","img/object_images/perfume02.jpg","1","1","1","0","1","0","0.547315099975094","0.46931320001022","0.587398100004066","1","1","1","1","1","1","1","1","1"
"260040","img/object_images/perfume02.jpg","img/object_images/coloring_pencil02.jpg",NA,"1","1",NA,"0","0",NA,"0.587398100004066","0.547315099975094",NA,"1","1",NA,"1","1",NA,"1","1",NA
"260040","img/object_images/tie01.jpg",NA,"img/object_images/toy_train02.jpg","1",NA,"1","0",NA,"1","1.04321390000405",NA,"0.619118800008437","1",NA,"1","1",NA,"1","1",NA,"1"
"260040","img/object_images/toy_train02.jpg","img/object_images/tie01.jpg","img/object_images/lantern01.jpg","1","1","1","1","0","1","0.619118800008437","1.04321390000405","0.45416349999141","1","1","1","1","1","1","1","1","1"
"260040","img/object_images/lantern01.jpg","img/object_images/toy_train02.jpg","img/object_images/chair01.jpg","1","1","1","1","1","0","0.45416349999141","0.619118800008437","0.563900899986038","1","1","1","1","1","1","1","1","1"
"260040","img/object_images/chair01.jpg","img/object_images/lantern01.jpg","img/object_images/ironing_table02.jpg","1","1","1","0","1","0","0.563900899986038","0.45416349999141","0.518073600018397","1","1","1","1","1","1","1","1","1"
"260040","img/object_images/ironing_table02.jpg","img/object_images/chair01.jpg","img/object_images/container01.jpg","1","1","1","0","0","0","0.518073600018397","0.563900899986038","0.4791419999965","1","1","1","1","1","1","1","1","1"
"260040","img/object_images/container01.jpg","img/object_images/ironing_table02.jpg","img/object_images/cochlear_implant01.jpg","1","1","1","0","0","0","0.4791419999965","0.518073600018397","0.55510779999895","1","1","1","1","1","1","1","1","1"
"260040","img/object_images/cochlear_implant01.jpg","img/object_images/container01.jpg","img/object_images/brief_case01.jpg","1","1","1","0","0","0","0.55510779999895","0.4791419999965","0.551308599999174","1","1","1","1","1","1","1","1","1"
"260040","img/object_images/brief_case01.jpg","img/object_images/cochlear_implant01.jpg","img/object_images/broom01.jpg","1","1","1","0","0","1","0.551308599999174","0.55510779999895","0.603255399997579","1","1","1","1","1","1","1","1","1"
"260040","img/object_images/broom01.jpg","img/object_images/brief_case01.jpg","img/object_images/bottle12.jpg","1","1","0","1","0","1","0.603255399997579","0.551308599999174","0.577706499985652","1","1","1","1","1","1","1","1","1"
"260040","img/object_images/bottle12.jpg","img/object_images/broom01.jpg","img/object_images/pitcher03.jpg","0","1","1","1","1","1","0.577706499985652","0.603255399997579","0.499603999982355","1","1","1","1","1","1","1","1","1"
"260040","img/object_images/pitcher03.jpg","img/object_images/bottle12.jpg","img/object_images/car02.jpg","1","0","1","1","1","0","0.499603999982355","0.577706499985652","0.582758799981093","1","1","1","1","1","1","1","1","1"
"260040","img/object_images/car02.jpg","img/object_images/pitcher03.jpg","img/object_images/pot01.jpg","1","1","1","0","1","0","0.582758799981093","0.499603999982355","0.544629399984842","1","1","1","1","1","1","1","1","1"
"260040","img/object_images/pot01.jpg","img/object_images/car02.jpg","img/object_images/couch04.jpg","1","1","1","0","0","1","0.544629399984842","0.582758799981093","0.573902000003727","1","1","1","1","1","1","1","1","1"
"260040","img/object_images/couch04.jpg","img/object_images/pot01.jpg","img/object_images/Wisk01.jpg","1","1","1","1","0","1","0.573902000003727","0.544629399984842","0.674479600013001","1","1","1","1","1","1","1","1","1"
"260040","img/object_images/Wisk01.jpg","img/object_images/couch04.jpg","img/object_images/video_game06.jpg","1","1","1","1","1","0","0.674479600013001","0.573902000003727","0.493705100001535","1","1","1","1","1","1","1","1","1"
"260040","img/object_images/video_game06.jpg","img/object_images/Wisk01.jpg","img/object_images/lamp01.jpg","1","1","1","0","1","1","0.493705100001535","0.674479600013001","0.419272200000705","1","1","1","1","1","1","1","1","1"
"260040","img/object_images/lamp01.jpg","img/object_images/video_game06.jpg","img/object_images/basketball_hoop02.jpg","1","1","1","1","0","0","0.419272200000705","0.493705100001535","0.519521099980921","1","1","1","1","1","1","1","1","1"
"260040","img/object_images/basketball_hoop02.jpg","img/object_images/lamp01.jpg","img/object_images/helmet05.jpg","1","1","1","0","1","1","0.519521099980921","0.419272200000705","0.536805700015975","1","1","1","1","1","1","1","1","1"
"260040","img/object_images/helmet05.jpg","img/object_images/basketball_hoop02.jpg","img/object_images/drone02.jpg","1","1","1","1","0","0","0.536805700015975","0.519521099980921","0.83046589998412","1","1","1","1","1","1","1","1","1"
"260040","img/object_images/drone02.jpg","img/object_images/helmet05.jpg","img/object_images/brief_case02.jpg","1","1","1","0","1","1","0.83046589998412","0.536805700015975","0.522052599990275","1","1","1","1","1","1","1","1","1"
"260040","img/object_images/brief_case02.jpg","img/object_images/drone02.jpg","img/object_images/Recycling01.jpg","1","1","1","1","0","1","0.522052599990275","0.83046589998412","0.491461600002367","1","1","1","1","1","1","1","1","1"
"260040","img/object_images/Recycling01.jpg","img/object_images/brief_case02.jpg","img/object_images/airfryer01.jpg","1","1","1","1","1","0","0.491461600002367","0.522052599990275","0.537904999975581","1","1","1","1","1","1","1","1","1"
"260040","img/object_images/airfryer01.jpg","img/object_images/Recycling01.jpg","img/object_images/toilet_paper01.jpg","1","1","1","0","1","1","0.537904999975581","0.491461600002367","0.459887500008335","1","1","1","1","1","1","1","1","1"
"260040","img/object_images/toilet_paper01.jpg","img/object_images/airfryer01.jpg","img/object_images/razor03.jpg","1","1","1","1","0","0","0.459887500008335","0.537904999975581","0.571140899992315","1","1","1","1","1","1","1","1","1"
"260040","img/object_images/razor03.jpg","img/object_images/toilet_paper01.jpg","img/object_images/soap01.jpg","1","1","1","0","1","0","0.571140899992315","0.459887500008335","0.438075599988224","1","1","1","1","1","1","1","1","1"
"260040","img/object_images/soap01.jpg","img/object_images/razor03.jpg","img/object_images/decorative02.jpg","1","1","1","0","0","0","0.438075599988224","0.571140899992315","0.582476099982159","1","1","1","1","1","1","1","1","1"
"260040","img/object_images/decorative02.jpg","img/object_images/soap01.jpg","img/object_images/gloves05.jpg","1","1","1","0","0","1","0.582476099982159","0.438075599988224","0.553966500010574","1","1","1","1","1","1","1","1","1"
"260040","img/object_images/gloves05.jpg","img/object_images/decorative02.jpg","img/object_images/guitar01.jpg","1","1","1","1","0","1","0.553966500010574","0.582476099982159","0.533197200013092","1","1","1","1","1","1","1","1","1"
"260040","img/object_images/guitar01.jpg","img/object_images/gloves05.jpg","img/object_images/hat02.jpg","1","1","1","1","1","0","0.533197200013092","0.553966500010574","0.49497239998891","1","1","1","1","1","1","1","1","1"
"260040","img/object_images/hat02.jpg","img/object_images/guitar01.jpg","img/object_images/ball01.jpg","1","1","1","0","1","1","0.49497239998891","0.533197200013092","0.570421499985969","1","1","1","1","1","1","1","1","1"
"260040","img/object_images/ball01.jpg","img/object_images/hat02.jpg","img/object_images/Woopie01.jpg","1","1","1","1","0","1","0.570421499985969","0.49497239998891","0.564916200004518","1","1","1","1","1","1","1","1","1"
"260040","img/object_images/Woopie01.jpg","img/object_images/ball01.jpg",NA,"1","1",NA,"1","1",NA,"0.564916200004518","0.570421499985969",NA,"1","1",NA,"1","1",NA,"1","1",NA
"260040","img/object_images/chair02.jpg",NA,"img/object_images/bucket02.jpg","1",NA,"1","1",NA,"1","0.505329499981599",NA,"0.631275599997025","1",NA,"1","1",NA,"1","1",NA,"1"
"260040","img/object_images/bucket02.jpg","img/object_images/chair02.jpg","img/object_images/trash_can05.jpg","1","1","1","1","1","1","0.631275599997025","0.505329499981599","0.440087700000731","1","1","1","1","1","1","1","1","1"
"260040","img/object_images/trash_can05.jpg","img/object_images/bucket02.jpg","img/object_images/combs01.jpg","1","1","1","1","1","1","0.440087700000731","0.631275599997025","0.3868921000103","1","1","1","1","1","1","1","1","1"
"260040","img/object_images/combs01.jpg","img/object_images/trash_can05.jpg","img/object_images/stove01.jpg","1","1","0","1","1","0","0.3868921000103","0.440087700000731","0.369129200000316","1","1","1","1","1","1","1","1","1"
"260040","img/object_images/stove01.jpg","img/object_images/combs01.jpg","img/object_images/hair_brush02.jpg","0","1","1","0","1","0","0.369129200000316","0.3868921000103","0.882884899998317","1","1","1","1","1","1","1","1","1"
"260040","img/object_images/hair_brush02.jpg","img/object_images/stove01.jpg","img/object_images/trash_can03.jpg","1","0","1","0","0","1","0.882884899998317","0.369129200000316","0.475766399991699","1","1","1","1","1","1","1","1","1"
"260040","img/object_images/trash_can03.jpg","img/object_images/hair_brush02.jpg","img/object_images/helmet02.jpg","1","1","1","1","0","0","0.475766399991699","0.882884899998317","0.554193200019654","1","1","1","1","1","1","1","1","1"
"260040","img/object_images/helmet02.jpg","img/object_images/trash_can03.jpg","img/object_images/Lint_Roller02.jpg","1","1","1","0","1","0","0.554193200019654","0.475766399991699","0.620285099983448","1","1","1","1","1","1","1","1","1"
"260040","img/object_images/Lint_Roller02.jpg","img/object_images/helmet02.jpg","img/object_images/microphone03.jpg","1","1","1","0","0","1","0.620285099983448","0.554193200019654","0.739029799995478","1","1","1","1","1","1","1","1","1"
"260040","img/object_images/microphone03.jpg","img/object_images/Lint_Roller02.jpg","img/object_images/toy05.jpg","1","1","0","1","0","0","0.739029799995478","0.620285099983448","0.488232000003336","1","1","1","1","1","1","1","1","1"
"260040","img/object_images/toy05.jpg","img/object_images/microphone03.jpg","img/object_images/laptop01.jpg","0","1","1","0","1","0","0.488232000003336","0.739029799995478","0.65550059999805","1","1","1","1","1","1","1","1","1"
"260040","img/object_images/laptop01.jpg","img/object_images/toy05.jpg","img/object_images/spatula02.jpg","1","0","1","0","0","1","0.65550059999805","0.488232000003336","0.688932899996871","1","1","1","1","1","1","1","1","1"
"260040","img/object_images/spatula02.jpg","img/object_images/laptop01.jpg","img/object_images/fan04.jpg","1","1","1","1","0","0","0.688932899996871","0.65550059999805","0.639222599973436","1","1","1","1","1","1","1","1","1"
"260040","img/object_images/fan04.jpg","img/object_images/spatula02.jpg","img/object_images/hair_dryer01.jpg","1","1","1","0","1","0","0.639222599973436","0.688932899996871","0.762661299988395","1","1","1","1","1","1","1","1","1"
"260040","img/object_images/hair_dryer01.jpg","img/object_images/fan04.jpg","img/object_images/pitcher05.jpg","1","1","0","0","0","0","0.762661299988395","0.639222599973436","0.480184499989264","1","1","1","1","1","1","1","1","1"
"260040","img/object_images/pitcher05.jpg","img/object_images/hair_dryer01.jpg","img/object_images/accardion01.jpg","0","1","1","0","0","1","0.480184499989264","0.762661299988395","0.553349999972852","1","1","1","1","1","1","1","1","1"
"260040","img/object_images/accardion01.jpg","img/object_images/pitcher05.jpg","img/object_images/towels01.jpg","1","0","1","1","0","0","0.553349999972852","0.480184499989264","0.56078499997966","1","1","1","1","1","1","1","1","1"
"260040","img/object_images/towels01.jpg","img/object_images/accardion01.jpg","img/object_images/backpack03.jpg","1","1","1","0","1","1","0.56078499997966","0.553349999972852","0.4702324999962","1","1","1","1","1","1","1","1","1"
"260040","img/object_images/backpack03.jpg","img/object_images/towels01.jpg","img/object_images/laptop03.jpg","1","1","1","1","0","1","0.4702324999962","0.56078499997966","0.671831799991196","1","1","1","1","1","1","1","1","1"
"260040","img/object_images/laptop03.jpg","img/object_images/backpack03.jpg","img/object_images/umbrella01.jpg","1","1","0","1","1","0","0.671831799991196","0.4702324999962",NA,"1","1","0","1","1","0","1","1","0"
"260040","img/object_images/umbrella01.jpg","img/object_images/laptop03.jpg","img/object_images/shoes08.jpg","0","1","0","0","1","1",NA,"0.671831799991196",NA,"0","1","0","0","1","0","0","1","0"
"260040","img/object_images/shoes08.jpg","img/object_images/umbrella01.jpg","img/object_images/chess_piece01.jpg","0","0","1","1","0","0",NA,NA,"0.721388499980094","0","0","1","0","0","1","0","0","1"
"260040","img/object_images/chess_piece01.jpg","img/object_images/shoes08.jpg","img/object_images/Vest02.jpg","1","0","1","0","1","0","0.721388499980094",NA,"0.559433399990667","1","0","1","1","0","1","1","0","1"
"260040","img/object_images/Vest02.jpg","img/object_images/chess_piece01.jpg","img/object_images/vase01.jpg","1","1","1","0","0","0","0.559433399990667","0.721388499980094","0.675085799972294","1","1","1","1","1","1","1","1","1"
"260040","img/object_images/vase01.jpg","img/object_images/Vest02.jpg","img/object_images/robe01.jpg","1","1","1","0","0","1","0.675085799972294","0.559433399990667","0.438614300015615","1","1","1","1","1","1","1","1","1"
"260040","img/object_images/robe01.jpg","img/object_images/vase01.jpg","img/object_images/calculator01.jpg","1","1","1","1","0","1","0.438614300015615","0.675085799972294","0.576846399984788","1","1","1","1","1","1","1","1","1"
"260040","img/object_images/calculator01.jpg","img/object_images/robe01.jpg","img/object_images/jewel03.jpg","1","1","1","1","1","1","0.576846399984788","0.438614300015615","0.573685299983481","1","1","1","1","1","1","1","1","1"
"260040","img/object_images/jewel03.jpg","img/object_images/calculator01.jpg","img/object_images/lock01.jpg","1","1","1","1","1","0","0.573685299983481","0.576846399984788","0.569104700000025","1","1","1","1","1","1","1","1","1"
"260040","img/object_images/lock01.jpg","img/object_images/jewel03.jpg","img/object_images/surf_board01.jpg","1","1","1","0","1","1","0.569104700000025","0.573685299983481","0.596453999984078","1","1","1","1","1","1","1","1","1"
"260040","img/object_images/surf_board01.jpg","img/object_images/lock01.jpg","img/object_images/ball02.jpg","1","1","1","1","0","1","0.596453999984078","0.569104700000025","0.486409200006165","1","1","1","1","1","1","1","1","1"
"260040","img/object_images/ball02.jpg","img/object_images/surf_board01.jpg","img/object_images/gift_box05.jpg","1","1","1","1","1","0","0.486409200006165","0.596453999984078","0.456080600008136","1","1","1","1","1","1","1","1","1"
"260040","img/object_images/gift_box05.jpg","img/object_images/ball02.jpg",NA,"1","1",NA,"0","1",NA,"0.456080600008136","0.486409200006165",NA,"1","1",NA,"1","1",NA,"1","1",NA
"260040","img/object_images/video_game02.jpg",NA,"img/object_images/lemon_squeezer01.jpg","1",NA,"0","1",NA,"1","0.591406999970786",NA,"0.6807536999695","1",NA,"1","1",NA,"1","1",NA,"2"
"260040","img/object_images/lemon_squeezer01.jpg","img/object_images/video_game02.jpg","img/object_images/perfume01.jpg","0","1","1","1","1","0","0.6807536999695","0.591406999970786","0.555055399978301","1","1","1","1","1","1","2","1","1"
"260040","img/object_images/perfume01.jpg","img/object_images/lemon_squeezer01.jpg","img/object_images/office_supplies01.jpg","1","0","1","0","1","1","0.555055399978301","0.6807536999695","0.409416099981172","1","1","1","1","1","1","1","2","1"
"260040","img/object_images/office_supplies01.jpg","img/object_images/perfume01.jpg","img/object_images/tool13.jpg","1","1","1","1","0","1","0.409416099981172","0.555055399978301","0.476315899984911","1","1","1","1","1","1","1","1","1"
"260040","img/object_images/tool13.jpg","img/object_images/office_supplies01.jpg","img/object_images/sign02.jpg","1","1","1","1","1","0","0.476315899984911","0.409416099981172","0.591381100006402","1","1","1","1","1","1","1","1","1"
"260040","img/object_images/sign02.jpg","img/object_images/tool13.jpg","img/object_images/bag04.jpg","1","1","0","0","1","0","0.591381100006402","0.476315899984911","0.521573200006969","1","1","1","1","1","1","1","1","1"
"260040","img/object_images/bag04.jpg","img/object_images/sign02.jpg","img/object_images/Candle_Holder01.jpg","0","1","1","0","0","0","0.521573200006969","0.591381100006402","0.508982700004708","1","1","1","1","1","1","1","1","1"
"260040","img/object_images/Candle_Holder01.jpg","img/object_images/bag04.jpg","img/object_images/spray_can01.jpg","1","0","1","0","0","0","0.508982700004708","0.521573200006969","0.563920799992047","1","1","1","1","1","1","1","1","1"
"260040","img/object_images/spray_can01.jpg","img/object_images/Candle_Holder01.jpg","img/object_images/pan03.jpg","1","1","1","0","0","1","0.563920799992047","0.508982700004708","0.428524899994954","1","1","1","1","1","1","1","1","1"
"260040","img/object_images/pan03.jpg","img/object_images/spray_can01.jpg","img/object_images/tool20.jpg","1","1","1","1","0","0","0.428524899994954","0.563920799992047","0.594939700007671","1","1","1","1","1","1","1","1","1"
"260040","img/object_images/tool20.jpg","img/object_images/pan03.jpg","img/object_images/candle02.jpg","1","1","1","0","1","0","0.594939700007671","0.428524899994954","0.554166699992493","1","1","1","1","1","1","1","1","1"
"260040","img/object_images/candle02.jpg","img/object_images/tool20.jpg","img/object_images/dust_pan01.jpg","1","1","1","0","0","1","0.554166699992493","0.594939700007671","0.630941399984295","1","1","1","1","1","1","1","1","1"
"260040","img/object_images/dust_pan01.jpg","img/object_images/candle02.jpg","img/object_images/bow_tie03.jpg","1","1","1","1","0","1","0.630941399984295","0.554166699992493","0.593715299997712","1","1","1","1","1","1","1","1","1"
"260040","img/object_images/bow_tie03.jpg","img/object_images/dust_pan01.jpg","img/object_images/camera05.jpg","1","1","1","1","1","0","0.593715299997712","0.630941399984295","0.554890200000955","1","1","1","1","1","1","1","1","1"
"260040","img/object_images/camera05.jpg","img/object_images/bow_tie03.jpg","img/object_images/ruler02.jpg","1","1","1","0","1","1","0.554890200000955","0.593715299997712","0.915958800003864","1","1","1","1","1","1","1","1","1"
"260040","img/object_images/ruler02.jpg","img/object_images/camera05.jpg","img/object_images/razor02.jpg","1","1","1","1","0","1","0.915958800003864","0.554890200000955","0.5549870999821","1","1","1","1","1","1","1","1","1"
"260040","img/object_images/razor02.jpg","img/object_images/ruler02.jpg","img/object_images/glasses03.jpg","1","1","1","1","1","0","0.5549870999821","0.915958800003864","0.529670599993551","1","1","1","1","1","1","1","1","1"
"260040","img/object_images/glasses03.jpg","img/object_images/razor02.jpg","img/object_images/sink_filter01 (1).jpg","1","1","1","0","1","0","0.529670599993551","0.5549870999821","0.54379749999498","1","1","1","1","1","1","1","1","1"
"260040","img/object_images/sink_filter01 (1).jpg","img/object_images/glasses03.jpg","img/object_images/board01.jpg","1","1","1","0","0","1","0.54379749999498","0.529670599993551","0.693365499988431","1","1","1","1","1","1","1","1","1"
"260040","img/object_images/board01.jpg","img/object_images/sink_filter01 (1).jpg","img/object_images/knife01.jpg","1","1","1","1","0","1","0.693365499988431","0.54379749999498","0.577836199983722","1","1","1","1","1","1","1","1","1"
"260040","img/object_images/knife01.jpg","img/object_images/board01.jpg","img/object_images/duster01.jpg","1","1","0","1","1","0","0.577836199983722","0.693365499988431","0.458197500003735","1","1","1","1","1","1","1","1","1"
"260040","img/object_images/duster01.jpg","img/object_images/knife01.jpg","img/object_images/hammer02.jpg","0","1","0","0","1","0","0.458197500003735","0.577836199983722","0.853996199992253","1","1","1","1","1","1","1","1","1"
"260040","img/object_images/hammer02.jpg","img/object_images/duster01.jpg","img/object_images/hat13.jpg","0","0","1","0","0","1","0.853996199992253","0.458197500003735","0.580818799993722","1","1","1","1","1","1","1","1","1"
"260040","img/object_images/hat13.jpg","img/object_images/hammer02.jpg","img/object_images/pen06.jpg","1","0","1","1","0","0","0.580818799993722","0.853996199992253","0.773937799996929","1","1","1","1","1","1","1","1","1"
"260040","img/object_images/pen06.jpg","img/object_images/hat13.jpg","img/object_images/vase02.jpg","1","1","1","0","1","1","0.773937799996929","0.580818799993722","0.627123400015989","1","1","1","1","1","1","1","1","1"
"260040","img/object_images/vase02.jpg","img/object_images/pen06.jpg","img/object_images/floss01.jpg","1","1","1","1","0","1","0.627123400015989","0.773937799996929","0.514455199998338","1","1","1","1","1","1","1","1","1"
"260040","img/object_images/floss01.jpg","img/object_images/vase02.jpg","img/object_images/socks01.jpg","1","1","1","1","1","1","0.514455199998338","0.627123400015989","0.618835000001127","1","1","1","1","1","1","1","1","1"
"260040","img/object_images/socks01.jpg","img/object_images/floss01.jpg","img/object_images/clipboard01.jpg","1","1","1","1","1","1","0.618835000001127","0.514455199998338","0.560668699996313","1","1","1","1","1","1","1","1","1"
"260040","img/object_images/clipboard01.jpg","img/object_images/socks01.jpg","img/object_images/Confetti 01.jpg","1","1","0","1","1","0","0.560668699996313","0.618835000001127","0.827853800001321","1","1","1","1","1","1","1","1","1"
"260040","img/object_images/Confetti 01.jpg","img/object_images/clipboard01.jpg","img/object_images/hat09.jpg","0","1","1","0","1","0","0.827853800001321","0.560668699996313","0.690915999992285","1","1","1","1","1","1","1","1","1"
"260040","img/object_images/hat09.jpg","img/object_images/Confetti 01.jpg","img/object_images/cup01.jpg","1","0","1","0","0","0","0.690915999992285","0.827853800001321","0.561192900000606","1","1","1","1","1","1","1","1","1"
"260040","img/object_images/cup01.jpg","img/object_images/hat09.jpg",NA,"1","1",NA,"0","0",NA,"0.561192900000606","0.690915999992285",NA,"1","1",NA,"1","1",NA,"1","1",NA
"260040","img/object_images/camera03.jpg",NA,"img/object_images/curtain02.jpg","0",NA,"1","0",NA,"0","1.78203529998427",NA,"1.10404469998321","1",NA,"1","1",NA,"1","1",NA,"1"
"260040","img/object_images/curtain02.jpg","img/object_images/camera03.jpg","img/object_images/hand_grip_exerciser01.jpg","1","0","1","0","0","0","1.10404469998321","1.78203529998427","0.621114999987185","1","1","1","1","1","1","1","1","1"
"260040","img/object_images/hand_grip_exerciser01.jpg","img/object_images/curtain02.jpg","img/object_images/remote_controller01.jpg","1","1","1","0","0","1","0.621114999987185","1.10404469998321","0.55539970000973","1","1","1","1","1","1","1","1","1"
"260040","img/object_images/remote_controller01.jpg","img/object_images/hand_grip_exerciser01.jpg","img/object_images/dresser03.jpg","1","1","1","1","0","0","0.55539970000973","0.621114999987185","0.59906539999065","1","1","1","1","1","1","1","1","1"
"260040","img/object_images/dresser03.jpg","img/object_images/remote_controller01.jpg","img/object_images/toy08.jpg","1","1","1","0","1","0","0.59906539999065","0.55539970000973","0.564162299997406","1","1","1","1","1","1","1","1","1"
"260040","img/object_images/toy08.jpg","img/object_images/dresser03.jpg","img/object_images/flashlight03.jpg","1","1","1","0","0","0","0.564162299997406","0.59906539999065","0.583823999972083","1","1","1","1","1","1","1","1","1"
"260040","img/object_images/flashlight03.jpg","img/object_images/toy08.jpg","img/object_images/boat04.jpg","1","1","1","0","0","0","0.583823999972083","0.564162299997406","0.584188899985747","1","1","1","1","1","1","1","1","1"
"260040","img/object_images/boat04.jpg","img/object_images/flashlight03.jpg","img/object_images/phone02.jpg","1","1","1","0","0","1","0.584188899985747","0.583823999972083","0.611181799991755","1","1","1","1","1","1","1","1","1"
"260040","img/object_images/phone02.jpg","img/object_images/boat04.jpg","img/object_images/sponge03.jpg","1","1","1","1","0","1","0.611181799991755","0.584188899985747","0.798008999990998","1","1","1","1","1","1","1","1","1"
"260040","img/object_images/sponge03.jpg","img/object_images/phone02.jpg","img/object_images/basket04.jpg","1","1","1","1","1","1","0.798008999990998","0.611181799991755","0.786690499982797","1","1","1","1","1","1","1","1","1"
"260040","img/object_images/basket04.jpg","img/object_images/sponge03.jpg","img/object_images/jacket04.jpg","1","1","1","1","1","0","0.786690499982797","0.798008999990998","0.543172000005143","1","1","1","1","1","1","1","1","1"
"260040","img/object_images/jacket04.jpg","img/object_images/basket04.jpg","img/object_images/Statue01.jpg","1","1","1","0","1","1","0.543172000005143","0.786690499982797","0.69660169997951","1","1","1","1","1","1","1","1","1"
"260040","img/object_images/Statue01.jpg","img/object_images/jacket04.jpg","img/object_images/knit04.jpg","1","1","1","1","0","1","0.69660169997951","0.543172000005143","0.674526299990248","1","1","1","1","1","1","1","1","1"
"260040","img/object_images/knit04.jpg","img/object_images/Statue01.jpg","img/object_images/bottle07.jpg","1","1","1","1","1","1","0.674526299990248","0.69660169997951","0.699554499995429","1","1","1","1","1","1","1","1","1"
"260040","img/object_images/bottle07.jpg","img/object_images/knit04.jpg","img/object_images/kite01.jpg","1","1","1","1","1","1","0.699554499995429","0.674526299990248","0.622402599983616","1","1","1","1","1","1","1","1","1"
"260040","img/object_images/kite01.jpg","img/object_images/bottle07.jpg","img/object_images/paper_cup02.jpg","1","1","1","1","1","1","0.622402599983616","0.699554499995429","0.707300099980785","1","1","1","1","1","1","1","1","1"
"260040","img/object_images/paper_cup02.jpg","img/object_images/kite01.jpg","img/object_images/stereo02.jpg","1","1","0","1","1","0","0.707300099980785","0.622402599983616","0.852584600012051","1","1","1","1","1","1","1","1","1"
"260040","img/object_images/stereo02.jpg","img/object_images/paper_cup02.jpg","img/object_images/knife02.jpg","0","1","1","0","1","0","0.852584600012051","0.707300099980785","0.546388500020839","1","1","1","1","1","1","1","1","1"
"260040","img/object_images/knife02.jpg","img/object_images/stereo02.jpg","img/object_images/remover01.jpg","1","0","1","0","0","1","0.546388500020839","0.852584600012051","0.59848289997899","1","1","1","1","1","1","1","1","1"
"260040","img/object_images/remover01.jpg","img/object_images/knife02.jpg","img/object_images/shower_head01.jpg","1","1","1","1","0","1","0.59848289997899","0.546388500020839","0.467895299982047","1","1","1","1","1","1","1","1","1"
"260040","img/object_images/shower_head01.jpg","img/object_images/remover01.jpg","img/object_images/gloves02.jpg","1","1","1","1","1","0","0.467895299982047","0.59848289997899","0.843566099996679","1","1","1","1","1","1","1","1","1"
"260040","img/object_images/gloves02.jpg","img/object_images/shower_head01.jpg","img/object_images/knit03.jpg","1","1","1","0","1","1","0.843566099996679","0.467895299982047","0.521664500003681","1","1","1","1","1","1","1","1","1"
"260040","img/object_images/knit03.jpg","img/object_images/gloves02.jpg","img/object_images/mail_box01.jpg","1","1","1","1","0","0","0.521664500003681","0.843566099996679","0.686488199979067","1","1","1","1","1","1","1","1","1"
"260040","img/object_images/mail_box01.jpg","img/object_images/knit03.jpg","img/object_images/video_game01.jpg","1","1","1","0","1","1","0.686488199979067","0.521664500003681","0.529126100009307","1","1","1","1","1","1","1","1","1"
"260040","img/object_images/video_game01.jpg","img/object_images/mail_box01.jpg","img/object_images/hoverboard01.jpg","1","1","1","1","0","0","0.529126100009307","0.686488199979067","0.573618299997179","1","1","1","1","1","1","1","1","1"
"260040","img/object_images/hoverboard01.jpg","img/object_images/video_game01.jpg","img/object_images/car01.jpg","1","1","1","0","1","1","0.573618299997179","0.529126100009307","0.456775400001789","1","1","1","1","1","1","1","1","1"
"260040","img/object_images/car01.jpg","img/object_images/hoverboard01.jpg","img/object_images/tool18.jpg","1","1","1","1","0","0","0.456775400001789","0.573618299997179","2.25589659999241","1","1","1","1","1","1","1","1","1"
"260040","img/object_images/tool18.jpg","img/object_images/car01.jpg","img/object_images/blender02.jpg","1","1","1","0","1","1","2.25589659999241","0.456775400001789","1.59814519999782","1","1","1","1","1","1","1","1","1"
"260040","img/object_images/blender02.jpg","img/object_images/tool18.jpg","img/object_images/backpack01.jpg","1","1","1","1","0","0","1.59814519999782","2.25589659999241","0.816749999998137","1","1","1","1","1","1","1","1","1"
"260040","img/object_images/backpack01.jpg","img/object_images/blender02.jpg","img/object_images/keyboard02.jpg","1","1","1","0","1","1","0.816749999998137","1.59814519999782","0.482311999978265","1","1","1","1","1","1","1","1","1"
"260040","img/object_images/keyboard02.jpg","img/object_images/backpack01.jpg","img/object_images/matches02.jpg","1","1","1","1","0","0","0.482311999978265","0.816749999998137","0.540392499999143","1","1","1","1","1","1","1","1","1"
"260040","img/object_images/matches02.jpg","img/object_images/keyboard02.jpg",NA,"1","1",NA,"0","1",NA,"0.540392499999143","0.482311999978265",NA,"1","1",NA,"1","1",NA,"1","1",NA
"260040","img/object_images/socks02.jpg",NA,"img/object_images/bow_tie01.jpg","1",NA,"1","0",NA,"0","0.970404199993936",NA,"0.505972100014333","1",NA,"1","1",NA,"1","1",NA,"1"
"260040","img/object_images/bow_tie01.jpg","img/object_images/socks02.jpg","img/object_images/gift_box01.jpg","1","1","1","0","0","1","0.505972100014333","0.970404199993936","0.662394599989057","1","1","1","1","1","1","1","1","1"
"260040","img/object_images/gift_box01.jpg","img/object_images/bow_tie01.jpg","img/object_images/sleeping_bag01.jpg","1","1","1","1","0","0","0.662394599989057","0.505972100014333","0.560105799988378","1","1","1","1","1","1","1","1","1"
"260040","img/object_images/sleeping_bag01.jpg","img/object_images/gift_box01.jpg","img/object_images/fork03.jpg","1","1","1","0","1","1","0.560105799988378","0.662394599989057","0.410426599992206","1","1","1","1","1","1","1","1","1"
"260040","img/object_images/fork03.jpg","img/object_images/sleeping_bag01.jpg","img/object_images/dresser04.jpg","1","1","1","1","0","0","0.410426599992206","0.560105799988378","0.521872999990592","1","1","1","1","1","1","1","1","1"
"260040","img/object_images/dresser04.jpg","img/object_images/fork03.jpg","img/object_images/grater01.jpg","1","1","1","0","1","1","0.521872999990592","0.410426599992206","0.662952099984977","1","1","1","1","1","1","1","1","1"
"260040","img/object_images/grater01.jpg","img/object_images/dresser04.jpg","img/object_images/couch03.jpg","1","1","1","1","0","0","0.662952099984977","0.521872999990592","0.525708599976497","1","1","1","1","1","1","1","1","1"
"260040","img/object_images/couch03.jpg","img/object_images/grater01.jpg","img/object_images/handkerchief01.jpg","1","1","1","0","1","0","0.525708599976497","0.662952099984977","0.604798899992602","1","1","1","1","1","1","1","1","1"
"260040","img/object_images/handkerchief01.jpg","img/object_images/couch03.jpg","img/object_images/vga_port 01.jpg","1","1","1","0","0","0","0.604798899992602","0.525708599976497","0.549464799987618","1","1","1","1","1","1","1","1","1"
"260040","img/object_images/vga_port 01.jpg","img/object_images/handkerchief01.jpg","img/object_images/lock04.jpg","1","1","1","0","0","1","0.549464799987618","0.604798899992602","0.481512199999997","1","1","1","1","1","1","1","1","1"
"260040","img/object_images/lock04.jpg","img/object_images/vga_port 01.jpg","img/object_images/bath_tub01.jpg","1","1","1","1","0","0","0.481512199999997","0.549464799987618","0.626538300013635","1","1","1","1","1","1","1","1","1"
"260040","img/object_images/bath_tub01.jpg","img/object_images/lock04.jpg","img/object_images/golf_ball03.jpg","1","1","1","0","1","1","0.626538300013635","0.481512199999997","0.453314900019905","1","1","1","1","1","1","1","1","1"
"260040","img/object_images/golf_ball03.jpg","img/object_images/bath_tub01.jpg","img/object_images/Witchhat01.jpg","1","1","1","1","0","1","0.453314900019905","0.626538300013635","0.422588299989002","1","1","1","1","1","1","1","1","1"
"260040","img/object_images/Witchhat01.jpg","img/object_images/golf_ball03.jpg","img/object_images/coloring_pencil01.jpg","1","1","1","1","1","1","0.422588299989002","0.453314900019905","0.466667400003644","1","1","1","1","1","1","1","1","1"
"260040","img/object_images/coloring_pencil01.jpg","img/object_images/Witchhat01.jpg","img/object_images/paper_cup01.jpg","1","1","1","1","1","0","0.466667400003644","0.422588299989002","0.499031699990155","1","1","1","1","1","1","1","1","1"
"260040","img/object_images/paper_cup01.jpg","img/object_images/coloring_pencil01.jpg","img/object_images/clip02.jpg","1","1","1","0","1","1","0.499031699990155","0.466667400003644","0.451978700002655","1","1","1","1","1","1","1","1","1"
"260040","img/object_images/clip02.jpg","img/object_images/paper_cup01.jpg","img/object_images/funnel01.jpg","1","1","1","1","0","0","0.451978700002655","0.499031699990155","0.550144099979661","1","1","1","1","1","1","1","1","1"
"260040","img/object_images/funnel01.jpg","img/object_images/clip02.jpg","img/object_images/Screws01.jpg","1","1","1","0","1","1","0.550144099979661","0.451978700002655","0.417029800009914","1","1","1","1","1","1","1","1","1"
"260040","img/object_images/Screws01.jpg","img/object_images/funnel01.jpg","img/object_images/camera07.jpg","1","1","1","1","0","1","0.417029800009914","0.550144099979661","0.480602599971462","1","1","1","1","1","1","1","1","1"
"260040","img/object_images/camera07.jpg","img/object_images/Screws01.jpg","img/object_images/hammer01.jpg","1","1","1","1","1","0","0.480602599971462","0.417029800009914","0.398688699991908","1","1","1","1","1","1","1","1","1"
"260040","img/object_images/hammer01.jpg","img/object_images/camera07.jpg","img/object_images/lawn_mower01.jpg","1","1","1","0","1","1","0.398688699991908","0.480602599971462","0.672267799993278","1","1","1","1","1","1","1","1","1"
"260040","img/object_images/lawn_mower01.jpg","img/object_images/hammer01.jpg","img/object_images/jacket03.jpg","1","1","0","1","0","0","0.672267799993278","0.398688699991908","0.850502899993444","1","1","1","1","1","1","1","1","1"
"260040","img/object_images/jacket03.jpg","img/object_images/lawn_mower01.jpg","img/object_images/gift_box02.jpg","0","1","1","0","1","1","0.850502899993444","0.672267799993278","0.445680400007404","1","1","1","1","1","1","1","1","1"
"260040","img/object_images/gift_box02.jpg","img/object_images/jacket03.jpg","img/object_images/balloon01.jpg","1","0","1","1","0","0","0.445680400007404","0.850502899993444","0.521587600000203","1","1","1","1","1","1","1","1","1"
"260040","img/object_images/balloon01.jpg","img/object_images/gift_box02.jpg","img/object_images/pitcher02.jpg","1","1","1","0","1","1","0.521587600000203","0.445680400007404","0.460310499998741","1","1","1","1","1","1","1","1","1"
"260040","img/object_images/pitcher02.jpg","img/object_images/balloon01.jpg","img/object_images/measuring_tape02.jpg","1","1","1","1","0","1","0.460310499998741","0.521587600000203","0.488104999996722","1","1","1","1","1","1","1","1","1"
"260040","img/object_images/measuring_tape02.jpg","img/object_images/pitcher02.jpg","img/object_images/ironing_table01.jpg","1","1","1","1","1","0","0.488104999996722","0.460310499998741","0.576217399997404","1","1","1","1","1","1","1","1","1"
"260040","img/object_images/ironing_table01.jpg","img/object_images/measuring_tape02.jpg","img/object_images/wallet02.jpg","1","1","1","0","1","1","0.576217399997404","0.488104999996722","0.484334499982651","1","1","1","1","1","1","1","1","1"
"260040","img/object_images/wallet02.jpg","img/object_images/ironing_table01.jpg","img/object_images/bow_tie02.jpg","1","1","1","1","0","0","0.484334499982651","0.576217399997404","0.452313999994658","1","1","1","1","1","1","1","1","1"
"260040","img/object_images/bow_tie02.jpg","img/object_images/wallet02.jpg","img/object_images/gift_box03.jpg","1","1","1","0","1","0","0.452313999994658","0.484334499982651","0.508355900004972","1","1","1","1","1","1","1","1","1"
"260040","img/object_images/gift_box03.jpg","img/object_images/bow_tie02.jpg","img/object_images/jewelry01.jpg","1","1","1","0","0","1","0.508355900004972","0.452313999994658","0.529581699986011","1","1","1","1","1","1","1","1","1"
"260040","img/object_images/jewelry01.jpg","img/object_images/gift_box03.jpg",NA,"1","1",NA,"1","0",NA,"0.529581699986011","0.508355900004972",NA,"1","1",NA,"1","1",NA,"1","1",NA
