"participant_id","current_trial_object","pre_trial_object","post_trial_object","current_trial_accuracy","pre_trial_accuracy","post_trial_accuracy","current_trial_congruency","pre_trial_congruency","post_trial_congruency","current_trial_rt","pre_trial_rt","post_trial_rt","current_trial_responded","pre_trial_responded","post_trial_responded","current_trial_legitResponse","pre_trial_legitResponse","post_trial_legitResponse","current_trial_resp_nums","pre_trial_resp_nums","post_trial_resp_nums"
"260003","img/object_images/cup01.jpg",NA,"img/object_images/spray_can01.jpg","0",NA,"1","0",NA,"0","0.773722499841824",NA,"0.65319039975293","1",NA,"1","1",NA,"1","1",NA,"1"
"260003","img/object_images/spray_can01.jpg","img/object_images/cup01.jpg","img/object_images/board01.jpg","1","0","1","0","0","1","0.65319039975293","0.773722499841824","0.505739699816331","1","1","1","1","1","1","1","1","1"
"260003","img/object_images/board01.jpg","img/object_images/spray_can01.jpg","img/object_images/lemon_squeezer01.jpg","1","1","1","1","0","1","0.505739699816331","0.65319039975293","0.518618299858645","1","1","1","1","1","1","1","1","1"
"260003","img/object_images/lemon_squeezer01.jpg","img/object_images/board01.jpg","img/object_images/bag04.jpg","1","1","1","1","1","0","0.518618299858645","0.505739699816331","0.501682499889284","1","1","1","1","1","1","1","1","1"
"260003","img/object_images/bag04.jpg","img/object_images/lemon_squeezer01.jpg","img/object_images/duster01.jpg","1","1","1","0","1","0","0.501682499889284","0.518618299858645","0.570853599812835","1","1","1","1","1","1","1","1","1"
"260003","img/object_images/duster01.jpg","img/object_images/bag04.jpg","img/object_images/glasses03.jpg","1","1","1","0","0","0","0.570853599812835","0.501682499889284","0.568782099988312","1","1","1","1","1","1","1","1","1"
"260003","img/object_images/glasses03.jpg","img/object_images/duster01.jpg","img/object_images/video_game02.jpg","1","1","1","0","0","1","0.568782099988312","0.570853599812835","0.673938599880785","1","1","1","1","1","1","1","1","1"
"260003","img/object_images/video_game02.jpg","img/object_images/glasses03.jpg","img/object_images/dust_pan01.jpg","1","1","1","1","0","1","0.673938599880785","0.568782099988312","0.524737200001255","1","1","1","1","1","1","1","1","1"
"260003","img/object_images/dust_pan01.jpg","img/object_images/video_game02.jpg","img/object_images/razor02.jpg","1","1","1","1","1","1","0.524737200001255","0.673938599880785","0.547676800051704","1","1","1","1","1","1","1","1","1"
"260003","img/object_images/razor02.jpg","img/object_images/dust_pan01.jpg","img/object_images/floss01.jpg","1","1","1","1","1","1","0.547676800051704","0.524737200001255","0.528124599950388","1","1","1","1","1","1","1","1","1"
"260003","img/object_images/floss01.jpg","img/object_images/razor02.jpg","img/object_images/bow_tie03.jpg","1","1","1","1","1","1","0.528124599950388","0.547676800051704","0.532629299908876","1","1","1","1","1","1","1","1","1"
"260003","img/object_images/bow_tie03.jpg","img/object_images/floss01.jpg","img/object_images/pen06.jpg","1","1","1","1","1","0","0.532629299908876","0.528124599950388","0.664865899831057","1","1","1","1","1","1","1","1","1"
"260003","img/object_images/pen06.jpg","img/object_images/bow_tie03.jpg","img/object_images/pan03.jpg","1","1","1","0","1","1","0.664865899831057","0.532629299908876","0.622397099854425","1","1","1","1","1","1","1","1","1"
"260003","img/object_images/pan03.jpg","img/object_images/pen06.jpg","img/object_images/socks01.jpg","1","1","1","1","0","1","0.622397099854425","0.664865899831057","0.579829500056803","1","1","1","1","1","1","1","1","1"
"260003","img/object_images/socks01.jpg","img/object_images/pan03.jpg","img/object_images/knife01.jpg","1","1","1","1","1","1","0.579829500056803","0.622397099854425","0.588271799730137","1","1","1","1","1","1","1","1","1"
"260003","img/object_images/knife01.jpg","img/object_images/socks01.jpg","img/object_images/sign02.jpg","1","1","1","1","1","0","0.588271799730137","0.579829500056803","0.626523899845779","1","1","1","1","1","1","1","1","1"
"260003","img/object_images/sign02.jpg","img/object_images/knife01.jpg","img/object_images/camera05.jpg","1","1","1","0","1","0","0.626523899845779","0.588271799730137","0.905497399857268","1","1","1","1","1","1","1","1","1"
"260003","img/object_images/camera05.jpg","img/object_images/sign02.jpg","img/object_images/Confetti 01.jpg","1","1","0","0","0","0","0.905497399857268","0.626523899845779","1.46021199994721","1","1","1","1","1","1","1","1","1"
"260003","img/object_images/Confetti 01.jpg","img/object_images/camera05.jpg","img/object_images/hat13.jpg","0","1","1","0","0","1","1.46021199994721","0.905497399857268","0.644801900023594","1","1","1","1","1","1","1","1","1"
"260003","img/object_images/hat13.jpg","img/object_images/Confetti 01.jpg","img/object_images/tool20.jpg","1","0","1","1","0","0","0.644801900023594","1.46021199994721","0.623108699917793","1","1","1","1","1","1","1","1","1"
"260003","img/object_images/tool20.jpg","img/object_images/hat13.jpg","img/object_images/ruler02.jpg","1","1","1","0","1","1","0.623108699917793","0.644801900023594","0.647313899826258","1","1","1","1","1","1","1","1","1"
"260003","img/object_images/ruler02.jpg","img/object_images/tool20.jpg","img/object_images/office_supplies01.jpg","1","1","1","1","0","1","0.647313899826258","0.623108699917793","0.592778399819508","1","1","1","1","1","1","1","1","1"
"260003","img/object_images/office_supplies01.jpg","img/object_images/ruler02.jpg","img/object_images/candle02.jpg","1","1","1","1","1","0","0.592778399819508","0.647313899826258","0.56162459985353","1","1","1","1","1","1","1","1","1"
"260003","img/object_images/candle02.jpg","img/object_images/office_supplies01.jpg","img/object_images/hat09.jpg","1","1","1","0","1","0","0.56162459985353","0.592778399819508","0.757716899737716","1","1","1","1","1","1","1","1","1"
"260003","img/object_images/hat09.jpg","img/object_images/candle02.jpg","img/object_images/vase02.jpg","1","1","1","0","0","1","0.757716899737716","0.56162459985353","0.589868699898943","1","1","1","1","1","1","1","1","1"
"260003","img/object_images/vase02.jpg","img/object_images/hat09.jpg","img/object_images/clipboard01.jpg","1","1","1","1","0","1","0.589868699898943","0.757716899737716","0.66221069986932","1","1","1","1","1","1","1","1","1"
"260003","img/object_images/clipboard01.jpg","img/object_images/vase02.jpg","img/object_images/tool13.jpg","1","1","1","1","1","1","0.66221069986932","0.589868699898943","0.608195499982685","1","1","1","1","1","1","1","1","1"
"260003","img/object_images/tool13.jpg","img/object_images/clipboard01.jpg","img/object_images/Candle_Holder01.jpg","1","1","1","1","1","0","0.608195499982685","0.66221069986932","0.722365299938247","1","1","1","1","1","1","1","1","1"
"260003","img/object_images/Candle_Holder01.jpg","img/object_images/tool13.jpg","img/object_images/perfume01.jpg","1","1","1","0","1","0","0.722365299938247","0.608195499982685","0.711849499959499","1","1","1","1","1","1","1","1","1"
"260003","img/object_images/perfume01.jpg","img/object_images/Candle_Holder01.jpg","img/object_images/hammer02.jpg","1","1","1","0","0","0","0.711849499959499","0.722365299938247","0.511212899815291","1","1","1","1","1","1","1","1","1"
"260003","img/object_images/hammer02.jpg","img/object_images/perfume01.jpg","img/object_images/sink_filter01 (1).jpg","1","1","1","0","0","0","0.511212899815291","0.711849499959499","0.713257199851796","1","1","1","1","1","1","1","1","1"
"260003","img/object_images/sink_filter01 (1).jpg","img/object_images/hammer02.jpg",NA,"1","1",NA,"0","0",NA,"0.713257199851796","0.511212899815291",NA,"1","1",NA,"1","1",NA,"1","1",NA
"260003","img/object_images/bird_house02.jpg",NA,"img/object_images/jewel04.jpg","1",NA,"1","1",NA,"0","0.622122900094837",NA,"0.509480000007898","1",NA,"1","1",NA,"1","1",NA,"1"
"260003","img/object_images/jewel04.jpg","img/object_images/bird_house02.jpg","img/object_images/pot01 (1).jpg","1","1","1","0","1","0","0.509480000007898","0.622122900094837","0.519674699986354","1","1","1","1","1","1","1","1","1"
"260003","img/object_images/pot01 (1).jpg","img/object_images/jewel04.jpg","img/object_images/gauze01.jpg","1","1","1","0","0","0","0.519674699986354","0.509480000007898","0.496074799681082","1","1","1","1","1","1","1","1","1"
"260003","img/object_images/gauze01.jpg","img/object_images/pot01 (1).jpg","img/object_images/crown02.jpg","1","1","1","0","0","1","0.496074799681082","0.519674699986354","0.466469200095162","1","1","1","1","1","1","1","1","1"
"260003","img/object_images/crown02.jpg","img/object_images/gauze01.jpg","img/object_images/toy03.jpg","1","1","1","1","0","1","0.466469200095162","0.496074799681082","0.443105699960142","1","1","1","1","1","1","1","1","1"
"260003","img/object_images/toy03.jpg","img/object_images/crown02.jpg","img/object_images/video_game07.jpg","1","1","1","1","1","1","0.443105699960142","0.466469200095162","0.504286099923775","1","1","1","1","1","1","1","1","1"
"260003","img/object_images/video_game07.jpg","img/object_images/toy03.jpg","img/object_images/Stool01.jpg","1","1","1","1","1","0","0.504286099923775","0.443105699960142","0.53461159998551","1","1","1","1","1","1","1","1","1"
"260003","img/object_images/Stool01.jpg","img/object_images/video_game07.jpg","img/object_images/Tin01.jpg","1","1","1","0","1","1","0.53461159998551","0.504286099923775","0.388907500077039","1","1","1","1","1","1","1","1","1"
"260003","img/object_images/Tin01.jpg","img/object_images/Stool01.jpg","img/object_images/outlet01.jpg","1","1","1","1","0","0","0.388907500077039","0.53461159998551","0.589828899828717","1","1","1","1","1","1","1","1","1"
"260003","img/object_images/outlet01.jpg","img/object_images/Tin01.jpg","img/object_images/dart01.jpg","1","1","1","0","1","0","0.589828899828717","0.388907500077039","0.636301799910143","1","1","1","1","1","1","1","1","1"
"260003","img/object_images/dart01.jpg","img/object_images/outlet01.jpg","img/object_images/judge_gavel01.jpg","1","1","1","0","0","1","0.636301799910143","0.589828899828717","0.621609499910846","1","1","1","1","1","1","1","1","1"
"260003","img/object_images/judge_gavel01.jpg","img/object_images/dart01.jpg","img/object_images/watch01.jpg","1","1","1","1","0","0","0.621609499910846","0.636301799910143","0.624023099895567","1","1","1","1","1","1","1","1","1"
"260003","img/object_images/watch01.jpg","img/object_images/judge_gavel01.jpg","img/object_images/frisbee01.jpg","1","1","1","0","1","1","0.624023099895567","0.621609499910846","0.512556299800053","1","1","1","1","1","1","1","1","1"
"260003","img/object_images/frisbee01.jpg","img/object_images/watch01.jpg","img/object_images/Ring02.jpg","1","1","1","1","0","0","0.512556299800053","0.624023099895567","0.566838899860159","1","1","1","1","1","1","1","1","1"
"260003","img/object_images/Ring02.jpg","img/object_images/frisbee01.jpg","img/object_images/tool09.jpg","1","1","1","0","1","1","0.566838899860159","0.512556299800053","0.463840599870309","1","1","1","1","1","1","1","1","1"
"260003","img/object_images/tool09.jpg","img/object_images/Ring02.jpg","img/object_images/acoustic_capo01.jpg","1","1","1","1","0","1","0.463840599870309","0.566838899860159","0.508212599903345","1","1","1","1","1","1","1","1","1"
"260003","img/object_images/acoustic_capo01.jpg","img/object_images/tool09.jpg","img/object_images/Vacuum01.jpg","1","1","1","1","1","0","0.508212599903345","0.463840599870309","0.470935699762776","1","1","1","1","1","1","1","1","1"
"260003","img/object_images/Vacuum01.jpg","img/object_images/acoustic_capo01.jpg","img/object_images/stapler.jpg","1","1","1","0","1","1","0.470935699762776","0.508212599903345","0.468099399935454","1","1","1","1","1","1","1","1","1"
"260003","img/object_images/stapler.jpg","img/object_images/Vacuum01.jpg","img/object_images/helmet01.jpg","1","1","1","1","0","0","0.468099399935454","0.470935699762776","0.460945699829608","1","1","1","1","1","1","1","1","1"
"260003","img/object_images/helmet01.jpg","img/object_images/stapler.jpg","img/object_images/ornament01.jpg","1","1","1","0","1","1","0.460945699829608","0.468099399935454","0.414919399889186","1","1","1","1","1","1","1","1","1"
"260003","img/object_images/ornament01.jpg","img/object_images/helmet01.jpg","img/object_images/fridge03.jpg","1","1","1","1","0","0","0.414919399889186","0.460945699829608","0.564072699984536","1","1","1","1","1","1","1","1","1"
"260003","img/object_images/fridge03.jpg","img/object_images/ornament01.jpg","img/object_images/towel02.jpg","1","1","1","0","1","1","0.564072699984536","0.414919399889186","0.421430400107056","1","1","1","1","1","1","1","1","1"
"260003","img/object_images/towel02.jpg","img/object_images/fridge03.jpg","img/object_images/tool02.jpg","1","1","1","1","0","1","0.421430400107056","0.564072699984536","0.432046999922022","1","1","1","1","1","1","1","1","1"
"260003","img/object_images/tool02.jpg","img/object_images/towel02.jpg","img/object_images/guitar02.jpg","1","1","1","1","1","0","0.432046999922022","0.421430400107056","0.728994999779388","1","1","1","1","1","1","1","1","1"
"260003","img/object_images/guitar02.jpg","img/object_images/tool02.jpg","img/object_images/bottle05.jpg","1","1","1","0","1","0","0.728994999779388","0.432046999922022","0.537730199983343","1","1","1","1","1","1","1","1","1"
"260003","img/object_images/bottle05.jpg","img/object_images/guitar02.jpg","img/object_images/shovel03.jpg","1","1","1","0","0","1","0.537730199983343","0.728994999779388","0.59391069971025","1","1","1","1","1","1","1","1","1"
"260003","img/object_images/shovel03.jpg","img/object_images/bottle05.jpg","img/object_images/bow01.jpg","1","1","1","1","0","1","0.59391069971025","0.537730199983343","0.51648769993335","1","1","1","1","1","1","1","1","1"
"260003","img/object_images/bow01.jpg","img/object_images/shovel03.jpg","img/object_images/toy04.jpg","1","1","1","1","1","0","0.51648769993335","0.59391069971025","0.543353199725971","1","1","1","1","1","1","1","1","1"
"260003","img/object_images/toy04.jpg","img/object_images/bow01.jpg","img/object_images/sink01.jpg","1","1","1","0","1","0","0.543353199725971","0.51648769993335","0.664475999772549","1","1","1","1","1","1","1","1","1"
"260003","img/object_images/sink01.jpg","img/object_images/toy04.jpg","img/object_images/mirror01.jpg","1","1","1","0","0","1","0.664475999772549","0.543353199725971","0.500055699842051","1","1","1","1","1","1","1","1","1"
"260003","img/object_images/mirror01.jpg","img/object_images/sink01.jpg","img/object_images/MetalWire01.jpg","1","1","1","1","0","0","0.500055699842051","0.664475999772549","0.54645589995198","1","1","1","1","1","1","1","1","1"
"260003","img/object_images/MetalWire01.jpg","img/object_images/mirror01.jpg",NA,"1","1",NA,"0","1",NA,"0.54645589995198","0.500055699842051",NA,"1","1",NA,"1","1",NA,"1","1",NA
"260003","img/object_images/fork02.jpg",NA,"img/object_images/floss02.jpg","1",NA,"1","0",NA,"1","0.810982599854469",NA,"0.460806799819693","1",NA,"1","1",NA,"1","1",NA,"1"
"260003","img/object_images/floss02.jpg","img/object_images/fork02.jpg","img/object_images/tripod01.jpg","1","1","1","1","0","1","0.460806799819693","0.810982599854469","0.473724299808964","1","1","1","1","1","1","1","1","1"
"260003","img/object_images/tripod01.jpg","img/object_images/floss02.jpg","img/object_images/tool06.jpg","1","1","1","1","1","0","0.473724299808964","0.460806799819693","0.607652199920267","1","1","1","1","1","1","1","1","1"
"260003","img/object_images/tool06.jpg","img/object_images/tripod01.jpg","img/object_images/bell03.jpg","1","1","1","0","1","0","0.607652199920267","0.473724299808964","0.499174099881202","1","1","1","1","1","1","1","1","1"
"260003","img/object_images/bell03.jpg","img/object_images/tool06.jpg","img/object_images/shoes12.jpg","1","1","1","0","0","1","0.499174099881202","0.607652199920267","0.544087399728596","1","1","1","1","1","1","1","1","1"
"260003","img/object_images/shoes12.jpg","img/object_images/bell03.jpg","img/object_images/mail_box02.jpg","1","1","1","1","0","1","0.544087399728596","0.499174099881202","0.454330899985507","1","1","1","1","1","1","1","1","1"
"260003","img/object_images/mail_box02.jpg","img/object_images/shoes12.jpg","img/object_images/chair06.jpg","1","1","0","1","1","0","0.454330899985507","0.544087399728596","0.430166299920529","1","1","1","1","1","1","1","1","1"
"260003","img/object_images/chair06.jpg","img/object_images/mail_box02.jpg","img/object_images/box03.jpg","0","1","1","0","1","0","0.430166299920529","0.454330899985507","0.662460800027475","1","1","1","1","1","1","1","1","1"
"260003","img/object_images/box03.jpg","img/object_images/chair06.jpg","img/object_images/pen01.jpg","1","0","1","0","0","0","0.662460800027475","0.430166299920529","0.55515529983677","1","1","1","1","1","1","1","1","1"
"260003","img/object_images/pen01.jpg","img/object_images/box03.jpg","img/object_images/rock02.jpg","1","1","1","0","0","0","0.55515529983677","0.662460800027475","0.606015499914065","1","1","1","1","1","1","1","1","1"
"260003","img/object_images/rock02.jpg","img/object_images/pen01.jpg","img/object_images/soap03.jpg","1","1","1","0","0","0","0.606015499914065","0.55515529983677","0.550811399938539","1","1","1","1","1","1","1","1","1"
"260003","img/object_images/soap03.jpg","img/object_images/rock02.jpg","img/object_images/bag_pipes01.jpg","1","1","1","0","0","1","0.550811399938539","0.606015499914065","0.48220849991776","1","1","1","1","1","1","1","1","1"
"260003","img/object_images/bag_pipes01.jpg","img/object_images/soap03.jpg","img/object_images/skate_board01.jpg","1","1","1","1","0","0","0.48220849991776","0.550811399938539","0.618783399928361","1","1","1","1","1","1","1","1","1"
"260003","img/object_images/skate_board01.jpg","img/object_images/bag_pipes01.jpg","img/object_images/toothbrush01.jpg","1","1","1","0","1","0","0.618783399928361","0.48220849991776","0.735504399985075","1","1","1","1","1","1","1","1","1"
"260003","img/object_images/toothbrush01.jpg","img/object_images/skate_board01.jpg","img/object_images/drone01.jpg","1","1","1","0","0","1","0.735504399985075","0.618783399928361","0.559344099834561","1","1","1","1","1","1","1","1","1"
"260003","img/object_images/drone01.jpg","img/object_images/toothbrush01.jpg","img/object_images/egg_slicer01.jpg","1","1","1","1","0","1","0.559344099834561","0.735504399985075","0.585760300047696","1","1","1","1","1","1","1","1","1"
"260003","img/object_images/egg_slicer01.jpg","img/object_images/drone01.jpg","img/object_images/couch01.jpg","1","1","1","1","1","0","0.585760300047696","0.559344099834561","0.592851799912751","1","1","1","1","1","1","1","1","1"
"260003","img/object_images/couch01.jpg","img/object_images/egg_slicer01.jpg","img/object_images/pitcher09.jpg","1","1","1","0","1","1","0.592851799912751","0.585760300047696","0.562739199725911","1","1","1","1","1","1","1","1","1"
"260003","img/object_images/pitcher09.jpg","img/object_images/couch01.jpg","img/object_images/computer_mouse02.jpg","1","1","0","1","0","0","0.562739199725911","0.592851799912751","0.796957799931988","1","1","1","1","1","1","1","1","1"
"260003","img/object_images/computer_mouse02.jpg","img/object_images/pitcher09.jpg","img/object_images/Violin01.jpg","0","1","1","0","1","0","0.796957799931988","0.562739199725911","0.457175999879837","1","1","1","1","1","1","1","1","1"
"260003","img/object_images/Violin01.jpg","img/object_images/computer_mouse02.jpg","img/object_images/airfryer02.jpg","1","0","1","0","0","1","0.457175999879837","0.796957799931988","0.541740000015125","1","1","1","1","1","1","1","1","1"
"260003","img/object_images/airfryer02.jpg","img/object_images/Violin01.jpg","img/object_images/toy01.jpg","1","1","1","1","0","1","0.541740000015125","0.457175999879837","0.528332599904388","1","1","1","1","1","1","1","1","1"
"260003","img/object_images/toy01.jpg","img/object_images/airfryer02.jpg","img/object_images/hair_brush01.jpg","1","1","1","1","1","1","0.528332599904388","0.541740000015125","0.548410199815407","1","1","1","1","1","1","1","1","1"
"260003","img/object_images/hair_brush01.jpg","img/object_images/toy01.jpg","img/object_images/blender01.jpg","1","1","1","1","1","0","0.548410199815407","0.528332599904388","0.549318299861625","1","1","1","1","1","1","1","1","1"
"260003","img/object_images/blender01.jpg","img/object_images/hair_brush01.jpg","img/object_images/chain01.jpg","1","1","1","0","1","0","0.549318299861625","0.548410199815407","0.497889699880034","1","1","1","1","1","1","1","1","1"
"260003","img/object_images/chain01.jpg","img/object_images/blender01.jpg","img/object_images/scarf01.jpg","1","1","1","0","0","1","0.497889699880034","0.549318299861625","0.471790099982172","1","1","1","1","1","1","1","1","1"
"260003","img/object_images/scarf01.jpg","img/object_images/chain01.jpg","img/object_images/computer_mouse01.jpg","1","1","1","1","0","1","0.471790099982172","0.497889699880034","0.478740399703383","1","1","1","1","1","1","1","1","1"
"260003","img/object_images/computer_mouse01.jpg","img/object_images/scarf01.jpg","img/object_images/video_game03.jpg","1","1","1","1","1","1","0.478740399703383","0.471790099982172","0.437107099918649","1","1","1","1","1","1","1","1","1"
"260003","img/object_images/video_game03.jpg","img/object_images/computer_mouse01.jpg","img/object_images/book02.jpg","1","1","1","1","1","1","0.437107099918649","0.478740399703383","0.446522000012919","1","1","1","1","1","1","1","1","1"
"260003","img/object_images/book02.jpg","img/object_images/video_game03.jpg","img/object_images/Trowel01.jpg","1","1","1","1","1","0","0.446522000012919","0.437107099918649","0.523897199891508","1","1","1","1","1","1","1","1","1"
"260003","img/object_images/Trowel01.jpg","img/object_images/book02.jpg","img/object_images/clip04.jpg","1","1","1","0","1","1","0.523897199891508","0.446522000012919","0.52569769998081","1","1","1","1","1","1","1","1","1"
"260003","img/object_images/clip04.jpg","img/object_images/Trowel01.jpg",NA,"1","1",NA,"1","0",NA,"0.52569769998081","0.523897199891508",NA,"1","1",NA,"1","1",NA,"1","1",NA
"260003","img/object_images/ribbon01.jpg",NA,"img/object_images/ice_tray03.jpg","0",NA,"1","0",NA,"1","0.800187799846753",NA,"0.448660499881953","1",NA,"1","1",NA,"1","1",NA,"1"
"260003","img/object_images/ice_tray03.jpg","img/object_images/ribbon01.jpg","img/object_images/jewel01.jpg","1","0","1","1","0","0","0.448660499881953","0.800187799846753","0.506278400076553","1","1","1","1","1","1","1","1","1"
"260003","img/object_images/jewel01.jpg","img/object_images/ice_tray03.jpg","img/object_images/shoes10.jpg","1","1","0","0","1","0","0.506278400076553","0.448660499881953","0.527704599779099","1","1","1","1","1","1","1","1","1"
"260003","img/object_images/shoes10.jpg","img/object_images/jewel01.jpg","img/object_images/dress03.jpg","0","1","1","0","0","1","0.527704599779099","0.506278400076553","0.5206027997192","1","1","1","1","1","1","1","1","1"
"260003","img/object_images/dress03.jpg","img/object_images/shoes10.jpg","img/object_images/hair_brush05.jpg","1","0","1","1","0","1","0.5206027997192","0.527704599779099","0.49681149981916","1","1","1","1","1","1","1","1","1"
"260003","img/object_images/hair_brush05.jpg","img/object_images/dress03.jpg","img/object_images/belt01.jpg","1","1","1","1","1","0","0.49681149981916","0.5206027997192","0.666842999868095","1","1","1","1","1","1","1","1","1"
"260003","img/object_images/belt01.jpg","img/object_images/hair_brush05.jpg","img/object_images/screwdriver01.jpg","1","1","1","0","1","0","0.666842999868095","0.49681149981916","0.710939599899575","1","1","1","1","1","1","1","1","1"
"260003","img/object_images/screwdriver01.jpg","img/object_images/belt01.jpg","img/object_images/tv01.jpg","1","1","1","0","0","0","0.710939599899575","0.666842999868095","0.61513639986515","1","1","1","1","1","1","1","1","1"
"260003","img/object_images/tv01.jpg","img/object_images/screwdriver01.jpg","img/object_images/WitchHat02.jpg","1","1","1","0","0","1","0.61513639986515","0.710939599899575","0.509175299666822","1","1","1","1","1","1","1","1","1"
"260003","img/object_images/WitchHat02.jpg","img/object_images/tv01.jpg","img/object_images/tool11.jpg","1","1","1","1","0","1","0.509175299666822","0.61513639986515","0.427582099800929","1","1","1","1","1","1","1","1","1"
"260003","img/object_images/tool11.jpg","img/object_images/WitchHat02.jpg","img/object_images/yarn02.jpg","1","1","1","1","1","0","0.427582099800929","0.509175299666822","0.519407500047237","1","1","1","1","1","1","1","1","1"
"260003","img/object_images/yarn02.jpg","img/object_images/tool11.jpg","img/object_images/cutting_board01.jpg","1","1","1","0","1","1","0.519407500047237","0.427582099800929","0.489314199890941","1","1","1","1","1","1","1","1","1"
"260003","img/object_images/cutting_board01.jpg","img/object_images/yarn02.jpg","img/object_images/cards01.jpg","1","1","1","1","0","0","0.489314199890941","0.519407500047237","0.481448699953035","1","1","1","1","1","1","1","1","1"
"260003","img/object_images/cards01.jpg","img/object_images/cutting_board01.jpg","img/object_images/mask01.jpg","1","1","1","0","1","0","0.481448699953035","0.489314199890941","0.856153999920934","1","1","1","1","1","1","1","1","1"
"260003","img/object_images/mask01.jpg","img/object_images/cards01.jpg","img/object_images/satellite01.jpg","1","1","1","0","0","0","0.856153999920934","0.481448699953035","0.618526000063866","1","1","1","1","1","1","1","1","1"
"260003","img/object_images/satellite01.jpg","img/object_images/mask01.jpg","img/object_images/slinky_toy01.jpg","1","1","1","0","0","1","0.618526000063866","0.856153999920934","0.805019000079483","1","1","1","1","1","1","1","1","1"
"260003","img/object_images/slinky_toy01.jpg","img/object_images/satellite01.jpg","img/object_images/jewelry07.jpg","1","1","1","1","0","1","0.805019000079483","0.618526000063866","0.520150999771431","1","1","1","1","1","1","1","1","1"
"260003","img/object_images/jewelry07.jpg","img/object_images/slinky_toy01.jpg","img/object_images/razor01.jpg","1","1","1","1","1","0","0.520150999771431","0.805019000079483","0.45924080000259","1","1","1","1","1","1","1","1","1"
"260003","img/object_images/razor01.jpg","img/object_images/jewelry07.jpg","img/object_images/MeasuringCup01.jpg","1","1","1","0","1","1","0.45924080000259","0.520150999771431","0.429368099896237","1","1","1","1","1","1","1","1","1"
"260003","img/object_images/MeasuringCup01.jpg","img/object_images/razor01.jpg","img/object_images/fan05.jpg","1","1","1","1","0","0","0.429368099896237","0.45924080000259","0.747737400000915","1","1","1","1","1","1","1","1","1"
"260003","img/object_images/fan05.jpg","img/object_images/MeasuringCup01.jpg","img/object_images/toaster02.jpg","1","1","1","0","1","1","0.747737400000915","0.429368099896237","0.533349300036207","1","1","1","1","1","1","1","1","1"
"260003","img/object_images/toaster02.jpg","img/object_images/fan05.jpg","img/object_images/shower_head03.jpg","1","1","1","1","0","1","0.533349300036207","0.747737400000915","0.493428600020707","1","1","1","1","1","1","1","1","1"
"260003","img/object_images/shower_head03.jpg","img/object_images/toaster02.jpg","img/object_images/car04.jpg","1","1","1","1","1","0","0.493428600020707","0.533349300036207","0.56206430005841","1","1","1","1","1","1","1","1","1"
"260003","img/object_images/car04.jpg","img/object_images/shower_head03.jpg","img/object_images/bag06.jpg","1","1","1","0","1","1","0.56206430005841","0.493428600020707","0.596353000029922","1","1","1","1","1","1","1","1","1"
"260003","img/object_images/bag06.jpg","img/object_images/car04.jpg","img/object_images/rock03.jpg","1","1","1","1","0","0","0.596353000029922","0.56206430005841","0.535806899890304","1","1","1","1","1","1","1","1","1"
"260003","img/object_images/rock03.jpg","img/object_images/bag06.jpg","img/object_images/ladle02.jpg","1","1","1","0","1","0","0.535806899890304","0.596353000029922","0.405545399757102","1","1","1","1","1","1","1","1","1"
"260003","img/object_images/ladle02.jpg","img/object_images/rock03.jpg","img/object_images/car03.jpg","1","1","1","0","0","0","0.405545399757102","0.535806899890304","0.481791699770838","1","1","1","1","1","1","1","1","1"
"260003","img/object_images/car03.jpg","img/object_images/ladle02.jpg","img/object_images/lemon_squeezer02.jpg","1","1","1","0","0","1","0.481791699770838","0.405545399757102","0.614900999935344","1","1","1","1","1","1","1","1","1"
"260003","img/object_images/lemon_squeezer02.jpg","img/object_images/car03.jpg","img/object_images/key02.jpg","1","1","1","1","0","1","0.614900999935344","0.481791699770838","0.483834399841726","1","1","1","1","1","1","1","1","1"
"260003","img/object_images/key02.jpg","img/object_images/lemon_squeezer02.jpg","img/object_images/chair04.jpg","1","1","1","1","1","1","0.483834399841726","0.614900999935344","0.586115199839696","1","1","1","1","1","1","1","1","1"
"260003","img/object_images/chair04.jpg","img/object_images/key02.jpg","img/object_images/binoculars03.jpg","1","1","1","1","1","1","0.586115199839696","0.483834399841726","0.459516499890014","1","1","1","1","1","1","1","1","1"
"260003","img/object_images/binoculars03.jpg","img/object_images/chair04.jpg",NA,"1","1",NA,"1","1",NA,"0.459516499890014","0.586115199839696",NA,"1","1",NA,"1","1",NA,"1","1",NA
"260003","img/object_images/piano03.jpg",NA,"img/object_images/dice01.jpg","0",NA,"0","0",NA,"0","0.61683649988845",NA,"0.502966999774799","1",NA,"1","1",NA,"1","1",NA,"1"
"260003","img/object_images/dice01.jpg","img/object_images/piano03.jpg","img/object_images/usb03.jpg","0","0","1","0","0","0","0.502966999774799","0.61683649988845","0.558599799871445","1","1","1","1","1","1","1","1","1"
"260003","img/object_images/usb03.jpg","img/object_images/dice01.jpg","img/object_images/shovel01.jpg","1","0","1","0","0","0","0.558599799871445","0.502966999774799","0.518481999868527","1","1","1","1","1","1","1","1","1"
"260003","img/object_images/shovel01.jpg","img/object_images/usb03.jpg","img/object_images/badminton01.jpg","1","1","1","0","0","1","0.518481999868527","0.558599799871445","0.574361299863085","1","1","1","1","1","1","1","1","1"
"260003","img/object_images/badminton01.jpg","img/object_images/shovel01.jpg","img/object_images/ToolBag01.jpg","1","1","1","1","0","0","0.574361299863085","0.518481999868527","0.491797799943015","1","1","1","1","1","1","1","1","1"
"260003","img/object_images/ToolBag01.jpg","img/object_images/badminton01.jpg","img/object_images/nut_cracker01.jpg","1","1","1","0","1","1","0.491797799943015","0.574361299863085","0.456505399895832","1","1","1","1","1","1","1","1","1"
"260003","img/object_images/nut_cracker01.jpg","img/object_images/ToolBag01.jpg","img/object_images/TreeSlice01.jpg","1","1","1","1","0","1","0.456505399895832","0.491797799943015","0.458330699708313","1","1","1","1","1","1","1","1","1"
"260003","img/object_images/TreeSlice01.jpg","img/object_images/nut_cracker01.jpg","img/object_images/tennis_racket01.jpg","1","1","1","1","1","1","0.458330699708313","0.456505399895832","0.488560299854726","1","1","1","1","1","1","1","1","1"
"260003","img/object_images/tennis_racket01.jpg","img/object_images/TreeSlice01.jpg","img/object_images/origami01.jpg","1","1","1","1","1","1","0.488560299854726","0.458330699708313","0.44588779984042","1","1","1","1","1","1","1","1","1"
"260003","img/object_images/origami01.jpg","img/object_images/tennis_racket01.jpg","img/object_images/water_gun01.jpg","1","1","1","1","1","1","0.44588779984042","0.488560299854726","0.457231599837542","1","1","1","1","1","1","1","1","1"
"260003","img/object_images/water_gun01.jpg","img/object_images/origami01.jpg","img/object_images/pitcher07.jpg","1","1","1","1","1","1","0.457231599837542","0.44588779984042","0.491452499758452","1","1","1","1","1","1","1","1","1"
"260003","img/object_images/pitcher07.jpg","img/object_images/water_gun01.jpg","img/object_images/yoga_mat01.jpg","1","1","1","1","1","0","0.491452499758452","0.457231599837542","0.514755499782041","1","1","1","1","1","1","1","1","1"
"260003","img/object_images/yoga_mat01.jpg","img/object_images/pitcher07.jpg","img/object_images/note_book02.jpg","1","1","1","0","1","0","0.514755499782041","0.491452499758452","0.500452700071037","1","1","1","1","1","1","1","1","1"
"260003","img/object_images/note_book02.jpg","img/object_images/yoga_mat01.jpg","img/object_images/Eyeliner01.jpg","1","1","1","0","0","1","0.500452700071037","0.514755499782041","0.483514099847525","1","1","1","1","1","1","1","1","1"
"260003","img/object_images/Eyeliner01.jpg","img/object_images/note_book02.jpg","img/object_images/trumpet01.jpg","1","1","1","1","0","0","0.483514099847525","0.500452700071037","0.665931099792942","1","1","1","1","1","1","1","1","1"
"260003","img/object_images/trumpet01.jpg","img/object_images/Eyeliner01.jpg","img/object_images/headset02.jpg","1","1","1","0","1","0","0.665931099792942","0.483514099847525","0.57252259994857","1","1","1","1","1","1","1","1","1"
"260003","img/object_images/headset02.jpg","img/object_images/trumpet01.jpg","img/object_images/helmet03.jpg","1","1","1","0","0","1","0.57252259994857","0.665931099792942","0.480491299880669","1","1","1","1","1","1","1","1","1"
"260003","img/object_images/helmet03.jpg","img/object_images/headset02.jpg","img/object_images/frame01.jpg","1","1","1","1","0","1","0.480491299880669","0.57252259994857","0.538263199850917","1","1","1","1","1","1","1","1","1"
"260003","img/object_images/frame01.jpg","img/object_images/helmet03.jpg","img/object_images/Safe01.jpg","1","1","1","1","1","1","0.538263199850917","0.480491299880669","0.462805100018159","1","1","1","1","1","1","1","1","1"
"260003","img/object_images/Safe01.jpg","img/object_images/frame01.jpg","img/object_images/fan01.jpg","1","1","1","1","1","0","0.462805100018159","0.538263199850917","0.738738799933344","1","1","1","1","1","1","1","1","1"
"260003","img/object_images/fan01.jpg","img/object_images/Safe01.jpg","img/object_images/lock03.jpg","1","1","1","0","1","1","0.738738799933344","0.462805100018159","0.469978800043464","1","1","1","1","1","1","1","1","1"
"260003","img/object_images/lock03.jpg","img/object_images/fan01.jpg","img/object_images/bookmark01.jpg","1","1","1","1","0","0","0.469978800043464","0.738738799933344","0.550179799785838","1","1","1","1","1","1","1","1","1"
"260003","img/object_images/bookmark01.jpg","img/object_images/lock03.jpg","img/object_images/phone04.jpg","1","1","1","0","1","1","0.550179799785838","0.469978800043464","0.547905999934301","1","1","1","1","1","1","1","1","1"
"260003","img/object_images/phone04.jpg","img/object_images/bookmark01.jpg","img/object_images/joystick03.jpg","1","1","1","1","0","1","0.547905999934301","0.550179799785838","0.539416699903086","1","1","1","1","1","1","1","1","1"
"260003","img/object_images/joystick03.jpg","img/object_images/phone04.jpg","img/object_images/jewel02.jpg","1","1","1","1","1","0","0.539416699903086","0.547905999934301","0.471383299678564","1","1","1","1","1","1","1","1","1"
"260003","img/object_images/jewel02.jpg","img/object_images/joystick03.jpg","img/object_images/bottle06.jpg","1","1","1","0","1","0","0.471383299678564","0.539416699903086","0.594662599964067","1","1","1","1","1","1","1","1","1"
"260003","img/object_images/bottle06.jpg","img/object_images/jewel02.jpg","img/object_images/egg_basket01.jpg","1","1","1","0","0","1","0.594662599964067","0.471383299678564","0.52271859976463","1","1","1","1","1","1","1","1","1"
"260003","img/object_images/egg_basket01.jpg","img/object_images/bottle06.jpg","img/object_images/bucket01.jpg","1","1","1","1","0","1","0.52271859976463","0.594662599964067","0.391412499826402","1","1","1","1","1","1","1","1","1"
"260003","img/object_images/bucket01.jpg","img/object_images/egg_basket01.jpg","img/object_images/scale02.jpg","1","1","0","1","1","0","0.391412499826402","0.52271859976463","0.823835699819028","1","1","1","1","1","1","1","1","1"
"260003","img/object_images/scale02.jpg","img/object_images/bucket01.jpg","img/object_images/Shoes05.jpg","0","1","1","0","1","0","0.823835699819028","0.391412499826402","0.502880899701267","1","1","1","1","1","1","1","1","1"
"260003","img/object_images/Shoes05.jpg","img/object_images/scale02.jpg","img/object_images/belt03.jpg","1","0","1","0","0","0","0.502880899701267","0.823835699819028","0.537710699718446","1","1","1","1","1","1","1","1","1"
"260003","img/object_images/belt03.jpg","img/object_images/Shoes05.jpg",NA,"1","1",NA,"0","0",NA,"0.537710699718446","0.502880899701267",NA,"1","1",NA,"1","1",NA,"1","1",NA
"260003","img/object_images/hand_grip_exerciser01.jpg",NA,"img/object_images/knife02.jpg","0",NA,"0","0",NA,"0","0.577887400053442",NA,NA,"1",NA,"0","1",NA,"0","1",NA,"0"
"260003","img/object_images/knife02.jpg","img/object_images/hand_grip_exerciser01.jpg","img/object_images/mail_box01.jpg","0","0","1","0","0","0",NA,"0.577887400053442","0.799572699936107","0","1","1","0","1","1","0","1","1"
"260003","img/object_images/mail_box01.jpg","img/object_images/knife02.jpg","img/object_images/basket04.jpg","1","0","1","0","0","1","0.799572699936107",NA,"0.464243899798021","1","0","1","1","0","1","1","0","1"
"260003","img/object_images/basket04.jpg","img/object_images/mail_box01.jpg","img/object_images/video_game01.jpg","1","1","1","1","0","1","0.464243899798021","0.799572699936107","0.538259399821982","1","1","1","1","1","1","1","1","1"
"260003","img/object_images/video_game01.jpg","img/object_images/basket04.jpg","img/object_images/curtain02.jpg","1","1","1","1","1","0","0.538259399821982","0.464243899798021","0.57117829984054","1","1","1","1","1","1","1","1","1"
"260003","img/object_images/curtain02.jpg","img/object_images/video_game01.jpg","img/object_images/dresser03.jpg","1","1","1","0","1","0","0.57117829984054","0.538259399821982","0.427537299925461","1","1","1","1","1","1","1","1","1"
"260003","img/object_images/dresser03.jpg","img/object_images/curtain02.jpg","img/object_images/remover01.jpg","1","1","1","0","0","1","0.427537299925461","0.57117829984054","0.412901799893007","1","1","1","1","1","1","1","1","1"
"260003","img/object_images/remover01.jpg","img/object_images/dresser03.jpg","img/object_images/shower_head01.jpg","1","1","1","1","0","1","0.412901799893007","0.427537299925461","0.547756999731064","1","1","1","1","1","1","1","1","1"
"260003","img/object_images/shower_head01.jpg","img/object_images/remover01.jpg","img/object_images/phone02.jpg","1","1","1","1","1","1","0.547756999731064","0.412901799893007","0.419600700028241","1","1","1","1","1","1","1","1","1"
"260003","img/object_images/phone02.jpg","img/object_images/shower_head01.jpg","img/object_images/Statue01.jpg","1","1","1","1","1","1","0.419600700028241","0.547756999731064","0.523056699894369","1","1","1","1","1","1","1","1","1"
"260003","img/object_images/Statue01.jpg","img/object_images/phone02.jpg","img/object_images/knit03.jpg","1","1","1","1","1","1","0.523056699894369","0.419600700028241","0.432958099991083","1","1","1","1","1","1","1","1","1"
"260003","img/object_images/knit03.jpg","img/object_images/Statue01.jpg","img/object_images/hoverboard01.jpg","1","1","1","1","1","0","0.432958099991083","0.523056699894369","0.807145499857143","1","1","1","1","1","1","1","1","1"
"260003","img/object_images/hoverboard01.jpg","img/object_images/knit03.jpg","img/object_images/paper_cup02.jpg","1","1","1","0","1","1","0.807145499857143","0.432958099991083","0.47563449991867","1","1","1","1","1","1","1","1","1"
"260003","img/object_images/paper_cup02.jpg","img/object_images/hoverboard01.jpg","img/object_images/tool18.jpg","1","1","1","1","0","0","0.47563449991867","0.807145499857143","0.418827699963003","1","1","1","1","1","1","1","1","1"
"260003","img/object_images/tool18.jpg","img/object_images/paper_cup02.jpg","img/object_images/bottle07.jpg","1","1","1","0","1","1","0.418827699963003","0.47563449991867","0.481956599745899","1","1","1","1","1","1","1","1","1"
"260003","img/object_images/bottle07.jpg","img/object_images/tool18.jpg","img/object_images/toy08.jpg","1","1","0","1","0","0","0.481956599745899","0.418827699963003","0.452648999867961","1","1","1","1","1","1","1","1","2"
"260003","img/object_images/toy08.jpg","img/object_images/bottle07.jpg","img/object_images/stereo02.jpg","0","1","1","0","1","0","0.452648999867961","0.481956599745899","0.554483299842104","1","1","1","1","1","1","2","1","1"
"260003","img/object_images/stereo02.jpg","img/object_images/toy08.jpg","img/object_images/keyboard02.jpg","1","0","1","0","0","1","0.554483299842104","0.452648999867961","0.44273139978759","1","1","1","1","1","1","1","2","1"
"260003","img/object_images/keyboard02.jpg","img/object_images/stereo02.jpg","img/object_images/matches02.jpg","1","1","1","1","0","0","0.44273139978759","0.554483299842104","0.60691859992221","1","1","1","1","1","1","1","1","1"
"260003","img/object_images/matches02.jpg","img/object_images/keyboard02.jpg","img/object_images/jacket04.jpg","1","1","1","0","1","0","0.60691859992221","0.44273139978759","0.543144699884579","1","1","1","1","1","1","1","1","1"
"260003","img/object_images/jacket04.jpg","img/object_images/matches02.jpg","img/object_images/kite01.jpg","1","1","1","0","0","1","0.543144699884579","0.60691859992221","0.443576900055632","1","1","1","1","1","1","1","1","1"
"260003","img/object_images/kite01.jpg","img/object_images/jacket04.jpg","img/object_images/car01.jpg","1","1","1","1","0","1","0.443576900055632","0.543144699884579","0.634162100031972","1","1","1","1","1","1","1","1","1"
"260003","img/object_images/car01.jpg","img/object_images/kite01.jpg","img/object_images/knit04.jpg","1","1","1","1","1","1","0.634162100031972","0.443576900055632","0.618527799844742","1","1","1","1","1","1","1","1","1"
"260003","img/object_images/knit04.jpg","img/object_images/car01.jpg","img/object_images/backpack01.jpg","1","1","1","1","1","0","0.618527799844742","0.634162100031972","0.569508000044152","1","1","1","1","1","1","1","1","1"
"260003","img/object_images/backpack01.jpg","img/object_images/knit04.jpg","img/object_images/camera03.jpg","1","1","1","0","1","0","0.569508000044152","0.618527799844742","0.570849199779332","1","1","1","1","1","1","1","1","1"
"260003","img/object_images/camera03.jpg","img/object_images/backpack01.jpg","img/object_images/flashlight03.jpg","1","1","1","0","0","0","0.570849199779332","0.569508000044152","0.474055199883878","1","1","1","1","1","1","1","1","1"
"260003","img/object_images/flashlight03.jpg","img/object_images/camera03.jpg","img/object_images/blender02.jpg","1","1","1","0","0","1","0.474055199883878","0.570849199779332","0.575977899832651","1","1","1","1","1","1","1","1","1"
"260003","img/object_images/blender02.jpg","img/object_images/flashlight03.jpg","img/object_images/remote_controller01.jpg","1","1","1","1","0","1","0.575977899832651","0.474055199883878","0.46749349986203","1","1","1","1","1","1","1","1","1"
"260003","img/object_images/remote_controller01.jpg","img/object_images/blender02.jpg","img/object_images/gloves02.jpg","1","1","1","1","1","0","0.46749349986203","0.575977899832651","0.550980999832973","1","1","1","1","1","1","1","1","1"
"260003","img/object_images/gloves02.jpg","img/object_images/remote_controller01.jpg","img/object_images/boat04.jpg","1","1","1","0","1","0","0.550980999832973","0.46749349986203","0.571745699970052","1","1","1","1","1","1","1","1","1"
"260003","img/object_images/boat04.jpg","img/object_images/gloves02.jpg","img/object_images/sponge03.jpg","1","1","1","0","0","1","0.571745699970052","0.550980999832973","0.472548200050369","1","1","1","1","1","1","1","1","1"
"260003","img/object_images/sponge03.jpg","img/object_images/boat04.jpg",NA,"1","1",NA,"1","0",NA,"0.472548200050369","0.571745699970052",NA,"1","1",NA,"1","1",NA,"1","1",NA
"260003","img/object_images/bean_bag02.jpg",NA,"img/object_images/toaster01.jpg","1",NA,"1","1",NA,"1","0.679865599842742",NA,"0.5127553998027","1",NA,"1","1",NA,"1","1",NA,"1"
"260003","img/object_images/toaster01.jpg","img/object_images/bean_bag02.jpg","img/object_images/pen05.jpg","1","1","1","1","1","0","0.5127553998027","0.679865599842742","0.555584099842235","1","1","1","1","1","1","1","1","1"
"260003","img/object_images/pen05.jpg","img/object_images/toaster01.jpg","img/object_images/purse04.jpg","1","1","1","0","1","1","0.555584099842235","0.5127553998027","0.452308399835602","1","1","1","1","1","1","1","1","1"
"260003","img/object_images/purse04.jpg","img/object_images/pen05.jpg","img/object_images/perfume02.jpg","1","1","1","1","0","0","0.452308399835602","0.555584099842235","0.787872999673709","1","1","1","1","1","1","1","1","1"
"260003","img/object_images/perfume02.jpg","img/object_images/purse04.jpg","img/object_images/boat02.jpg","1","1","1","0","1","1","0.787872999673709","0.452308399835602","0.46046209987253","1","1","1","1","1","1","1","1","1"
"260003","img/object_images/boat02.jpg","img/object_images/perfume02.jpg","img/object_images/hat06.jpg","1","1","0","1","0","0","0.46046209987253","0.787872999673709","0.430506499949843","1","1","1","1","1","1","1","1","1"
"260003","img/object_images/hat06.jpg","img/object_images/boat02.jpg","img/object_images/wagon_cart03.jpg","0","1","1","0","1","1","0.430506499949843","0.46046209987253","0.495568000013009","1","1","1","1","1","1","1","1","1"
"260003","img/object_images/wagon_cart03.jpg","img/object_images/hat06.jpg","img/object_images/hot_air_balloon02.jpg","1","0","1","1","0","0","0.495568000013009","0.430506499949843","0.520609799772501","1","1","1","1","1","1","1","1","1"
"260003","img/object_images/hot_air_balloon02.jpg","img/object_images/wagon_cart03.jpg","img/object_images/water_scooter01.jpg","1","1","1","0","1","1","0.520609799772501","0.495568000013009","0.497223499929532","1","1","1","1","1","1","1","1","1"
"260003","img/object_images/water_scooter01.jpg","img/object_images/hot_air_balloon02.jpg","img/object_images/tie02.jpg","1","1","0","1","0","0","0.497223499929532","0.520609799772501","0.572844399837777","1","1","1","1","1","1","1","1","1"
"260003","img/object_images/tie02.jpg","img/object_images/water_scooter01.jpg","img/object_images/cellphone03.jpg","0","1","1","0","1","0","0.572844399837777","0.497223499929532","0.442285599885508","1","1","1","1","1","1","1","1","1"
"260003","img/object_images/cellphone03.jpg","img/object_images/tie02.jpg","img/object_images/fan02.jpg","1","0","1","0","0","0","0.442285599885508","0.572844399837777","0.500227099750191","1","1","1","1","1","1","1","1","1"
"260003","img/object_images/fan02.jpg","img/object_images/cellphone03.jpg","img/object_images/shoes07.jpg","1","1","1","0","0","0","0.500227099750191","0.442285599885508","0.417422999860719","1","1","1","1","1","1","1","1","1"
"260003","img/object_images/shoes07.jpg","img/object_images/fan02.jpg","img/object_images/coloring_pencil02.jpg","1","1","1","0","0","0","0.417422999860719","0.500227099750191","0.563718099845573","1","1","1","1","1","1","1","1","1"
"260003","img/object_images/coloring_pencil02.jpg","img/object_images/shoes07.jpg","img/object_images/tool19.jpg","1","1","1","0","0","1","0.563718099845573","0.417422999860719","0.559987199958414","1","1","1","1","1","1","1","1","1"
"260003","img/object_images/tool19.jpg","img/object_images/coloring_pencil02.jpg","img/object_images/bottle10.jpg","1","1","1","1","0","1","0.559987199958414","0.563718099845573","0.488987599732354","1","1","1","1","1","1","1","1","1"
"260003","img/object_images/bottle10.jpg","img/object_images/tool19.jpg","img/object_images/flask01.jpg","1","1","1","1","1","0","0.488987599732354","0.559987199958414","0.629432099871337","1","1","1","1","1","1","1","1","1"
"260003","img/object_images/flask01.jpg","img/object_images/bottle10.jpg","img/object_images/scoreboard01.jpg","1","1","1","0","1","1","0.629432099871337","0.488987599732354","0.573728099931031","1","1","1","1","1","1","1","1","1"
"260003","img/object_images/scoreboard01.jpg","img/object_images/flask01.jpg","img/object_images/toilet_paper_dispenser01.jpg","1","1","1","1","0","1","0.573728099931031","0.629432099871337","0.440851399907842","1","1","1","1","1","1","1","1","1"
"260003","img/object_images/toilet_paper_dispenser01.jpg","img/object_images/scoreboard01.jpg","img/object_images/bicycle01.jpg","1","1","1","1","1","1","0.440851399907842","0.573728099931031","0.374718900071457","1","1","1","1","1","1","1","1","1"
"260003","img/object_images/bicycle01.jpg","img/object_images/toilet_paper_dispenser01.jpg","img/object_images/piggy_bank01.jpg","1","1","1","1","1","1","0.374718900071457","0.440851399907842","0.443302699830383","1","1","1","1","1","1","1","1","1"
"260003","img/object_images/piggy_bank01.jpg","img/object_images/bicycle01.jpg","img/object_images/knit01.jpg","1","1","0","1","1","0","0.443302699830383","0.374718900071457","0.554756900062785","1","1","1","1","1","1","1","1","1"
"260003","img/object_images/knit01.jpg","img/object_images/piggy_bank01.jpg","img/object_images/camera_lens01.jpg","0","1","1","0","1","1","0.554756900062785","0.443302699830383","0.510390599956736","1","1","1","1","1","1","1","1","1"
"260003","img/object_images/camera_lens01.jpg","img/object_images/knit01.jpg","img/object_images/bottle02.jpg","1","0","1","1","0","1","0.510390599956736","0.554756900062785","0.475065599894151","1","1","1","1","1","1","1","1","1"
"260003","img/object_images/bottle02.jpg","img/object_images/camera_lens01.jpg","img/object_images/WoodBox01.jpg","1","1","1","1","1","0","0.475065599894151","0.510390599956736","0.509496700018644","1","1","1","1","1","1","1","1","1"
"260003","img/object_images/WoodBox01.jpg","img/object_images/bottle02.jpg","img/object_images/dog_leash01.jpg","1","1","1","0","1","0","0.509496700018644","0.475065599894151","0.602780199842528","1","1","1","1","1","1","1","1","1"
"260003","img/object_images/dog_leash01.jpg","img/object_images/WoodBox01.jpg","img/object_images/chair03.jpg","1","1","1","0","0","0","0.602780199842528","0.509496700018644","0.443348399829119","1","1","1","1","1","1","1","1","1"
"260003","img/object_images/chair03.jpg","img/object_images/dog_leash01.jpg","img/object_images/helmet04.jpg","1","1","1","0","0","1","0.443348399829119","0.602780199842528","0.476728599984199","1","1","1","1","1","1","1","1","1"
"260003","img/object_images/helmet04.jpg","img/object_images/chair03.jpg","img/object_images/boat_toy10.jpg","1","1","1","1","0","0","0.476728599984199","0.443348399829119","0.511279099853709","1","1","1","1","1","1","1","1","1"
"260003","img/object_images/boat_toy10.jpg","img/object_images/helmet04.jpg","img/object_images/audio_port01.jpg","1","1","1","0","1","1","0.511279099853709","0.476728599984199","0.495965499896556","1","1","1","1","1","1","1","1","1"
"260003","img/object_images/audio_port01.jpg","img/object_images/boat_toy10.jpg","img/object_images/bottle09.jpg","1","1","0","1","0","0","0.495965499896556","0.511279099853709","0.383585199946538","1","1","1","1","1","1","1","1","1"
"260003","img/object_images/bottle09.jpg","img/object_images/audio_port01.jpg",NA,"0","1",NA,"0","1",NA,"0.383585199946538","0.495965499896556",NA,"1","1",NA,"1","1",NA,"1","1",NA
"260003","img/object_images/jewel03.jpg",NA,"img/object_images/surf_board01.jpg","1",NA,"1","1",NA,"1","0.595034800004214",NA,"0.479286999907345","1",NA,"1","1",NA,"1","1",NA,"1"
"260003","img/object_images/surf_board01.jpg","img/object_images/jewel03.jpg","img/object_images/lock01.jpg","1","1","1","1","1","0","0.479286999907345","0.595034800004214","0.446579300099984","1","1","1","1","1","1","1","1","1"
"260003","img/object_images/lock01.jpg","img/object_images/surf_board01.jpg","img/object_images/calculator01.jpg","1","1","1","0","1","1","0.446579300099984","0.479286999907345","0.388715799897909","1","1","1","1","1","1","1","1","1"
"260003","img/object_images/calculator01.jpg","img/object_images/lock01.jpg","img/object_images/spatula02.jpg","1","1","1","1","0","1","0.388715799897909","0.446579300099984","0.340905099874362","1","1","1","1","1","1","1","1","1"
"260003","img/object_images/spatula02.jpg","img/object_images/calculator01.jpg","img/object_images/fan04.jpg","1","1","0","1","1","0","0.340905099874362","0.388715799897909","0.413212999934331","1","1","1","1","1","1","1","1","1"
"260003","img/object_images/fan04.jpg","img/object_images/spatula02.jpg","img/object_images/umbrella01.jpg","0","1","1","0","1","0","0.413212999934331","0.340905099874362","0.580578199820593","1","1","1","1","1","1","1","1","1"
"260003","img/object_images/umbrella01.jpg","img/object_images/fan04.jpg","img/object_images/Vest02.jpg","1","0","1","0","0","0","0.580578199820593","0.413212999934331","0.559876299928874","1","1","1","1","1","1","1","1","1"
"260003","img/object_images/Vest02.jpg","img/object_images/umbrella01.jpg","img/object_images/Lint_Roller02.jpg","1","1","1","0","0","0","0.559876299928874","0.580578199820593","0.458223499823362","1","1","1","1","1","1","1","1","1"
"260003","img/object_images/Lint_Roller02.jpg","img/object_images/Vest02.jpg","img/object_images/backpack03.jpg","1","1","1","0","0","1","0.458223499823362","0.559876299928874","0.434518599882722","1","1","1","1","1","1","1","1","1"
"260003","img/object_images/backpack03.jpg","img/object_images/Lint_Roller02.jpg","img/object_images/trash_can05.jpg","1","1","1","1","0","1","0.434518599882722","0.458223499823362","0.35571389994584","1","1","1","1","1","1","1","1","1"
"260003","img/object_images/trash_can05.jpg","img/object_images/backpack03.jpg","img/object_images/accardion01.jpg","1","1","1","1","1","1","0.35571389994584","0.434518599882722","0.34313779999502","1","1","1","1","1","1","1","1","1"
"260003","img/object_images/accardion01.jpg","img/object_images/trash_can05.jpg","img/object_images/hair_dryer01.jpg","1","1","0","1","1","0","0.34313779999502","0.35571389994584","0.574684899998829","1","1","1","1","1","1","1","1","1"
"260003","img/object_images/hair_dryer01.jpg","img/object_images/accardion01.jpg","img/object_images/chess_piece01.jpg","0","1","1","0","1","0","0.574684899998829","0.34313779999502","0.45614039991051","1","1","1","1","1","1","1","1","1"
"260003","img/object_images/chess_piece01.jpg","img/object_images/hair_dryer01.jpg","img/object_images/vase01.jpg","1","0","1","0","0","0","0.45614039991051","0.574684899998829","0.4792673997581","1","1","1","1","1","1","1","1","1"
"260003","img/object_images/vase01.jpg","img/object_images/chess_piece01.jpg","img/object_images/pitcher05.jpg","1","1","1","0","0","0","0.4792673997581","0.45614039991051","0.380888599902391","1","1","1","1","1","1","1","1","1"
"260003","img/object_images/pitcher05.jpg","img/object_images/vase01.jpg","img/object_images/trash_can03.jpg","1","1","1","0","0","1","0.380888599902391","0.4792673997581","0.399390099802986","1","1","1","1","1","1","1","1","1"
"260003","img/object_images/trash_can03.jpg","img/object_images/pitcher05.jpg","img/object_images/laptop01.jpg","1","1","1","1","0","0","0.399390099802986","0.380888599902391","0.407577099977061","1","1","1","1","1","1","1","1","1"
"260003","img/object_images/laptop01.jpg","img/object_images/trash_can03.jpg","img/object_images/ball02.jpg","1","1","1","0","1","1","0.407577099977061","0.399390099802986","0.543705799849704","1","1","1","1","1","1","1","1","1"
"260003","img/object_images/ball02.jpg","img/object_images/laptop01.jpg","img/object_images/hair_brush02.jpg","1","1","1","1","0","0","0.543705799849704","0.407577099977061","0.55455799982883","1","1","1","1","1","1","1","1","1"
"260003","img/object_images/hair_brush02.jpg","img/object_images/ball02.jpg","img/object_images/bucket02.jpg","1","1","1","0","1","1","0.55455799982883","0.543705799849704","0.440947299823165","1","1","1","1","1","1","1","1","1"
"260003","img/object_images/bucket02.jpg","img/object_images/hair_brush02.jpg","img/object_images/robe01.jpg","1","1","1","1","0","1","0.440947299823165","0.55455799982883","0.495793199865147","1","1","1","1","1","1","1","1","1"
"260003","img/object_images/robe01.jpg","img/object_images/bucket02.jpg","img/object_images/towels01.jpg","1","1","1","1","1","0","0.495793199865147","0.440947299823165","0.518175199860707","1","1","1","1","1","1","1","1","1"
"260003","img/object_images/towels01.jpg","img/object_images/robe01.jpg","img/object_images/combs01.jpg","1","1","1","0","1","1","0.518175199860707","0.495793199865147","0.732680599903688","1","1","1","1","1","1","1","1","1"
"260003","img/object_images/combs01.jpg","img/object_images/towels01.jpg","img/object_images/microphone03.jpg","1","1","1","1","0","1","0.732680599903688","0.518175199860707","0.522319899871945","1","1","1","1","1","1","1","1","1"
"260003","img/object_images/microphone03.jpg","img/object_images/combs01.jpg","img/object_images/stove01.jpg","1","1","1","1","1","0","0.522319899871945","0.732680599903688","0.455237299902365","1","1","1","1","1","1","1","1","1"
"260003","img/object_images/stove01.jpg","img/object_images/microphone03.jpg","img/object_images/shoes08.jpg","1","1","1","0","1","1","0.455237299902365","0.522319899871945","0.451435799710453","1","1","1","1","1","1","1","1","1"
"260003","img/object_images/shoes08.jpg","img/object_images/stove01.jpg","img/object_images/gift_box05.jpg","1","1","1","1","0","0","0.451435799710453","0.455237299902365","0.566590199712664","1","1","1","1","1","1","1","1","1"
"260003","img/object_images/gift_box05.jpg","img/object_images/shoes08.jpg","img/object_images/helmet02.jpg","1","1","1","0","1","0","0.566590199712664","0.451435799710453","0.570799699984491","1","1","1","1","1","1","1","1","1"
"260003","img/object_images/helmet02.jpg","img/object_images/gift_box05.jpg","img/object_images/toy05.jpg","1","1","1","0","0","0","0.570799699984491","0.566590199712664","0.490112099796534","1","1","1","1","1","1","1","1","1"
"260003","img/object_images/toy05.jpg","img/object_images/helmet02.jpg","img/object_images/chair02.jpg","1","1","1","0","0","1","0.490112099796534","0.570799699984491","0.470722899772227","1","1","1","1","1","1","1","1","1"
"260003","img/object_images/chair02.jpg","img/object_images/toy05.jpg","img/object_images/laptop03.jpg","1","1","1","1","0","1","0.470722899772227","0.490112099796534","0.378674800042063","1","1","1","1","1","1","1","1","1"
"260003","img/object_images/laptop03.jpg","img/object_images/chair02.jpg",NA,"1","1",NA,"1","1",NA,"0.378674800042063","0.470722899772227",NA,"1","1",NA,"1","1",NA,"1","1",NA
"260003","img/object_images/cellphone01.jpg",NA,"img/object_images/knife04.jpg","1",NA,"1","1",NA,"1","0.709484299877658",NA,"0.480864099925384","1",NA,"1","1",NA,"1","1",NA,"1"
"260003","img/object_images/knife04.jpg","img/object_images/cellphone01.jpg","img/object_images/pitcher01.jpg","1","1","0","1","1","0","0.480864099925384","0.709484299877658","0.391965099843219","1","1","1","1","1","1","1","1","1"
"260003","img/object_images/pitcher01.jpg","img/object_images/knife04.jpg","img/object_images/pillows01.jpg","0","1","1","0","1","1","0.391965099843219","0.480864099925384","0.508855299791321","1","1","1","1","1","1","1","1","1"
"260003","img/object_images/pillows01.jpg","img/object_images/pitcher01.jpg","img/object_images/bell02.jpg","1","0","1","1","0","0","0.508855299791321","0.391965099843219","0.511665499769151","1","1","1","1","1","1","1","1","1"
"260003","img/object_images/bell02.jpg","img/object_images/pillows01.jpg","img/object_images/retainer01.jpg","1","1","0","0","1","0","0.511665499769151","0.508855299791321","0.406832799781114","1","1","1","1","1","1","1","1","1"
"260003","img/object_images/retainer01.jpg","img/object_images/bell02.jpg","img/object_images/microscope01.jpg","0","1","1","0","0","0","0.406832799781114","0.511665499769151","0.731351400027052","1","1","1","1","1","1","1","1","1"
"260003","img/object_images/microscope01.jpg","img/object_images/retainer01.jpg","img/object_images/floppy_disk03.jpg","1","0","1","0","0","1","0.731351400027052","0.406832799781114","0.580853499937803","1","1","1","1","1","1","1","1","1"
"260003","img/object_images/floppy_disk03.jpg","img/object_images/microscope01.jpg","img/object_images/bottle01.jpg","1","1","1","1","0","0","0.580853499937803","0.731351400027052","0.478056999854743","1","1","1","1","1","1","1","1","1"
"260003","img/object_images/bottle01.jpg","img/object_images/floppy_disk03.jpg","img/object_images/hammer03.jpg","1","1","1","0","1","1","0.478056999854743","0.580853499937803","0.402487799990922","1","1","1","1","1","1","1","1","1"
"260003","img/object_images/hammer03.jpg","img/object_images/bottle01.jpg","img/object_images/paint_brush04.jpg","1","1","1","1","0","0","0.402487799990922","0.478056999854743","0.607997499871999","1","1","1","1","1","1","1","1","1"
"260003","img/object_images/paint_brush04.jpg","img/object_images/hammer03.jpg","img/object_images/Oven01.jpg","1","1","1","0","1","1","0.607997499871999","0.402487799990922","0.471357499714941","1","1","1","1","1","1","1","1","1"
"260003","img/object_images/Oven01.jpg","img/object_images/paint_brush04.jpg","img/object_images/floppy_disk02.jpg","1","1","0","1","0","0","0.471357499714941","0.607997499871999","0.526012199930847","1","1","1","1","1","1","1","1","1"
"260003","img/object_images/floppy_disk02.jpg","img/object_images/Oven01.jpg","img/object_images/compass01.jpg","0","1","1","0","1","1","0.526012199930847","0.471357499714941","0.453110599890351","1","1","1","1","1","1","1","1","1"
"260003","img/object_images/compass01.jpg","img/object_images/floppy_disk02.jpg","img/object_images/note_book01.jpg","1","0","1","1","0","0","0.453110599890351","0.526012199930847","0.489955399883911","1","1","1","1","1","1","1","1","1"
"260003","img/object_images/note_book01.jpg","img/object_images/compass01.jpg","img/object_images/knit05.jpg","1","1","1","0","1","1","0.489955399883911","0.453110599890351","0.434730099746957","1","1","1","1","1","1","1","1","1"
"260003","img/object_images/knit05.jpg","img/object_images/note_book01.jpg","img/object_images/tv02.jpg","1","1","0","1","0","0","0.434730099746957","0.489955399883911","0.422379999887198","1","1","1","1","1","1","1","1","1"
"260003","img/object_images/tv02.jpg","img/object_images/knit05.jpg","img/object_images/clip03.jpg","0","1","1","0","1","0","0.422379999887198","0.434730099746957","0.977069899905473","1","1","1","1","1","1","1","1","1"
"260003","img/object_images/clip03.jpg","img/object_images/tv02.jpg","img/object_images/usb02.jpg","1","0","1","0","0","0","0.977069899905473","0.422379999887198","0.622096799779683","1","1","1","1","1","1","1","1","1"
"260003","img/object_images/usb02.jpg","img/object_images/clip03.jpg","img/object_images/chess_piece02.jpg","1","1","1","0","0","1","0.622096799779683","0.977069899905473","0.472659299848601","1","1","1","1","1","1","1","1","1"
"260003","img/object_images/chess_piece02.jpg","img/object_images/usb02.jpg","img/object_images/wire02.jpg","1","1","1","1","0","1","0.472659299848601","0.622096799779683","0.366987499874085","1","1","1","1","1","1","1","1","1"
"260003","img/object_images/wire02.jpg","img/object_images/chess_piece02.jpg","img/object_images/ear_bud01.jpg","1","1","1","1","1","1","0.366987499874085","0.472659299848601","0.436052999924868","1","1","1","1","1","1","1","1","1"
"260003","img/object_images/ear_bud01.jpg","img/object_images/wire02.jpg","img/object_images/Staples01.jpg","1","1","1","1","1","1","0.436052999924868","0.366987499874085","0.524520099861547","1","1","1","1","1","1","1","1","1"
"260003","img/object_images/Staples01.jpg","img/object_images/ear_bud01.jpg","img/object_images/crutches02.jpg","1","1","0","1","1","0","0.524520099861547","0.436052999924868","0.67793729994446","1","1","1","1","1","1","1","1","1"
"260003","img/object_images/crutches02.jpg","img/object_images/Staples01.jpg","img/object_images/clock02.jpg","0","1","1","0","1","0","0.67793729994446","0.524520099861547","0.598389699822292","1","1","1","1","1","1","1","1","1"
"260003","img/object_images/clock02.jpg","img/object_images/crutches02.jpg","img/object_images/Thermometer01.jpg","1","0","1","0","0","0","0.598389699822292","0.67793729994446","0.456131299957633","1","1","1","1","1","1","1","1","1"
"260003","img/object_images/Thermometer01.jpg","img/object_images/clock02.jpg","img/object_images/pen03.jpg","1","1","0","0","0","0","0.456131299957633","0.598389699822292","0.469331600004807","1","1","1","1","1","1","1","1","1"
"260003","img/object_images/pen03.jpg","img/object_images/Thermometer01.jpg","img/object_images/book03.jpg","0","1","1","0","0","1","0.469331600004807","0.456131299957633","0.436436999822035","1","1","1","1","1","1","1","1","1"
"260003","img/object_images/book03.jpg","img/object_images/pen03.jpg","img/object_images/lid01.jpg","1","0","1","1","0","1","0.436436999822035","0.469331600004807","0.458688999991864","1","1","1","1","1","1","1","1","1"
"260003","img/object_images/lid01.jpg","img/object_images/book03.jpg","img/object_images/chair05.jpg","1","1","1","1","1","0","0.458688999991864","0.436436999822035","0.548538999864832","1","1","1","1","1","1","1","1","1"
"260003","img/object_images/chair05.jpg","img/object_images/lid01.jpg","img/object_images/tennis_racket02.jpg","1","1","1","0","1","1","0.548538999864832","0.458688999991864","0.530246800044551","1","1","1","1","1","1","1","1","1"
"260003","img/object_images/tennis_racket02.jpg","img/object_images/chair05.jpg","img/object_images/motorcycle01.jpg","1","1","1","1","0","1","0.530246800044551","0.548538999864832","0.430798499844968","1","1","1","1","1","1","1","1","1"
"260003","img/object_images/motorcycle01.jpg","img/object_images/tennis_racket02.jpg",NA,"1","1",NA,"1","1",NA,"0.430798499844968","0.530246800044551",NA,"1","1",NA,"1","1",NA,"1","1",NA
"260003","img/object_images/pan01.jpg",NA,"img/object_images/gift_box04.jpg","1",NA,"0","1",NA,"0","0.58628989988938",NA,"0.530073399888352","1",NA,"1","1",NA,"1","1",NA,"1"
"260003","img/object_images/gift_box04.jpg","img/object_images/pan01.jpg","img/object_images/ring03.jpg","0","1","1","0","1","1","0.530073399888352","0.58628989988938","0.426172699779272","1","1","1","1","1","1","1","1","1"
"260003","img/object_images/ring03.jpg","img/object_images/gift_box04.jpg","img/object_images/bicycle_lock01.jpg","1","0","0","1","0","0","0.426172699779272","0.530073399888352","0.414888199884444","1","1","1","1","1","1","1","1","1"
"260003","img/object_images/bicycle_lock01.jpg","img/object_images/ring03.jpg","img/object_images/Sprayer01.jpg","0","1","1","0","1","0","0.414888199884444","0.426172699779272","0.61274389969185","1","1","1","1","1","1","1","1","1"
"260003","img/object_images/Sprayer01.jpg","img/object_images/bicycle_lock01.jpg","img/object_images/book01.jpg","1","0","1","0","0","1","0.61274389969185","0.414888199884444","0.390206399839371","1","1","1","1","1","1","1","1","1"
"260003","img/object_images/book01.jpg","img/object_images/Sprayer01.jpg","img/object_images/faucet01.jpg","1","1","0","1","0","0","0.390206399839371","0.61274389969185","0.332741899881512","1","1","1","1","1","1","1","1","1"
"260003","img/object_images/faucet01.jpg","img/object_images/book01.jpg","img/object_images/handcuffs01.jpg","0","1","1","0","1","0","0.332741899881512","0.390206399839371","0.504007099894807","1","1","1","1","1","1","1","1","1"
"260003","img/object_images/handcuffs01.jpg","img/object_images/faucet01.jpg","img/object_images/tool07.jpg","1","0","1","0","0","0","0.504007099894807","0.332741899881512","0.430815599858761","1","1","1","1","1","1","1","1","1"
"260003","img/object_images/tool07.jpg","img/object_images/handcuffs01.jpg","img/object_images/speaker01.jpg","1","1","1","0","0","1","0.430815599858761","0.504007099894807","0.519894699798897","1","1","1","1","1","1","1","1","1"
"260003","img/object_images/speaker01.jpg","img/object_images/tool07.jpg","img/object_images/basket02.jpg","1","1","1","1","0","0","0.519894699798897","0.430815599858761","0.541815599892288","1","1","1","1","1","1","1","1","1"
"260003","img/object_images/basket02.jpg","img/object_images/speaker01.jpg","img/object_images/exfoliater_brush01.jpg","1","1","1","0","1","0","0.541815599892288","0.519894699798897","0.504275199957192","1","1","1","1","1","1","1","1","1"
"260003","img/object_images/exfoliater_brush01.jpg","img/object_images/basket02.jpg","img/object_images/Pottery01.jpg","1","1","1","0","0","0","0.504275199957192","0.541815599892288","0.414998899912462","1","1","1","1","1","1","1","1","1"
"260003","img/object_images/Pottery01.jpg","img/object_images/exfoliater_brush01.jpg","img/object_images/glasses07.jpg","1","1","1","0","0","1","0.414998899912462","0.504275199957192","0.431333599844947","1","1","1","1","1","1","1","1","1"
"260003","img/object_images/glasses07.jpg","img/object_images/Pottery01.jpg","img/object_images/Kitchen_Towel.jpg","1","1","1","1","0","0","0.431333599844947","0.414998899912462","0.429077199893072","1","1","1","1","1","1","1","1","1"
"260003","img/object_images/Kitchen_Towel.jpg","img/object_images/glasses07.jpg","img/object_images/cup03.jpg","1","1","1","0","1","1","0.429077199893072","0.431333599844947","0.420623999787495","1","1","1","1","1","1","1","1","1"
"260003","img/object_images/cup03.jpg","img/object_images/Kitchen_Towel.jpg","img/object_images/purse01.jpg","1","1","1","1","0","1","0.420623999787495","0.429077199893072","0.367057899944484","1","1","1","1","1","1","1","1","1"
"260003","img/object_images/purse01.jpg","img/object_images/cup03.jpg","img/object_images/yo_yo01.jpg","1","1","0","1","1","0","0.367057899944484","0.420623999787495","0.527036499930546","1","1","1","1","1","1","1","1","1"
"260003","img/object_images/yo_yo01.jpg","img/object_images/purse01.jpg","img/object_images/hole_puncher01.jpg","0","1","1","0","1","1","0.527036499930546","0.367057899944484","0.407336399890482","1","1","1","1","1","1","1","1","1"
"260003","img/object_images/hole_puncher01.jpg","img/object_images/yo_yo01.jpg","img/object_images/hair_clips01.jpg","1","0","1","1","0","1","0.407336399890482","0.527036499930546","0.422644699923694","1","1","1","1","1","1","1","1","1"
"260003","img/object_images/hair_clips01.jpg","img/object_images/hole_puncher01.jpg","img/object_images/blanket01.jpg","1","1","1","1","1","1","0.422644699923694","0.407336399890482","0.384565100073814","1","1","1","1","1","1","1","1","1"
"260003","img/object_images/blanket01.jpg","img/object_images/hair_clips01.jpg","img/object_images/lighter01.jpg","1","1","1","1","1","1","0.384565100073814","0.422644699923694","0.342579299816862","1","1","1","1","1","1","1","1","1"
"260003","img/object_images/lighter01.jpg","img/object_images/blanket01.jpg","img/object_images/cellphone02.jpg","1","1","1","1","1","1","0.342579299816862","0.384565100073814","0.458937299903482","1","1","1","1","1","1","1","1","1"
"260003","img/object_images/cellphone02.jpg","img/object_images/lighter01.jpg","img/object_images/fire_extinguisher01.jpg","1","1","0","1","1","0","0.458937299903482","0.342579299816862","0.388451399747282","1","1","1","1","1","1","1","1","1"
"260003","img/object_images/fire_extinguisher01.jpg","img/object_images/cellphone02.jpg","img/object_images/TrashCan02.jpg","0","1","1","0","1","1","0.388451399747282","0.458937299903482","0.442185599822551","1","1","1","1","1","1","1","1","1"
"260003","img/object_images/TrashCan02.jpg","img/object_images/fire_extinguisher01.jpg","img/object_images/tool08.jpg","1","0","1","1","0","0","0.442185599822551","0.388451399747282","0.557778999675065","1","1","1","1","1","1","1","1","1"
"260003","img/object_images/tool08.jpg","img/object_images/TrashCan02.jpg","img/object_images/projector01.jpg","1","1","1","0","1","0","0.557778999675065","0.442185599822551","0.506507599726319","1","1","1","1","1","1","1","1","1"
"260003","img/object_images/projector01.jpg","img/object_images/tool08.jpg","img/object_images/Traffic Sign 01.jpg","1","1","1","0","0","0","0.506507599726319","0.557778999675065","0.506890699733049","1","1","1","1","1","1","1","1","1"
"260003","img/object_images/Traffic Sign 01.jpg","img/object_images/projector01.jpg","img/object_images/tray01.jpg","1","1","1","0","0","1","0.506890699733049","0.506507599726319","0.44600179977715","1","1","1","1","1","1","1","1","1"
"260003","img/object_images/tray01.jpg","img/object_images/Traffic Sign 01.jpg","img/object_images/colander01.jpg","1","1","1","1","0","0","0.44600179977715","0.506890699733049","0.58166589983739","1","1","1","1","1","1","1","1","1"
"260003","img/object_images/colander01.jpg","img/object_images/tray01.jpg","img/object_images/jewelry09.jpg","1","1","1","0","1","1","0.58166589983739","0.44600179977715","0.618912099860609","1","1","1","1","1","1","1","1","1"
"260003","img/object_images/jewelry09.jpg","img/object_images/colander01.jpg","img/object_images/glasses06.jpg","1","1","1","1","0","1","0.618912099860609","0.58166589983739","0.463071699719876","1","1","1","1","1","1","1","1","1"
"260003","img/object_images/glasses06.jpg","img/object_images/jewelry09.jpg",NA,"1","1",NA,"1","1",NA,"0.463071699719876","0.618912099860609",NA,"1","1",NA,"1","1",NA,"1","1",NA
"260003","img/object_images/Woopie01.jpg",NA,"img/object_images/cochlear_implant01.jpg","1",NA,"0","1",NA,"0","0.608306499896571",NA,"0.387363199843094","1",NA,"1","1",NA,"1","1",NA,"1"
"260003","img/object_images/cochlear_implant01.jpg","img/object_images/Woopie01.jpg","img/object_images/gloves05.jpg","0","1","1","0","1","1","0.387363199843094","0.608306499896571","0.458255399717018","1","1","1","1","1","1","1","1","1"
"260003","img/object_images/gloves05.jpg","img/object_images/cochlear_implant01.jpg","img/object_images/Wisk01.jpg","1","0","1","1","0","1","0.458255399717018","0.387363199843094","0.397162399953231","1","1","1","1","1","1","1","1","1"
"260003","img/object_images/Wisk01.jpg","img/object_images/gloves05.jpg","img/object_images/pitcher03.jpg","1","1","1","1","1","1","0.397162399953231","0.458255399717018","0.469895799877122","1","1","1","1","1","1","1","1","1"
"260003","img/object_images/pitcher03.jpg","img/object_images/Wisk01.jpg","img/object_images/razor03.jpg","1","1","1","1","1","0","0.469895799877122","0.397162399953231","0.478430799907073","1","1","1","1","1","1","1","1","1"
"260003","img/object_images/razor03.jpg","img/object_images/pitcher03.jpg","img/object_images/helmet05.jpg","1","1","1","0","1","1","0.478430799907073","0.469895799877122","0.437128599965945","1","1","1","1","1","1","1","1","1"
"260003","img/object_images/helmet05.jpg","img/object_images/razor03.jpg","img/object_images/lantern01.jpg","1","1","1","1","0","1","0.437128599965945","0.478430799907073","0.40899319993332","1","1","1","1","1","1","1","1","1"
"260003","img/object_images/lantern01.jpg","img/object_images/helmet05.jpg","img/object_images/video_game06.jpg","1","1","1","1","1","0","0.40899319993332","0.437128599965945","0.507819499820471","1","1","1","1","1","1","1","1","1"
"260003","img/object_images/video_game06.jpg","img/object_images/lantern01.jpg","img/object_images/decorative02.jpg","1","1","1","0","1","0","0.507819499820471","0.40899319993332","0.506971099879593","1","1","1","1","1","1","1","1","1"
"260003","img/object_images/decorative02.jpg","img/object_images/video_game06.jpg","img/object_images/ball01.jpg","1","1","1","0","0","1","0.506971099879593","0.507819499820471","0.461985900066793","1","1","1","1","1","1","1","1","1"
"260003","img/object_images/ball01.jpg","img/object_images/decorative02.jpg","img/object_images/broom01.jpg","1","1","1","1","0","1","0.461985900066793","0.506971099879593","0.421537399757653","1","1","1","1","1","1","1","1","1"
"260003","img/object_images/broom01.jpg","img/object_images/ball01.jpg","img/object_images/bottle12.jpg","1","1","1","1","1","1","0.421537399757653","0.461985900066793","0.555709599750116","1","1","1","1","1","1","1","1","1"
"260003","img/object_images/bottle12.jpg","img/object_images/broom01.jpg","img/object_images/basketball_hoop02.jpg","1","1","1","1","1","0","0.555709599750116","0.421537399757653","0.508243499789387","1","1","1","1","1","1","1","1","1"
"260003","img/object_images/basketball_hoop02.jpg","img/object_images/bottle12.jpg","img/object_images/airfryer01.jpg","1","1","1","0","1","0","0.508243499789387","0.555709599750116","0.552343099843711","1","1","1","1","1","1","1","1","1"
"260003","img/object_images/airfryer01.jpg","img/object_images/basketball_hoop02.jpg","img/object_images/container01.jpg","1","1","1","0","0","0","0.552343099843711","0.508243499789387","0.498506400035694","1","1","1","1","1","1","1","1","1"
"260003","img/object_images/container01.jpg","img/object_images/airfryer01.jpg","img/object_images/couch04.jpg","1","1","1","0","0","1","0.498506400035694","0.552343099843711","0.510635499842465","1","1","1","1","1","1","1","1","1"
"260003","img/object_images/couch04.jpg","img/object_images/container01.jpg","img/object_images/drone02.jpg","1","1","1","1","0","0","0.510635499842465","0.498506400035694","0.466390199959278","1","1","1","1","1","1","1","1","1"
"260003","img/object_images/drone02.jpg","img/object_images/couch04.jpg","img/object_images/Recycling01.jpg","1","1","1","0","1","1","0.466390199959278","0.510635499842465","0.42922079982236","1","1","1","1","1","1","1","1","1"
"260003","img/object_images/Recycling01.jpg","img/object_images/drone02.jpg","img/object_images/tie01.jpg","1","1","1","1","0","0","0.42922079982236","0.466390199959278","0.521925499895588","1","1","1","1","1","1","1","1","1"
"260003","img/object_images/tie01.jpg","img/object_images/Recycling01.jpg","img/object_images/pot01.jpg","1","1","1","0","1","0","0.521925499895588","0.42922079982236","0.414872399996966","1","1","1","1","1","1","1","1","1"
"260003","img/object_images/pot01.jpg","img/object_images/tie01.jpg","img/object_images/toilet_paper01.jpg","1","1","1","0","0","1","0.414872399996966","0.521925499895588","0.413896800018847","1","1","1","1","1","1","1","1","1"
"260003","img/object_images/toilet_paper01.jpg","img/object_images/pot01.jpg","img/object_images/chair01.jpg","1","1","1","1","0","0","0.413896800018847","0.414872399996966","0.446502099977806","1","1","1","1","1","1","1","1","1"
"260003","img/object_images/chair01.jpg","img/object_images/toilet_paper01.jpg","img/object_images/brief_case01.jpg","1","1","1","0","1","0","0.446502099977806","0.413896800018847","0.450024999910966","1","1","1","1","1","1","1","1","1"
"260003","img/object_images/brief_case01.jpg","img/object_images/chair01.jpg","img/object_images/toy_train02.jpg","1","1","1","0","0","1","0.450024999910966","0.446502099977806","0.421005499782041","1","1","1","1","1","1","1","1","1"
"260003","img/object_images/toy_train02.jpg","img/object_images/brief_case01.jpg","img/object_images/ironing_table02.jpg","1","1","1","1","0","0","0.421005499782041","0.450024999910966","0.459453499875963","1","1","1","1","1","1","1","1","1"
"260003","img/object_images/ironing_table02.jpg","img/object_images/toy_train02.jpg","img/object_images/lamp01.jpg","1","1","1","0","1","1","0.459453499875963","0.421005499782041","0.376796199940145","1","1","1","1","1","1","1","1","1"
"260003","img/object_images/lamp01.jpg","img/object_images/ironing_table02.jpg","img/object_images/car02.jpg","1","1","0","1","0","0","0.376796199940145","0.459453499875963","0.452449099859223","1","1","1","1","1","1","1","1","1"
"260003","img/object_images/car02.jpg","img/object_images/lamp01.jpg","img/object_images/soap01.jpg","0","1","0","0","1","0","0.452449099859223","0.376796199940145","0.543155599851161","1","1","1","1","1","1","1","1","1"
"260003","img/object_images/soap01.jpg","img/object_images/car02.jpg","img/object_images/brief_case02.jpg","0","0","1","0","0","1","0.543155599851161","0.452449099859223","0.437203499721363","1","1","1","1","1","1","1","1","1"
"260003","img/object_images/brief_case02.jpg","img/object_images/soap01.jpg","img/object_images/guitar01.jpg","1","0","1","1","0","1","0.437203499721363","0.543155599851161","0.412943299859762","1","1","1","1","1","1","1","1","1"
"260003","img/object_images/guitar01.jpg","img/object_images/brief_case02.jpg","img/object_images/hat02.jpg","1","1","1","1","1","0","0.412943299859762","0.437203499721363","0.505593999987468","1","1","1","1","1","1","1","1","1"
"260003","img/object_images/hat02.jpg","img/object_images/guitar01.jpg",NA,"1","1",NA,"0","1",NA,"0.505593999987468","0.412943299859762",NA,"1","1",NA,"1","1",NA,"1","1",NA
"260003","img/object_images/bow_tie01.jpg",NA,"img/object_images/couch03.jpg","1",NA,"1","0",NA,"0","0.560294199734926",NA,"0.513072100002319","1",NA,"1","1",NA,"1","1",NA,"1"
"260003","img/object_images/couch03.jpg","img/object_images/bow_tie01.jpg","img/object_images/wallet02.jpg","1","1","1","0","0","1","0.513072100002319","0.560294199734926","0.429172100033611","1","1","1","1","1","1","1","1","1"
"260003","img/object_images/wallet02.jpg","img/object_images/couch03.jpg","img/object_images/golf_ball03.jpg","1","1","1","1","0","1","0.429172100033611","0.513072100002319","0.432096000062302","1","1","1","1","1","1","1","1","1"
"260003","img/object_images/golf_ball03.jpg","img/object_images/wallet02.jpg","img/object_images/paper_cup01.jpg","1","1","1","1","1","0","0.432096000062302","0.429172100033611","0.64547049975954","1","1","1","1","1","1","1","1","1"
"260003","img/object_images/paper_cup01.jpg","img/object_images/golf_ball03.jpg","img/object_images/lock04.jpg","1","1","1","0","1","1","0.64547049975954","0.432096000062302","0.424210999859497","1","1","1","1","1","1","1","1","1"
"260003","img/object_images/lock04.jpg","img/object_images/paper_cup01.jpg","img/object_images/pitcher02.jpg","1","1","1","1","0","1","0.424210999859497","0.64547049975954","0.383404199965298","1","1","1","1","1","1","1","1","1"
"260003","img/object_images/pitcher02.jpg","img/object_images/lock04.jpg","img/object_images/socks02.jpg","1","1","0","1","1","0","0.383404199965298","0.424210999859497","0.410635099979118","1","1","1","1","1","1","1","1","1"
"260003","img/object_images/socks02.jpg","img/object_images/pitcher02.jpg","img/object_images/sleeping_bag01.jpg","0","1","0","0","1","0","0.410635099979118","0.383404199965298","0.503978299675509","1","1","1","1","1","1","1","1","1"
"260003","img/object_images/sleeping_bag01.jpg","img/object_images/socks02.jpg","img/object_images/coloring_pencil01.jpg","0","0","1","0","0","1","0.503978299675509","0.410635099979118","0.458037300035357","1","1","1","1","1","1","1","1","1"
"260003","img/object_images/coloring_pencil01.jpg","img/object_images/sleeping_bag01.jpg","img/object_images/bow_tie02.jpg","1","0","1","1","0","0","0.458037300035357","0.503978299675509","0.712258199928328","1","1","1","1","1","1","1","1","1"
"260003","img/object_images/bow_tie02.jpg","img/object_images/coloring_pencil01.jpg","img/object_images/gift_box02.jpg","1","1","1","0","1","1","0.712258199928328","0.458037300035357","0.455151499947533","1","1","1","1","1","1","1","1","1"
"260003","img/object_images/gift_box02.jpg","img/object_images/bow_tie02.jpg","img/object_images/balloon01.jpg","1","1","1","1","0","0","0.455151499947533","0.712258199928328","0.707675199955702","1","1","1","1","1","1","1","1","1"
"260003","img/object_images/balloon01.jpg","img/object_images/gift_box02.jpg","img/object_images/Witchhat01.jpg","1","1","1","0","1","1","0.707675199955702","0.455151499947533","0.475452599814162","1","1","1","1","1","1","1","1","1"
"260003","img/object_images/Witchhat01.jpg","img/object_images/balloon01.jpg","img/object_images/gift_box01.jpg","1","1","1","1","0","1","0.475452599814162","0.707675199955702","0.496690399711952","1","1","1","1","1","1","1","1","1"
"260003","img/object_images/gift_box01.jpg","img/object_images/Witchhat01.jpg","img/object_images/vga_port 01.jpg","1","1","1","1","1","0","0.496690399711952","0.475452599814162","0.706318499753252","1","1","1","1","1","1","1","1","1"
"260003","img/object_images/vga_port 01.jpg","img/object_images/gift_box01.jpg","img/object_images/jacket03.jpg","1","1","1","0","1","0","0.706318499753252","0.496690399711952","0.754187699873","1","1","1","1","1","1","1","1","1"
"260003","img/object_images/jacket03.jpg","img/object_images/vga_port 01.jpg","img/object_images/funnel01.jpg","1","1","1","0","0","0","0.754187699873","0.706318499753252","0.441657399991527","1","1","1","1","1","1","1","1","1"
"260003","img/object_images/funnel01.jpg","img/object_images/jacket03.jpg","img/object_images/jewelry01.jpg","1","1","1","0","0","1","0.441657399991527","0.754187699873","0.434266799828038","1","1","1","1","1","1","1","1","1"
"260003","img/object_images/jewelry01.jpg","img/object_images/funnel01.jpg","img/object_images/grater01.jpg","1","1","1","1","0","1","0.434266799828038","0.441657399991527","0.628134199883789","1","1","1","1","1","1","1","1","1"
"260003","img/object_images/grater01.jpg","img/object_images/jewelry01.jpg","img/object_images/lawn_mower01.jpg","1","1","1","1","1","1","0.628134199883789","0.434266799828038","0.51441719988361","1","1","1","1","1","1","1","1","1"
"260003","img/object_images/lawn_mower01.jpg","img/object_images/grater01.jpg","img/object_images/camera07.jpg","1","1","1","1","1","1","0.51441719988361","0.628134199883789","0.406527000013739","1","1","1","1","1","1","1","1","1"
"260003","img/object_images/camera07.jpg","img/object_images/lawn_mower01.jpg","img/object_images/measuring_tape02.jpg","1","1","1","1","1","1","0.406527000013739","0.51441719988361","0.368936500046402","1","1","1","1","1","1","1","1","1"
"260003","img/object_images/measuring_tape02.jpg","img/object_images/camera07.jpg","img/object_images/clip02.jpg","1","1","1","1","1","1","0.368936500046402","0.406527000013739","0.643856499809772","1","1","1","1","1","1","1","1","1"
"260003","img/object_images/clip02.jpg","img/object_images/measuring_tape02.jpg","img/object_images/gift_box03.jpg","1","1","0","1","1","0","0.643856499809772","0.368936500046402","0.683494599768892","1","1","1","1","1","1","1","1","1"
"260003","img/object_images/gift_box03.jpg","img/object_images/clip02.jpg","img/object_images/bath_tub01.jpg","0","1","1","0","1","0","0.683494599768892","0.643856499809772","0.567775100003928","1","1","1","1","1","1","1","1","1"
"260003","img/object_images/bath_tub01.jpg","img/object_images/gift_box03.jpg","img/object_images/Screws01.jpg","1","0","1","0","0","1","0.567775100003928","0.683494599768892","0.417730799876154","1","1","1","1","1","1","1","1","1"
"260003","img/object_images/Screws01.jpg","img/object_images/bath_tub01.jpg","img/object_images/dresser04.jpg","1","1","0","1","0","0","0.417730799876154","0.567775100003928","0.49232399999164","1","1","1","1","1","1","1","1","1"
"260003","img/object_images/dresser04.jpg","img/object_images/Screws01.jpg","img/object_images/hammer01.jpg","0","1","1","0","1","0","0.49232399999164","0.417730799876154","0.540063599823043","1","1","1","1","1","1","1","1","1"
"260003","img/object_images/hammer01.jpg","img/object_images/dresser04.jpg","img/object_images/ironing_table01.jpg","1","0","1","0","0","0","0.540063599823043","0.49232399999164","0.543905499856919","1","1","1","1","1","1","1","1","1"
"260003","img/object_images/ironing_table01.jpg","img/object_images/hammer01.jpg","img/object_images/fork03.jpg","1","1","1","0","0","1","0.543905499856919","0.540063599823043","0.494728699792176","1","1","1","1","1","1","1","1","1"
"260003","img/object_images/fork03.jpg","img/object_images/ironing_table01.jpg","img/object_images/handkerchief01.jpg","1","1","0","1","0","0","0.494728699792176","0.543905499856919","0.762443999759853","1","1","1","1","1","1","1","1","1"
"260003","img/object_images/handkerchief01.jpg","img/object_images/fork03.jpg",NA,"0","1",NA,"0","1",NA,"0.762443999759853","0.494728699792176",NA,"1","1",NA,"1","1",NA,"1","1",NA
