"participant_id","current_trial_object","pre_trial_object","post_trial_object","current_trial_accuracy","pre_trial_accuracy","post_trial_accuracy","current_trial_congruency","pre_trial_congruency","post_trial_congruency","current_trial_rt","pre_trial_rt","post_trial_rt","current_trial_responded","pre_trial_responded","post_trial_responded","current_trial_legitResponse","pre_trial_legitResponse","post_trial_legitResponse","current_trial_resp_nums","pre_trial_resp_nums","post_trial_resp_nums"
"260072","img/object_images/ironing_table01.jpg",NA,"img/object_images/coloring_pencil01.jpg","1",NA,"1","0",NA,"1","0.772932099993341",NA,"0.621265599998878","1",NA,"1","1",NA,"1","1",NA,"1"
"260072","img/object_images/coloring_pencil01.jpg","img/object_images/ironing_table01.jpg","img/object_images/grater01.jpg","1","1","1","1","0","1","0.621265599998878","0.772932099993341","0.487793200009037","1","1","1","1","1","1","1","1","1"
"260072","img/object_images/grater01.jpg","img/object_images/coloring_pencil01.jpg","img/object_images/Screws01.jpg","1","1","1","1","1","1","0.487793200009037","0.621265599998878","0.600924200000009","1","1","1","1","1","1","1","1","1"
"260072","img/object_images/Screws01.jpg","img/object_images/grater01.jpg","img/object_images/gift_box03.jpg","1","1","1","1","1","0","0.600924200000009","0.487793200009037","0.770041799987666","1","1","1","1","1","1","1","1","1"
"260072","img/object_images/gift_box03.jpg","img/object_images/Screws01.jpg","img/object_images/bath_tub01.jpg","1","1","1","0","1","0","0.770041799987666","0.600924200000009","0.87656020000577","1","1","1","1","1","1","1","1","1"
"260072","img/object_images/bath_tub01.jpg","img/object_images/gift_box03.jpg","img/object_images/funnel01.jpg","1","1","1","0","0","0","0.87656020000577","0.770041799987666","0.720293399994262","1","1","1","1","1","1","1","1","1"
"260072","img/object_images/funnel01.jpg","img/object_images/bath_tub01.jpg","img/object_images/wallet02.jpg","1","1","1","0","0","1","0.720293399994262","0.87656020000577","0.541612400003942","1","1","1","1","1","1","1","1","1"
"260072","img/object_images/wallet02.jpg","img/object_images/funnel01.jpg","img/object_images/fork03.jpg","1","1","1","1","0","1","0.541612400003942","0.720293399994262","0.633803000004264","1","1","1","1","1","1","1","1","1"
"260072","img/object_images/fork03.jpg","img/object_images/wallet02.jpg","img/object_images/vga_port 01.jpg","1","1","0","1","1","0","0.633803000004264","0.541612400003942","0.764426200010348","1","1","1","1","1","1","1","1","1"
"260072","img/object_images/vga_port 01.jpg","img/object_images/fork03.jpg","img/object_images/lock04.jpg","0","1","1","0","1","1","0.764426200010348","0.633803000004264","0.592178199993214","1","1","1","1","1","1","1","1","1"
"260072","img/object_images/lock04.jpg","img/object_images/vga_port 01.jpg","img/object_images/socks02.jpg","1","0","1","1","0","0","0.592178199993214","0.764426200010348","0.522763899993151","1","1","1","1","1","1","1","1","1"
"260072","img/object_images/socks02.jpg","img/object_images/lock04.jpg","img/object_images/dresser04.jpg","1","1","1","0","1","0","0.522763899993151","0.592178199993214","0.721528299996862","1","1","1","1","1","1","1","1","1"
"260072","img/object_images/dresser04.jpg","img/object_images/socks02.jpg","img/object_images/paper_cup01.jpg","1","1","1","0","0","0","0.721528299996862","0.522763899993151","0.548558500013314","1","1","1","1","1","1","1","1","1"
"260072","img/object_images/paper_cup01.jpg","img/object_images/dresser04.jpg","img/object_images/jewelry01.jpg","1","1","1","0","0","1","0.548558500013314","0.721528299996862","0.691782499983674","1","1","1","1","1","1","1","1","1"
"260072","img/object_images/jewelry01.jpg","img/object_images/paper_cup01.jpg","img/object_images/golf_ball03.jpg","1","1","1","1","0","1","0.691782499983674","0.548558500013314","0.689260599989211","1","1","1","1","1","1","1","1","1"
"260072","img/object_images/golf_ball03.jpg","img/object_images/jewelry01.jpg","img/object_images/lawn_mower01.jpg","1","1","1","1","1","1","0.689260599989211","0.691782499983674","0.671346899995115","1","1","1","1","1","1","1","1","1"
"260072","img/object_images/lawn_mower01.jpg","img/object_images/golf_ball03.jpg","img/object_images/gift_box02.jpg","1","1","1","1","1","1","0.671346899995115","0.689260599989211","0.750283400004264","1","1","1","1","1","1","1","1","1"
"260072","img/object_images/gift_box02.jpg","img/object_images/lawn_mower01.jpg","img/object_images/clip02.jpg","1","1","1","1","1","1","0.750283400004264","0.671346899995115","0.582294899999397","1","1","1","1","1","1","1","1","1"
"260072","img/object_images/clip02.jpg","img/object_images/gift_box02.jpg","img/object_images/bow_tie01.jpg","1","1","1","1","1","0","0.582294899999397","0.750283400004264","0.574664399988251","1","1","1","1","1","1","1","1","1"
"260072","img/object_images/bow_tie01.jpg","img/object_images/clip02.jpg","img/object_images/gift_box01.jpg","1","1","1","0","1","1","0.574664399988251","0.582294899999397","0.509584999992512","1","1","1","1","1","1","1","1","1"
"260072","img/object_images/gift_box01.jpg","img/object_images/bow_tie01.jpg","img/object_images/couch03.jpg","1","1","1","1","0","0","0.509584999992512","0.574664399988251","0.614268600009382","1","1","1","1","1","1","1","1","1"
"260072","img/object_images/couch03.jpg","img/object_images/gift_box01.jpg","img/object_images/bow_tie02.jpg","1","1","1","0","1","0","0.614268600009382","0.509584999992512","0.815311900019879","1","1","1","1","1","1","1","1","1"
"260072","img/object_images/bow_tie02.jpg","img/object_images/couch03.jpg","img/object_images/measuring_tape02.jpg","1","1","1","0","0","1","0.815311900019879","0.614268600009382","0.594932000007248","1","1","1","1","1","1","1","1","1"
"260072","img/object_images/measuring_tape02.jpg","img/object_images/bow_tie02.jpg","img/object_images/sleeping_bag01.jpg","1","1","1","1","0","0","0.594932000007248","0.815311900019879","0.669797699985793","1","1","1","1","1","1","1","1","1"
"260072","img/object_images/sleeping_bag01.jpg","img/object_images/measuring_tape02.jpg","img/object_images/camera07.jpg","1","1","1","0","1","1","0.669797699985793","0.594932000007248","0.762356199993519","1","1","1","1","1","1","1","1","1"
"260072","img/object_images/camera07.jpg","img/object_images/sleeping_bag01.jpg","img/object_images/balloon01.jpg","1","1","1","1","0","0","0.762356199993519","0.669797699985793","0.588158400001703","1","1","1","1","1","1","1","1","1"
"260072","img/object_images/balloon01.jpg","img/object_images/camera07.jpg","img/object_images/jacket03.jpg","1","1","1","0","1","0","0.588158400001703","0.762356199993519","0.575591000000713","1","1","1","1","1","1","1","1","1"
"260072","img/object_images/jacket03.jpg","img/object_images/balloon01.jpg","img/object_images/pitcher02.jpg","1","1","1","0","0","1","0.575591000000713","0.588158400001703","0.508029999997234","1","1","1","1","1","1","1","1","1"
"260072","img/object_images/pitcher02.jpg","img/object_images/jacket03.jpg","img/object_images/Witchhat01.jpg","1","1","1","1","0","1","0.508029999997234","0.575591000000713","0.535219500015955","1","1","1","1","1","1","1","1","1"
"260072","img/object_images/Witchhat01.jpg","img/object_images/pitcher02.jpg","img/object_images/handkerchief01.jpg","1","1","1","1","1","0","0.535219500015955","0.508029999997234","0.622636599990074","1","1","1","1","1","1","1","1","1"
"260072","img/object_images/handkerchief01.jpg","img/object_images/Witchhat01.jpg","img/object_images/hammer01.jpg","1","1","1","0","1","0","0.622636599990074","0.535219500015955","0.67644269997254","1","1","1","1","1","1","1","1","1"
"260072","img/object_images/hammer01.jpg","img/object_images/handkerchief01.jpg",NA,"1","1",NA,"0","0",NA,"0.67644269997254","0.622636599990074",NA,"1","1",NA,"1","1",NA,"1","1",NA
"260072","img/object_images/TrashCan02.jpg",NA,"img/object_images/speaker01.jpg","1",NA,"1","1",NA,"1","0.47991669998737",NA,"0.481853999983286","1",NA,"1","1",NA,"1","1",NA,"1"
"260072","img/object_images/speaker01.jpg","img/object_images/TrashCan02.jpg","img/object_images/jewelry09.jpg","1","1","1","1","1","1","0.481853999983286","0.47991669998737","0.443710099993041","1","1","1","1","1","1","1","1","1"
"260072","img/object_images/jewelry09.jpg","img/object_images/speaker01.jpg","img/object_images/projector01.jpg","1","1","1","1","1","0","0.443710099993041","0.481853999983286","0.512264099990716","1","1","1","1","1","1","1","1","1"
"260072","img/object_images/projector01.jpg","img/object_images/jewelry09.jpg","img/object_images/hole_puncher01.jpg","1","1","1","0","1","1","0.512264099990716","0.443710099993041","0.37455979999504","1","1","1","1","1","1","1","1","1"
"260072","img/object_images/hole_puncher01.jpg","img/object_images/projector01.jpg","img/object_images/ring03.jpg","1","1","1","1","0","1","0.37455979999504","0.512264099990716","0.317334099992877","1","1","1","1","1","1","1","1","1"
"260072","img/object_images/ring03.jpg","img/object_images/hole_puncher01.jpg","img/object_images/Kitchen_Towel.jpg","1","1","1","1","1","0","0.317334099992877","0.37455979999504","0.521285000024363","1","1","1","1","1","1","1","1","1"
"260072","img/object_images/Kitchen_Towel.jpg","img/object_images/ring03.jpg","img/object_images/Traffic Sign 01.jpg","1","1","1","0","1","0","0.521285000024363","0.317334099992877","0.521919199993135","1","1","1","1","1","1","1","1","1"
"260072","img/object_images/Traffic Sign 01.jpg","img/object_images/Kitchen_Towel.jpg","img/object_images/handcuffs01.jpg","1","1","1","0","0","0","0.521919199993135","0.521285000024363","0.499471399991307","1","1","1","1","1","1","1","1","1"
"260072","img/object_images/handcuffs01.jpg","img/object_images/Traffic Sign 01.jpg","img/object_images/book01.jpg","1","1","1","0","0","1","0.499471399991307","0.521919199993135","0.457058300002245","1","1","1","1","1","1","1","1","1"
"260072","img/object_images/book01.jpg","img/object_images/handcuffs01.jpg","img/object_images/Pottery01.jpg","1","1","1","1","0","0","0.457058300002245","0.499471399991307","0.53155909999623","1","1","1","1","1","1","1","1","1"
"260072","img/object_images/Pottery01.jpg","img/object_images/book01.jpg","img/object_images/glasses07.jpg","1","1","1","0","1","1","0.53155909999623","0.457058300002245","0.55599799999618","1","1","1","1","1","1","1","1","1"
"260072","img/object_images/glasses07.jpg","img/object_images/Pottery01.jpg","img/object_images/cellphone02.jpg","1","1","1","1","0","1","0.55599799999618","0.53155909999623","0.37626319998526","1","1","1","1","1","1","1","1","1"
"260072","img/object_images/cellphone02.jpg","img/object_images/glasses07.jpg","img/object_images/bicycle_lock01.jpg","1","1","1","1","1","0","0.37626319998526","0.55599799999618","0.485741900018184","1","1","1","1","1","1","1","1","1"
"260072","img/object_images/bicycle_lock01.jpg","img/object_images/cellphone02.jpg","img/object_images/lighter01.jpg","1","1","1","0","1","1","0.485741900018184","0.37626319998526","0.403182699985337","1","1","1","1","1","1","1","1","1"
"260072","img/object_images/lighter01.jpg","img/object_images/bicycle_lock01.jpg","img/object_images/tool07.jpg","1","1","1","1","0","0","0.403182699985337","0.485741900018184","0.363823399995454","1","1","1","1","1","1","1","1","1"
"260072","img/object_images/tool07.jpg","img/object_images/lighter01.jpg","img/object_images/gift_box04.jpg","1","1","0","0","1","0","0.363823399995454","0.403182699985337","0.452619400020922","1","1","1","1","1","1","1","1","1"
"260072","img/object_images/gift_box04.jpg","img/object_images/tool07.jpg","img/object_images/purse01.jpg","0","1","1","0","0","1","0.452619400020922","0.363823399995454","0.291644499986432","1","1","1","1","1","1","1","1","1"
"260072","img/object_images/purse01.jpg","img/object_images/gift_box04.jpg","img/object_images/basket02.jpg","1","0","1","1","0","0","0.291644499986432","0.452619400020922","0.45723529998213","1","1","1","1","1","1","1","1","1"
"260072","img/object_images/basket02.jpg","img/object_images/purse01.jpg","img/object_images/glasses06.jpg","1","1","1","0","1","1","0.45723529998213","0.291644499986432","0.39520359999733","1","1","1","1","1","1","1","1","1"
"260072","img/object_images/glasses06.jpg","img/object_images/basket02.jpg","img/object_images/tool08.jpg","1","1","1","1","0","0","0.39520359999733","0.45723529998213","0.525278499990236","1","1","1","1","1","1","1","1","1"
"260072","img/object_images/tool08.jpg","img/object_images/glasses06.jpg","img/object_images/tray01.jpg","1","1","1","0","1","1","0.525278499990236","0.39520359999733","0.382835299998987","1","1","1","1","1","1","1","1","1"
"260072","img/object_images/tray01.jpg","img/object_images/tool08.jpg","img/object_images/blanket01.jpg","1","1","1","1","0","1","0.382835299998987","0.525278499990236","0.365812300005928","1","1","1","1","1","1","1","1","1"
"260072","img/object_images/blanket01.jpg","img/object_images/tray01.jpg","img/object_images/Sprayer01.jpg","1","1","1","1","1","0","0.365812300005928","0.382835299998987","0.347997400007444","1","1","1","1","1","1","1","1","1"
"260072","img/object_images/Sprayer01.jpg","img/object_images/blanket01.jpg","img/object_images/yo_yo01.jpg","1","1","1","0","1","0","0.347997400007444","0.365812300005928","0.396437299990794","1","1","1","1","1","1","1","1","1"
"260072","img/object_images/yo_yo01.jpg","img/object_images/Sprayer01.jpg","img/object_images/pan01.jpg","1","1","1","0","0","1","0.396437299990794","0.347997400007444","0.308855800016318","1","1","1","1","1","1","1","1","1"
"260072","img/object_images/pan01.jpg","img/object_images/yo_yo01.jpg","img/object_images/fire_extinguisher01.jpg","1","1","0","1","0","0","0.308855800016318","0.396437299990794","0.310897599993041","1","1","1","1","1","1","1","1","1"
"260072","img/object_images/fire_extinguisher01.jpg","img/object_images/pan01.jpg","img/object_images/cup03.jpg","0","1","1","0","1","1","0.310897599993041","0.308855800016318","0.39584549999563","1","1","1","1","1","1","1","1","1"
"260072","img/object_images/cup03.jpg","img/object_images/fire_extinguisher01.jpg","img/object_images/colander01.jpg","1","0","1","1","0","0","0.39584549999563","0.310897599993041","0.56184390000999","1","1","1","1","1","1","1","1","1"
"260072","img/object_images/colander01.jpg","img/object_images/cup03.jpg","img/object_images/faucet01.jpg","1","1","0","0","1","0","0.56184390000999","0.39584549999563","0.352181299997028","1","1","1","1","1","1","1","1","1"
"260072","img/object_images/faucet01.jpg","img/object_images/colander01.jpg","img/object_images/hair_clips01.jpg","0","1","1","0","0","1","0.352181299997028","0.56184390000999","0.487204600009136","1","1","1","1","1","1","1","1","1"
"260072","img/object_images/hair_clips01.jpg","img/object_images/faucet01.jpg","img/object_images/exfoliater_brush01.jpg","1","0","1","1","0","0","0.487204600009136","0.352181299997028","0.451840599998832","1","1","1","1","1","1","1","1","1"
"260072","img/object_images/exfoliater_brush01.jpg","img/object_images/hair_clips01.jpg",NA,"1","1",NA,"0","1",NA,"0.451840599998832","0.487204600009136",NA,"1","1",NA,"1","1",NA,"1","1",NA
"260072","img/object_images/tennis_racket02.jpg",NA,"img/object_images/microscope01.jpg","1",NA,"0","1",NA,"0","0.47883149998961",NA,"0.476561200019205","1",NA,"1","1",NA,"1","1",NA,"1"
"260072","img/object_images/microscope01.jpg","img/object_images/tennis_racket02.jpg","img/object_images/bottle01.jpg","0","1","0","0","1","0","0.476561200019205","0.47883149998961","0.448966099997051","1","1","1","1","1","1","1","1","2"
"260072","img/object_images/bottle01.jpg","img/object_images/microscope01.jpg","img/object_images/Staples01.jpg","0","0","1","0","0","1","0.448966099997051","0.476561200019205","0.455547999998089","1","1","1","1","1","1","2","1","1"
"260072","img/object_images/Staples01.jpg","img/object_images/bottle01.jpg","img/object_images/wire02.jpg","1","0","1","1","0","1","0.455547999998089","0.448966099997051","0.398032400000375","1","1","1","1","1","1","1","2","1"
"260072","img/object_images/wire02.jpg","img/object_images/Staples01.jpg","img/object_images/tv02.jpg","1","1","1","1","1","0","0.398032400000375","0.455547999998089","0.502092300012009","1","1","1","1","1","1","1","1","1"
"260072","img/object_images/tv02.jpg","img/object_images/wire02.jpg","img/object_images/motorcycle01.jpg","1","1","1","0","1","1","0.502092300012009","0.398032400000375","0.423791299981531","1","1","1","1","1","1","1","1","1"
"260072","img/object_images/motorcycle01.jpg","img/object_images/tv02.jpg","img/object_images/paint_brush04.jpg","1","1","1","1","0","0","0.423791299981531","0.502092300012009","0.444182200008072","1","1","1","1","1","1","1","1","1"
"260072","img/object_images/paint_brush04.jpg","img/object_images/motorcycle01.jpg","img/object_images/crutches02.jpg","1","1","1","0","1","0","0.444182200008072","0.423791299981531","0.432703200000105","1","1","1","1","1","1","1","1","1"
"260072","img/object_images/crutches02.jpg","img/object_images/paint_brush04.jpg","img/object_images/note_book01.jpg","1","1","1","0","0","0","0.432703200000105","0.444182200008072","0.421891600009985","1","1","1","1","1","1","1","1","1"
"260072","img/object_images/note_book01.jpg","img/object_images/crutches02.jpg","img/object_images/knife04.jpg","1","1","1","0","0","1","0.421891600009985","0.432703200000105","0.445845699985512","1","1","1","1","1","1","1","1","1"
"260072","img/object_images/knife04.jpg","img/object_images/note_book01.jpg","img/object_images/usb02.jpg","1","1","1","1","0","0","0.445845699985512","0.421891600009985","0.522969999990892","1","1","1","1","1","1","1","1","1"
"260072","img/object_images/usb02.jpg","img/object_images/knife04.jpg","img/object_images/bell02.jpg","1","1","0","0","1","0","0.522969999990892","0.445845699985512","0.414192699972773","1","1","1","1","1","1","1","1","1"
"260072","img/object_images/bell02.jpg","img/object_images/usb02.jpg","img/object_images/Oven01.jpg","0","1","1","0","0","1","0.414192699972773","0.522969999990892","0.485906499990961","1","1","1","1","1","1","1","1","1"
"260072","img/object_images/Oven01.jpg","img/object_images/bell02.jpg","img/object_images/lid01.jpg","1","0","1","1","0","1","0.485906499990961","0.414192699972773","0.432931699993787","1","1","1","1","1","1","1","1","1"
"260072","img/object_images/lid01.jpg","img/object_images/Oven01.jpg","img/object_images/book03.jpg","1","1","1","1","1","1","0.432931699993787","0.485906499990961","0.43589960000827","1","1","1","1","1","1","1","1","1"
"260072","img/object_images/book03.jpg","img/object_images/lid01.jpg","img/object_images/clock02.jpg","1","1","0","1","1","0","0.43589960000827","0.432931699993787","0.415866900002584","1","1","1","1","1","1","1","1","2"
"260072","img/object_images/clock02.jpg","img/object_images/book03.jpg","img/object_images/ear_bud01.jpg","0","1","1","0","1","1","0.415866900002584","0.43589960000827","0.464890599978389","1","1","1","1","1","1","2","1","1"
"260072","img/object_images/ear_bud01.jpg","img/object_images/clock02.jpg","img/object_images/knit05.jpg","1","0","1","1","0","1","0.464890599978389","0.415866900002584","0.458096199989086","1","1","1","1","1","1","1","2","1"
"260072","img/object_images/knit05.jpg","img/object_images/ear_bud01.jpg","img/object_images/compass01.jpg","1","1","1","1","1","1","0.458096199989086","0.464890599978389","0.417572599981213","1","1","1","1","1","1","1","1","1"
"260072","img/object_images/compass01.jpg","img/object_images/knit05.jpg","img/object_images/chair05.jpg","1","1","0","1","1","0","0.417572599981213","0.458096199989086","0.26057209999999","1","1","1","1","1","1","1","1","1"
"260072","img/object_images/chair05.jpg","img/object_images/compass01.jpg","img/object_images/clip03.jpg","0","1","0","0","1","0","0.26057209999999","0.417572599981213","0.338035599997966","1","1","1","1","1","1","1","1","1"
"260072","img/object_images/clip03.jpg","img/object_images/chair05.jpg","img/object_images/hammer03.jpg","0","0","1","0","0","1","0.338035599997966","0.26057209999999","0.50837200001115","1","1","1","1","1","1","1","1","1"
"260072","img/object_images/hammer03.jpg","img/object_images/clip03.jpg","img/object_images/cellphone01.jpg","1","0","1","1","0","1","0.50837200001115","0.338035599997966","0.441216199978953","1","1","1","1","1","1","1","1","1"
"260072","img/object_images/cellphone01.jpg","img/object_images/hammer03.jpg","img/object_images/pen03.jpg","1","1","0","1","1","0","0.441216199978953","0.50837200001115","0.414836000010837","1","1","1","1","1","1","1","1","1"
"260072","img/object_images/pen03.jpg","img/object_images/cellphone01.jpg","img/object_images/floppy_disk03.jpg","0","1","1","0","1","1","0.414836000010837","0.441216199978953","0.479915899981279","1","1","1","1","1","1","1","1","1"
"260072","img/object_images/floppy_disk03.jpg","img/object_images/pen03.jpg","img/object_images/chess_piece02.jpg","1","0","1","1","0","1","0.479915899981279","0.414836000010837","0.479450099985115","1","1","1","1","1","1","1","1","1"
"260072","img/object_images/chess_piece02.jpg","img/object_images/floppy_disk03.jpg","img/object_images/pillows01.jpg","1","1","1","1","1","1","0.479450099985115","0.479915899981279","0.400075100013055","1","1","1","1","1","1","1","1","1"
"260072","img/object_images/pillows01.jpg","img/object_images/chess_piece02.jpg","img/object_images/retainer01.jpg","1","1","1","1","1","0","0.400075100013055","0.479450099985115","0.52015759999631","1","1","1","1","1","1","1","1","1"
"260072","img/object_images/retainer01.jpg","img/object_images/pillows01.jpg","img/object_images/Thermometer01.jpg","1","1","1","0","1","0","0.52015759999631","0.400075100013055","0.483520100009628","1","1","1","1","1","1","1","1","1"
"260072","img/object_images/Thermometer01.jpg","img/object_images/retainer01.jpg","img/object_images/pitcher01.jpg","1","1","0","0","0","0","0.483520100009628","0.52015759999631","0.389654699974926","1","1","1","1","1","1","1","1","1"
"260072","img/object_images/pitcher01.jpg","img/object_images/Thermometer01.jpg","img/object_images/floppy_disk02.jpg","0","1","0","0","0","0","0.389654699974926","0.483520100009628","0.294168299995363","1","1","1","1","1","1","1","1","1"
"260072","img/object_images/floppy_disk02.jpg","img/object_images/pitcher01.jpg",NA,"0","0",NA,"0","0",NA,"0.294168299995363","0.389654699974926",NA,"1","1",NA,"1","1",NA,"1","1",NA
"260072","img/object_images/MeasuringCup01.jpg",NA,"img/object_images/fan05.jpg","1",NA,"1","1",NA,"0","0.823710099997697",NA,"0.738207399990642","1",NA,"1","1",NA,"1","1",NA,"1"
"260072","img/object_images/fan05.jpg","img/object_images/MeasuringCup01.jpg","img/object_images/yarn02.jpg","1","1","1","0","1","0","0.738207399990642","0.823710099997697","0.535378599975957","1","1","1","1","1","1","1","1","1"
"260072","img/object_images/yarn02.jpg","img/object_images/fan05.jpg","img/object_images/bag06.jpg","1","1","1","0","0","1","0.535378599975957","0.738207399990642","0.478581100003794","1","1","1","1","1","1","1","1","1"
"260072","img/object_images/bag06.jpg","img/object_images/yarn02.jpg","img/object_images/binoculars03.jpg","1","1","1","1","0","1","0.478581100003794","0.535378599975957","0.390767799981404","1","1","1","1","1","1","1","1","1"
"260072","img/object_images/binoculars03.jpg","img/object_images/bag06.jpg","img/object_images/dress03.jpg","1","1","1","1","1","1","0.390767799981404","0.478581100003794","0.374216600001091","1","1","1","1","1","1","1","1","1"
"260072","img/object_images/dress03.jpg","img/object_images/binoculars03.jpg","img/object_images/shoes10.jpg","1","1","1","1","1","0","0.374216600001091","0.390767799981404","0.44617399998242","1","1","1","1","1","1","1","1","1"
"260072","img/object_images/shoes10.jpg","img/object_images/dress03.jpg","img/object_images/satellite01.jpg","1","1","1","0","1","0","0.44617399998242","0.374216600001091","0.506684799998766","1","1","1","1","1","1","1","1","1"
"260072","img/object_images/satellite01.jpg","img/object_images/shoes10.jpg","img/object_images/ladle02.jpg","1","1","1","0","0","0","0.506684799998766","0.44617399998242","0.431075800006511","1","1","1","1","1","1","1","1","1"
"260072","img/object_images/ladle02.jpg","img/object_images/satellite01.jpg","img/object_images/shower_head03.jpg","1","1","1","0","0","1","0.431075800006511","0.506684799998766","0.470253500010585","1","1","1","1","1","1","1","1","1"
"260072","img/object_images/shower_head03.jpg","img/object_images/ladle02.jpg","img/object_images/rock03.jpg","1","1","1","1","0","0","0.470253500010585","0.431075800006511","0.437408400001004","1","1","1","1","1","1","1","1","1"
"260072","img/object_images/rock03.jpg","img/object_images/shower_head03.jpg","img/object_images/screwdriver01.jpg","1","1","1","0","1","0","0.437408400001004","0.470253500010585","0.561763499979861","1","1","1","1","1","1","1","1","1"
"260072","img/object_images/screwdriver01.jpg","img/object_images/rock03.jpg","img/object_images/cutting_board01.jpg","1","1","1","0","0","1","0.561763499979861","0.437408400001004","0.372571499989135","1","1","1","1","1","1","1","1","1"
"260072","img/object_images/cutting_board01.jpg","img/object_images/screwdriver01.jpg","img/object_images/jewelry07.jpg","1","1","1","1","0","1","0.372571499989135","0.561763499979861","0.442611000005854","1","1","1","1","1","1","1","1","1"
"260072","img/object_images/jewelry07.jpg","img/object_images/cutting_board01.jpg","img/object_images/cards01.jpg","1","1","0","1","1","0","0.442611000005854","0.372571499989135","0.422160999994958","1","1","1","1","1","1","1","1","1"
"260072","img/object_images/cards01.jpg","img/object_images/jewelry07.jpg","img/object_images/tv01.jpg","0","1","1","0","1","0","0.422160999994958","0.442611000005854","0.620936699997401","1","1","1","1","1","1","1","1","1"
"260072","img/object_images/tv01.jpg","img/object_images/cards01.jpg","img/object_images/lemon_squeezer02.jpg","1","0","1","0","0","1","0.620936699997401","0.422160999994958","0.425155100005213","1","1","1","1","1","1","1","1","1"
"260072","img/object_images/lemon_squeezer02.jpg","img/object_images/tv01.jpg","img/object_images/ice_tray03.jpg","1","1","1","1","0","1","0.425155100005213","0.620936699997401","0.319422000000486","1","1","1","1","1","1","1","1","1"
"260072","img/object_images/ice_tray03.jpg","img/object_images/lemon_squeezer02.jpg","img/object_images/hair_brush05.jpg","1","1","1","1","1","1","0.319422000000486","0.425155100005213","0.438726399996085","1","1","1","1","1","1","1","1","1"
"260072","img/object_images/hair_brush05.jpg","img/object_images/ice_tray03.jpg","img/object_images/belt01.jpg","1","1","1","1","1","0","0.438726399996085","0.319422000000486","0.517902899999171","1","1","1","1","1","1","1","1","1"
"260072","img/object_images/belt01.jpg","img/object_images/hair_brush05.jpg","img/object_images/slinky_toy01.jpg","1","1","1","0","1","1","0.517902899999171","0.438726399996085","0.511170899990248","1","1","1","1","1","1","1","1","1"
"260072","img/object_images/slinky_toy01.jpg","img/object_images/belt01.jpg","img/object_images/WitchHat02.jpg","1","1","1","1","0","1","0.511170899990248","0.517902899999171","0.419246599980397","1","1","1","1","1","1","1","1","1"
"260072","img/object_images/WitchHat02.jpg","img/object_images/slinky_toy01.jpg","img/object_images/car04.jpg","1","1","1","1","1","0","0.419246599980397","0.511170899990248","0.605312500003492","1","1","1","1","1","1","1","1","1"
"260072","img/object_images/car04.jpg","img/object_images/WitchHat02.jpg","img/object_images/razor01.jpg","1","1","1","0","1","0","0.605312500003492","0.419246599980397","0.439598299999489","1","1","1","1","1","1","1","1","1"
"260072","img/object_images/razor01.jpg","img/object_images/car04.jpg","img/object_images/key02.jpg","1","1","1","0","0","1","0.439598299999489","0.605312500003492","0.384094600012759","1","1","1","1","1","1","1","1","1"
"260072","img/object_images/key02.jpg","img/object_images/razor01.jpg","img/object_images/mask01.jpg","1","1","0","1","0","0","0.384094600012759","0.439598299999489","0.370689200004563","1","1","1","1","1","1","1","1","1"
"260072","img/object_images/mask01.jpg","img/object_images/key02.jpg","img/object_images/chair04.jpg","0","1","1","0","1","1","0.370689200004563","0.384094600012759","0.422858600009931","1","1","1","1","1","1","1","1","1"
"260072","img/object_images/chair04.jpg","img/object_images/mask01.jpg","img/object_images/tool11.jpg","1","0","1","1","0","1","0.422858600009931","0.370689200004563","0.524607600003947","1","1","1","1","1","1","1","1","1"
"260072","img/object_images/tool11.jpg","img/object_images/chair04.jpg","img/object_images/toaster02.jpg","1","1","1","1","1","1","0.524607600003947","0.422858600009931","0.506649699993432","1","1","1","1","1","1","1","1","1"
"260072","img/object_images/toaster02.jpg","img/object_images/tool11.jpg","img/object_images/car03.jpg","1","1","1","1","1","0","0.506649699993432","0.524607600003947","0.474353900004644","1","1","1","1","1","1","1","1","1"
"260072","img/object_images/car03.jpg","img/object_images/toaster02.jpg","img/object_images/jewel01.jpg","1","1","1","0","1","0","0.474353900004644","0.506649699993432","0.516343700001016","1","1","1","1","1","1","1","1","1"
"260072","img/object_images/jewel01.jpg","img/object_images/car03.jpg","img/object_images/ribbon01.jpg","1","1","1","0","0","0","0.516343700001016","0.474353900004644","0.424173499981407","1","1","1","1","1","1","1","1","1"
"260072","img/object_images/ribbon01.jpg","img/object_images/jewel01.jpg",NA,"1","1",NA,"0","0",NA,"0.424173499981407","0.516343700001016",NA,"1","1",NA,"1","1",NA,"1","1",NA
"260072","img/object_images/shovel03.jpg",NA,"img/object_images/stapler.jpg","1",NA,"1","1",NA,"1","0.542261099995812",NA,"0.450963499984937","1",NA,"1","1",NA,"1","1",NA,"1"
"260072","img/object_images/stapler.jpg","img/object_images/shovel03.jpg","img/object_images/bow01.jpg","1","1","1","1","1","1","0.450963499984937","0.542261099995812","0.361817199969664","1","1","1","1","1","1","1","1","1"
"260072","img/object_images/bow01.jpg","img/object_images/stapler.jpg","img/object_images/jewel04.jpg","1","1","1","1","1","0","0.361817199969664","0.450963499984937","0.266888400015887","1","1","1","1","1","1","1","1","1"
"260072","img/object_images/jewel04.jpg","img/object_images/bow01.jpg","img/object_images/fridge03.jpg","1","1","1","0","1","0","0.266888400015887","0.361817199969664","0.467375900014304","1","1","1","1","1","1","1","1","1"
"260072","img/object_images/fridge03.jpg","img/object_images/jewel04.jpg","img/object_images/video_game07.jpg","1","1","1","0","0","1","0.467375900014304","0.266888400015887","0.447018300008494","1","1","1","1","1","1","1","1","1"
"260072","img/object_images/video_game07.jpg","img/object_images/fridge03.jpg","img/object_images/Stool01.jpg","1","1","1","1","0","0","0.447018300008494","0.467375900014304","0.541014499991434","1","1","1","1","1","1","1","1","1"
"260072","img/object_images/Stool01.jpg","img/object_images/video_game07.jpg","img/object_images/toy03.jpg","1","1","1","0","1","1","0.541014499991434","0.447018300008494","0.416912199987564","1","1","1","1","1","1","1","1","1"
"260072","img/object_images/toy03.jpg","img/object_images/Stool01.jpg","img/object_images/MetalWire01.jpg","1","1","1","1","0","0","0.416912199987564","0.541014499991434","0.446425600006478","1","1","1","1","1","1","1","1","1"
"260072","img/object_images/MetalWire01.jpg","img/object_images/toy03.jpg","img/object_images/acoustic_capo01.jpg","1","1","1","0","1","1","0.446425600006478","0.416912199987564","0.400948900001822","1","1","1","1","1","1","1","1","1"
"260072","img/object_images/acoustic_capo01.jpg","img/object_images/MetalWire01.jpg","img/object_images/tool02.jpg","1","1","1","1","0","1","0.400948900001822","0.446425600006478","0.330143999977736","1","1","1","1","1","1","1","1","1"
"260072","img/object_images/tool02.jpg","img/object_images/acoustic_capo01.jpg","img/object_images/Tin01.jpg","1","1","1","1","1","1","0.330143999977736","0.400948900001822","0.488532899995335","1","1","1","1","1","1","1","1","1"
"260072","img/object_images/Tin01.jpg","img/object_images/tool02.jpg","img/object_images/toy04.jpg","1","1","1","1","1","0","0.488532899995335","0.330143999977736","0.494199000007939","1","1","1","1","1","1","1","1","1"
"260072","img/object_images/toy04.jpg","img/object_images/Tin01.jpg","img/object_images/frisbee01.jpg","1","1","1","0","1","1","0.494199000007939","0.488532899995335","0.35570590000134","1","1","1","1","1","1","1","1","1"
"260072","img/object_images/frisbee01.jpg","img/object_images/toy04.jpg","img/object_images/gauze01.jpg","1","1","1","1","0","0","0.35570590000134","0.494199000007939","0.479244900023332","1","1","1","1","1","1","1","1","1"
"260072","img/object_images/gauze01.jpg","img/object_images/frisbee01.jpg","img/object_images/bird_house02.jpg","1","1","1","0","1","1","0.479244900023332","0.35570590000134","0.323928199970396","1","1","1","1","1","1","1","1","1"
"260072","img/object_images/bird_house02.jpg","img/object_images/gauze01.jpg","img/object_images/ornament01.jpg","1","1","1","1","0","1","0.323928199970396","0.479244900023332","0.401330299995607","1","1","1","1","1","1","1","1","1"
"260072","img/object_images/ornament01.jpg","img/object_images/bird_house02.jpg","img/object_images/guitar02.jpg","1","1","1","1","1","0","0.401330299995607","0.323928199970396","0.490570599999046","1","1","1","1","1","1","1","1","1"
"260072","img/object_images/guitar02.jpg","img/object_images/ornament01.jpg","img/object_images/outlet01.jpg","1","1","1","0","1","0","0.490570599999046","0.401330299995607","0.390246900002239","1","1","1","1","1","1","1","1","1"
"260072","img/object_images/outlet01.jpg","img/object_images/guitar02.jpg","img/object_images/judge_gavel01.jpg","1","1","1","0","0","1","0.390246900002239","0.490570599999046","0.367095900001004","1","1","1","1","1","1","1","1","1"
"260072","img/object_images/judge_gavel01.jpg","img/object_images/outlet01.jpg","img/object_images/sink01.jpg","1","1","1","1","0","0","0.367095900001004","0.390246900002239","0.503290399996331","1","1","1","1","1","1","1","1","1"
"260072","img/object_images/sink01.jpg","img/object_images/judge_gavel01.jpg","img/object_images/bottle05.jpg","1","1","1","0","1","0","0.503290399996331","0.367095900001004","0.548333700018702","1","1","1","1","1","1","1","1","1"
"260072","img/object_images/bottle05.jpg","img/object_images/sink01.jpg","img/object_images/dart01.jpg","1","1","0","0","0","0","0.548333700018702","0.503290399996331","0.370440999977291","1","1","1","1","1","1","1","1","1"
"260072","img/object_images/dart01.jpg","img/object_images/bottle05.jpg","img/object_images/helmet01.jpg","0","1","1","0","0","0","0.370440999977291","0.548333700018702","0.553935900010401","1","1","1","1","1","1","1","1","2"
"260072","img/object_images/helmet01.jpg","img/object_images/dart01.jpg","img/object_images/watch01.jpg","1","0","1","0","0","0","0.553935900010401","0.370440999977291","0.60025270000915","1","1","1","1","1","1","2","1","1"
"260072","img/object_images/watch01.jpg","img/object_images/helmet01.jpg","img/object_images/Vacuum01.jpg","1","1","1","0","0","0","0.60025270000915","0.553935900010401","0.530372200009879","1","1","1","1","1","1","1","2","1"
"260072","img/object_images/Vacuum01.jpg","img/object_images/watch01.jpg","img/object_images/pot01 (1).jpg","1","1","1","0","0","0","0.530372200009879","0.60025270000915","0.535386799980188","1","1","1","1","1","1","1","1","1"
"260072","img/object_images/pot01 (1).jpg","img/object_images/Vacuum01.jpg","img/object_images/Ring02.jpg","1","1","1","0","0","0","0.535386799980188","0.530372200009879","0.516309800004819","1","1","1","1","1","1","1","1","1"
"260072","img/object_images/Ring02.jpg","img/object_images/pot01 (1).jpg","img/object_images/towel02.jpg","1","1","1","0","0","1","0.516309800004819","0.535386799980188","0.402409399976023","1","1","1","1","1","1","1","1","1"
"260072","img/object_images/towel02.jpg","img/object_images/Ring02.jpg","img/object_images/crown02.jpg","1","1","1","1","0","1","0.402409399976023","0.516309800004819","0.432000299973879","1","1","1","1","1","1","1","1","1"
"260072","img/object_images/crown02.jpg","img/object_images/towel02.jpg","img/object_images/mirror01.jpg","1","1","1","1","1","1","0.432000299973879","0.402409399976023","0.473787199996878","1","1","1","1","1","1","1","1","1"
"260072","img/object_images/mirror01.jpg","img/object_images/crown02.jpg","img/object_images/tool09.jpg","1","1","1","1","1","1","0.473787199996878","0.432000299973879","0.304078699991805","1","1","1","1","1","1","1","1","1"
"260072","img/object_images/tool09.jpg","img/object_images/mirror01.jpg",NA,"1","1",NA,"1","1",NA,"0.304078699991805","0.473787199996878",NA,"1","1",NA,"1","1",NA,"1","1",NA
"260072","img/object_images/soap03.jpg",NA,"img/object_images/computer_mouse01.jpg","0",NA,"1","0",NA,"1","0.696517300006235",NA,"0.414341399999103","1",NA,"1","1",NA,"1","1",NA,"1"
"260072","img/object_images/computer_mouse01.jpg","img/object_images/soap03.jpg","img/object_images/book02.jpg","1","0","1","1","0","1","0.414341399999103","0.696517300006235","0.390108099993085","1","1","1","1","1","1","1","1","1"
"260072","img/object_images/book02.jpg","img/object_images/computer_mouse01.jpg","img/object_images/skate_board01.jpg","1","1","1","1","1","0","0.390108099993085","0.414341399999103","0.321573299996089","1","1","1","1","1","1","1","1","1"
"260072","img/object_images/skate_board01.jpg","img/object_images/book02.jpg","img/object_images/blender01.jpg","1","1","0","0","1","0","0.321573299996089","0.390108099993085","0.393556399998488","1","1","1","1","1","1","1","1","1"
"260072","img/object_images/blender01.jpg","img/object_images/skate_board01.jpg","img/object_images/box03.jpg","0","1","1","0","0","0","0.393556399998488","0.321573299996089","0.469313699984923","1","1","1","1","1","1","1","1","1"
"260072","img/object_images/box03.jpg","img/object_images/blender01.jpg","img/object_images/scarf01.jpg","1","0","1","0","0","1","0.469313699984923","0.393556399998488","0.377129900007276","1","1","1","1","1","1","1","1","1"
"260072","img/object_images/scarf01.jpg","img/object_images/box03.jpg","img/object_images/pen01.jpg","1","1","1","1","0","0","0.377129900007276","0.469313699984923","0.489059499988798","1","1","1","1","1","1","1","1","1"
"260072","img/object_images/pen01.jpg","img/object_images/scarf01.jpg","img/object_images/hair_brush01.jpg","1","1","1","0","1","1","0.489059499988798","0.377129900007276","0.429760900005931","1","1","1","1","1","1","1","1","1"
"260072","img/object_images/hair_brush01.jpg","img/object_images/pen01.jpg","img/object_images/chain01.jpg","1","1","1","1","0","0","0.429760900005931","0.489059499988798","0.4091110000154","1","1","1","1","1","1","1","1","1"
"260072","img/object_images/chain01.jpg","img/object_images/hair_brush01.jpg","img/object_images/mail_box02.jpg","1","1","1","0","1","1","0.4091110000154","0.429760900005931","0.401072200009366","1","1","1","1","1","1","1","1","1"
"260072","img/object_images/mail_box02.jpg","img/object_images/chain01.jpg","img/object_images/pitcher09.jpg","1","1","0","1","0","1","0.401072200009366","0.4091110000154","0.417727299995022","1","1","1","1","1","1","1","1","1"
"260072","img/object_images/pitcher09.jpg","img/object_images/mail_box02.jpg","img/object_images/couch01.jpg","0","1","1","1","1","0","0.417727299995022","0.401072200009366","0.492579899990233","1","1","1","1","1","1","1","1","1"
"260072","img/object_images/couch01.jpg","img/object_images/pitcher09.jpg","img/object_images/chair06.jpg","1","0","1","0","1","0","0.492579899990233","0.417727299995022","0.464411699998891","1","1","1","1","1","1","1","1","1"
"260072","img/object_images/chair06.jpg","img/object_images/couch01.jpg","img/object_images/shoes12.jpg","1","1","1","0","0","1","0.464411699998891","0.492579899990233","0.403231700009201","1","1","1","1","1","1","1","1","1"
"260072","img/object_images/shoes12.jpg","img/object_images/chair06.jpg","img/object_images/video_game03.jpg","1","1","1","1","0","1","0.403231700009201","0.464411699998891","0.606895700009773","1","1","1","1","1","1","1","1","1"
"260072","img/object_images/video_game03.jpg","img/object_images/shoes12.jpg","img/object_images/floss02.jpg","1","1","1","1","1","1","0.606895700009773","0.403231700009201","0.808630599989556","1","1","1","1","1","1","1","1","1"
"260072","img/object_images/floss02.jpg","img/object_images/video_game03.jpg","img/object_images/egg_slicer01.jpg","1","1","1","1","1","1","0.808630599989556","0.606895700009773","0.431101699999999","1","1","1","1","1","1","1","1","1"
"260072","img/object_images/egg_slicer01.jpg","img/object_images/floss02.jpg","img/object_images/tripod01.jpg","1","1","1","1","1","1","0.431101699999999","0.808630599989556","0.594380700000329","1","1","1","1","1","1","1","1","1"
"260072","img/object_images/tripod01.jpg","img/object_images/egg_slicer01.jpg","img/object_images/computer_mouse02.jpg","1","1","1","1","1","0","0.594380700000329","0.431101699999999","0.470027900009882","1","1","1","1","1","1","1","1","1"
"260072","img/object_images/computer_mouse02.jpg","img/object_images/tripod01.jpg","img/object_images/toy01.jpg","1","1","1","0","1","1","0.470027900009882","0.594380700000329","0.444236699986504","1","1","1","1","1","1","1","1","1"
"260072","img/object_images/toy01.jpg","img/object_images/computer_mouse02.jpg","img/object_images/bell03.jpg","1","1","0","1","0","0","0.444236699986504","0.470027900009882","0.303764299984323","1","1","1","1","1","1","1","1","1"
"260072","img/object_images/bell03.jpg","img/object_images/toy01.jpg","img/object_images/toothbrush01.jpg","0","1","1","0","1","0","0.303764299984323","0.444236699986504","0.475379799987422","1","1","1","1","1","1","1","1","1"
"260072","img/object_images/toothbrush01.jpg","img/object_images/bell03.jpg","img/object_images/fork02.jpg","1","0","1","0","0","0","0.475379799987422","0.303764299984323","0.481095399998594","1","1","1","1","1","1","1","1","1"
"260072","img/object_images/fork02.jpg","img/object_images/toothbrush01.jpg","img/object_images/rock02.jpg","1","1","1","0","0","0","0.481095399998594","0.475379799987422","0.4481528000033","1","1","1","1","1","1","1","1","1"
"260072","img/object_images/rock02.jpg","img/object_images/fork02.jpg","img/object_images/Violin01.jpg","1","1","1","0","0","0","0.4481528000033","0.481095399998594","0.467685899988282","1","1","1","1","1","1","1","1","1"
"260072","img/object_images/Violin01.jpg","img/object_images/rock02.jpg","img/object_images/clip04.jpg","1","1","1","0","0","1","0.467685899988282","0.4481528000033","0.666677599976538","1","1","1","1","1","1","1","1","1"
"260072","img/object_images/clip04.jpg","img/object_images/Violin01.jpg","img/object_images/bag_pipes01.jpg","1","1","1","1","0","1","0.666677599976538","0.467685899988282","0.463134499994339","1","1","1","1","1","1","1","1","1"
"260072","img/object_images/bag_pipes01.jpg","img/object_images/clip04.jpg","img/object_images/airfryer02.jpg","1","1","1","1","1","1","0.463134499994339","0.666677599976538","0.439021500002127","1","1","1","1","1","1","1","1","1"
"260072","img/object_images/airfryer02.jpg","img/object_images/bag_pipes01.jpg","img/object_images/drone01.jpg","1","1","1","1","1","1","0.439021500002127","0.463134499994339","0.371844799985411","1","1","1","1","1","1","1","1","1"
"260072","img/object_images/drone01.jpg","img/object_images/airfryer02.jpg","img/object_images/Trowel01.jpg","1","1","1","1","1","0","0.371844799985411","0.439021500002127","0.522882499994012","1","1","1","1","1","1","1","1","1"
"260072","img/object_images/Trowel01.jpg","img/object_images/drone01.jpg","img/object_images/tool06.jpg","1","1","0","0","1","0","0.522882499994012","0.371844799985411","0.434025700000348","1","1","1","1","1","1","1","1","1"
"260072","img/object_images/tool06.jpg","img/object_images/Trowel01.jpg",NA,"0","1",NA,"0","0",NA,"0.434025700000348","0.522882499994012",NA,"1","1",NA,"1","1",NA,"1","1",NA
"260072","img/object_images/basket04.jpg",NA,"img/object_images/paper_cup02.jpg","1",NA,"1","1",NA,"1","0.474752000009175",NA,"0.442383399989922","1",NA,"1","1",NA,"1","1",NA,"1"
"260072","img/object_images/paper_cup02.jpg","img/object_images/basket04.jpg","img/object_images/kite01.jpg","1","1","1","1","1","1","0.442383399989922","0.474752000009175","0.42308320000302","1","1","1","1","1","1","1","1","1"
"260072","img/object_images/kite01.jpg","img/object_images/paper_cup02.jpg","img/object_images/knit03.jpg","1","1","1","1","1","1","0.42308320000302","0.442383399989922","0.314624699996784","1","1","1","1","1","1","1","1","1"
"260072","img/object_images/knit03.jpg","img/object_images/kite01.jpg","img/object_images/matches02.jpg","1","1","1","1","1","0","0.314624699996784","0.42308320000302","0.518308099999558","1","1","1","1","1","1","1","1","1"
"260072","img/object_images/matches02.jpg","img/object_images/knit03.jpg","img/object_images/remote_controller01.jpg","1","1","1","0","1","1","0.518308099999558","0.314624699996784","0.359320799994748","1","1","1","1","1","1","1","1","1"
"260072","img/object_images/remote_controller01.jpg","img/object_images/matches02.jpg","img/object_images/dresser03.jpg","1","1","0","1","0","0","0.359320799994748","0.518308099999558",NA,"1","1","0","1","1","0","1","1","0"
"260072","img/object_images/dresser03.jpg","img/object_images/remote_controller01.jpg","img/object_images/knit04.jpg","0","1","0","0","1","1",NA,"0.359320799994748",NA,"0","1","0","0","1","0","0","1","0"
"260072","img/object_images/knit04.jpg","img/object_images/dresser03.jpg","img/object_images/Statue01.jpg","0","0","1","1","0","1",NA,NA,"0.486073500011116","0","0","1","0","0","1","0","0","1"
"260072","img/object_images/Statue01.jpg","img/object_images/knit04.jpg","img/object_images/hand_grip_exerciser01.jpg","1","0","0","1","1","0","0.486073500011116",NA,"0.327755800011801","1","0","1","1","0","1","1","0","1"
"260072","img/object_images/hand_grip_exerciser01.jpg","img/object_images/Statue01.jpg","img/object_images/knife02.jpg","0","1","0","0","1","0","0.327755800011801","0.486073500011116",NA,"1","1","0","1","1","0","1","1","0"
"260072","img/object_images/knife02.jpg","img/object_images/hand_grip_exerciser01.jpg","img/object_images/boat04.jpg","0","0","1","0","0","0",NA,"0.327755800011801","0.335627199994633","0","1","1","0","1","1","0","1","1"
"260072","img/object_images/boat04.jpg","img/object_images/knife02.jpg","img/object_images/shower_head01.jpg","1","0","1","0","0","1","0.335627199994633",NA,"0.452611899992917","1","0","1","1","0","1","1","0","1"
"260072","img/object_images/shower_head01.jpg","img/object_images/boat04.jpg","img/object_images/hoverboard01.jpg","1","1","0","1","0","0","0.452611899992917","0.335627199994633",NA,"1","1","0","1","1","0","1","1","0"
"260072","img/object_images/hoverboard01.jpg","img/object_images/shower_head01.jpg","img/object_images/jacket04.jpg","0","1","1","0","1","0",NA,"0.452611899992917","0.492463600006886","0","1","1","0","1","1","0","1","1"
"260072","img/object_images/jacket04.jpg","img/object_images/hoverboard01.jpg","img/object_images/phone02.jpg","1","0","0","0","0","1","0.492463600006886",NA,NA,"1","0","0","1","0","0","1","0","0"
"260072","img/object_images/phone02.jpg","img/object_images/jacket04.jpg","img/object_images/video_game01.jpg","0","1","1","1","0","1",NA,"0.492463600006886","0.360256400017533","0","1","1","0","1","1","0","1","1"
"260072","img/object_images/video_game01.jpg","img/object_images/phone02.jpg","img/object_images/sponge03.jpg","1","0","1","1","1","1","0.360256400017533",NA,"0.449764799996046","1","0","1","1","0","1","1","0","1"
"260072","img/object_images/sponge03.jpg","img/object_images/video_game01.jpg","img/object_images/tool18.jpg","1","1","1","1","1","0","0.449764799996046","0.360256400017533","0.467448400013382","1","1","1","1","1","1","1","1","1"
"260072","img/object_images/tool18.jpg","img/object_images/sponge03.jpg","img/object_images/mail_box01.jpg","1","1","0","0","1","0","0.467448400013382","0.449764799996046",NA,"1","1","0","1","1","0","1","1","0"
"260072","img/object_images/mail_box01.jpg","img/object_images/tool18.jpg","img/object_images/flashlight03.jpg","0","1","1","0","0","0",NA,"0.467448400013382","0.406193599977996","0","1","1","0","1","1","0","1","1"
"260072","img/object_images/flashlight03.jpg","img/object_images/mail_box01.jpg","img/object_images/keyboard02.jpg","1","0","1","0","0","1","0.406193599977996",NA,"0.346702100010589","1","0","1","1","0","1","1","0","1"
"260072","img/object_images/keyboard02.jpg","img/object_images/flashlight03.jpg","img/object_images/gloves02.jpg","1","1","0","1","0","0","0.346702100010589","0.406193599977996",NA,"1","1","0","1","1","0","1","1","0"
"260072","img/object_images/gloves02.jpg","img/object_images/keyboard02.jpg","img/object_images/camera03.jpg","0","1","0","0","1","0",NA,"0.346702100010589","0.422377599985339","0","1","1","0","1","1","0","1","1"
"260072","img/object_images/camera03.jpg","img/object_images/gloves02.jpg","img/object_images/curtain02.jpg","0","0","1","0","0","0","0.422377599985339",NA,"0.493494099995587","1","0","1","1","0","1","1","0","1"
"260072","img/object_images/curtain02.jpg","img/object_images/camera03.jpg","img/object_images/bottle07.jpg","1","0","1","0","0","1","0.493494099995587","0.422377599985339","0.444451200019103","1","1","1","1","1","1","1","1","1"
"260072","img/object_images/bottle07.jpg","img/object_images/curtain02.jpg","img/object_images/car01.jpg","1","1","1","1","0","1","0.444451200019103","0.493494099995587","0.399365099990973","1","1","1","1","1","1","1","1","1"
"260072","img/object_images/car01.jpg","img/object_images/bottle07.jpg","img/object_images/stereo02.jpg","1","1","0","1","1","0","0.399365099990973","0.444451200019103",NA,"1","1","0","1","1","0","1","1","0"
"260072","img/object_images/stereo02.jpg","img/object_images/car01.jpg","img/object_images/remover01.jpg","0","1","0","0","1","1",NA,"0.399365099990973",NA,"0","1","0","0","1","0","0","1","0"
"260072","img/object_images/remover01.jpg","img/object_images/stereo02.jpg","img/object_images/toy08.jpg","0","0","1","1","0","0",NA,NA,"0.575256399984937","0","0","1","0","0","1","0","0","1"
"260072","img/object_images/toy08.jpg","img/object_images/remover01.jpg","img/object_images/backpack01.jpg","1","0","0","0","1","0","0.575256399984937",NA,"0.453448399988702","1","0","1","1","0","1","1","0","1"
"260072","img/object_images/backpack01.jpg","img/object_images/toy08.jpg","img/object_images/blender02.jpg","0","1","0","0","0","1","0.453448399988702","0.575256399984937",NA,"1","1","0","1","1","0","1","1","0"
"260072","img/object_images/blender02.jpg","img/object_images/backpack01.jpg",NA,"0","0",NA,"1","0",NA,NA,"0.453448399988702",NA,"0","1",NA,"0","1",NA,"0","1",NA
"260072","img/object_images/nut_cracker01.jpg",NA,"img/object_images/piano03.jpg","0",NA,"1","1",NA,"0",NA,NA,"0.565513599984115","0",NA,"1","0",NA,"1","0",NA,"1"
"260072","img/object_images/piano03.jpg","img/object_images/nut_cracker01.jpg","img/object_images/helmet03.jpg","1","0","0","0","1","1","0.565513599984115",NA,NA,"1","0","0","1","0","0","1","0","0"
"260072","img/object_images/helmet03.jpg","img/object_images/piano03.jpg","img/object_images/note_book02.jpg","0","1","1","1","0","0",NA,"0.565513599984115","0.416605700011132","0","1","1","0","1","1","0","1","1"
"260072","img/object_images/note_book02.jpg","img/object_images/helmet03.jpg","img/object_images/ToolBag01.jpg","1","0","0","0","1","0","0.416605700011132",NA,NA,"1","0","0","1","0","0","1","0","0"
"260072","img/object_images/ToolBag01.jpg","img/object_images/note_book02.jpg","img/object_images/fan01.jpg","0","1","0","0","0","0",NA,"0.416605700011132","0.423433899995871","0","1","1","0","1","1","0","1","1"
"260072","img/object_images/fan01.jpg","img/object_images/ToolBag01.jpg","img/object_images/jewel02.jpg","0","0","0","0","0","0","0.423433899995871",NA,NA,"1","0","0","1","0","0","1","0","0"
"260072","img/object_images/jewel02.jpg","img/object_images/fan01.jpg","img/object_images/tennis_racket01.jpg","0","0","1","0","0","1",NA,"0.423433899995871","0.337853100005304","0","1","1","0","1","1","0","1","1"
"260072","img/object_images/tennis_racket01.jpg","img/object_images/jewel02.jpg","img/object_images/trumpet01.jpg","1","0","0","1","0","0","0.337853100005304",NA,NA,"1","0","0","1","0","0","1","0","0"
"260072","img/object_images/trumpet01.jpg","img/object_images/tennis_racket01.jpg","img/object_images/pitcher07.jpg","0","1","1","0","1","1",NA,"0.337853100005304","0.342843999998877","0","1","1","0","1","1","0","1","1"
"260072","img/object_images/pitcher07.jpg","img/object_images/trumpet01.jpg","img/object_images/badminton01.jpg","1","0","0","1","0","1","0.342843999998877",NA,NA,"1","0","0","1","0","0","1","0","0"
"260072","img/object_images/badminton01.jpg","img/object_images/pitcher07.jpg","img/object_images/Safe01.jpg","0","1","1","1","1","1",NA,"0.342843999998877","0.376057999994373","0","1","1","0","1","1","0","1","1"
"260072","img/object_images/Safe01.jpg","img/object_images/badminton01.jpg","img/object_images/water_gun01.jpg","1","0","0","1","1","1","0.376057999994373",NA,NA,"1","0","0","1","0","0","1","0","0"
"260072","img/object_images/water_gun01.jpg","img/object_images/Safe01.jpg","img/object_images/TreeSlice01.jpg","0","1","0","1","1","1",NA,"0.376057999994373",NA,"0","1","0","0","1","0","0","1","0"
"260072","img/object_images/TreeSlice01.jpg","img/object_images/water_gun01.jpg","img/object_images/egg_basket01.jpg","0","0","0","1","1","1",NA,NA,NA,"0","0","0","0","0","0","0","0","0"
"260072","img/object_images/egg_basket01.jpg","img/object_images/TreeSlice01.jpg","img/object_images/headset02.jpg","0","0","0","1","1","0",NA,NA,NA,"0","0","0","0","0","0","0","0","0"
"260072","img/object_images/headset02.jpg","img/object_images/egg_basket01.jpg","img/object_images/Eyeliner01.jpg","0","0","1","0","1","1",NA,NA,"0.354669399996055","0","0","1","0","0","1","0","0","1"
"260072","img/object_images/Eyeliner01.jpg","img/object_images/headset02.jpg","img/object_images/phone04.jpg","1","0","1","1","0","1","0.354669399996055",NA,"0.395168200018816","1","0","1","1","0","1","1","0","1"
"260072","img/object_images/phone04.jpg","img/object_images/Eyeliner01.jpg","img/object_images/frame01.jpg","1","1","1","1","1","1","0.395168200018816","0.354669399996055","0.414109700010158","1","1","1","1","1","1","1","1","1"
"260072","img/object_images/frame01.jpg","img/object_images/phone04.jpg","img/object_images/Shoes05.jpg","1","1","0","1","1","0","0.414109700010158","0.395168200018816",NA,"1","1","0","1","1","0","1","1","0"
"260072","img/object_images/Shoes05.jpg","img/object_images/frame01.jpg","img/object_images/scale02.jpg","0","1","1","0","1","0",NA,"0.414109700010158","0.459491399989929","0","1","1","0","1","1","0","1","1"
"260072","img/object_images/scale02.jpg","img/object_images/Shoes05.jpg","img/object_images/joystick03.jpg","1","0","0","0","0","1","0.459491399989929",NA,NA,"1","0","0","1","0","0","1","0","0"
"260072","img/object_images/joystick03.jpg","img/object_images/scale02.jpg","img/object_images/bookmark01.jpg","0","1","1","1","0","0",NA,"0.459491399989929","0.356807499978459","0","1","1","0","1","1","0","1","1"
"260072","img/object_images/bookmark01.jpg","img/object_images/joystick03.jpg","img/object_images/bottle06.jpg","1","0","1","0","1","0","0.356807499978459",NA,"0.912688500015065","1","0","1","1","0","1","1","0","1"
"260072","img/object_images/bottle06.jpg","img/object_images/bookmark01.jpg","img/object_images/bucket01.jpg","1","1","1","0","0","1","0.912688500015065","0.356807499978459","0.700612099986756","1","1","1","1","1","1","1","1","1"
"260072","img/object_images/bucket01.jpg","img/object_images/bottle06.jpg","img/object_images/belt03.jpg","1","1","0","1","0","0","0.700612099986756","0.912688500015065",NA,"1","1","0","1","1","0","1","1","0"
"260072","img/object_images/belt03.jpg","img/object_images/bucket01.jpg","img/object_images/lock03.jpg","0","1","1","0","1","1",NA,"0.700612099986756","0.417082700005267","0","1","1","0","1","1","0","1","1"
"260072","img/object_images/lock03.jpg","img/object_images/belt03.jpg","img/object_images/shovel01.jpg","1","0","0","1","0","0","0.417082700005267",NA,NA,"1","0","0","1","0","0","1","0","0"
"260072","img/object_images/shovel01.jpg","img/object_images/lock03.jpg","img/object_images/yoga_mat01.jpg","0","1","0","0","1","0",NA,"0.417082700005267",NA,"0","1","0","0","1","0","0","1","0"
"260072","img/object_images/yoga_mat01.jpg","img/object_images/shovel01.jpg","img/object_images/dice01.jpg","0","0","1","0","0","0",NA,NA,"0.506200400006492","0","0","1","0","0","1","0","0","1"
"260072","img/object_images/dice01.jpg","img/object_images/yoga_mat01.jpg","img/object_images/origami01.jpg","1","0","0","0","0","1","0.506200400006492",NA,NA,"1","0","0","1","0","0","1","0","0"
"260072","img/object_images/origami01.jpg","img/object_images/dice01.jpg","img/object_images/usb03.jpg","0","1","1","1","0","0",NA,"0.506200400006492","0.489745899976697","0","1","1","0","1","1","0","1","1"
"260072","img/object_images/usb03.jpg","img/object_images/origami01.jpg",NA,"1","0",NA,"0","1",NA,"0.489745899976697",NA,NA,"1","0",NA,"1","0",NA,"1","0",NA
"260072","img/object_images/bag04.jpg",NA,"img/object_images/spray_can01.jpg","1",NA,"1","0",NA,"0","0.578088900016155",NA,"0.454088900005445","1",NA,"1","1",NA,"1","1",NA,"1"
"260072","img/object_images/spray_can01.jpg","img/object_images/bag04.jpg","img/object_images/sink_filter01 (1).jpg","1","1","1","0","0","0","0.454088900005445","0.578088900016155","0.44934269998339","1","1","1","1","1","1","1","1","1"
"260072","img/object_images/sink_filter01 (1).jpg","img/object_images/spray_can01.jpg","img/object_images/hammer02.jpg","1","1","1","0","0","0","0.44934269998339","0.454088900005445","0.554336700006388","1","1","1","1","1","1","1","1","1"
"260072","img/object_images/hammer02.jpg","img/object_images/sink_filter01 (1).jpg","img/object_images/Confetti 01.jpg","1","1","0","0","0","0","0.554336700006388","0.44934269998339","0.301490900019417","1","1","1","1","1","1","1","1","1"
"260072","img/object_images/Confetti 01.jpg","img/object_images/hammer02.jpg","img/object_images/pen06.jpg","0","1","1","0","0","0","0.301490900019417","0.554336700006388","0.427873700013151","1","1","1","1","1","1","1","1","1"
"260072","img/object_images/pen06.jpg","img/object_images/Confetti 01.jpg","img/object_images/glasses03.jpg","1","0","1","0","0","0","0.427873700013151","0.301490900019417","0.473783800000092","1","1","1","1","1","1","1","1","1"
"260072","img/object_images/glasses03.jpg","img/object_images/pen06.jpg","img/object_images/floss01.jpg","1","1","1","0","0","1","0.473783800000092","0.427873700013151","0.47269639998558","1","1","1","1","1","1","1","1","1"
"260072","img/object_images/floss01.jpg","img/object_images/glasses03.jpg","img/object_images/camera05.jpg","1","1","1","1","0","0","0.47269639998558","0.473783800000092","0.4420646999788","1","1","1","1","1","1","1","1","1"
"260072","img/object_images/camera05.jpg","img/object_images/floss01.jpg","img/object_images/ruler02.jpg","1","1","1","0","1","1","0.4420646999788","0.47269639998558","0.384874899988063","1","1","1","1","1","1","1","1","1"
"260072","img/object_images/ruler02.jpg","img/object_images/camera05.jpg","img/object_images/tool13.jpg","1","1","1","1","0","1","0.384874899988063","0.4420646999788","0.442270799976541","1","1","1","1","1","1","1","1","1"
"260072","img/object_images/tool13.jpg","img/object_images/ruler02.jpg","img/object_images/lemon_squeezer01.jpg","1","1","1","1","1","1","0.442270799976541","0.384874899988063","0.429672900005244","1","1","1","1","1","1","1","1","1"
"260072","img/object_images/lemon_squeezer01.jpg","img/object_images/tool13.jpg","img/object_images/dust_pan01.jpg","1","1","1","1","1","1","0.429672900005244","0.442270799976541","0.397591399989324","1","1","1","1","1","1","1","1","1"
"260072","img/object_images/dust_pan01.jpg","img/object_images/lemon_squeezer01.jpg","img/object_images/perfume01.jpg","1","1","1","1","1","0","0.397591399989324","0.429672900005244","0.427912899991497","1","1","1","1","1","1","1","1","1"
"260072","img/object_images/perfume01.jpg","img/object_images/dust_pan01.jpg","img/object_images/clipboard01.jpg","1","1","1","0","1","1","0.427912899991497","0.397591399989324","0.410490299982484","1","1","1","1","1","1","1","1","1"
"260072","img/object_images/clipboard01.jpg","img/object_images/perfume01.jpg","img/object_images/sign02.jpg","1","1","1","1","0","0","0.410490299982484","0.427912899991497","0.553539699991234","1","1","1","1","1","1","1","1","1"
"260072","img/object_images/sign02.jpg","img/object_images/clipboard01.jpg","img/object_images/pan03.jpg","1","1","1","0","1","1","0.553539699991234","0.410490299982484","0.404245300014736","1","1","1","1","1","1","1","1","1"
"260072","img/object_images/pan03.jpg","img/object_images/sign02.jpg","img/object_images/vase02.jpg","1","1","0","1","0","1","0.404245300014736","0.553539699991234",NA,"1","1","0","1","1","0","1","1","0"
"260072","img/object_images/vase02.jpg","img/object_images/pan03.jpg","img/object_images/hat13.jpg","0","1","0","1","1","1",NA,"0.404245300014736",NA,"0","1","0","0","1","0","0","1","0"
"260072","img/object_images/hat13.jpg","img/object_images/vase02.jpg","img/object_images/razor02.jpg","0","0","0","1","1","1",NA,NA,NA,"0","0","0","0","0","0","0","0","0"
"260072","img/object_images/razor02.jpg","img/object_images/hat13.jpg","img/object_images/video_game02.jpg","0","0","0","1","1","1",NA,NA,NA,"0","0","0","0","0","0","0","0","0"
"260072","img/object_images/video_game02.jpg","img/object_images/razor02.jpg","img/object_images/socks01.jpg","0","0","1","1","1","1",NA,NA,"0.373984000005294","0","0","1","0","0","1","0","0","1"
"260072","img/object_images/socks01.jpg","img/object_images/video_game02.jpg","img/object_images/office_supplies01.jpg","1","0","1","1","1","1","0.373984000005294",NA,"0.398495500005083","1","0","1","1","0","1","1","0","1"
"260072","img/object_images/office_supplies01.jpg","img/object_images/socks01.jpg","img/object_images/cup01.jpg","1","1","1","1","1","0","0.398495500005083","0.373984000005294","0.445490400015842","1","1","1","1","1","1","1","1","1"
"260072","img/object_images/cup01.jpg","img/object_images/office_supplies01.jpg","img/object_images/Candle_Holder01.jpg","1","1","0","0","1","0","0.445490400015842","0.398495500005083","0.479830700001912","1","1","1","1","1","1","1","1","1"
"260072","img/object_images/Candle_Holder01.jpg","img/object_images/cup01.jpg","img/object_images/board01.jpg","0","1","0","0","0","1","0.479830700001912","0.445490400015842",NA,"1","1","0","1","1","0","1","1","0"
"260072","img/object_images/board01.jpg","img/object_images/Candle_Holder01.jpg","img/object_images/candle02.jpg","0","0","0","1","0","0",NA,"0.479830700001912",NA,"0","1","0","0","1","0","0","1","0"
"260072","img/object_images/candle02.jpg","img/object_images/board01.jpg","img/object_images/bow_tie03.jpg","0","0","1","0","1","1",NA,NA,"0.432224799995311","0","0","1","0","0","1","0","0","1"
"260072","img/object_images/bow_tie03.jpg","img/object_images/candle02.jpg","img/object_images/duster01.jpg","1","0","1","1","0","0","0.432224799995311",NA,"0.478323399991496","1","0","1","1","0","1","1","0","1"
"260072","img/object_images/duster01.jpg","img/object_images/bow_tie03.jpg","img/object_images/hat09.jpg","1","1","1","0","1","0","0.478323399991496","0.432224799995311","0.486222600011388","1","1","1","1","1","1","1","1","1"
"260072","img/object_images/hat09.jpg","img/object_images/duster01.jpg","img/object_images/knife01.jpg","1","1","1","0","0","1","0.486222600011388","0.478323399991496","0.358730800013291","1","1","1","1","1","1","1","1","1"
"260072","img/object_images/knife01.jpg","img/object_images/hat09.jpg","img/object_images/tool20.jpg","1","1","0","1","0","0","0.358730800013291","0.486222600011388",NA,"1","1","0","1","1","0","1","1","0"
"260072","img/object_images/tool20.jpg","img/object_images/knife01.jpg",NA,"0","1",NA,"0","1",NA,NA,"0.358730800013291",NA,"0","1",NA,"0","1",NA,"0","1",NA
"260072","img/object_images/gloves05.jpg",NA,"img/object_images/lantern01.jpg","1",NA,"1","1",NA,"1","0.684286100004101",NA,"0.504100599995581","1",NA,"1","1",NA,"1","1",NA,"1"
"260072","img/object_images/lantern01.jpg","img/object_images/gloves05.jpg","img/object_images/toilet_paper01.jpg","1","1","1","1","1","1","0.504100599995581","0.684286100004101","0.365735200000927","1","1","1","1","1","1","1","1","1"
"260072","img/object_images/toilet_paper01.jpg","img/object_images/lantern01.jpg","img/object_images/Woopie01.jpg","1","1","0","1","1","1","0.365735200000927","0.504100599995581",NA,"1","1","0","1","1","0","1","1","0"
"260072","img/object_images/Woopie01.jpg","img/object_images/toilet_paper01.jpg","img/object_images/brief_case02.jpg","0","1","1","1","1","1",NA,"0.365735200000927","0.284760399983497","0","1","1","0","1","1","0","1","1"
"260072","img/object_images/brief_case02.jpg","img/object_images/Woopie01.jpg","img/object_images/tie01.jpg","1","0","0","1","1","0","0.284760399983497",NA,NA,"1","0","0","1","0","0","1","0","0"
"260072","img/object_images/tie01.jpg","img/object_images/brief_case02.jpg","img/object_images/ironing_table02.jpg","0","1","1","0","1","0",NA,"0.284760399983497","0.468239899986656","0","1","1","0","1","1","0","1","1"
"260072","img/object_images/ironing_table02.jpg","img/object_images/tie01.jpg","img/object_images/pot01.jpg","1","0","1","0","0","0","0.468239899986656",NA,"0.490873500006273","1","0","1","1","0","1","1","0","1"
"260072","img/object_images/pot01.jpg","img/object_images/ironing_table02.jpg","img/object_images/razor03.jpg","1","1","0","0","0","0","0.490873500006273","0.468239899986656",NA,"1","1","0","1","1","0","1","1","0"
"260072","img/object_images/razor03.jpg","img/object_images/pot01.jpg","img/object_images/drone02.jpg","0","1","0","0","0","0",NA,"0.490873500006273",NA,"0","1","0","0","1","0","0","1","0"
"260072","img/object_images/drone02.jpg","img/object_images/razor03.jpg","img/object_images/guitar01.jpg","0","0","1","0","0","1",NA,NA,"0.530534399993485","0","0","1","0","0","1","0","0","1"
"260072","img/object_images/guitar01.jpg","img/object_images/drone02.jpg","img/object_images/brief_case01.jpg","1","0","1","1","0","0","0.530534399993485",NA,"0.492543100001058","1","0","1","1","0","1","1","0","1"
"260072","img/object_images/brief_case01.jpg","img/object_images/guitar01.jpg","img/object_images/soap01.jpg","1","1","1","0","1","0","0.492543100001058","0.530534399993485","0.520212999981595","1","1","1","1","1","1","1","1","1"
"260072","img/object_images/soap01.jpg","img/object_images/brief_case01.jpg","img/object_images/car02.jpg","1","1","1","0","0","0","0.520212999981595","0.492543100001058","0.573983200010844","1","1","1","1","1","1","1","1","1"
"260072","img/object_images/car02.jpg","img/object_images/soap01.jpg","img/object_images/cochlear_implant01.jpg","1","1","0","0","0","0","0.573983200010844","0.520212999981595",NA,"1","1","0","1","1","0","1","1","0"
"260072","img/object_images/cochlear_implant01.jpg","img/object_images/car02.jpg","img/object_images/hat02.jpg","0","1","1","0","0","0",NA,"0.573983200010844","0.50956629999564","0","1","1","0","1","1","0","1","1"
"260072","img/object_images/hat02.jpg","img/object_images/cochlear_implant01.jpg","img/object_images/bottle12.jpg","1","0","0","0","0","1","0.50956629999564",NA,NA,"1","0","0","1","0","0","1","0","0"
"260072","img/object_images/bottle12.jpg","img/object_images/hat02.jpg","img/object_images/helmet05.jpg","0","1","0","1","0","1",NA,"0.50956629999564",NA,"0","1","0","0","1","0","0","1","0"
"260072","img/object_images/helmet05.jpg","img/object_images/bottle12.jpg","img/object_images/Wisk01.jpg","0","0","0","1","1","1",NA,NA,NA,"0","0","0","0","0","0","0","0","0"
"260072","img/object_images/Wisk01.jpg","img/object_images/helmet05.jpg","img/object_images/couch04.jpg","0","0","1","1","1","1",NA,NA,"0.343498999980511","0","0","1","0","0","1","0","0","1"
"260072","img/object_images/couch04.jpg","img/object_images/Wisk01.jpg","img/object_images/video_game06.jpg","1","0","1","1","1","0","0.343498999980511",NA,"0.44306950000464","1","0","1","1","0","1","1","0","1"
"260072","img/object_images/video_game06.jpg","img/object_images/couch04.jpg","img/object_images/basketball_hoop02.jpg","1","1","0","0","1","0","0.44306950000464","0.343498999980511",NA,"1","1","0","1","1","0","1","1","0"
"260072","img/object_images/basketball_hoop02.jpg","img/object_images/video_game06.jpg","img/object_images/broom01.jpg","0","1","1","0","0","1",NA,"0.44306950000464","0.380796000012197","0","1","1","0","1","1","0","1","1"
"260072","img/object_images/broom01.jpg","img/object_images/basketball_hoop02.jpg","img/object_images/Recycling01.jpg","1","0","0","1","0","1","0.380796000012197",NA,NA,"1","0","0","1","0","0","1","0","0"
"260072","img/object_images/Recycling01.jpg","img/object_images/broom01.jpg","img/object_images/pitcher03.jpg","0","1","0","1","1","1",NA,"0.380796000012197",NA,"0","1","0","0","1","0","0","1","0"
"260072","img/object_images/pitcher03.jpg","img/object_images/Recycling01.jpg","img/object_images/lamp01.jpg","0","0","1","1","1","1",NA,NA,"0.319452499999898","0","0","1","0","0","1","0","0","1"
"260072","img/object_images/lamp01.jpg","img/object_images/pitcher03.jpg","img/object_images/container01.jpg","1","0","0","1","1","0","0.319452499999898",NA,NA,"1","0","0","1","0","0","1","0","0"
"260072","img/object_images/container01.jpg","img/object_images/lamp01.jpg","img/object_images/airfryer01.jpg","0","1","0","0","1","0",NA,"0.319452499999898",NA,"0","1","0","0","1","0","0","1","0"
"260072","img/object_images/airfryer01.jpg","img/object_images/container01.jpg","img/object_images/chair01.jpg","0","0","0","0","0","0",NA,NA,NA,"0","0","0","0","0","0","0","0","0"
"260072","img/object_images/chair01.jpg","img/object_images/airfryer01.jpg","img/object_images/decorative02.jpg","0","0","0","0","0","0",NA,NA,NA,"0","0","0","0","0","0","0","0","0"
"260072","img/object_images/decorative02.jpg","img/object_images/chair01.jpg","img/object_images/toy_train02.jpg","0","0","1","0","0","1",NA,NA,"0.390371000015875","0","0","1","0","0","1","0","0","1"
"260072","img/object_images/toy_train02.jpg","img/object_images/decorative02.jpg","img/object_images/ball01.jpg","1","0","0","1","0","1","0.390371000015875",NA,NA,"1","0","0","1","0","0","1","0","0"
"260072","img/object_images/ball01.jpg","img/object_images/toy_train02.jpg",NA,"0","1",NA,"1","1",NA,NA,"0.390371000015875",NA,"0","1",NA,"0","1",NA,"0","1",NA
"260072","img/object_images/robe01.jpg",NA,"img/object_images/pitcher05.jpg","1",NA,"0","1",NA,"0","0.524252200004412",NA,NA,"1",NA,"0","1",NA,"0","1",NA,"0"
"260072","img/object_images/pitcher05.jpg","img/object_images/robe01.jpg","img/object_images/bucket02.jpg","0","1","1","0","1","1",NA,"0.524252200004412","0.506482299999334","0","1","1","0","1","1","0","1","1"
"260072","img/object_images/bucket02.jpg","img/object_images/pitcher05.jpg","img/object_images/toy05.jpg","1","0","1","1","0","0","0.506482299999334",NA,"0.437865799991414","1","0","1","1","0","1","1","0","1"
"260072","img/object_images/toy05.jpg","img/object_images/bucket02.jpg","img/object_images/backpack03.jpg","1","1","1","0","1","1","0.437865799991414","0.506482299999334","0.325905999983661","1","1","1","1","1","1","1","1","1"
"260072","img/object_images/backpack03.jpg","img/object_images/toy05.jpg","img/object_images/umbrella01.jpg","1","1","0","1","0","0","0.325905999983661","0.437865799991414","0.50299539999105","1","1","1","1","1","1","1","1","1"
"260072","img/object_images/umbrella01.jpg","img/object_images/backpack03.jpg","img/object_images/helmet02.jpg","0","1","1","0","1","0","0.50299539999105","0.325905999983661","0.511872099974426","1","1","1","1","1","1","1","1","1"
"260072","img/object_images/helmet02.jpg","img/object_images/umbrella01.jpg","img/object_images/microphone03.jpg","1","0","0","0","0","1","0.511872099974426","0.50299539999105",NA,"1","1","0","1","1","0","1","1","0"
"260072","img/object_images/microphone03.jpg","img/object_images/helmet02.jpg","img/object_images/lock01.jpg","0","1","1","1","0","0",NA,"0.511872099974426","0.400777900009416","0","1","1","0","1","1","0","1","1"
"260072","img/object_images/lock01.jpg","img/object_images/microphone03.jpg","img/object_images/ball02.jpg","1","0","0","0","1","1","0.400777900009416",NA,NA,"1","0","0","1","0","0","1","0","0"
"260072","img/object_images/ball02.jpg","img/object_images/lock01.jpg","img/object_images/Vest02.jpg","0","1","1","1","0","0",NA,"0.400777900009416","0.399580299999798","0","1","1","0","1","1","0","1","1"
"260072","img/object_images/Vest02.jpg","img/object_images/ball02.jpg","img/object_images/trash_can05.jpg","1","0","1","0","1","1","0.399580299999798",NA,"0.436938899976667","1","0","1","1","0","1","1","0","1"
"260072","img/object_images/trash_can05.jpg","img/object_images/Vest02.jpg","img/object_images/vase01.jpg","1","1","1","1","0","0","0.436938899976667","0.399580299999798","0.479269300005399","1","1","1","1","1","1","1","1","1"
"260072","img/object_images/vase01.jpg","img/object_images/trash_can05.jpg","img/object_images/accardion01.jpg","1","1","0","0","1","1","0.479269300005399","0.436938899976667",NA,"1","1","0","1","1","0","1","1","0"
"260072","img/object_images/accardion01.jpg","img/object_images/vase01.jpg","img/object_images/laptop01.jpg","0","1","0","1","0","0",NA,"0.479269300005399",NA,"0","1","0","0","1","0","0","1","0"
"260072","img/object_images/laptop01.jpg","img/object_images/accardion01.jpg","img/object_images/jewel03.jpg","0","0","1","0","1","1",NA,NA,"0.400400999991689","0","0","1","0","0","1","0","0","1"
"260072","img/object_images/jewel03.jpg","img/object_images/laptop01.jpg","img/object_images/surf_board01.jpg","1","0","0","1","0","1","0.400400999991689",NA,NA,"1","0","0","1","0","0","1","0","0"
"260072","img/object_images/surf_board01.jpg","img/object_images/jewel03.jpg","img/object_images/hair_brush02.jpg","0","1","1","1","1","0",NA,"0.400400999991689","0.48014780000085","0","1","1","0","1","1","0","1","1"
"260072","img/object_images/hair_brush02.jpg","img/object_images/surf_board01.jpg","img/object_images/gift_box05.jpg","1","0","1","0","1","0","0.48014780000085",NA,"0.425761599995894","1","0","1","1","0","1","1","0","1"
"260072","img/object_images/gift_box05.jpg","img/object_images/hair_brush02.jpg","img/object_images/combs01.jpg","1","1","0","0","0","1","0.425761599995894","0.48014780000085",NA,"1","1","0","1","1","0","1","1","0"
"260072","img/object_images/combs01.jpg","img/object_images/gift_box05.jpg","img/object_images/calculator01.jpg","0","1","1","1","0","1",NA,"0.425761599995894","0.450782600004459","0","1","1","0","1","1","0","1","1"
"260072","img/object_images/calculator01.jpg","img/object_images/combs01.jpg","img/object_images/hair_dryer01.jpg","1","0","0","1","1","0","0.450782600004459",NA,NA,"1","0","0","1","0","0","1","0","0"
"260072","img/object_images/hair_dryer01.jpg","img/object_images/calculator01.jpg","img/object_images/shoes08.jpg","0","1","1","0","1","1",NA,"0.450782600004459","0.479632999980822","0","1","1","0","1","1","0","1","1"
"260072","img/object_images/shoes08.jpg","img/object_images/hair_dryer01.jpg","img/object_images/chair02.jpg","1","0","1","1","0","1","0.479632999980822",NA,"0.434556499996688","1","0","1","1","0","1","1","0","1"
"260072","img/object_images/chair02.jpg","img/object_images/shoes08.jpg","img/object_images/fan04.jpg","1","1","0","1","1","0","0.434556499996688","0.479632999980822",NA,"1","1","0","1","1","0","1","1","0"
"260072","img/object_images/fan04.jpg","img/object_images/chair02.jpg","img/object_images/stove01.jpg","0","1","0","0","1","0",NA,"0.434556499996688","0.334389900002861","0","1","1","0","1","1","0","1","1"
"260072","img/object_images/stove01.jpg","img/object_images/fan04.jpg","img/object_images/laptop03.jpg","0","0","1","0","0","1","0.334389900002861",NA,"0.388668100000359","1","0","1","1","0","1","1","0","1"
"260072","img/object_images/laptop03.jpg","img/object_images/stove01.jpg","img/object_images/trash_can03.jpg","1","0","1","1","0","1","0.388668100000359","0.334389900002861","0.407051199988928","1","1","1","1","1","1","1","1","1"
"260072","img/object_images/trash_can03.jpg","img/object_images/laptop03.jpg","img/object_images/towels01.jpg","1","1","0","1","1","0","0.407051199988928","0.388668100000359","0.438943400018616","1","1","1","1","1","1","1","1","1"
"260072","img/object_images/towels01.jpg","img/object_images/trash_can03.jpg","img/object_images/chess_piece01.jpg","0","1","0","0","1","0","0.438943400018616","0.407051199988928","0.669219000003068","1","1","1","1","1","1","1","1","1"
"260072","img/object_images/chess_piece01.jpg","img/object_images/towels01.jpg","img/object_images/spatula02.jpg","0","0","0","0","0","1","0.669219000003068","0.438943400018616",NA,"1","1","0","1","1","0","1","1","0"
"260072","img/object_images/spatula02.jpg","img/object_images/chess_piece01.jpg","img/object_images/Lint_Roller02.jpg","0","0","0","1","0","0",NA,"0.669219000003068",NA,"0","1","0","0","1","0","0","1","0"
"260072","img/object_images/Lint_Roller02.jpg","img/object_images/spatula02.jpg",NA,"0","0",NA,"0","1",NA,NA,NA,NA,"0","0",NA,"0","0",NA,"0","0",NA
"260072","img/object_images/pen05.jpg",NA,"img/object_images/hot_air_balloon02.jpg","0",NA,"0","0",NA,"0","0.645677999971667",NA,NA,"1",NA,"0","1",NA,"0","1",NA,"0"
"260072","img/object_images/hot_air_balloon02.jpg","img/object_images/pen05.jpg","img/object_images/bean_bag02.jpg","0","0","1","0","0","1",NA,"0.645677999971667","0.620388999988791","0","1","1","0","1","1","0","1","1"
"260072","img/object_images/bean_bag02.jpg","img/object_images/hot_air_balloon02.jpg","img/object_images/WoodBox01.jpg","1","0","1","1","0","0","0.620388999988791",NA,"0.547991400002502","1","0","1","1","0","1","1","0","1"
"260072","img/object_images/WoodBox01.jpg","img/object_images/bean_bag02.jpg","img/object_images/audio_port01.jpg","1","1","1","0","1","1","0.547991400002502","0.620388999988791","0.447409699991113","1","1","1","1","1","1","1","1","1"
"260072","img/object_images/audio_port01.jpg","img/object_images/WoodBox01.jpg","img/object_images/toaster01.jpg","1","1","1","1","0","1","0.447409699991113","0.547991400002502","0.545404600008624","1","1","1","1","1","1","1","1","1"
"260072","img/object_images/toaster01.jpg","img/object_images/audio_port01.jpg","img/object_images/hat06.jpg","1","1","1","1","1","0","0.545404600008624","0.447409699991113","0.463847200007876","1","1","1","1","1","1","1","1","1"
"260072","img/object_images/hat06.jpg","img/object_images/toaster01.jpg","img/object_images/dog_leash01.jpg","1","1","1","0","1","0","0.463847200007876","0.545404600008624","0.480303000018466","1","1","1","1","1","1","1","1","1"
"260072","img/object_images/dog_leash01.jpg","img/object_images/hat06.jpg","img/object_images/perfume02.jpg","1","1","1","0","0","0","0.480303000018466","0.463847200007876","0.564225100009935","1","1","1","1","1","1","1","1","1"
"260072","img/object_images/perfume02.jpg","img/object_images/dog_leash01.jpg","img/object_images/purse04.jpg","1","1","1","0","0","1","0.564225100009935","0.480303000018466","0.427718899969477","1","1","1","1","1","1","1","1","1"
"260072","img/object_images/purse04.jpg","img/object_images/perfume02.jpg","img/object_images/boat02.jpg","1","1","1","1","0","1","0.427718899969477","0.564225100009935","0.47943929999019","1","1","1","1","1","1","1","1","1"
"260072","img/object_images/boat02.jpg","img/object_images/purse04.jpg","img/object_images/scoreboard01.jpg","1","1","0","1","1","1","0.47943929999019","0.427718899969477",NA,"1","1","0","1","1","0","1","1","0"
"260072","img/object_images/scoreboard01.jpg","img/object_images/boat02.jpg","img/object_images/coloring_pencil02.jpg","0","1","1","1","1","0",NA,"0.47943929999019","0.44105649998528","0","1","1","0","1","1","0","1","1"
"260072","img/object_images/coloring_pencil02.jpg","img/object_images/scoreboard01.jpg","img/object_images/bottle02.jpg","1","0","0","0","1","1","0.44105649998528",NA,NA,"1","0","0","1","0","0","1","0","0"
"260072","img/object_images/bottle02.jpg","img/object_images/coloring_pencil02.jpg","img/object_images/knit01.jpg","0","1","1","1","0","0",NA,"0.44105649998528","0.533393699995941","0","1","1","0","1","1","0","1","1"
"260072","img/object_images/knit01.jpg","img/object_images/bottle02.jpg","img/object_images/flask01.jpg","1","0","1","0","1","0","0.533393699995941",NA,"0.716612499993062","1","0","1","1","0","1","1","0","1"
"260072","img/object_images/flask01.jpg","img/object_images/knit01.jpg","img/object_images/tool19.jpg","1","1","1","0","0","1","0.716612499993062","0.533393699995941","0.70731710002292","1","1","1","1","1","1","1","1","1"
"260072","img/object_images/tool19.jpg","img/object_images/flask01.jpg","img/object_images/piggy_bank01.jpg","1","1","1","1","0","1","0.70731710002292","0.716612499993062","0.62922860000981","1","1","1","1","1","1","1","1","1"
"260072","img/object_images/piggy_bank01.jpg","img/object_images/tool19.jpg","img/object_images/bottle10.jpg","1","1","0","1","1","1","0.62922860000981","0.70731710002292",NA,"1","1","0","1","1","0","1","1","0"
"260072","img/object_images/bottle10.jpg","img/object_images/piggy_bank01.jpg","img/object_images/shoes07.jpg","0","1","0","1","1","0",NA,"0.62922860000981","0.332211899978574","0","1","1","0","1","1","0","1","1"
"260072","img/object_images/shoes07.jpg","img/object_images/bottle10.jpg","img/object_images/toilet_paper_dispenser01.jpg","0","0","1","0","1","1","0.332211899978574",NA,"0.433319799980382","1","0","1","1","0","1","1","0","1"
"260072","img/object_images/toilet_paper_dispenser01.jpg","img/object_images/shoes07.jpg","img/object_images/chair03.jpg","1","0","1","1","0","0","0.433319799980382","0.332211899978574","0.468078999983845","1","1","1","1","1","1","1","1","1"
"260072","img/object_images/chair03.jpg","img/object_images/toilet_paper_dispenser01.jpg","img/object_images/fan02.jpg","1","1","1","0","1","0","0.468078999983845","0.433319799980382","0.423735799995484","1","1","1","1","1","1","1","1","1"
"260072","img/object_images/fan02.jpg","img/object_images/chair03.jpg","img/object_images/bottle09.jpg","1","1","0","0","0","0","0.423735799995484","0.468078999983845","0.537133200006792","1","1","1","1","1","1","1","1","1"
"260072","img/object_images/bottle09.jpg","img/object_images/fan02.jpg","img/object_images/water_scooter01.jpg","0","1","1","0","0","1","0.537133200006792","0.423735799995484","0.470584399998188","1","1","1","1","1","1","1","1","1"
"260072","img/object_images/water_scooter01.jpg","img/object_images/bottle09.jpg","img/object_images/wagon_cart03.jpg","1","0","1","1","0","1","0.470584399998188","0.537133200006792","0.450436799990712","1","1","1","1","1","1","1","1","1"
"260072","img/object_images/wagon_cart03.jpg","img/object_images/water_scooter01.jpg","img/object_images/camera_lens01.jpg","1","1","1","1","1","1","0.450436799990712","0.470584399998188","0.528151300008176","1","1","1","1","1","1","1","1","1"
"260072","img/object_images/camera_lens01.jpg","img/object_images/wagon_cart03.jpg","img/object_images/boat_toy10.jpg","1","1","1","1","1","0","0.528151300008176","0.450436799990712","0.678986400016584","1","1","1","1","1","1","1","1","1"
"260072","img/object_images/boat_toy10.jpg","img/object_images/camera_lens01.jpg","img/object_images/helmet04.jpg","1","1","1","0","1","1","0.678986400016584","0.528151300008176","0.413583699992159","1","1","1","1","1","1","1","1","1"
"260072","img/object_images/helmet04.jpg","img/object_images/boat_toy10.jpg","img/object_images/cellphone03.jpg","1","1","0","1","0","0","0.413583699992159","0.678986400016584",NA,"1","1","0","1","1","0","1","1","0"
"260072","img/object_images/cellphone03.jpg","img/object_images/helmet04.jpg","img/object_images/tie02.jpg","0","1","0","0","1","0",NA,"0.413583699992159","0.376906999998027","0","1","1","0","1","1","0","1","1"
"260072","img/object_images/tie02.jpg","img/object_images/cellphone03.jpg","img/object_images/bicycle01.jpg","0","0","0","0","0","1","0.376906999998027",NA,NA,"1","0","0","1","0","0","1","0","0"
"260072","img/object_images/bicycle01.jpg","img/object_images/tie02.jpg",NA,"0","0",NA,"1","0",NA,NA,"0.376906999998027",NA,"0","1",NA,"0","1",NA,"0","1",NA
