"participant_id","object","surpAcc","memory_surp_responses","memory_surp_rt","keep_surp_memory_trial_based_on_rt","surp_block_num","exclude_block","number_of_surp_resp_items_used","num_blocks_excluded"
"260022","img/object_images/flashlight03.jpg","1","k","3.98782869998831",1,1,0,2,0
"260022","img/object_images/Lint_Roller02.jpg","1","s","2.35389490000671",1,1,0,2,0
"260022","img/object_images/dress03.jpg","0","k","4.30852860002778",1,1,0,2,0
"260022","img/object_images/guitar02.jpg","1","k","1.41577359999064",1,1,0,2,0
"260022","img/object_images/fan01.jpg","0","k","1.61389140004758",1,1,0,2,0
"260022","img/object_images/clip02.jpg","1","k","1.36224079999374",1,1,0,2,0
"260022","img/object_images/tv01.jpg","1","k","1.12860210001236",1,1,0,2,0
"260022","img/object_images/Thermometer01.jpg","1","s","1.86197690002155",1,1,0,2,0
"260022","img/object_images/matches02.jpg","1","s","1.60763829998905",1,1,0,2,0
"260022","img/object_images/vase01.jpg","1","s","1.29116140003316",1,1,0,2,0
"260022","img/object_images/book03.jpg","0","s","1.22636570001487",1,1,0,2,0
"260022","img/object_images/pen03.jpg","1","k","1.73856450000312",1,1,0,2,0
"260022","img/object_images/ruler02.jpg","0","s","1.46317360003013",1,1,0,2,0
"260022","img/object_images/microphone03.jpg","1","s","1.22943419998046",1,1,0,2,0
"260022","img/object_images/crown02.jpg","1","k","2.28835560003063",1,1,0,2,0
"260022","img/object_images/pitcher02.jpg","1","k","1.69650399999227",1,1,0,2,0
"260022","img/object_images/video_game02.jpg","1","s","1.20668330002809",1,1,0,2,0
"260022","img/object_images/Traffic Sign 01.jpg","1","k","1.44350080005825",1,1,0,2,0
"260022","img/object_images/knife02.jpg","1","k","1.2537404000177",1,1,0,2,0
"260022","img/object_images/brief_case02.jpg","1","k","1.33353549998719",1,1,0,2,0
"260022","img/object_images/WoodBox01.jpg","1","k","1.58885040000314",1,1,0,2,0
"260022","img/object_images/shower_head01.jpg","1","s","1.24426629999653",1,1,0,2,0
"260022","img/object_images/purse04.jpg","1","s","1.26522489998024",1,1,0,2,0
"260022","img/object_images/broom01.jpg","0","s","1.67034219997004",1,1,0,2,0
"260022","img/object_images/MetalWire01.jpg","1","k","2.0468098000274",1,1,0,2,0
"260022","img/object_images/knife01.jpg","1","k","1.00739729998168",1,1,0,2,0
"260022","img/object_images/knife04.jpg","1","k","1.10243430000264",1,1,0,2,0
"260022","img/object_images/bird_house02.jpg","0","s","1.14120379998349",1,1,0,2,0
"260022","img/object_images/pot01.jpg","1","s","0.890729899983853",1,1,0,2,0
"260022","img/object_images/boat04.jpg","1","k","0.924666900013108",1,1,0,2,0
"260022","img/object_images/jewel04.jpg","1","s","0.953057900012936",1,1,0,2,0
"260022","img/object_images/razor01.jpg","1","s","0.950178500032052",1,1,0,2,0
"260022","img/object_images/Vest02.jpg","1","s","1.1262706000125",1,1,0,2,0
"260022","img/object_images/toaster01.jpg","1","s","1.25825349998195",1,1,0,2,0
"260022","img/object_images/ornament01.jpg","0","s","1.44975530001102",1,1,0,2,0
"260022","img/object_images/perfume02.jpg","0","s","1.25191370001994",1,1,0,2,0
"260022","img/object_images/mask01.jpg","1","s","1.18086899997434",1,1,0,2,0
"260022","img/object_images/knit05.jpg","1","s","1.53754769999068",1,1,0,2,0
"260022","img/object_images/bow_tie03.jpg","1","k","0.99434299999848",1,1,0,2,0
"260022","img/object_images/bottle05.jpg","0","s","1.81035589997191",1,1,0,2,0
"260022","img/object_images/scarf01.jpg","1","s","1.44225049996749",1,1,0,2,0
"260022","img/object_images/hair_brush02.jpg","0","k","1.20647709997138",1,1,0,2,0
"260022","img/object_images/accardion01.jpg","0","k","2.48727669997606",1,1,0,2,0
"260022","img/object_images/key02.jpg","0","s","2.27294260001509",1,1,0,2,0
"260022","img/object_images/bow_tie01.jpg","1","k","0.970801100018434",1,1,0,2,0
"260022","img/object_images/sink01.jpg","1","s","1.63916720001725",1,1,0,2,0
"260022","img/object_images/cellphone03.jpg","1","s","1.44326289999299",1,1,0,2,0
"260022","img/object_images/ToolBag01.jpg","1","s","0.998414299974684",1,1,0,2,0
"260022","img/object_images/pan01.jpg","1","s","1.574955100019",1,2,0,2,0
"260022","img/object_images/clip04.jpg","0","s","1.48053850000724",1,2,0,2,0
"260022","img/object_images/hole_puncher01.jpg","1","s","1.83062770002289",1,2,0,2,0
"260022","img/object_images/trash_can05.jpg","1","k","1.19231399998534",1,2,0,2,0
"260022","img/object_images/tie02.jpg","1","k","0.971201000036672",1,2,0,2,0
"260022","img/object_images/retainer01.jpg","1","k","1.01558179996209",1,2,0,2,0
"260022","img/object_images/crutches02.jpg","1","k","0.963313199987169",1,2,0,2,0
"260022","img/object_images/ear_bud01.jpg","1","s","0.909318599966355",1,2,0,2,0
"260022","img/object_images/robe01.jpg","1","k","0.917084800021257",1,2,0,2,0
"260022","img/object_images/surf_board01.jpg","0","k","2.00401729997247",1,2,0,2,0
"260022","img/object_images/tripod01.jpg","1","k","1.26977310003713",1,2,0,2,0
"260022","img/object_images/projector01.jpg","1","s","1.38221750000957",1,2,0,2,0
"260022","img/object_images/gift_box02.jpg","1","k","1.03458470001351",1,2,0,2,0
"260022","img/object_images/dice01.jpg","1","s","1.27764060004847",1,2,0,2,0
"260022","img/object_images/airfryer01.jpg","1","k","1.04996619996382",1,2,0,2,0
"260022","img/object_images/soap01.jpg","1","k","1.11922589997994",1,2,0,2,0
"260022","img/object_images/hammer03.jpg","1","s","1.33089349995134",1,2,0,2,0
"260022","img/object_images/Witchhat01.jpg","0","k","1.4678851000499",1,2,0,2,0
"260022","img/object_images/pen01.jpg","1","k","1.39484260004247",1,2,0,2,0
"260022","img/object_images/acoustic_capo01.jpg","1","s","1.5289180999971",1,2,0,2,0
"260022","img/object_images/gauze01.jpg","1","s","0.880949699960183",1,2,0,2,0
"260022","img/object_images/ice_tray03.jpg","1","s","1.02246659999946",1,2,0,2,0
"260022","img/object_images/hat13.jpg","0","s","1.1507200000342",1,2,0,2,0
"260022","img/object_images/glasses03.jpg","0","k","1.16476000001421",1,2,0,2,0
"260022","img/object_images/microscope01.jpg","0","k","1.71865200001048",1,2,0,2,0
"260022","img/object_images/pitcher01.jpg","0","k","1.28442679997534",1,2,0,2,0
"260022","img/object_images/board01.jpg","1","s","1.12649609998334",1,2,0,2,0
"260022","img/object_images/backpack01.jpg","0","k","1.18284149997635",1,2,0,2,0
"260022","img/object_images/lemon_squeezer02.jpg","1","s","1.11080760002369",1,2,0,2,0
"260022","img/object_images/ironing_table01.jpg","1","k","1.0185432000435",1,2,0,2,0
"260022","img/object_images/bath_tub01.jpg","1","k","1.07187099999283",1,2,0,2,0
"260022","img/object_images/tool11.jpg","1","s","1.32632559997728",1,2,0,2,0
"260022","img/object_images/pen05.jpg","0","k","1.65725650003878",1,2,0,2,0
"260022","img/object_images/ball02.jpg","1","s","1.16850819997489",1,2,0,2,0
"260022","img/object_images/knit01.jpg","1","k","1.03812809998635",1,2,0,2,0
"260022","img/object_images/WitchHat02.jpg","1","s","1.08684920001542",1,2,0,2,0
"260022","img/object_images/boat_toy10.jpg","1","k","1.16728230001172",1,2,0,2,0
"260022","img/object_images/curtain02.jpg","1","s","1.17152740003075",1,2,0,2,0
"260022","img/object_images/wallet02.jpg","1","s","1.14379120001104",1,2,0,2,0
"260022","img/object_images/vase02.jpg","1","s","1.4099904000177",1,2,0,2,0
"260022","img/object_images/slinky_toy01.jpg","1","s","0.808902299962938",1,2,0,2,0
"260022","img/object_images/helmet01.jpg","1","s","1.08682500000577",1,2,0,2,0
"260022","img/object_images/note_book02.jpg","1","s","1.13558750000084",1,2,0,2,0
"260022","img/object_images/TreeSlice01.jpg","0","s","1.37223689997336",1,2,0,2,0
"260022","img/object_images/lemon_squeezer01.jpg","0","s","1.1723393999855",1,2,0,2,0
"260022","img/object_images/mail_box02.jpg","1","k","0.994070099957753",1,2,0,2,0
"260022","img/object_images/toothbrush01.jpg","0","k","2.01250469998922",1,2,0,2,0
"260022","img/object_images/tool07.jpg","1","s","1.84941219998291",1,2,0,2,0
"260022","img/object_images/tool02.jpg","1","s","1.50287749996642",1,3,0,2,0
"260022","img/object_images/toy08.jpg","1","s","1.96031279995805",1,3,0,2,0
"260022","img/object_images/shovel01.jpg","1","s","1.04055609996431",1,3,0,2,0
"260022","img/object_images/computer_mouse01.jpg","1","s","1.50388019997627",1,3,0,2,0
"260022","img/object_images/Tin01.jpg","1","k","1.21218410000438",1,3,0,2,0
"260022","img/object_images/Violin01.jpg","1","k","0.901654899993446",1,3,0,2,0
"260022","img/object_images/blender01.jpg","1","s","1.76822120003635",1,3,0,2,0
"260022","img/object_images/toy_train02.jpg","1","k","1.09473449998768",1,3,0,2,0
"260022","img/object_images/video_game06.jpg","1","k","1.30058609996922",1,3,0,2,0
"260022","img/object_images/bottle02.jpg","1","k","0.889985200017691",1,3,0,2,0
"260022","img/object_images/basket02.jpg","1","k","1.41797940002289",1,3,0,2,0
"260022","img/object_images/gloves05.jpg","1","s","1.14096700004302",1,3,0,2,0
"260022","img/object_images/stereo02.jpg","1","k","1.24319910001941",1,3,0,2,0
"260022","img/object_images/bottle12.jpg","1","s","1.16959010000573",1,3,0,2,0
"260022","img/object_images/water_gun01.jpg","0","k","1.62575630005449",1,3,0,2,0
"260022","img/object_images/jewelry01.jpg","1","k","1.35845700005302",1,3,0,2,0
"260022","img/object_images/spatula02.jpg","0","s","1.20214459998533",1,3,0,2,0
"260022","img/object_images/floppy_disk02.jpg","0","s","1.36934919998748",1,3,0,2,0
"260022","img/object_images/hoverboard01.jpg","1","s","1.75041979999514",1,3,0,2,0
"260022","img/object_images/note_book01.jpg","0","s","1.42044730001362",1,3,0,2,0
"260022","img/object_images/audio_port01.jpg","0","k","1.25076049997006",1,3,0,2,0
"260022","img/object_images/kite01.jpg","1","s","1.44013909995556",1,3,0,2,0
"260022","img/object_images/fan04.jpg","1","s","1.18009430001257",1,3,0,2,0
"260022","img/object_images/trumpet01.jpg","1","s","1.39546619995963",1,3,0,2,0
"260022","img/object_images/lock03.jpg","1","k","1.17508990003262",1,3,0,2,0
"260022","img/object_images/book01.jpg","1","s","1.14589569997042",1,3,0,2,0
"260022","img/object_images/toy01.jpg","1","k","1.1466052000178",1,3,0,2,0
"260022","img/object_images/tool08.jpg","1","k","1.29004619998159",1,3,0,2,0
"260022","img/object_images/sleeping_bag01.jpg","1","k","1.50560209999094",1,3,0,2,0
"260022","img/object_images/sink_filter01 (1).jpg","1","k","1.11532630003057",1,3,0,2,0
"260022","img/object_images/candle02.jpg","1","s","1.07304769998882",1,3,0,2,0
"260022","img/object_images/Candle_Holder01.jpg","0","k","1.38805130001856",1,3,0,2,0
"260022","img/object_images/bucket02.jpg","1","s","1.71355079999194",1,3,0,2,0
"260022","img/object_images/backpack03.jpg","1","k","1.37808739999309",1,3,0,2,0
"260022","img/object_images/origami01.jpg","1","k","1.04739940003492",1,3,0,2,0
"260022","img/object_images/camera05.jpg","1","k","1.60663370002294",1,3,0,2,0
"260022","img/object_images/exfoliater_brush01.jpg","1","s","1.32611200003885",1,3,0,2,0
"260022","img/object_images/bookmark01.jpg","1","s","1.10661930002971",1,3,0,2,0
"260022","img/object_images/clock02.jpg","0","k","0.996882100007497",1,3,0,2,0
"260022","img/object_images/MeasuringCup01.jpg","1","s","0.778498200001195",1,3,0,2,0
"260022","img/object_images/TrashCan02.jpg","1","s","1.94413910002913",1,3,0,2,0
"260022","img/object_images/Ring02.jpg","1","s","1.37686680001207",1,3,0,2,0
"260022","img/object_images/book02.jpg","1","s","1.46476870001061",1,3,0,2,0
"260022","img/object_images/dog_leash01.jpg","1","s","1.62539419997483",1,3,0,2,0
"260022","img/object_images/yarn02.jpg","1","s","1.7224045000039",1,3,0,2,0
"260022","img/object_images/bag04.jpg","1","s","0.849171899957582",1,3,0,2,0
"260022","img/object_images/toy03.jpg","0","s","1.50291799998377",1,3,0,2,0
"260022","img/object_images/combs01.jpg","0","k","1.62389000004623",1,3,0,2,0
"260022","img/object_images/chair02.jpg","1","s","0.726460500038229",1,4,0,2,0
"260022","img/object_images/bicycle_lock01.jpg","1","s","1.30876639997587",1,4,0,2,0
"260022","img/object_images/bottle09.jpg","1","k","1.22773490002146",1,4,0,2,0
"260022","img/object_images/Woopie01.jpg","1","s","0.745731300034095",1,4,0,2,0
"260022","img/object_images/pitcher05.jpg","1","k","0.982393100042827",1,4,0,2,0
"260022","img/object_images/joystick03.jpg","0","s","1.1968421000056",1,4,0,2,0
"260022","img/object_images/judge_gavel01.jpg","1","k","1.12559280003188",1,4,0,2,0
"260022","img/object_images/colander01.jpg","1","s","1.14536610001232",1,4,0,2,0
"260022","img/object_images/bag_pipes01.jpg","1","k","1.05923500005156",1,4,0,2,0
"260022","img/object_images/Staples01.jpg","1","s","1.09218590002274",1,4,0,2,0
"260022","img/object_images/bean_bag02.jpg","0","k","0.868117799982429",1,4,0,2,0
"260022","img/object_images/couch03.jpg","1","s","1.04026570002316",1,4,0,2,0
"260022","img/object_images/lighter01.jpg","0","k","1.19133780000266",1,4,0,2,0
"260022","img/object_images/cards01.jpg","1","s","1.33747570001287",1,4,0,2,0
"260022","img/object_images/basket04.jpg","0","s","0.916032699984498",1,4,0,2,0
"260022","img/object_images/speaker01.jpg","1","k","1.15999070001999",1,4,0,2,0
"260022","img/object_images/chain01.jpg","1","k","0.87679410004057",1,4,0,2,0
"260022","img/object_images/brief_case01.jpg","1","s","1.04227540001739",1,4,0,2,0
"260022","img/object_images/Statue01.jpg","1","k","1.25913119997131",1,4,0,2,0
"260022","img/object_images/golf_ball03.jpg","0","s","1.10354270000244",1,4,0,2,0
"260022","img/object_images/Trowel01.jpg","0","k","1.02623899996979",1,4,0,2,0
"260022","img/object_images/bottle01.jpg","1","k","1.0098214999889",1,4,0,2,0
"260022","img/object_images/egg_slicer01.jpg","1","k","1.3994111000211",1,4,0,2,0
"260022","img/object_images/Wisk01.jpg","1","k","1.1276235000114",1,4,0,2,0
"260022","img/object_images/Pottery01.jpg","1","s","0.853341199981514",1,4,0,2,0
"260022","img/object_images/tool18.jpg","1","k","1.14301970001543",1,4,0,2,0
"260022","img/object_images/chess_piece02.jpg","1","s","0.997785600018688",1,4,0,2,0
"260022","img/object_images/bow01.jpg","1","k","1.3971206000424",1,4,0,2,0
"260022","img/object_images/hat02.jpg","1","s","0.644967500003986",1,4,0,2,0
"260022","img/object_images/hammer01.jpg","0","k","1.71408100001281",1,4,0,2,0
"260022","img/object_images/chair05.jpg","1","k","1.23679549997905",1,4,0,2,0
"260022","img/object_images/yo_yo01.jpg","1","s","1.05348900001263",1,4,0,2,0
"260022","img/object_images/container01.jpg","1","k","1.22580269997707",1,4,0,2,0
"260022","img/object_images/mirror01.jpg","0","s","1.2072253000224",1,4,0,2,0
"260022","img/object_images/video_game07.jpg","1","s","1.82647570001427",1,4,0,2,0
"260022","img/object_images/motorcycle01.jpg","1","s","1.09409020002931",1,4,0,2,0
"260022","img/object_images/hair_brush05.jpg","0","s","1.25824749999447",1,4,0,2,0
"260022","img/object_images/lamp01.jpg","1","k","1.14294169994537",1,4,0,2,0
"260022","img/object_images/knit03.jpg","1","s","0.708689699997194",1,4,0,2,0
"260022","img/object_images/jewel02.jpg","1","s","0.874402999994345",1,4,0,2,0
"260022","img/object_images/usb03.jpg","1","s","0.913241599977482",1,4,0,2,0
"260022","img/object_images/jacket04.jpg","1","s","1.38054740004009",1,4,0,2,0
"260022","img/object_images/piggy_bank01.jpg","1","s","0.902103100030217",1,4,0,2,0
"260022","img/object_images/guitar01.jpg","1","k","1.03424070001347",1,4,0,2,0
"260022","img/object_images/handcuffs01.jpg","0","s","1.12832470005378",1,4,0,2,0
"260022","img/object_images/ball01.jpg","1","s","0.839401000004727",1,4,0,2,0
"260022","img/object_images/water_scooter01.jpg","1","k","1.42993569996906",1,4,0,2,0
"260022","img/object_images/flask01.jpg","0","k","1.45093190000625",1,4,0,2,0
"260022","img/object_images/hammer02.jpg","1","s","1.0984714999795",1,5,0,2,0
"260022","img/object_images/video_game01.jpg","1","s","1.37819590000436",1,5,0,2,0
"260022","img/object_images/lawn_mower01.jpg","1","s","1.18755360000068",1,5,0,2,0
"260022","img/object_images/coloring_pencil02.jpg","1","k","1.36731520004105",1,5,0,2,0
"260022","img/object_images/binoculars03.jpg","0","s","0.870755200041458",1,5,0,2,0
"260022","img/object_images/socks02.jpg","0","s","1.10069589997875",1,5,0,2,0
"260022","img/object_images/razor02.jpg","1","k","0.984143799985759",1,5,0,2,0
"260022","img/object_images/badminton01.jpg","1","s","1.14395729999524",1,5,0,2,0
"260022","img/object_images/couch04.jpg","1","k","1.0443413000321",1,5,0,2,0
"260022","img/object_images/helmet03.jpg","1","s","0.798539999988861",1,5,0,2,0
"260022","img/object_images/bag06.jpg","0","s","1.37226229999214",1,5,0,2,0
"260022","img/object_images/laptop01.jpg","1","s","1.23620899999514",1,5,0,2,0
"260022","img/object_images/bottle10.jpg","1","s","1.44370979996165",1,5,0,2,0
"260022","img/object_images/shoes10.jpg","1","s","1.39057519997004",1,5,0,2,0
"260022","img/object_images/clip03.jpg","1","s","1.5285387999611",1,5,0,2,0
"260022","img/object_images/shoes08.jpg","1","s","1.04392229998484",1,5,0,2,0
"260022","img/object_images/faucet01.jpg","0","s","1.11501149996184",1,5,0,2,0
"260022","img/object_images/socks01.jpg","0","k","1.38669610000215",1,5,0,2,0
"260022","img/object_images/fan05.jpg","1","k","1.96448169997893",1,5,0,2,0
"260022","img/object_images/toy04.jpg","1","s","1.45784099999582",1,5,0,2,0
"260022","img/object_images/dresser03.jpg","1","k","1.20792870002333",1,5,0,2,0
"260022","img/object_images/lock04.jpg","1","s","1.34499150002375",1,5,0,2,0
"260022","img/object_images/bow_tie02.jpg","0","s","1.06899420003174",1,5,0,2,0
"260022","img/object_images/watch01.jpg","0","s","1.31950390001293",1,5,0,2,0
"260022","img/object_images/jewelry09.jpg","1","s","1.39259279996622",1,5,0,2,0
"260022","img/object_images/lid01.jpg","1","s","1.3014220999903",1,5,0,2,0
"260022","img/object_images/grater01.jpg","1","k","1.96596429997589",1,5,0,2,0
"260022","img/object_images/camera07.jpg","1","s","1.00881800003117",1,5,0,2,0
"260022","img/object_images/car04.jpg","1","s","1.020440399996",1,5,0,2,0
"260022","img/object_images/bell03.jpg","0","k","1.03177729999879",1,5,0,2,0
"260022","img/object_images/helmet05.jpg","1","k","1.01972680003382",1,5,0,2,0
"260022","img/object_images/sign02.jpg","0","s","1.64480420004111",1,5,0,2,0
"260022","img/object_images/phone02.jpg","0","k","1.69486970000435",1,5,0,2,0
"260022","img/object_images/tool13.jpg","1","k","1.31946510000853",1,5,0,2,0
"260022","img/object_images/lock01.jpg","1","s","1.52765110001201",1,5,0,2,0
"260022","img/object_images/Vacuum01.jpg","1","k","1.1380618000403",1,5,0,2,0
"260022","img/object_images/vga_port 01.jpg","1","k","1.50099979998777",1,5,0,2,0
"260022","img/object_images/pitcher03.jpg","1","k","1.27481450000778",1,5,0,2,0
"260022","img/object_images/paint_brush04.jpg","1","s","1.1121170000406",1,5,0,2,0
"260022","img/object_images/headset02.jpg","1","k","1.38177290005842",1,5,0,2,0
"260022","img/object_images/tie01.jpg","1","s","1.36568899999838",1,5,0,2,0
"260022","img/object_images/balloon01.jpg","1","s","0.740043499972671",1,5,0,2,0
"260022","img/object_images/pitcher09.jpg","1","s","0.835960900003556",1,5,0,2,0
"260022","img/object_images/office_supplies01.jpg","1","k","1.04817760002334",1,5,0,2,0
"260022","img/object_images/tennis_racket01.jpg","0","s","0.818148999998812",1,5,0,2,0
"260022","img/object_images/jewel01.jpg","1","k","1.21066839998821",1,5,0,2,0
"260022","img/object_images/coloring_pencil01.jpg","1","k","0.998473400017247",1,5,0,2,0
"260022","img/object_images/Kitchen_Towel.jpg","1","s","1.05738930002553",1,5,0,2,0
"260022","img/object_images/tool19.jpg","0","k","1.44634839997161",1,6,0,2,0
"260022","img/object_images/rock02.jpg","1","k","1.20869389997097",1,6,0,2,0
"260022","img/object_images/hair_brush01.jpg","1","k","1.04457809997257",1,6,0,2,0
"260022","img/object_images/gift_box05.jpg","0","k","1.50577899999917",1,6,0,2,0
"260022","img/object_images/paper_cup02.jpg","1","k","1.13278830004856",1,6,0,2,0
"260022","img/object_images/computer_mouse02.jpg","0","s","1.35793920001015",1,6,0,2,0
"260022","img/object_images/spray_can01.jpg","0","s","0.905552899988834",1,6,0,2,0
"260022","img/object_images/jewel03.jpg","1","s","1.24969150003744",1,6,0,2,0
"260022","img/object_images/car02.jpg","1","s","0.71753510000417",1,6,0,2,0
"260022","img/object_images/jewelry07.jpg","1","s","0.991276300046593",1,6,0,2,0
"260022","img/object_images/funnel01.jpg","1","k","1.04412609996507",1,6,0,2,0
"260022","img/object_images/hand_grip_exerciser01.jpg","1","k","1.85358429996995",1,6,0,2,0
"260022","img/object_images/umbrella01.jpg","0","s","1.10475299996324",1,6,0,2,0
"260022","img/object_images/usb02.jpg","1","k","0.889760199992452",1,6,0,2,0
"260022","img/object_images/ironing_table02.jpg","1","s","0.692761399957817",1,6,0,2,0
"260022","img/object_images/belt01.jpg","1","k","0.988939000002574",1,6,0,2,0
"260022","img/object_images/shoes07.jpg","1","s","0.713218099961523",1,6,0,2,0
"260022","img/object_images/bucket01.jpg","0","s","1.1517897999729",1,6,0,2,0
"260022","img/object_images/perfume01.jpg","0","k","0.940451400005259",1,6,0,2,0
"260022","img/object_images/camera_lens01.jpg","1","s","1.0777870999882",1,6,0,2,0
"260022","img/object_images/tray01.jpg","1","k","0.889658100029919",1,6,0,2,0
"260022","img/object_images/cup03.jpg","0","k","1.48170730000129",1,6,0,2,0
"260022","img/object_images/pitcher07.jpg","1","k","1.41028419998474",1,6,0,2,0
"260022","img/object_images/cutting_board01.jpg","1","k","1.93612679996295",1,6,0,2,0
"260022","img/object_images/trash_can03.jpg","1","k","1.54365899995901",1,6,0,2,0
"260022","img/object_images/glasses07.jpg","1","k","2.03127010003664",1,6,0,2,0
"260022","img/object_images/purse01.jpg","1","s","1.06375530001242",1,6,0,2,0
"260022","img/object_images/toy05.jpg","0","s","1.0764156000223",1,6,0,2,0
"260022","img/object_images/shower_head03.jpg","1","k","1.18041279999306",1,6,0,2,0
"260022","img/object_images/Sprayer01.jpg","0","s","0.990218299964908",1,6,0,2,0
"260022","img/object_images/soap03.jpg","0","s","1.26294270000653",1,6,0,2,0
"260022","img/object_images/shoes12.jpg","1","k","1.05852089996915",1,6,0,2,0
"260022","img/object_images/hot_air_balloon02.jpg","1","k","1.06289499998093",1,6,0,2,0
"260022","img/object_images/remote_controller01.jpg","1","k","1.0442064999952",1,6,0,2,0
"260022","img/object_images/blender02.jpg","1","k","1.02514619997237",1,6,0,2,0
"260022","img/object_images/piano03.jpg","1","k","2.17708320001839",1,6,0,2,0
"260022","img/object_images/paper_cup01.jpg","1","s","1.14014680002583",1,6,0,2,0
"260022","img/object_images/ribbon01.jpg","1","k","1.19166039995616",1,6,0,2,0
"260022","img/object_images/fridge03.jpg","1","k","1.15188949997537",1,6,0,2,0
"260022","img/object_images/toaster02.jpg","1","k","1.18143639998743",1,6,0,2,0
"260022","img/object_images/chair04.jpg","0","k","1.33722630003467",1,6,0,2,0
"260022","img/object_images/fork02.jpg","1","s","1.394621799991",1,6,0,2,0
"260022","img/object_images/Eyeliner01.jpg","1","k","1.05154029995902",1,6,0,2,0
"260022","img/object_images/drone02.jpg","1","s","0.99002060003113",1,6,0,2,0
"260022","img/object_images/keyboard02.jpg","1","k","1.73912270000437",1,6,0,2,0
"260022","img/object_images/tool06.jpg","1","s","1.17997370002558",1,6,0,2,0
"260022","img/object_images/hair_dryer01.jpg","1","k","1.17035119998036",1,6,0,2,0
"260022","img/object_images/scale02.jpg","1","k","1.2536276000319",1,6,0,2,0
"260022","img/object_images/mail_box01.jpg","1","s","1.45477870001923",1,7,0,2,0
"260022","img/object_images/compass01.jpg","1","k","1.16898839996429",1,7,0,2,0
"260022","img/object_images/tv02.jpg","0","k","1.19002959999489",1,7,0,2,0
"260022","img/object_images/stove01.jpg","1","k","1.36722930002725",1,7,0,2,0
"260022","img/object_images/bottle06.jpg","1","k","1.12383980001323",1,7,0,2,0
"260022","img/object_images/screwdriver01.jpg","0","k","1.31911770004081",1,7,0,2,0
"260022","img/object_images/cochlear_implant01.jpg","1","s","0.908187700028066",1,7,0,2,0
"260022","img/object_images/stapler.jpg","0","k","1.76655749999918",1,7,0,2,0
"260022","img/object_images/car01.jpg","0","s","1.21547130000545",1,7,0,2,0
"260022","img/object_images/fork03.jpg","1","s","1.18897730001481",1,7,0,2,0
"260022","img/object_images/Stool01.jpg","0","k","1.09131699998397",1,7,0,2,0
"260022","img/object_images/pen06.jpg","1","k","0.85951079998631",1,7,0,2,0
"260022","img/object_images/razor03.jpg","1","s","0.733936799981166",1,7,0,2,0
"260022","img/object_images/clipboard01.jpg","1","k","0.873512000020128",1,7,0,2,0
"260022","img/object_images/fan02.jpg","0","k","1.25477900000988",1,7,0,2,0
"260022","img/object_images/duster01.jpg","0","k","1.08369880000828",1,7,0,2,0
"260022","img/object_images/frame01.jpg","0","k","0.896302499982994",1,7,0,2,0
"260022","img/object_images/yoga_mat01.jpg","1","k","1.25702950003324",1,7,0,2,0
"260022","img/object_images/cup01.jpg","0","k","1.92745369998738",1,7,0,2,0
"260022","img/object_images/basketball_hoop02.jpg","1","k","1.22006580000743",1,7,0,2,0
"260022","img/object_images/Confetti 01.jpg","0","s","1.2256518000504",1,7,0,2,0
"260022","img/object_images/glasses06.jpg","1","s","1.65804780001054",1,7,0,2,0
"260022","img/object_images/video_game03.jpg","1","s","1.17426780000096",1,7,0,2,0
"260022","img/object_images/outlet01.jpg","1","s","1.36530329997186",1,7,0,2,0
"260022","img/object_images/Oven01.jpg","1","s","1.49302819999866",1,7,0,2,0
"260022","img/object_images/gloves02.jpg","1","k","1.30378500005463",1,7,0,2,0
"260022","img/object_images/towel02.jpg","1","k","1.11500420002267",1,7,0,2,0
"260022","img/object_images/measuring_tape02.jpg","1","s","1.62722339999164",1,7,0,2,0
"260022","img/object_images/ring03.jpg","1","s","1.38230439997278",1,7,0,2,0
"260022","img/object_images/floss02.jpg","0","s","1.62814270000672",1,7,0,2,0
"260022","img/object_images/bell02.jpg","1","k","1.10432859999128",1,7,0,2,0
"260022","img/object_images/box03.jpg","0","s","1.17123919998994",1,7,0,2,0
"260022","img/object_images/remover01.jpg","1","s","1.17673469998408",1,7,0,2,0
"260022","img/object_images/chair06.jpg","1","s","1.74290509999264",1,7,0,2,0
"260022","img/object_images/camera03.jpg","0","k","1.14021460001823",1,7,0,2,0
"260022","img/object_images/rock03.jpg","1","s","1.36323419999098",1,7,0,2,0
"260022","img/object_images/hat09.jpg","1","k","1.83908639999572",1,7,0,2,0
"260022","img/object_images/wire02.jpg","0","s","1.91429220000282",1,7,0,2,0
"260022","img/object_images/decorative02.jpg","1","k","1.20220170001267",1,7,0,2,0
"260022","img/object_images/jacket03.jpg","1","k","1.50465090002399",1,7,0,2,0
"260022","img/object_images/towels01.jpg","1","s","0.920155200001318",1,7,0,2,0
"260022","img/object_images/bicycle01.jpg","1","s","1.33909029996721",1,7,0,2,0
"260022","img/object_images/tennis_racket02.jpg","1","k","1.08201510005165",1,7,0,2,0
"260022","img/object_images/car03.jpg","1","s","1.16803939995589",1,7,0,2,0
"260022","img/object_images/boat02.jpg","0","k","1.73489570000675",1,7,0,2,0
"260022","img/object_images/handkerchief01.jpg","0","k","1.23349349998171",1,7,0,2,0
"260022","img/object_images/hair_clips01.jpg","1","s","0.863331000029575",1,7,0,2,0
"260022","img/object_images/chair03.jpg","1","k","0.967311099986546",1,7,0,2,0
"260022","img/object_images/drone01.jpg","1","k","1.26150449999841",1,8,0,2,0
"260022","img/object_images/frisbee01.jpg","0","s","1.20814809994772",1,8,0,2,0
"260022","img/object_images/pot01 (1).jpg","1","k","0.799577199970372",1,8,0,2,0
"260022","img/object_images/floss01.jpg","1","k","1.49959540000418",1,8,0,2,0
"260022","img/object_images/calculator01.jpg","1","s","1.0331135999877",1,8,0,2,0
"260022","img/object_images/bottle07.jpg","1","k","0.914754199970048",1,8,0,2,0
"260022","img/object_images/wagon_cart03.jpg","1","k","1.06417769996915",1,8,0,2,0
"260022","img/object_images/phone04.jpg","1","k","1.39537899999414",1,8,0,2,0
"260022","img/object_images/nut_cracker01.jpg","1","s","0.817884099960793",1,8,0,2,0
"260022","img/object_images/dresser04.jpg","1","s","1.22749970003497",1,8,0,2,0
"260022","img/object_images/pan03.jpg","1","s","2.1321071999846",1,8,0,2,0
"260022","img/object_images/Screws01.jpg","1","k","0.99248549999902",1,8,0,2,0
"260022","img/object_images/skate_board01.jpg","0","s","0.800728200003505",1,8,0,2,0
"260022","img/object_images/lantern01.jpg","0","s","1.3571157999686",1,8,0,2,0
"260022","img/object_images/egg_basket01.jpg","1","s","1.2369412999833",1,8,0,2,0
"260022","img/object_images/airfryer02.jpg","1","s","0.850192100042477",1,8,0,2,0
"260022","img/object_images/helmet04.jpg","1","k","1.69141319999471",1,8,0,2,0
"260022","img/object_images/Shoes05.jpg","0","s","1.05443439999362",1,8,0,2,0
"260022","img/object_images/gift_box03.jpg","0","k","1.76251259999117",1,8,0,2,0
"260022","img/object_images/hat06.jpg","0","k","1.55781379999826",1,8,0,2,0
"260022","img/object_images/dart01.jpg","1","k","1.14693099999567",1,8,0,2,0
"260022","img/object_images/toilet_paper_dispenser01.jpg","1","k","1.17346580000594",1,8,0,2,0
"260022","img/object_images/fire_extinguisher01.jpg","1","k","1.20326350000687",1,8,0,2,0
"260022","img/object_images/couch01.jpg","0","k","1.12253289995715",1,8,0,2,0
"260022","img/object_images/satellite01.jpg","1","s","1.95248350000475",1,8,0,2,0
"260022","img/object_images/blanket01.jpg","1","k","1.68282549997093",1,8,0,2,0
"260022","img/object_images/Safe01.jpg","0","s","1.05287130002398",1,8,0,2,0
"260022","img/object_images/dust_pan01.jpg","0","s","1.2712967999978",1,8,0,2,0
"260022","img/object_images/belt03.jpg","1","k","1.97869409999112",1,8,0,2,0
"260022","img/object_images/knit04.jpg","1","k","1.03914690000238",1,8,0,2,0
"260022","img/object_images/gift_box04.jpg","0","s","1.5647547999979",1,8,0,2,0
"260022","img/object_images/ladle02.jpg","1","s","1.27398969995556",1,8,0,2,0
"260022","img/object_images/floppy_disk03.jpg","1","s","0.888676600006875",1,8,0,2,0
"260022","img/object_images/pillows01.jpg","1","k","0.796749000030104",1,8,0,2,0
"260022","img/object_images/cellphone02.jpg","1","s","1.46828580001602",1,8,0,2,0
"260022","img/object_images/cellphone01.jpg","1","k","0.907488299999386",1,8,0,2,0
"260022","img/object_images/helmet02.jpg","1","k","1.47512220003409",1,8,0,2,0
"260022","img/object_images/sponge03.jpg","1","k","1.3175655999803",1,8,0,2,0
"260022","img/object_images/chess_piece01.jpg","1","s","1.10346610000124",1,8,0,2,0
"260022","img/object_images/shovel03.jpg","0","k","1.56736139999703",1,8,0,2,0
"260022","img/object_images/toilet_paper01.jpg","1","s","0.753697799984366",1,8,0,2,0
"260022","img/object_images/Recycling01.jpg","1","k","0.824644199979957",1,8,0,2,0
"260022","img/object_images/tool20.jpg","1","k","1.38915340002859",1,8,0,2,0
"260022","img/object_images/chair01.jpg","1","s","1.62258490000386",1,8,0,2,0
"260022","img/object_images/gift_box01.jpg","1","k","1.17486080003437",1,8,0,2,0
"260022","img/object_images/scoreboard01.jpg","1","k","1.26252089999616",1,8,0,2,0
"260022","img/object_images/laptop03.jpg","0","k","1.34365980001166",1,8,0,2,0
"260022","img/object_images/tool09.jpg","1","k","1.05541949998587",1,8,0,2,0
