"participant_id","current_trial_object","pre_trial_object","post_trial_object","current_trial_accuracy","pre_trial_accuracy","post_trial_accuracy","current_trial_congruency","pre_trial_congruency","post_trial_congruency","current_trial_rt","pre_trial_rt","post_trial_rt","current_trial_responded","pre_trial_responded","post_trial_responded","current_trial_legitResponse","pre_trial_legitResponse","post_trial_legitResponse","current_trial_resp_nums","pre_trial_resp_nums","post_trial_resp_nums"
"260056","img/object_images/mask01.jpg",NA,"img/object_images/car04.jpg","0",NA,"1","0",NA,"0","0.702547799912281",NA,"0.745969700044952","1",NA,"1","1",NA,"1","1",NA,"1"
"260056","img/object_images/car04.jpg","img/object_images/mask01.jpg","img/object_images/cards01.jpg","1","0","0","0","0","0","0.745969700044952","0.702547799912281","1.49767700000666","1","1","1","1","1","1","1","1","1"
"260056","img/object_images/cards01.jpg","img/object_images/car04.jpg","img/object_images/binoculars03.jpg","0","1","1","0","0","1","1.49767700000666","0.745969700044952","0.539709100034088","1","1","1","1","1","1","1","1","1"
"260056","img/object_images/binoculars03.jpg","img/object_images/cards01.jpg","img/object_images/hair_brush05.jpg","1","0","1","1","0","1","0.539709100034088","1.49767700000666","0.523667400004342","1","1","1","1","1","1","1","1","1"
"260056","img/object_images/hair_brush05.jpg","img/object_images/binoculars03.jpg","img/object_images/screwdriver01.jpg","1","1","1","1","1","0","0.523667400004342","0.539709100034088","0.596076800022274","1","1","1","1","1","1","1","1","1"
"260056","img/object_images/screwdriver01.jpg","img/object_images/hair_brush05.jpg","img/object_images/slinky_toy01.jpg","1","1","1","0","1","1","0.596076800022274","0.523667400004342","0.625798600027338","1","1","1","1","1","1","1","1","1"
"260056","img/object_images/slinky_toy01.jpg","img/object_images/screwdriver01.jpg","img/object_images/toaster02.jpg","1","1","1","1","0","1","0.625798600027338","0.596076800022274","0.528872900060378","1","1","1","1","1","1","1","1","1"
"260056","img/object_images/toaster02.jpg","img/object_images/slinky_toy01.jpg","img/object_images/lemon_squeezer02.jpg","1","1","1","1","1","1","0.528872900060378","0.625798600027338","0.514656399958767","1","1","1","1","1","1","1","1","1"
"260056","img/object_images/lemon_squeezer02.jpg","img/object_images/toaster02.jpg","img/object_images/yarn02.jpg","1","1","1","1","1","0","0.514656399958767","0.528872900060378","0.563654799945652","1","1","1","1","1","1","1","1","1"
"260056","img/object_images/yarn02.jpg","img/object_images/lemon_squeezer02.jpg","img/object_images/ice_tray03.jpg","1","1","1","0","1","1","0.563654799945652","0.514656399958767","0.534785800031386","1","1","1","1","1","1","1","1","1"
"260056","img/object_images/ice_tray03.jpg","img/object_images/yarn02.jpg","img/object_images/MeasuringCup01.jpg","1","1","1","1","0","1","0.534785800031386","0.563654799945652","0.487764399964362","1","1","1","1","1","1","1","1","1"
"260056","img/object_images/MeasuringCup01.jpg","img/object_images/ice_tray03.jpg","img/object_images/bag06.jpg","1","1","1","1","1","1","0.487764399964362","0.534785800031386","0.54748029995244","1","1","1","1","1","1","1","1","1"
"260056","img/object_images/bag06.jpg","img/object_images/MeasuringCup01.jpg","img/object_images/chair04.jpg","1","1","1","1","1","1","0.54748029995244","0.487764399964362","0.412056099972688","1","1","1","1","1","1","1","1","1"
"260056","img/object_images/chair04.jpg","img/object_images/bag06.jpg","img/object_images/shower_head03.jpg","1","1","1","1","1","1","0.412056099972688","0.54748029995244","0.403256900026463","1","1","1","1","1","1","1","1","1"
"260056","img/object_images/shower_head03.jpg","img/object_images/chair04.jpg","img/object_images/ribbon01.jpg","1","1","1","1","1","0","0.403256900026463","0.412056099972688","0.595389299909584","1","1","1","1","1","1","1","1","1"
"260056","img/object_images/ribbon01.jpg","img/object_images/shower_head03.jpg","img/object_images/key02.jpg","1","1","1","0","1","1","0.595389299909584","0.403256900026463","0.490963299991563","1","1","1","1","1","1","1","1","1"
"260056","img/object_images/key02.jpg","img/object_images/ribbon01.jpg","img/object_images/tv01.jpg","1","1","1","1","0","0","0.490963299991563","0.595389299909584","0.649268300039694","1","1","1","1","1","1","1","1","1"
"260056","img/object_images/tv01.jpg","img/object_images/key02.jpg","img/object_images/jewel01.jpg","1","1","1","0","1","0","0.649268300039694","0.490963299991563","0.500970400054939","1","1","1","1","1","1","1","1","1"
"260056","img/object_images/jewel01.jpg","img/object_images/tv01.jpg","img/object_images/cutting_board01.jpg","1","1","1","0","0","1","0.500970400054939","0.649268300039694","0.434107000008225","1","1","1","1","1","1","1","1","1"
"260056","img/object_images/cutting_board01.jpg","img/object_images/jewel01.jpg","img/object_images/ladle02.jpg","1","1","1","1","0","0","0.434107000008225","0.500970400054939","0.476328399963677","1","1","1","1","1","1","1","1","1"
"260056","img/object_images/ladle02.jpg","img/object_images/cutting_board01.jpg","img/object_images/shoes10.jpg","1","1","1","0","1","0","0.476328399963677","0.434107000008225","1.09566929994617","1","1","1","1","1","1","1","1","1"
"260056","img/object_images/shoes10.jpg","img/object_images/ladle02.jpg","img/object_images/satellite01.jpg","1","1","1","0","0","0","1.09566929994617","0.476328399963677","0.6853756000055","1","1","1","1","1","1","1","1","1"
"260056","img/object_images/satellite01.jpg","img/object_images/shoes10.jpg","img/object_images/dress03.jpg","1","1","1","0","0","1","0.6853756000055","1.09566929994617","0.542317400104366","1","1","1","1","1","1","1","1","1"
"260056","img/object_images/dress03.jpg","img/object_images/satellite01.jpg","img/object_images/rock03.jpg","1","1","1","1","0","0","0.542317400104366","0.6853756000055","0.663408299908042","1","1","1","1","1","1","1","1","1"
"260056","img/object_images/rock03.jpg","img/object_images/dress03.jpg","img/object_images/car03.jpg","1","1","1","0","1","0","0.663408299908042","0.542317400104366","0.617374100023881","1","1","1","1","1","1","1","1","1"
"260056","img/object_images/car03.jpg","img/object_images/rock03.jpg","img/object_images/jewelry07.jpg","1","1","1","0","0","1","0.617374100023881","0.663408299908042","0.679450699943118","1","1","1","1","1","1","1","1","1"
"260056","img/object_images/jewelry07.jpg","img/object_images/car03.jpg","img/object_images/tool11.jpg","1","1","1","1","0","1","0.679450699943118","0.617374100023881","0.467903100070544","1","1","1","1","1","1","1","1","1"
"260056","img/object_images/tool11.jpg","img/object_images/jewelry07.jpg","img/object_images/WitchHat02.jpg","1","1","1","1","1","1","0.467903100070544","0.679450699943118","0.365134799969383","1","1","1","1","1","1","1","1","1"
"260056","img/object_images/WitchHat02.jpg","img/object_images/tool11.jpg","img/object_images/fan05.jpg","1","1","1","1","1","0","0.365134799969383","0.467903100070544","0.54959259997122","1","1","1","1","1","1","1","1","1"
"260056","img/object_images/fan05.jpg","img/object_images/WitchHat02.jpg","img/object_images/belt01.jpg","1","1","1","0","1","0","0.54959259997122","0.365134799969383","0.73577629995998","1","1","1","1","1","1","1","1","1"
"260056","img/object_images/belt01.jpg","img/object_images/fan05.jpg","img/object_images/razor01.jpg","1","1","1","0","0","0","0.73577629995998","0.54959259997122","0.537100699963048","1","1","1","1","1","1","1","1","1"
"260056","img/object_images/razor01.jpg","img/object_images/belt01.jpg",NA,"1","1",NA,"0","0",NA,"0.537100699963048","0.73577629995998",NA,"1","1",NA,"1","1",NA,"1","1",NA
"260056","img/object_images/pitcher02.jpg",NA,"img/object_images/camera07.jpg","1",NA,"1","1",NA,"1","0.500256599974819",NA,"0.444047099910676","1",NA,"1","1",NA,"1","1",NA,"1"
"260056","img/object_images/camera07.jpg","img/object_images/pitcher02.jpg","img/object_images/gift_box02.jpg","1","1","1","1","1","1","0.444047099910676","0.500256599974819","0.524007300031371","1","1","1","1","1","1","1","1","1"
"260056","img/object_images/gift_box02.jpg","img/object_images/camera07.jpg","img/object_images/wallet02.jpg","1","1","1","1","1","1","0.524007300031371","0.444047099910676","0.447244900045916","1","1","1","1","1","1","1","1","1"
"260056","img/object_images/wallet02.jpg","img/object_images/gift_box02.jpg","img/object_images/bow_tie01.jpg","1","1","0","1","1","0","0.447244900045916","0.524007300031371","0.396568299969658","1","1","1","1","1","1","1","1","3"
"260056","img/object_images/bow_tie01.jpg","img/object_images/wallet02.jpg","img/object_images/gift_box03.jpg","0","1","1","0","1","0","0.396568299969658","0.447244900045916","0.66084949998185","1","1","1","1","1","1","3","1","1"
"260056","img/object_images/gift_box03.jpg","img/object_images/bow_tie01.jpg","img/object_images/paper_cup01.jpg","1","0","1","0","0","0","0.66084949998185","0.396568299969658","0.65983789996244","1","1","1","1","1","1","1","3","1"
"260056","img/object_images/paper_cup01.jpg","img/object_images/gift_box03.jpg","img/object_images/sleeping_bag01.jpg","1","1","1","0","0","0","0.65983789996244","0.66084949998185","0.735078099998645","1","1","1","1","1","1","1","1","1"
"260056","img/object_images/sleeping_bag01.jpg","img/object_images/paper_cup01.jpg","img/object_images/Witchhat01.jpg","1","1","1","0","0","1","0.735078099998645","0.65983789996244","0.56373439996969","1","1","1","1","1","1","1","1","1"
"260056","img/object_images/Witchhat01.jpg","img/object_images/sleeping_bag01.jpg","img/object_images/funnel01.jpg","1","1","1","1","0","0","0.56373439996969","0.735078099998645","0.686544400057755","1","1","1","1","1","1","1","1","1"
"260056","img/object_images/funnel01.jpg","img/object_images/Witchhat01.jpg","img/object_images/measuring_tape02.jpg","1","1","1","0","1","1","0.686544400057755","0.56373439996969","0.451155799906701","1","1","1","1","1","1","1","1","1"
"260056","img/object_images/measuring_tape02.jpg","img/object_images/funnel01.jpg","img/object_images/fork03.jpg","1","1","1","1","0","1","0.451155799906701","0.686544400057755","0.445013099932112","1","1","1","1","1","1","1","1","1"
"260056","img/object_images/fork03.jpg","img/object_images/measuring_tape02.jpg","img/object_images/balloon01.jpg","1","1","1","1","1","0","0.445013099932112","0.451155799906701","0.624049500096589","1","1","1","1","1","1","1","1","1"
"260056","img/object_images/balloon01.jpg","img/object_images/fork03.jpg","img/object_images/bow_tie02.jpg","1","1","1","0","1","0","0.624049500096589","0.445013099932112","0.714536899933591","1","1","1","1","1","1","1","1","1"
"260056","img/object_images/bow_tie02.jpg","img/object_images/balloon01.jpg","img/object_images/hammer01.jpg","1","1","1","0","0","0","0.714536899933591","0.624049500096589","0.589075900032185","1","1","1","1","1","1","1","1","1"
"260056","img/object_images/hammer01.jpg","img/object_images/bow_tie02.jpg","img/object_images/socks02.jpg","1","1","1","0","0","0","0.589075900032185","0.714536899933591","0.5225969000021","1","1","1","1","1","1","1","1","1"
"260056","img/object_images/socks02.jpg","img/object_images/hammer01.jpg","img/object_images/jacket03.jpg","1","1","1","0","0","0","0.5225969000021","0.589075900032185","0.73303899995517","1","1","1","1","1","1","1","1","1"
"260056","img/object_images/jacket03.jpg","img/object_images/socks02.jpg","img/object_images/ironing_table01.jpg","1","1","1","0","0","0","0.73303899995517","0.5225969000021","0.701189899933524","1","1","1","1","1","1","1","1","1"
"260056","img/object_images/ironing_table01.jpg","img/object_images/jacket03.jpg","img/object_images/dresser04.jpg","1","1","1","0","0","0","0.701189899933524","0.73303899995517","0.668588000000454","1","1","1","1","1","1","1","1","1"
"260056","img/object_images/dresser04.jpg","img/object_images/ironing_table01.jpg","img/object_images/grater01.jpg","1","1","1","0","0","1","0.668588000000454","0.701189899933524","0.554683899972588","1","1","1","1","1","1","1","1","1"
"260056","img/object_images/grater01.jpg","img/object_images/dresser04.jpg","img/object_images/handkerchief01.jpg","1","1","1","1","0","0","0.554683899972588","0.668588000000454","0.605405799928121","1","1","1","1","1","1","1","1","1"
"260056","img/object_images/handkerchief01.jpg","img/object_images/grater01.jpg","img/object_images/lock04.jpg","1","1","1","0","1","1","0.605405799928121","0.554683899972588","0.513503300026059","1","1","1","1","1","1","1","1","1"
"260056","img/object_images/lock04.jpg","img/object_images/handkerchief01.jpg","img/object_images/gift_box01.jpg","1","1","1","1","0","1","0.513503300026059","0.605405799928121","0.593770799925551","1","1","1","1","1","1","1","1","1"
"260056","img/object_images/gift_box01.jpg","img/object_images/lock04.jpg","img/object_images/Screws01.jpg","1","1","1","1","1","1","0.593770799925551","0.513503300026059","0.565267199999653","1","1","1","1","1","1","1","1","1"
"260056","img/object_images/Screws01.jpg","img/object_images/gift_box01.jpg","img/object_images/clip02.jpg","1","1","1","1","1","1","0.565267199999653","0.593770799925551","0.565906699979678","1","1","1","1","1","1","1","1","1"
"260056","img/object_images/clip02.jpg","img/object_images/Screws01.jpg","img/object_images/bath_tub01.jpg","1","1","1","1","1","0","0.565906699979678","0.565267199999653","0.518896399880759","1","1","1","1","1","1","1","1","1"
"260056","img/object_images/bath_tub01.jpg","img/object_images/clip02.jpg","img/object_images/jewelry01.jpg","1","1","1","0","1","1","0.518896399880759","0.565906699979678","0.54405789996963","1","1","1","1","1","1","1","1","1"
"260056","img/object_images/jewelry01.jpg","img/object_images/bath_tub01.jpg","img/object_images/golf_ball03.jpg","1","1","1","1","0","1","0.54405789996963","0.518896399880759","0.541081200004555","1","1","1","1","1","1","1","1","1"
"260056","img/object_images/golf_ball03.jpg","img/object_images/jewelry01.jpg","img/object_images/lawn_mower01.jpg","1","1","1","1","1","1","0.541081200004555","0.54405789996963","0.518091700039804","1","1","1","1","1","1","1","1","1"
"260056","img/object_images/lawn_mower01.jpg","img/object_images/golf_ball03.jpg","img/object_images/couch03.jpg","1","1","1","1","1","0","0.518091700039804","0.541081200004555","0.659710800042376","1","1","1","1","1","1","1","1","1"
"260056","img/object_images/couch03.jpg","img/object_images/lawn_mower01.jpg","img/object_images/vga_port 01.jpg","1","1","1","0","1","0","0.659710800042376","0.518091700039804","0.604238100000657","1","1","1","1","1","1","1","1","1"
"260056","img/object_images/vga_port 01.jpg","img/object_images/couch03.jpg","img/object_images/coloring_pencil01.jpg","1","1","1","0","0","1","0.604238100000657","0.659710800042376","0.446486699976958","1","1","1","1","1","1","1","1","1"
"260056","img/object_images/coloring_pencil01.jpg","img/object_images/vga_port 01.jpg",NA,"1","1",NA,"1","0",NA,"0.446486699976958","0.604238100000657",NA,"1","1",NA,"1","1",NA,"1","1",NA
"260056","img/object_images/hair_dryer01.jpg",NA,"img/object_images/Vest02.jpg","0",NA,"1","0",NA,"0","0.638615400064737",NA,"0.68520529998932","1",NA,"1","1",NA,"1","1",NA,"1"
"260056","img/object_images/Vest02.jpg","img/object_images/hair_dryer01.jpg","img/object_images/toy05.jpg","1","0","1","0","0","0","0.68520529998932","0.638615400064737","0.531308700097725","1","1","1","1","1","1","1","1","1"
"260056","img/object_images/toy05.jpg","img/object_images/Vest02.jpg","img/object_images/spatula02.jpg","1","1","1","0","0","1","0.531308700097725","0.68520529998932","0.497866399935447","1","1","1","1","1","1","1","1","1"
"260056","img/object_images/spatula02.jpg","img/object_images/toy05.jpg","img/object_images/gift_box05.jpg","1","1","1","1","0","0","0.497866399935447","0.531308700097725","0.614303900045343","1","1","1","1","1","1","1","1","1"
"260056","img/object_images/gift_box05.jpg","img/object_images/spatula02.jpg","img/object_images/chair02.jpg","1","1","1","0","1","1","0.614303900045343","0.497866399935447","0.554571399930865","1","1","1","1","1","1","1","1","1"
"260056","img/object_images/chair02.jpg","img/object_images/gift_box05.jpg","img/object_images/trash_can05.jpg","1","1","1","1","0","1","0.554571399930865","0.614303900045343","0.570952300098725","1","1","1","1","1","1","1","1","1"
"260056","img/object_images/trash_can05.jpg","img/object_images/chair02.jpg","img/object_images/microphone03.jpg","1","1","1","1","1","1","0.570952300098725","0.554571399930865","0.653549800044857","1","1","1","1","1","1","1","1","1"
"260056","img/object_images/microphone03.jpg","img/object_images/trash_can05.jpg","img/object_images/fan04.jpg","1","1","1","1","1","0","0.653549800044857","0.570952300098725","0.901601899997331","1","1","1","1","1","1","1","1","1"
"260056","img/object_images/fan04.jpg","img/object_images/microphone03.jpg","img/object_images/lock01.jpg","1","1","1","0","1","0","0.901601899997331","0.653549800044857","0.628432299941778","1","1","1","1","1","1","1","1","1"
"260056","img/object_images/lock01.jpg","img/object_images/fan04.jpg","img/object_images/laptop01.jpg","1","1","1","0","0","0","0.628432299941778","0.901601899997331","0.540600300068036","1","1","1","1","1","1","1","1","1"
"260056","img/object_images/laptop01.jpg","img/object_images/lock01.jpg","img/object_images/trash_can03.jpg","1","1","1","0","0","1","0.540600300068036","0.628432299941778","0.58956130000297","1","1","1","1","1","1","1","1","1"
"260056","img/object_images/trash_can03.jpg","img/object_images/laptop01.jpg","img/object_images/accardion01.jpg","1","1","1","1","0","1","0.58956130000297","0.540600300068036","0.627242100075819","1","1","1","1","1","1","1","1","1"
"260056","img/object_images/accardion01.jpg","img/object_images/trash_can03.jpg","img/object_images/bucket02.jpg","1","1","1","1","1","1","0.627242100075819","0.58956130000297","0.693018999998458","1","1","1","1","1","1","1","1","1"
"260056","img/object_images/bucket02.jpg","img/object_images/accardion01.jpg","img/object_images/jewel03.jpg","1","1","1","1","1","1","0.693018999998458","0.627242100075819","0.67944079998415","1","1","1","1","1","1","1","1","1"
"260056","img/object_images/jewel03.jpg","img/object_images/bucket02.jpg","img/object_images/backpack03.jpg","1","1","1","1","1","1","0.67944079998415","0.693018999998458","0.535966299939901","1","1","1","1","1","1","1","1","1"
"260056","img/object_images/backpack03.jpg","img/object_images/jewel03.jpg","img/object_images/chess_piece01.jpg","1","1","1","1","1","0","0.535966299939901","0.67944079998415","0.634084600023925","1","1","1","1","1","1","1","1","1"
"260056","img/object_images/chess_piece01.jpg","img/object_images/backpack03.jpg","img/object_images/calculator01.jpg","1","1","1","0","1","1","0.634084600023925","0.535966299939901","0.541191900032572","1","1","1","1","1","1","1","1","1"
"260056","img/object_images/calculator01.jpg","img/object_images/chess_piece01.jpg","img/object_images/pitcher05.jpg","1","1","1","1","0","0","0.541191900032572","0.634084600023925","0.507332200068049","1","1","1","1","1","1","1","1","1"
"260056","img/object_images/pitcher05.jpg","img/object_images/calculator01.jpg","img/object_images/shoes08.jpg","1","1","1","0","1","1","0.507332200068049","0.541191900032572","0.508464699960314","1","1","1","1","1","1","1","1","1"
"260056","img/object_images/shoes08.jpg","img/object_images/pitcher05.jpg","img/object_images/robe01.jpg","1","1","1","1","0","1","0.508464699960314","0.507332200068049","0.528122600051574","1","1","1","1","1","1","1","1","1"
"260056","img/object_images/robe01.jpg","img/object_images/shoes08.jpg","img/object_images/helmet02.jpg","1","1","1","1","1","0","0.528122600051574","0.508464699960314","0.595612999983132","1","1","1","1","1","1","1","1","1"
"260056","img/object_images/helmet02.jpg","img/object_images/robe01.jpg","img/object_images/surf_board01.jpg","1","1","1","0","1","1","0.595612999983132","0.528122600051574","0.579295499948785","1","1","1","1","1","1","1","1","1"
"260056","img/object_images/surf_board01.jpg","img/object_images/helmet02.jpg","img/object_images/laptop03.jpg","1","1","1","1","0","1","0.579295499948785","0.595612999983132","0.553610499948263","1","1","1","1","1","1","1","1","1"
"260056","img/object_images/laptop03.jpg","img/object_images/surf_board01.jpg","img/object_images/combs01.jpg","1","1","1","1","1","1","0.553610499948263","0.579295499948785","0.512126300018281","1","1","1","1","1","1","1","1","1"
"260056","img/object_images/combs01.jpg","img/object_images/laptop03.jpg","img/object_images/Lint_Roller02.jpg","1","1","1","1","1","0","0.512126300018281","0.553610499948263","0.535657200030982","1","1","1","1","1","1","1","1","1"
"260056","img/object_images/Lint_Roller02.jpg","img/object_images/combs01.jpg","img/object_images/towels01.jpg","1","1","1","0","1","0","0.535657200030982","0.512126300018281","0.561332899960689","1","1","1","1","1","1","1","1","1"
"260056","img/object_images/towels01.jpg","img/object_images/Lint_Roller02.jpg","img/object_images/umbrella01.jpg","1","1","1","0","0","0","0.561332899960689","0.535657200030982","0.702202599961311","1","1","1","1","1","1","1","1","1"
"260056","img/object_images/umbrella01.jpg","img/object_images/towels01.jpg","img/object_images/vase01.jpg","1","1","1","0","0","0","0.702202599961311","0.561332899960689","0.55218130000867","1","1","1","1","1","1","1","1","1"
"260056","img/object_images/vase01.jpg","img/object_images/umbrella01.jpg","img/object_images/stove01.jpg","1","1","1","0","0","0","0.55218130000867","0.702202599961311","0.449575199978426","1","1","1","1","1","1","1","1","1"
"260056","img/object_images/stove01.jpg","img/object_images/vase01.jpg","img/object_images/ball02.jpg","1","1","1","0","0","1","0.449575199978426","0.55218130000867","0.538532199920155","1","1","1","1","1","1","1","1","1"
"260056","img/object_images/ball02.jpg","img/object_images/stove01.jpg","img/object_images/hair_brush02.jpg","1","1","1","1","0","0","0.538532199920155","0.449575199978426","0.504877100000158","1","1","1","1","1","1","1","1","1"
"260056","img/object_images/hair_brush02.jpg","img/object_images/ball02.jpg",NA,"1","1",NA,"0","1",NA,"0.504877100000158","0.538532199920155",NA,"1","1",NA,"1","1",NA,"1","1",NA
"260056","img/object_images/hammer02.jpg",NA,"img/object_images/glasses03.jpg","1",NA,"1","0",NA,"0","0.642147399950773",NA,"0.572034800075926","1",NA,"1","1",NA,"1","1",NA,"1"
"260056","img/object_images/glasses03.jpg","img/object_images/hammer02.jpg","img/object_images/socks01.jpg","1","1","1","0","0","1","0.572034800075926","0.642147399950773","0.629977999953553","1","1","1","1","1","1","1","1","1"
"260056","img/object_images/socks01.jpg","img/object_images/glasses03.jpg","img/object_images/camera05.jpg","1","1","1","1","0","0","0.629977999953553","0.572034800075926","0.571095400024205","1","1","1","1","1","1","1","1","1"
"260056","img/object_images/camera05.jpg","img/object_images/socks01.jpg","img/object_images/tool20.jpg","1","1","1","0","1","0","0.571095400024205","0.629977999953553","0.59446030005347","1","1","1","1","1","1","1","1","1"
"260056","img/object_images/tool20.jpg","img/object_images/camera05.jpg","img/object_images/clipboard01.jpg","1","1","1","0","0","1","0.59446030005347","0.571095400024205","0.559618099941872","1","1","1","1","1","1","1","1","1"
"260056","img/object_images/clipboard01.jpg","img/object_images/tool20.jpg","img/object_images/cup01.jpg","1","1","1","1","0","0","0.559618099941872","0.59446030005347","0.669206999940798","1","1","1","1","1","1","1","1","1"
"260056","img/object_images/cup01.jpg","img/object_images/clipboard01.jpg","img/object_images/candle02.jpg","1","1","1","0","1","0","0.669206999940798","0.559618099941872","0.60703710000962","1","1","1","1","1","1","1","1","1"
"260056","img/object_images/candle02.jpg","img/object_images/cup01.jpg","img/object_images/hat09.jpg","1","1","1","0","0","0","0.60703710000962","0.669206999940798","0.548552499967627","1","1","1","1","1","1","1","1","1"
"260056","img/object_images/hat09.jpg","img/object_images/candle02.jpg","img/object_images/razor02.jpg","1","1","1","0","0","1","0.548552499967627","0.60703710000962","0.479048499953933","1","1","1","1","1","1","1","1","1"
"260056","img/object_images/razor02.jpg","img/object_images/hat09.jpg","img/object_images/duster01.jpg","1","1","1","1","0","0","0.479048499953933","0.548552499967627","0.556515099946409","1","1","1","1","1","1","1","1","1"
"260056","img/object_images/duster01.jpg","img/object_images/razor02.jpg","img/object_images/hat13.jpg","1","1","1","0","1","1","0.556515099946409","0.479048499953933","0.459357099956833","1","1","1","1","1","1","1","1","1"
"260056","img/object_images/hat13.jpg","img/object_images/duster01.jpg","img/object_images/pen06.jpg","1","1","1","1","0","0","0.459357099956833","0.556515099946409","0.587032700073905","1","1","1","1","1","1","1","1","1"
"260056","img/object_images/pen06.jpg","img/object_images/hat13.jpg","img/object_images/floss01.jpg","1","1","1","0","1","1","0.587032700073905","0.459357099956833","0.656445300090127","1","1","1","1","1","1","1","1","1"
"260056","img/object_images/floss01.jpg","img/object_images/pen06.jpg","img/object_images/tool13.jpg","1","1","1","1","0","1","0.656445300090127","0.587032700073905","0.493741400074214","1","1","1","1","1","1","1","1","1"
"260056","img/object_images/tool13.jpg","img/object_images/floss01.jpg","img/object_images/vase02.jpg","1","1","1","1","1","1","0.493741400074214","0.656445300090127","0.883475699927658","1","1","1","1","1","1","1","1","1"
"260056","img/object_images/vase02.jpg","img/object_images/tool13.jpg","img/object_images/knife01.jpg","1","1","1","1","1","1","0.883475699927658","0.493741400074214","0.539048700011335","1","1","1","1","1","1","1","1","1"
"260056","img/object_images/knife01.jpg","img/object_images/vase02.jpg","img/object_images/office_supplies01.jpg","1","1","1","1","1","1","0.539048700011335","0.883475699927658","0.50443740002811","1","1","1","1","1","1","1","1","1"
"260056","img/object_images/office_supplies01.jpg","img/object_images/knife01.jpg","img/object_images/spray_can01.jpg","1","1","0","1","1","0","0.50443740002811","0.539048700011335","0.504474699962884","1","1","1","1","1","1","1","1","2"
"260056","img/object_images/spray_can01.jpg","img/object_images/office_supplies01.jpg","img/object_images/board01.jpg","0","1","1","0","1","1","0.504474699962884","0.50443740002811","0.535515600000508","1","1","1","1","1","1","2","1","1"
"260056","img/object_images/board01.jpg","img/object_images/spray_can01.jpg","img/object_images/lemon_squeezer01.jpg","1","0","1","1","0","1","0.535515600000508","0.504474699962884","0.48211589991115","1","1","1","1","1","1","1","2","1"
"260056","img/object_images/lemon_squeezer01.jpg","img/object_images/board01.jpg","img/object_images/Candle_Holder01.jpg","1","1","1","1","1","0","0.48211589991115","0.535515600000508","0.546074399957433","1","1","1","1","1","1","1","1","1"
"260056","img/object_images/Candle_Holder01.jpg","img/object_images/lemon_squeezer01.jpg","img/object_images/ruler02.jpg","1","1","1","0","1","1","0.546074399957433","0.48211589991115","0.517526700044982","1","1","1","1","1","1","1","1","1"
"260056","img/object_images/ruler02.jpg","img/object_images/Candle_Holder01.jpg","img/object_images/dust_pan01.jpg","1","1","1","1","0","1","0.517526700044982","0.546074399957433","0.876820900011808","1","1","1","1","1","1","1","1","1"
"260056","img/object_images/dust_pan01.jpg","img/object_images/ruler02.jpg","img/object_images/sink_filter01 (1).jpg","1","1","1","1","1","0","0.876820900011808","0.517526700044982","0.709290499915369","1","1","1","1","1","1","1","1","1"
"260056","img/object_images/sink_filter01 (1).jpg","img/object_images/dust_pan01.jpg","img/object_images/perfume01.jpg","1","1","1","0","1","0","0.709290499915369","0.876820900011808","0.723145200056024","1","1","1","1","1","1","1","1","1"
"260056","img/object_images/perfume01.jpg","img/object_images/sink_filter01 (1).jpg","img/object_images/sign02.jpg","1","1","1","0","0","0","0.723145200056024","0.709290499915369","0.65437059989199","1","1","1","1","1","1","1","1","1"
"260056","img/object_images/sign02.jpg","img/object_images/perfume01.jpg","img/object_images/bow_tie03.jpg","1","1","1","0","0","1","0.65437059989199","0.723145200056024","0.564726599957794","1","1","1","1","1","1","1","1","1"
"260056","img/object_images/bow_tie03.jpg","img/object_images/sign02.jpg","img/object_images/video_game02.jpg","1","1","1","1","0","1","0.564726599957794","0.65437059989199","0.774950899998657","1","1","1","1","1","1","1","1","1"
"260056","img/object_images/video_game02.jpg","img/object_images/bow_tie03.jpg","img/object_images/Confetti 01.jpg","1","1","1","1","1","0","0.774950899998657","0.564726599957794","0.68014079995919","1","1","1","1","1","1","1","1","1"
"260056","img/object_images/Confetti 01.jpg","img/object_images/video_game02.jpg","img/object_images/pan03.jpg","1","1","1","0","1","1","0.68014079995919","0.774950899998657","0.420714800013229","1","1","1","1","1","1","1","1","1"
"260056","img/object_images/pan03.jpg","img/object_images/Confetti 01.jpg","img/object_images/bag04.jpg","1","1","1","1","0","0","0.420714800013229","0.68014079995919","0.809964899905026","1","1","1","1","1","1","1","1","1"
"260056","img/object_images/bag04.jpg","img/object_images/pan03.jpg",NA,"1","1",NA,"0","1",NA,"0.809964899905026","0.420714800013229",NA,"1","1",NA,"1","1",NA,"1","1",NA
"260056","img/object_images/drone01.jpg",NA,"img/object_images/mail_box02.jpg","1",NA,"1","1",NA,"1","0.485886199981906",NA,"0.520150600001216","1",NA,"1","1",NA,"1","1",NA,"1"
"260056","img/object_images/mail_box02.jpg","img/object_images/drone01.jpg","img/object_images/floss02.jpg","1","1","1","1","1","1","0.520150600001216","0.485886199981906","0.598757000057958","1","1","1","1","1","1","1","1","1"
"260056","img/object_images/floss02.jpg","img/object_images/mail_box02.jpg","img/object_images/skate_board01.jpg","1","1","1","1","1","0","0.598757000057958","0.520150600001216","0.643465199973434","1","1","1","1","1","1","1","1","1"
"260056","img/object_images/skate_board01.jpg","img/object_images/floss02.jpg","img/object_images/fork02.jpg","1","1","1","0","1","0","0.643465199973434","0.598757000057958","0.517199900001287","1","1","1","1","1","1","1","1","1"
"260056","img/object_images/fork02.jpg","img/object_images/skate_board01.jpg","img/object_images/pitcher09.jpg","1","1","1","0","0","1","0.517199900001287","0.643465199973434","0.452846400090493","1","1","1","1","1","1","1","1","1"
"260056","img/object_images/pitcher09.jpg","img/object_images/fork02.jpg","img/object_images/book02.jpg","1","1","1","1","0","1","0.452846400090493","0.517199900001287","0.586908399942331","1","1","1","1","1","1","1","1","1"
"260056","img/object_images/book02.jpg","img/object_images/pitcher09.jpg","img/object_images/toy01.jpg","1","1","1","1","1","1","0.586908399942331","0.452846400090493","0.785691399942152","1","1","1","1","1","1","1","1","1"
"260056","img/object_images/toy01.jpg","img/object_images/book02.jpg","img/object_images/hair_brush01.jpg","1","1","1","1","1","1","0.785691399942152","0.586908399942331","0.58401800005231","1","1","1","1","1","1","1","1","1"
"260056","img/object_images/hair_brush01.jpg","img/object_images/toy01.jpg","img/object_images/video_game03.jpg","1","1","1","1","1","1","0.58401800005231","0.785691399942152","0.761209600022994","1","1","1","1","1","1","1","1","1"
"260056","img/object_images/video_game03.jpg","img/object_images/hair_brush01.jpg","img/object_images/couch01.jpg","1","1","1","1","1","0","0.761209600022994","0.58401800005231","0.494555699988268","1","1","1","1","1","1","1","1","1"
"260056","img/object_images/couch01.jpg","img/object_images/video_game03.jpg","img/object_images/bag_pipes01.jpg","1","1","0","0","1","1","0.494555699988268","0.761209600022994","0.459068799973466","1","1","1","1","1","1","1","1","1"
"260056","img/object_images/bag_pipes01.jpg","img/object_images/couch01.jpg","img/object_images/Trowel01.jpg","0","1","1","1","0","0","0.459068799973466","0.494555699988268","0.736772099975497","1","1","1","1","1","1","1","1","1"
"260056","img/object_images/Trowel01.jpg","img/object_images/bag_pipes01.jpg","img/object_images/clip04.jpg","1","0","1","0","1","1","0.736772099975497","0.459068799973466","0.605479400022887","1","1","1","1","1","1","1","1","1"
"260056","img/object_images/clip04.jpg","img/object_images/Trowel01.jpg","img/object_images/tripod01.jpg","1","1","1","1","0","1","0.605479400022887","0.736772099975497","0.615476800012402","1","1","1","1","1","1","1","1","1"
"260056","img/object_images/tripod01.jpg","img/object_images/clip04.jpg","img/object_images/blender01.jpg","1","1","1","1","1","0","0.615476800012402","0.605479400022887","0.526767799980007","1","1","1","1","1","1","1","1","1"
"260056","img/object_images/blender01.jpg","img/object_images/tripod01.jpg","img/object_images/rock02.jpg","1","1","1","0","1","0","0.526767799980007","0.615476800012402","0.669962299987674","1","1","1","1","1","1","1","1","1"
"260056","img/object_images/rock02.jpg","img/object_images/blender01.jpg","img/object_images/bell03.jpg","1","1","1","0","0","0","0.669962299987674","0.526767799980007","0.67099190002773","1","1","1","1","1","1","1","1","1"
"260056","img/object_images/bell03.jpg","img/object_images/rock02.jpg","img/object_images/egg_slicer01.jpg","1","1","1","0","0","1","0.67099190002773","0.669962299987674","0.635847400058992","1","1","1","1","1","1","1","1","1"
"260056","img/object_images/egg_slicer01.jpg","img/object_images/bell03.jpg","img/object_images/scarf01.jpg","1","1","1","1","0","1","0.635847400058992","0.67099190002773","0.555975100025535","1","1","1","1","1","1","1","1","1"
"260056","img/object_images/scarf01.jpg","img/object_images/egg_slicer01.jpg","img/object_images/box03.jpg","1","1","1","1","1","0","0.555975100025535","0.635847400058992","0.694747400004417","1","1","1","1","1","1","1","1","1"
"260056","img/object_images/box03.jpg","img/object_images/scarf01.jpg","img/object_images/chain01.jpg","1","1","1","0","1","0","0.694747400004417","0.555975100025535","0.556735199992545","1","1","1","1","1","1","1","1","1"
"260056","img/object_images/chain01.jpg","img/object_images/box03.jpg","img/object_images/tool06.jpg","1","1","1","0","0","0","0.556735199992545","0.694747400004417","0.498921300051734","1","1","1","1","1","1","1","1","1"
"260056","img/object_images/tool06.jpg","img/object_images/chain01.jpg","img/object_images/airfryer02.jpg","1","1","1","0","0","1","0.498921300051734","0.556735199992545","0.566822499968112","1","1","1","1","1","1","1","1","1"
"260056","img/object_images/airfryer02.jpg","img/object_images/tool06.jpg","img/object_images/Violin01.jpg","1","1","1","1","0","0","0.566822499968112","0.498921300051734","0.71329370001331","1","1","1","1","1","1","1","1","1"
"260056","img/object_images/Violin01.jpg","img/object_images/airfryer02.jpg","img/object_images/computer_mouse01.jpg","1","1","1","0","1","1","0.71329370001331","0.566822499968112","0.630806699977256","1","1","1","1","1","1","1","1","1"
"260056","img/object_images/computer_mouse01.jpg","img/object_images/Violin01.jpg","img/object_images/computer_mouse02.jpg","1","1","1","1","0","0","0.630806699977256","0.71329370001331","0.658119500032626","1","1","1","1","1","1","1","1","1"
"260056","img/object_images/computer_mouse02.jpg","img/object_images/computer_mouse01.jpg","img/object_images/soap03.jpg","1","1","1","0","1","0","0.658119500032626","0.630806699977256","0.605194199946709","1","1","1","1","1","1","1","1","1"
"260056","img/object_images/soap03.jpg","img/object_images/computer_mouse02.jpg","img/object_images/pen01.jpg","1","1","1","0","0","0","0.605194199946709","0.658119500032626","0.562686800025403","1","1","1","1","1","1","1","1","1"
"260056","img/object_images/pen01.jpg","img/object_images/soap03.jpg","img/object_images/toothbrush01.jpg","1","1","1","0","0","0","0.562686800025403","0.605194199946709","0.551747499965131","1","1","1","1","1","1","1","1","1"
"260056","img/object_images/toothbrush01.jpg","img/object_images/pen01.jpg","img/object_images/shoes12.jpg","1","1","1","0","0","1","0.551747499965131","0.562686800025403","0.517755700042471","1","1","1","1","1","1","1","1","1"
"260056","img/object_images/shoes12.jpg","img/object_images/toothbrush01.jpg","img/object_images/chair06.jpg","1","1","1","1","0","0","0.517755700042471","0.551747499965131","0.616088300012052","1","1","1","1","1","1","1","1","1"
"260056","img/object_images/chair06.jpg","img/object_images/shoes12.jpg",NA,"1","1",NA,"0","1",NA,"0.616088300012052","0.517755700042471",NA,"1","1",NA,"1","1",NA,"1","1",NA
"260056","img/object_images/origami01.jpg",NA,"img/object_images/dice01.jpg","1",NA,"1","1",NA,"0","0.703322199988179",NA,"0.682760900002904","1",NA,"1","1",NA,"1","1",NA,"1"
"260056","img/object_images/dice01.jpg","img/object_images/origami01.jpg","img/object_images/bookmark01.jpg","1","1","1","0","1","0","0.682760900002904","0.703322199988179","0.629600299987942","1","1","1","1","1","1","1","1","1"
"260056","img/object_images/bookmark01.jpg","img/object_images/dice01.jpg","img/object_images/joystick03.jpg","1","1","1","0","0","1","0.629600299987942","0.682760900002904","0.725520899984986","1","1","1","1","1","1","1","1","1"
"260056","img/object_images/joystick03.jpg","img/object_images/bookmark01.jpg","img/object_images/water_gun01.jpg","1","1","1","1","0","1","0.725520899984986","0.629600299987942","0.523533500032499","1","1","1","1","1","1","1","1","1"
"260056","img/object_images/water_gun01.jpg","img/object_images/joystick03.jpg","img/object_images/frame01.jpg","1","1","1","1","1","1","0.523533500032499","0.725520899984986","0.50875429995358","1","1","1","1","1","1","1","1","1"
"260056","img/object_images/frame01.jpg","img/object_images/water_gun01.jpg","img/object_images/shovel01.jpg","1","1","1","1","1","0","0.50875429995358","0.523533500032499","0.495371300028637","1","1","1","1","1","1","1","1","1"
"260056","img/object_images/shovel01.jpg","img/object_images/frame01.jpg","img/object_images/bucket01.jpg","1","1","1","0","1","1","0.495371300028637","0.50875429995358","0.423659599968232","1","1","1","1","1","1","1","1","1"
"260056","img/object_images/bucket01.jpg","img/object_images/shovel01.jpg","img/object_images/scale02.jpg","1","1","1","1","0","0","0.423659599968232","0.495371300028637","0.528537299949676","1","1","1","1","1","1","1","1","1"
"260056","img/object_images/scale02.jpg","img/object_images/bucket01.jpg","img/object_images/jewel02.jpg","1","1","1","0","1","0","0.528537299949676","0.423659599968232","0.630606999970041","1","1","1","1","1","1","1","1","1"
"260056","img/object_images/jewel02.jpg","img/object_images/scale02.jpg","img/object_images/Eyeliner01.jpg","1","1","1","0","0","1","0.630606999970041","0.528537299949676","0.433565699961036","1","1","1","1","1","1","1","1","1"
"260056","img/object_images/Eyeliner01.jpg","img/object_images/jewel02.jpg","img/object_images/egg_basket01.jpg","1","1","1","1","0","1","0.433565699961036","0.630606999970041","0.498056999989785","1","1","1","1","1","1","1","1","1"
"260056","img/object_images/egg_basket01.jpg","img/object_images/Eyeliner01.jpg","img/object_images/tennis_racket01.jpg","1","1","1","1","1","1","0.498056999989785","0.433565699961036","0.328541000024416","1","1","1","1","1","1","1","1","1"
"260056","img/object_images/tennis_racket01.jpg","img/object_images/egg_basket01.jpg","img/object_images/Safe01.jpg","1","1","1","1","1","1","0.328541000024416","0.498056999989785","0.523069799994119","1","1","1","1","1","1","1","1","1"
"260056","img/object_images/Safe01.jpg","img/object_images/tennis_racket01.jpg","img/object_images/piano03.jpg","1","1","1","1","1","0","0.523069799994119","0.328541000024416","0.669894400052726","1","1","1","1","1","1","1","1","1"
"260056","img/object_images/piano03.jpg","img/object_images/Safe01.jpg","img/object_images/ToolBag01.jpg","1","1","1","0","1","0","0.669894400052726","0.523069799994119","0.670775500009768","1","1","1","1","1","1","1","1","1"
"260056","img/object_images/ToolBag01.jpg","img/object_images/piano03.jpg","img/object_images/pitcher07.jpg","1","1","1","0","0","1","0.670775500009768","0.669894400052726","0.466730199987069","1","1","1","1","1","1","1","1","1"
"260056","img/object_images/pitcher07.jpg","img/object_images/ToolBag01.jpg","img/object_images/helmet03.jpg","1","1","1","1","0","1","0.466730199987069","0.670775500009768","0.631763500045054","1","1","1","1","1","1","1","1","1"
"260056","img/object_images/helmet03.jpg","img/object_images/pitcher07.jpg","img/object_images/Shoes05.jpg","1","1","1","1","1","0","0.631763500045054","0.466730199987069","0.54043339996133","1","1","1","1","1","1","1","1","1"
"260056","img/object_images/Shoes05.jpg","img/object_images/helmet03.jpg","img/object_images/headset02.jpg","1","1","1","0","1","0","0.54043339996133","0.631763500045054","0.724090399919078","1","1","1","1","1","1","1","1","1"
"260056","img/object_images/headset02.jpg","img/object_images/Shoes05.jpg","img/object_images/badminton01.jpg","1","1","1","0","0","1","0.724090399919078","0.54043339996133","0.77528689999599","1","1","1","1","1","1","1","1","1"
"260056","img/object_images/badminton01.jpg","img/object_images/headset02.jpg","img/object_images/trumpet01.jpg","1","1","1","1","0","0","0.77528689999599","0.724090399919078","0.531926699914038","1","1","1","1","1","1","1","1","1"
"260056","img/object_images/trumpet01.jpg","img/object_images/badminton01.jpg","img/object_images/TreeSlice01.jpg","1","1","1","0","1","1","0.531926699914038","0.77528689999599","0.537204700056463","1","1","1","1","1","1","1","1","1"
"260056","img/object_images/TreeSlice01.jpg","img/object_images/trumpet01.jpg","img/object_images/belt03.jpg","1","1","1","1","0","0","0.537204700056463","0.531926699914038","0.62184569996316","1","1","1","1","1","1","1","1","1"
"260056","img/object_images/belt03.jpg","img/object_images/TreeSlice01.jpg","img/object_images/fan01.jpg","1","1","1","0","1","0","0.62184569996316","0.537204700056463","0.598975300090387","1","1","1","1","1","1","1","1","1"
"260056","img/object_images/fan01.jpg","img/object_images/belt03.jpg","img/object_images/note_book02.jpg","1","1","1","0","0","0","0.598975300090387","0.62184569996316","0.744967300095595","1","1","1","1","1","1","1","1","1"
"260056","img/object_images/note_book02.jpg","img/object_images/fan01.jpg","img/object_images/bottle06.jpg","1","1","1","0","0","0","0.744967300095595","0.598975300090387","0.604417700087652","1","1","1","1","1","1","1","1","1"
"260056","img/object_images/bottle06.jpg","img/object_images/note_book02.jpg","img/object_images/yoga_mat01.jpg","1","1","1","0","0","0","0.604417700087652","0.744967300095595","0.558369599981233","1","1","1","1","1","1","1","1","1"
"260056","img/object_images/yoga_mat01.jpg","img/object_images/bottle06.jpg","img/object_images/phone04.jpg","1","1","1","0","0","1","0.558369599981233","0.604417700087652","0.549716599984095","1","1","1","1","1","1","1","1","1"
"260056","img/object_images/phone04.jpg","img/object_images/yoga_mat01.jpg","img/object_images/usb03.jpg","1","1","1","1","0","0","0.549716599984095","0.558369599981233","0.617140299989842","1","1","1","1","1","1","1","1","1"
"260056","img/object_images/usb03.jpg","img/object_images/phone04.jpg","img/object_images/nut_cracker01.jpg","1","1","1","0","1","1","0.617140299989842","0.549716599984095","0.507389499922283","1","1","1","1","1","1","1","1","1"
"260056","img/object_images/nut_cracker01.jpg","img/object_images/usb03.jpg","img/object_images/lock03.jpg","1","1","1","1","0","1","0.507389499922283","0.617140299989842","0.504348200047389","1","1","1","1","1","1","1","1","1"
"260056","img/object_images/lock03.jpg","img/object_images/nut_cracker01.jpg",NA,"1","1",NA,"1","1",NA,"0.504348200047389","0.507389499922283",NA,"1","1",NA,"1","1",NA,"1","1",NA
"260056","img/object_images/book01.jpg",NA,"img/object_images/glasses07.jpg","1",NA,"1","1",NA,"1","0.735086899949238",NA,"0.522359499940649","1",NA,"1","1",NA,"1","1",NA,"1"
"260056","img/object_images/glasses07.jpg","img/object_images/book01.jpg","img/object_images/jewelry09.jpg","1","1","1","1","1","1","0.522359499940649","0.735086899949238","0.531386899994686","1","1","1","1","1","1","1","1","1"
"260056","img/object_images/jewelry09.jpg","img/object_images/glasses07.jpg","img/object_images/exfoliater_brush01.jpg","1","1","1","1","1","0","0.531386899994686","0.522359499940649","0.539298600051552","1","1","1","1","1","1","1","1","1"
"260056","img/object_images/exfoliater_brush01.jpg","img/object_images/jewelry09.jpg","img/object_images/yo_yo01.jpg","1","1","1","0","1","0","0.539298600051552","0.531386899994686","0.494918899959885","1","1","1","1","1","1","1","1","1"
"260056","img/object_images/yo_yo01.jpg","img/object_images/exfoliater_brush01.jpg","img/object_images/handcuffs01.jpg","1","1","1","0","0","0","0.494918899959885","0.539298600051552","0.554783399915323","1","1","1","1","1","1","1","1","1"
"260056","img/object_images/handcuffs01.jpg","img/object_images/yo_yo01.jpg","img/object_images/projector01.jpg","1","1","1","0","0","0","0.554783399915323","0.494918899959885","0.515776699990965","1","1","1","1","1","1","1","1","1"
"260056","img/object_images/projector01.jpg","img/object_images/handcuffs01.jpg","img/object_images/tool07.jpg","1","1","1","0","0","0","0.515776699990965","0.554783399915323","0.570757899899036","1","1","1","1","1","1","1","1","1"
"260056","img/object_images/tool07.jpg","img/object_images/projector01.jpg","img/object_images/ring03.jpg","1","1","1","0","0","1","0.570757899899036","0.515776699990965","0.604564999928698","1","1","1","1","1","1","1","1","1"
"260056","img/object_images/ring03.jpg","img/object_images/tool07.jpg","img/object_images/fire_extinguisher01.jpg","1","1","1","1","0","0","0.604564999928698","0.570757899899036","0.579977200017311","1","1","1","1","1","1","1","1","1"
"260056","img/object_images/fire_extinguisher01.jpg","img/object_images/ring03.jpg","img/object_images/Traffic Sign 01.jpg","1","1","1","0","1","0","0.579977200017311","0.604564999928698","0.579581300029531","1","1","1","1","1","1","1","1","1"
"260056","img/object_images/Traffic Sign 01.jpg","img/object_images/fire_extinguisher01.jpg","img/object_images/tray01.jpg","1","1","1","0","0","1","0.579581300029531","0.579977200017311","0.50103579997085","1","1","1","1","1","1","1","1","1"
"260056","img/object_images/tray01.jpg","img/object_images/Traffic Sign 01.jpg","img/object_images/Sprayer01.jpg","1","1","1","1","0","0","0.50103579997085","0.579581300029531","0.504668700043112","1","1","1","1","1","1","1","1","1"
"260056","img/object_images/Sprayer01.jpg","img/object_images/tray01.jpg","img/object_images/hair_clips01.jpg","1","1","1","0","1","1","0.504668700043112","0.50103579997085","0.498137700022198","1","1","1","1","1","1","1","1","1"
"260056","img/object_images/hair_clips01.jpg","img/object_images/Sprayer01.jpg","img/object_images/pan01.jpg","1","1","1","1","0","1","0.498137700022198","0.504668700043112","0.578698899946176","1","1","1","1","1","1","1","1","1"
"260056","img/object_images/pan01.jpg","img/object_images/hair_clips01.jpg","img/object_images/bicycle_lock01.jpg","1","1","1","1","1","0","0.578698899946176","0.498137700022198","0.576405099942349","1","1","1","1","1","1","1","1","1"
"260056","img/object_images/bicycle_lock01.jpg","img/object_images/pan01.jpg","img/object_images/hole_puncher01.jpg","1","1","1","0","1","1","0.576405099942349","0.578698899946176","0.518400399945676","1","1","1","1","1","1","1","1","1"
"260056","img/object_images/hole_puncher01.jpg","img/object_images/bicycle_lock01.jpg","img/object_images/blanket01.jpg","1","1","1","1","0","1","0.518400399945676","0.576405099942349","0.57374769996386","1","1","1","1","1","1","1","1","1"
"260056","img/object_images/blanket01.jpg","img/object_images/hole_puncher01.jpg","img/object_images/cellphone02.jpg","1","1","1","1","1","1","0.57374769996386","0.518400399945676","0.38554769998882","1","1","1","1","1","1","1","1","1"
"260056","img/object_images/cellphone02.jpg","img/object_images/blanket01.jpg","img/object_images/Kitchen_Towel.jpg","1","1","1","1","1","0","0.38554769998882","0.57374769996386","0.571660100016743","1","1","1","1","1","1","1","1","1"
"260056","img/object_images/Kitchen_Towel.jpg","img/object_images/cellphone02.jpg","img/object_images/purse01.jpg","1","1","1","0","1","1","0.571660100016743","0.38554769998882","0.481243100017309","1","1","1","1","1","1","1","1","1"
"260056","img/object_images/purse01.jpg","img/object_images/Kitchen_Towel.jpg","img/object_images/lighter01.jpg","1","1","1","1","0","1","0.481243100017309","0.571660100016743","0.458862700033933","1","1","1","1","1","1","1","1","1"
"260056","img/object_images/lighter01.jpg","img/object_images/purse01.jpg","img/object_images/TrashCan02.jpg","1","1","1","1","1","1","0.458862700033933","0.481243100017309","0.583474299986847","1","1","1","1","1","1","1","1","1"
"260056","img/object_images/TrashCan02.jpg","img/object_images/lighter01.jpg","img/object_images/gift_box04.jpg","1","1","1","1","1","0","0.583474299986847","0.458862700033933","0.376865300000645","1","1","1","1","1","1","1","1","1"
"260056","img/object_images/gift_box04.jpg","img/object_images/TrashCan02.jpg","img/object_images/Pottery01.jpg","1","1","1","0","1","0","0.376865300000645","0.583474299986847","0.647265600040555","1","1","1","1","1","1","1","1","1"
"260056","img/object_images/Pottery01.jpg","img/object_images/gift_box04.jpg","img/object_images/tool08.jpg","1","1","1","0","0","0","0.647265600040555","0.376865300000645","0.62865420000162","1","1","1","1","1","1","1","1","1"
"260056","img/object_images/tool08.jpg","img/object_images/Pottery01.jpg","img/object_images/basket02.jpg","1","1","1","0","0","0","0.62865420000162","0.647265600040555","0.546061200089753","1","1","1","1","1","1","1","1","1"
"260056","img/object_images/basket02.jpg","img/object_images/tool08.jpg","img/object_images/colander01.jpg","1","1","1","0","0","0","0.546061200089753","0.62865420000162","0.55805600003805","1","1","1","1","1","1","1","1","1"
"260056","img/object_images/colander01.jpg","img/object_images/basket02.jpg","img/object_images/speaker01.jpg","1","1","1","0","0","1","0.55805600003805","0.546061200089753","0.544063000008464","1","1","1","1","1","1","1","1","1"
"260056","img/object_images/speaker01.jpg","img/object_images/colander01.jpg","img/object_images/glasses06.jpg","1","1","1","1","0","1","0.544063000008464","0.55805600003805","0.542593099991791","1","1","1","1","1","1","1","1","1"
"260056","img/object_images/glasses06.jpg","img/object_images/speaker01.jpg","img/object_images/cup03.jpg","1","1","1","1","1","1","0.542593099991791","0.544063000008464","0.480136000085622","1","1","1","1","1","1","1","1","1"
"260056","img/object_images/cup03.jpg","img/object_images/glasses06.jpg","img/object_images/faucet01.jpg","1","1","1","1","1","0","0.480136000085622","0.542593099991791","0.491338799940422","1","1","1","1","1","1","1","1","1"
"260056","img/object_images/faucet01.jpg","img/object_images/cup03.jpg",NA,"1","1",NA,"0","1",NA,"0.491338799940422","0.480136000085622",NA,"1","1",NA,"1","1",NA,"1","1",NA
"260056","img/object_images/shoes07.jpg",NA,"img/object_images/audio_port01.jpg","1",NA,"1","0",NA,"1","0.596093500033021",NA,"0.543691399972886","1",NA,"1","1",NA,"1","1",NA,"1"
"260056","img/object_images/audio_port01.jpg","img/object_images/shoes07.jpg","img/object_images/fan02.jpg","1","1","1","1","0","0","0.543691399972886","0.596093500033021","0.639118499937467","1","1","1","1","1","1","1","1","1"
"260056","img/object_images/fan02.jpg","img/object_images/audio_port01.jpg","img/object_images/WoodBox01.jpg","1","1","1","0","1","0","0.639118499937467","0.543691399972886","0.565660700085573","1","1","1","1","1","1","1","1","1"
"260056","img/object_images/WoodBox01.jpg","img/object_images/fan02.jpg","img/object_images/scoreboard01.jpg","1","1","1","0","0","1","0.565660700085573","0.639118499937467","0.522167100105435","1","1","1","1","1","1","1","1","1"
"260056","img/object_images/scoreboard01.jpg","img/object_images/WoodBox01.jpg","img/object_images/helmet04.jpg","1","1","1","1","0","1","0.522167100105435","0.565660700085573","0.453243699972518","1","1","1","1","1","1","1","1","1"
"260056","img/object_images/helmet04.jpg","img/object_images/scoreboard01.jpg","img/object_images/toilet_paper_dispenser01.jpg","1","1","1","1","1","1","0.453243699972518","0.522167100105435","0.470611599972472","1","1","1","1","1","1","1","1","1"
"260056","img/object_images/toilet_paper_dispenser01.jpg","img/object_images/helmet04.jpg","img/object_images/dog_leash01.jpg","1","1","0","1","1","0","0.470611599972472","0.453243699972518","0.411188500002027","1","1","1","1","1","1","1","1","1"
"260056","img/object_images/dog_leash01.jpg","img/object_images/toilet_paper_dispenser01.jpg","img/object_images/hot_air_balloon02.jpg","0","1","1","0","1","0","0.411188500002027","0.470611599972472","0.602421000017785","1","1","1","1","1","1","1","1","1"
"260056","img/object_images/hot_air_balloon02.jpg","img/object_images/dog_leash01.jpg","img/object_images/flask01.jpg","1","0","1","0","0","0","0.602421000017785","0.411188500002027","0.609670900041237","1","1","1","1","1","1","1","1","1"
"260056","img/object_images/flask01.jpg","img/object_images/hot_air_balloon02.jpg","img/object_images/piggy_bank01.jpg","1","1","1","0","0","1","0.609670900041237","0.602421000017785","0.461840300005861","1","1","1","1","1","1","1","1","1"
"260056","img/object_images/piggy_bank01.jpg","img/object_images/flask01.jpg","img/object_images/pen05.jpg","1","1","1","1","0","0","0.461840300005861","0.609670900041237","0.547693700063974","1","1","1","1","1","1","1","1","1"
"260056","img/object_images/pen05.jpg","img/object_images/piggy_bank01.jpg","img/object_images/bicycle01.jpg","1","1","1","0","1","1","0.547693700063974","0.461840300005861","0.594523199950345","1","1","1","1","1","1","1","1","1"
"260056","img/object_images/bicycle01.jpg","img/object_images/pen05.jpg","img/object_images/camera_lens01.jpg","1","1","1","1","0","1","0.594523199950345","0.547693700063974","0.591894799959846","1","1","1","1","1","1","1","1","1"
"260056","img/object_images/camera_lens01.jpg","img/object_images/bicycle01.jpg","img/object_images/boat_toy10.jpg","1","1","1","1","1","0","0.591894799959846","0.594523199950345","0.659540799912065","1","1","1","1","1","1","1","1","1"
"260056","img/object_images/boat_toy10.jpg","img/object_images/camera_lens01.jpg","img/object_images/knit01.jpg","1","1","1","0","1","0","0.659540799912065","0.591894799959846","0.585560300038196","1","1","1","1","1","1","1","1","1"
"260056","img/object_images/knit01.jpg","img/object_images/boat_toy10.jpg","img/object_images/water_scooter01.jpg","1","1","1","0","0","1","0.585560300038196","0.659540799912065","0.513206399977207","1","1","1","1","1","1","1","1","1"
"260056","img/object_images/water_scooter01.jpg","img/object_images/knit01.jpg","img/object_images/purse04.jpg","1","1","1","1","0","1","0.513206399977207","0.585560300038196","0.571013799984939","1","1","1","1","1","1","1","1","1"
"260056","img/object_images/purse04.jpg","img/object_images/water_scooter01.jpg","img/object_images/hat06.jpg","1","1","0","1","1","0","0.571013799984939","0.513206399977207","0.565086200018413","1","1","1","1","1","1","1","1","2"
"260056","img/object_images/hat06.jpg","img/object_images/purse04.jpg","img/object_images/bean_bag02.jpg","0","1","1","0","1","1","0.565086200018413","0.571013799984939","0.802879000082612","1","1","1","1","1","1","2","1","1"
"260056","img/object_images/bean_bag02.jpg","img/object_images/hat06.jpg","img/object_images/coloring_pencil02.jpg","1","0","1","1","0","0","0.802879000082612","0.565086200018413","0.72719780006446","1","1","1","1","1","1","1","2","1"
"260056","img/object_images/coloring_pencil02.jpg","img/object_images/bean_bag02.jpg","img/object_images/perfume02.jpg","1","1","1","0","1","0","0.72719780006446","0.802879000082612","0.670706899953075","1","1","1","1","1","1","1","1","1"
"260056","img/object_images/perfume02.jpg","img/object_images/coloring_pencil02.jpg","img/object_images/cellphone03.jpg","1","1","1","0","0","0","0.670706899953075","0.72719780006446","0.591328599955887","1","1","1","1","1","1","1","1","1"
"260056","img/object_images/cellphone03.jpg","img/object_images/perfume02.jpg","img/object_images/tool19.jpg","1","1","1","0","0","1","0.591328599955887","0.670706899953075","0.572967799962498","1","1","1","1","1","1","1","1","1"
"260056","img/object_images/tool19.jpg","img/object_images/cellphone03.jpg","img/object_images/tie02.jpg","1","1","1","1","0","0","0.572967799962498","0.591328599955887","0.607815399998799","1","1","1","1","1","1","1","1","1"
"260056","img/object_images/tie02.jpg","img/object_images/tool19.jpg","img/object_images/chair03.jpg","1","1","1","0","1","0","0.607815399998799","0.572967799962498","0.58447849994991","1","1","1","1","1","1","1","1","1"
"260056","img/object_images/chair03.jpg","img/object_images/tie02.jpg","img/object_images/bottle02.jpg","1","1","1","0","0","1","0.58447849994991","0.607815399998799","0.57687679992523","1","1","1","1","1","1","1","1","1"
"260056","img/object_images/bottle02.jpg","img/object_images/chair03.jpg","img/object_images/toaster01.jpg","1","1","1","1","0","1","0.57687679992523","0.58447849994991","0.41937090002466","1","1","1","1","1","1","1","1","1"
"260056","img/object_images/toaster01.jpg","img/object_images/bottle02.jpg","img/object_images/wagon_cart03.jpg","1","1","1","1","1","1","0.41937090002466","0.57687679992523","0.659595600096509","1","1","1","1","1","1","1","1","1"
"260056","img/object_images/wagon_cart03.jpg","img/object_images/toaster01.jpg","img/object_images/boat02.jpg","1","1","1","1","1","1","0.659595600096509","0.41937090002466","0.61940969992429","1","1","1","1","1","1","1","1","1"
"260056","img/object_images/boat02.jpg","img/object_images/wagon_cart03.jpg","img/object_images/bottle09.jpg","1","1","1","1","1","0","0.61940969992429","0.659595600096509","0.648813200066797","1","1","1","1","1","1","1","1","1"
"260056","img/object_images/bottle09.jpg","img/object_images/boat02.jpg","img/object_images/bottle10.jpg","1","1","1","0","1","1","0.648813200066797","0.61940969992429","0.520622999989428","1","1","1","1","1","1","1","1","1"
"260056","img/object_images/bottle10.jpg","img/object_images/bottle09.jpg",NA,"1","1",NA,"1","0",NA,"0.520622999989428","0.648813200066797",NA,"1","1",NA,"1","1",NA,"1","1",NA
"260056","img/object_images/chair01.jpg",NA,"img/object_images/guitar01.jpg","0",NA,"1","0",NA,"1","0.802106600021943",NA,"0.5749423999805","1",NA,"1","1",NA,"1","1",NA,"1"
"260056","img/object_images/guitar01.jpg","img/object_images/chair01.jpg","img/object_images/razor03.jpg","1","0","0","1","0","0","0.5749423999805","0.802106600021943","0.387433600029908","1","1","1","1","1","1","1","1","1"
"260056","img/object_images/razor03.jpg","img/object_images/guitar01.jpg","img/object_images/lamp01.jpg","0","1","1","0","1","1","0.387433600029908","0.5749423999805","0.576386300032027","1","1","1","1","1","1","1","1","1"
"260056","img/object_images/lamp01.jpg","img/object_images/razor03.jpg","img/object_images/lantern01.jpg","1","0","1","1","0","1","0.576386300032027","0.387433600029908","0.547999299946241","1","1","1","1","1","1","1","1","1"
"260056","img/object_images/lantern01.jpg","img/object_images/lamp01.jpg","img/object_images/helmet05.jpg","1","1","1","1","1","1","0.547999299946241","0.576386300032027","0.51296890003141","1","1","1","1","1","1","1","1","1"
"260056","img/object_images/helmet05.jpg","img/object_images/lantern01.jpg","img/object_images/cochlear_implant01.jpg","1","1","1","1","1","0","0.51296890003141","0.547999299946241","0.553569499985315","1","1","1","1","1","1","1","1","1"
"260056","img/object_images/cochlear_implant01.jpg","img/object_images/helmet05.jpg","img/object_images/basketball_hoop02.jpg","1","1","1","0","1","0","0.553569499985315","0.51296890003141","0.576594999991357","1","1","1","1","1","1","1","1","1"
"260056","img/object_images/basketball_hoop02.jpg","img/object_images/cochlear_implant01.jpg","img/object_images/brief_case01.jpg","1","1","1","0","0","0","0.576594999991357","0.553569499985315","0.527099400060251","1","1","1","1","1","1","1","1","1"
"260056","img/object_images/brief_case01.jpg","img/object_images/basketball_hoop02.jpg","img/object_images/drone02.jpg","1","1","1","0","0","0","0.527099400060251","0.576594999991357","0.479447199963033","1","1","1","1","1","1","1","1","1"
"260056","img/object_images/drone02.jpg","img/object_images/brief_case01.jpg","img/object_images/toy_train02.jpg","1","1","1","0","0","1","0.479447199963033","0.527099400060251","0.540442700032145","1","1","1","1","1","1","1","1","1"
"260056","img/object_images/toy_train02.jpg","img/object_images/drone02.jpg","img/object_images/Recycling01.jpg","1","1","1","1","0","1","0.540442700032145","0.479447199963033","0.513668900006451","1","1","1","1","1","1","1","1","1"
"260056","img/object_images/Recycling01.jpg","img/object_images/toy_train02.jpg","img/object_images/brief_case02.jpg","1","1","1","1","1","1","0.513668900006451","0.540442700032145","0.522938700043596","1","1","1","1","1","1","1","1","1"
"260056","img/object_images/brief_case02.jpg","img/object_images/Recycling01.jpg","img/object_images/Woopie01.jpg","1","1","1","1","1","1","0.522938700043596","0.513668900006451","0.460212599951774","1","1","1","1","1","1","1","1","1"
"260056","img/object_images/Woopie01.jpg","img/object_images/brief_case02.jpg","img/object_images/soap01.jpg","1","1","1","1","1","0","0.460212599951774","0.522938700043596","0.567306200042367","1","1","1","1","1","1","1","1","1"
"260056","img/object_images/soap01.jpg","img/object_images/Woopie01.jpg","img/object_images/Wisk01.jpg","1","1","1","0","1","1","0.567306200042367","0.460212599951774","0.468776300083846","1","1","1","1","1","1","1","1","1"
"260056","img/object_images/Wisk01.jpg","img/object_images/soap01.jpg","img/object_images/gloves05.jpg","1","1","1","1","0","1","0.468776300083846","0.567306200042367","0.559297399944626","1","1","1","1","1","1","1","1","1"
"260056","img/object_images/gloves05.jpg","img/object_images/Wisk01.jpg","img/object_images/pitcher03.jpg","1","1","1","1","1","1","0.559297399944626","0.468776300083846","0.551615599892102","1","1","1","1","1","1","1","1","1"
"260056","img/object_images/pitcher03.jpg","img/object_images/gloves05.jpg","img/object_images/pot01.jpg","1","1","1","1","1","0","0.551615599892102","0.559297399944626","0.492370299994946","1","1","1","1","1","1","1","1","1"
"260056","img/object_images/pot01.jpg","img/object_images/pitcher03.jpg","img/object_images/car02.jpg","1","1","1","0","1","0","0.492370299994946","0.551615599892102","0.513358299969696","1","1","1","1","1","1","1","1","1"
"260056","img/object_images/car02.jpg","img/object_images/pot01.jpg","img/object_images/bottle12.jpg","1","1","1","0","0","1","0.513358299969696","0.492370299994946","0.468241500086151","1","1","1","1","1","1","1","1","1"
"260056","img/object_images/bottle12.jpg","img/object_images/car02.jpg","img/object_images/ball01.jpg","1","1","1","1","0","1","0.468241500086151","0.513358299969696","0.466291899909265","1","1","1","1","1","1","1","1","1"
"260056","img/object_images/ball01.jpg","img/object_images/bottle12.jpg","img/object_images/broom01.jpg","1","1","1","1","1","1","0.466291899909265","0.468241500086151","0.539469799958169","1","1","1","1","1","1","1","1","1"
"260056","img/object_images/broom01.jpg","img/object_images/ball01.jpg","img/object_images/tie01.jpg","1","1","0","1","1","0","0.539469799958169","0.466291899909265","0.519476799992844","1","1","1","1","1","1","1","1","1"
"260056","img/object_images/tie01.jpg","img/object_images/broom01.jpg","img/object_images/couch04.jpg","0","1","1","0","1","1","0.519476799992844","0.539469799958169","0.633248200058006","1","1","1","1","1","1","1","1","1"
"260056","img/object_images/couch04.jpg","img/object_images/tie01.jpg","img/object_images/toilet_paper01.jpg","1","0","1","1","0","1","0.633248200058006","0.519476799992844","0.5409613000229","1","1","1","1","1","1","1","1","1"
"260056","img/object_images/toilet_paper01.jpg","img/object_images/couch04.jpg","img/object_images/ironing_table02.jpg","1","1","1","1","1","0","0.5409613000229","0.633248200058006","0.608883899985813","1","1","1","1","1","1","1","1","1"
"260056","img/object_images/ironing_table02.jpg","img/object_images/toilet_paper01.jpg","img/object_images/hat02.jpg","1","1","1","0","1","0","0.608883899985813","0.5409613000229","0.659400900010951","1","1","1","1","1","1","1","1","1"
"260056","img/object_images/hat02.jpg","img/object_images/ironing_table02.jpg","img/object_images/airfryer01.jpg","1","1","1","0","0","0","0.659400900010951","0.608883899985813","0.593675300013274","1","1","1","1","1","1","1","1","1"
"260056","img/object_images/airfryer01.jpg","img/object_images/hat02.jpg","img/object_images/container01.jpg","1","1","1","0","0","0","0.593675300013274","0.659400900010951","0.602806200040504","1","1","1","1","1","1","1","1","1"
"260056","img/object_images/container01.jpg","img/object_images/airfryer01.jpg","img/object_images/video_game06.jpg","1","1","1","0","0","0","0.602806200040504","0.593675300013274","0.563616200000979","1","1","1","1","1","1","1","1","1"
"260056","img/object_images/video_game06.jpg","img/object_images/container01.jpg","img/object_images/decorative02.jpg","1","1","1","0","0","0","0.563616200000979","0.602806200040504","0.522596099996008","1","1","1","1","1","1","1","1","1"
"260056","img/object_images/decorative02.jpg","img/object_images/video_game06.jpg",NA,"1","1",NA,"0","0",NA,"0.522596099996008","0.563616200000979",NA,"1","1",NA,"1","1",NA,"1","1",NA
"260056","img/object_images/judge_gavel01.jpg",NA,"img/object_images/tool09.jpg","1",NA,"1","1",NA,"1","1.09751609992236",NA,"0.626834299997427","1",NA,"1","1",NA,"1","1",NA,"1"
"260056","img/object_images/tool09.jpg","img/object_images/judge_gavel01.jpg","img/object_images/bird_house02.jpg","1","1","1","1","1","1","0.626834299997427","1.09751609992236","0.471253999974579","1","1","1","1","1","1","1","1","1"
"260056","img/object_images/bird_house02.jpg","img/object_images/tool09.jpg","img/object_images/crown02.jpg","1","1","1","1","1","1","0.471253999974579","0.626834299997427","0.409113400033675","1","1","1","1","1","1","1","1","1"
"260056","img/object_images/crown02.jpg","img/object_images/bird_house02.jpg","img/object_images/Vacuum01.jpg","1","1","1","1","1","0","0.409113400033675","0.471253999974579","0.605221300036646","1","1","1","1","1","1","1","1","1"
"260056","img/object_images/Vacuum01.jpg","img/object_images/crown02.jpg","img/object_images/stapler.jpg","1","1","1","0","1","1","0.605221300036646","0.409113400033675","0.511744000017643","1","1","1","1","1","1","1","1","1"
"260056","img/object_images/stapler.jpg","img/object_images/Vacuum01.jpg","img/object_images/gauze01.jpg","1","1","1","1","0","0","0.511744000017643","0.605221300036646","0.524694599909708","1","1","1","1","1","1","1","1","1"
"260056","img/object_images/gauze01.jpg","img/object_images/stapler.jpg","img/object_images/fridge03.jpg","1","1","1","0","1","0","0.524694599909708","0.511744000017643","0.580825299955904","1","1","1","1","1","1","1","1","1"
"260056","img/object_images/fridge03.jpg","img/object_images/gauze01.jpg","img/object_images/frisbee01.jpg","1","1","1","0","0","1","0.580825299955904","0.524694599909708","0.556527100037783","1","1","1","1","1","1","1","1","1"
"260056","img/object_images/frisbee01.jpg","img/object_images/fridge03.jpg","img/object_images/guitar02.jpg","1","1","1","1","0","0","0.556527100037783","0.580825299955904","0.561451100045815","1","1","1","1","1","1","1","1","1"
"260056","img/object_images/guitar02.jpg","img/object_images/frisbee01.jpg","img/object_images/sink01.jpg","1","1","1","0","1","0","0.561451100045815","0.556527100037783","0.589052899973467","1","1","1","1","1","1","1","1","1"
"260056","img/object_images/sink01.jpg","img/object_images/guitar02.jpg","img/object_images/dart01.jpg","1","1","1","0","0","0","0.589052899973467","0.561451100045815","0.609089100034907","1","1","1","1","1","1","1","1","1"
"260056","img/object_images/dart01.jpg","img/object_images/sink01.jpg","img/object_images/Stool01.jpg","1","1","1","0","0","0","0.609089100034907","0.589052899973467","0.57748790003825","1","1","1","1","1","1","1","1","1"
"260056","img/object_images/Stool01.jpg","img/object_images/dart01.jpg","img/object_images/Ring02.jpg","1","1","1","0","0","0","0.57748790003825","0.609089100034907","0.455891599995084","1","1","1","1","1","1","1","1","1"
"260056","img/object_images/Ring02.jpg","img/object_images/Stool01.jpg","img/object_images/toy03.jpg","1","1","1","0","0","1","0.455891599995084","0.57748790003825","0.480517899966799","1","1","1","1","1","1","1","1","1"
"260056","img/object_images/toy03.jpg","img/object_images/Ring02.jpg","img/object_images/tool02.jpg","1","1","1","1","0","1","0.480517899966799","0.455891599995084","0.533242199919187","1","1","1","1","1","1","1","1","1"
"260056","img/object_images/tool02.jpg","img/object_images/toy03.jpg","img/object_images/shovel03.jpg","1","1","1","1","1","1","0.533242199919187","0.480517899966799","0.528258799924515","1","1","1","1","1","1","1","1","1"
"260056","img/object_images/shovel03.jpg","img/object_images/tool02.jpg","img/object_images/pot01 (1).jpg","1","1","1","1","1","0","0.528258799924515","0.533242199919187","0.596227200003341","1","1","1","1","1","1","1","1","1"
"260056","img/object_images/pot01 (1).jpg","img/object_images/shovel03.jpg","img/object_images/jewel04.jpg","1","1","1","0","1","0","0.596227200003341","0.528258799924515","0.481225700001232","1","1","1","1","1","1","1","1","1"
"260056","img/object_images/jewel04.jpg","img/object_images/pot01 (1).jpg","img/object_images/helmet01.jpg","1","1","1","0","0","0","0.481225700001232","0.596227200003341","0.54277059994638","1","1","1","1","1","1","1","1","1"
"260056","img/object_images/helmet01.jpg","img/object_images/jewel04.jpg","img/object_images/outlet01.jpg","1","1","1","0","0","0","0.54277059994638","0.481225700001232","0.445778000052087","1","1","1","1","1","1","1","1","1"
"260056","img/object_images/outlet01.jpg","img/object_images/helmet01.jpg","img/object_images/video_game07.jpg","1","1","1","0","0","1","0.445778000052087","0.54277059994638","0.529189999913797","1","1","1","1","1","1","1","1","1"
"260056","img/object_images/video_game07.jpg","img/object_images/outlet01.jpg","img/object_images/bow01.jpg","1","1","1","1","0","1","0.529189999913797","0.445778000052087","0.606643800041638","1","1","1","1","1","1","1","1","1"
"260056","img/object_images/bow01.jpg","img/object_images/video_game07.jpg","img/object_images/acoustic_capo01.jpg","1","1","1","1","1","1","0.606643800041638","0.529189999913797","0.541538699995726","1","1","1","1","1","1","1","1","1"
"260056","img/object_images/acoustic_capo01.jpg","img/object_images/bow01.jpg","img/object_images/ornament01.jpg","1","1","1","1","1","1","0.541538699995726","0.606643800041638","0.56873469997663","1","1","1","1","1","1","1","1","1"
"260056","img/object_images/ornament01.jpg","img/object_images/acoustic_capo01.jpg","img/object_images/mirror01.jpg","1","1","1","1","1","1","0.56873469997663","0.541538699995726","0.547944999998435","1","1","1","1","1","1","1","1","1"
"260056","img/object_images/mirror01.jpg","img/object_images/ornament01.jpg","img/object_images/watch01.jpg","1","1","1","1","1","0","0.547944999998435","0.56873469997663","0.834650800097734","1","1","1","1","1","1","1","1","1"
"260056","img/object_images/watch01.jpg","img/object_images/mirror01.jpg","img/object_images/towel02.jpg","1","1","1","0","1","1","0.834650800097734","0.547944999998435","0.548967499984428","1","1","1","1","1","1","1","1","1"
"260056","img/object_images/towel02.jpg","img/object_images/watch01.jpg","img/object_images/bottle05.jpg","1","1","1","1","0","0","0.548967499984428","0.834650800097734","0.663097099983133","1","1","1","1","1","1","1","1","1"
"260056","img/object_images/bottle05.jpg","img/object_images/towel02.jpg","img/object_images/Tin01.jpg","1","1","1","0","1","1","0.663097099983133","0.548967499984428","0.44769910001196","1","1","1","1","1","1","1","1","1"
"260056","img/object_images/Tin01.jpg","img/object_images/bottle05.jpg","img/object_images/toy04.jpg","1","1","1","1","0","0","0.44769910001196","0.663097099983133","0.56357720005326","1","1","1","1","1","1","1","1","1"
"260056","img/object_images/toy04.jpg","img/object_images/Tin01.jpg","img/object_images/MetalWire01.jpg","1","1","1","0","1","0","0.56357720005326","0.44769910001196","0.563800200005062","1","1","1","1","1","1","1","1","1"
"260056","img/object_images/MetalWire01.jpg","img/object_images/toy04.jpg",NA,"1","1",NA,"0","0",NA,"0.563800200005062","0.56357720005326",NA,"1","1",NA,"1","1",NA,"1","1",NA
"260056","img/object_images/compass01.jpg",NA,"img/object_images/retainer01.jpg","1",NA,"1","1",NA,"0","1.20226379996166",NA,"0.562418299959973","1",NA,"1","1",NA,"1","1",NA,"1"
"260056","img/object_images/retainer01.jpg","img/object_images/compass01.jpg","img/object_images/Thermometer01.jpg","1","1","1","0","1","0","0.562418299959973","1.20226379996166","0.559988099965267","1","1","1","1","1","1","1","1","1"
"260056","img/object_images/Thermometer01.jpg","img/object_images/retainer01.jpg","img/object_images/floppy_disk02.jpg","1","1","1","0","0","0","0.559988099965267","0.562418299959973","0.568145200028084","1","1","1","1","1","1","1","1","1"
"260056","img/object_images/floppy_disk02.jpg","img/object_images/Thermometer01.jpg","img/object_images/Oven01.jpg","1","1","1","0","0","1","0.568145200028084","0.559988099965267","0.529179999954067","1","1","1","1","1","1","1","1","1"
"260056","img/object_images/Oven01.jpg","img/object_images/floppy_disk02.jpg","img/object_images/cellphone01.jpg","1","1","1","1","0","1","0.529179999954067","0.568145200028084","0.512818999937735","1","1","1","1","1","1","1","1","1"
"260056","img/object_images/cellphone01.jpg","img/object_images/Oven01.jpg","img/object_images/Staples01.jpg","1","1","1","1","1","1","0.512818999937735","0.529179999954067","0.555250399978831","1","1","1","1","1","1","1","1","1"
"260056","img/object_images/Staples01.jpg","img/object_images/cellphone01.jpg","img/object_images/note_book01.jpg","1","1","1","1","1","0","0.555250399978831","0.512818999937735","0.636691100080498","1","1","1","1","1","1","1","1","1"
"260056","img/object_images/note_book01.jpg","img/object_images/Staples01.jpg","img/object_images/hammer03.jpg","1","1","1","0","1","1","0.636691100080498","0.555250399978831","0.685907400096767","1","1","1","1","1","1","1","1","1"
"260056","img/object_images/hammer03.jpg","img/object_images/note_book01.jpg","img/object_images/book03.jpg","1","1","1","1","0","1","0.685907400096767","0.636691100080498","0.379239999921992","1","1","1","1","1","1","1","1","1"
"260056","img/object_images/book03.jpg","img/object_images/hammer03.jpg","img/object_images/microscope01.jpg","1","1","1","1","1","0","0.379239999921992","0.685907400096767","0.502334700082429","1","1","1","1","1","1","1","1","1"
"260056","img/object_images/microscope01.jpg","img/object_images/book03.jpg","img/object_images/motorcycle01.jpg","1","1","1","0","1","1","0.502334700082429","0.379239999921992","0.551114099915139","1","1","1","1","1","1","1","1","1"
"260056","img/object_images/motorcycle01.jpg","img/object_images/microscope01.jpg","img/object_images/bottle01.jpg","1","1","1","1","0","0","0.551114099915139","0.502334700082429","0.538944000029005","1","1","1","1","1","1","1","1","1"
"260056","img/object_images/bottle01.jpg","img/object_images/motorcycle01.jpg","img/object_images/chess_piece02.jpg","1","1","1","0","1","1","0.538944000029005","0.551114099915139","0.542406899970956","1","1","1","1","1","1","1","1","1"
"260056","img/object_images/chess_piece02.jpg","img/object_images/bottle01.jpg","img/object_images/ear_bud01.jpg","1","1","1","1","0","1","0.542406899970956","0.538944000029005","0.423783900099806","1","1","1","1","1","1","1","1","1"
"260056","img/object_images/ear_bud01.jpg","img/object_images/chess_piece02.jpg","img/object_images/bell02.jpg","1","1","1","1","1","0","0.423783900099806","0.542406899970956","0.585582299972884","1","1","1","1","1","1","1","1","1"
"260056","img/object_images/bell02.jpg","img/object_images/ear_bud01.jpg","img/object_images/floppy_disk03.jpg","1","1","1","0","1","1","0.585582299972884","0.423783900099806","0.395143100060523","1","1","1","1","1","1","1","1","1"
"260056","img/object_images/floppy_disk03.jpg","img/object_images/bell02.jpg","img/object_images/chair05.jpg","1","1","1","1","0","0","0.395143100060523","0.585582299972884","0.56664620002266","1","1","1","1","1","1","1","1","2"
"260056","img/object_images/chair05.jpg","img/object_images/floppy_disk03.jpg","img/object_images/tv02.jpg","1","1","1","0","1","0","0.56664620002266","0.395143100060523","0.655606100102887","1","1","1","1","1","1","2","1","1"
"260056","img/object_images/tv02.jpg","img/object_images/chair05.jpg","img/object_images/clock02.jpg","1","1","1","0","0","0","0.655606100102887","0.56664620002266","0.772371399914846","1","1","1","1","1","1","1","2","1"
"260056","img/object_images/clock02.jpg","img/object_images/tv02.jpg","img/object_images/pen03.jpg","1","1","1","0","0","0","0.772371399914846","0.655606100102887","0.545150100020692","1","1","1","1","1","1","1","1","1"
"260056","img/object_images/pen03.jpg","img/object_images/clock02.jpg","img/object_images/pitcher01.jpg","1","1","1","0","0","0","0.545150100020692","0.772371399914846","0.505947099998593","1","1","1","1","1","1","1","1","1"
"260056","img/object_images/pitcher01.jpg","img/object_images/pen03.jpg","img/object_images/usb02.jpg","1","1","1","0","0","0","0.505947099998593","0.545150100020692","0.545292200054973","1","1","1","1","1","1","1","1","1"
"260056","img/object_images/usb02.jpg","img/object_images/pitcher01.jpg","img/object_images/paint_brush04.jpg","1","1","1","0","0","0","0.545292200054973","0.505947099998593","0.534741300041787","1","1","1","1","1","1","1","1","1"
"260056","img/object_images/paint_brush04.jpg","img/object_images/usb02.jpg","img/object_images/tennis_racket02.jpg","1","1","1","0","0","1","0.534741300041787","0.545292200054973","0.399262999999337","1","1","1","1","1","1","1","1","1"
"260056","img/object_images/tennis_racket02.jpg","img/object_images/paint_brush04.jpg","img/object_images/crutches02.jpg","1","1","1","1","0","0","0.399262999999337","0.534741300041787","0.57758569996804","1","1","1","1","1","1","1","1","1"
"260056","img/object_images/crutches02.jpg","img/object_images/tennis_racket02.jpg","img/object_images/knit05.jpg","1","1","1","0","1","1","0.57758569996804","0.399262999999337","0.530468200100586","1","1","1","1","1","1","1","1","1"
"260056","img/object_images/knit05.jpg","img/object_images/crutches02.jpg","img/object_images/pillows01.jpg","1","1","1","1","0","1","0.530468200100586","0.57758569996804","0.524121200083755","1","1","1","1","1","1","1","1","1"
"260056","img/object_images/pillows01.jpg","img/object_images/knit05.jpg","img/object_images/clip03.jpg","1","1","0","1","1","0","0.524121200083755","0.530468200100586","0.370182399987243","1","1","1","1","1","1","1","1","1"
"260056","img/object_images/clip03.jpg","img/object_images/pillows01.jpg","img/object_images/wire02.jpg","0","1","1","0","1","1","0.370182399987243","0.524121200083755","0.536552299978212","1","1","1","1","1","1","1","1","1"
"260056","img/object_images/wire02.jpg","img/object_images/clip03.jpg","img/object_images/lid01.jpg","1","0","1","1","0","1","0.536552299978212","0.370182399987243","0.569116700091399","1","1","1","1","1","1","1","1","1"
"260056","img/object_images/lid01.jpg","img/object_images/wire02.jpg","img/object_images/knife04.jpg","1","1","1","1","1","1","0.569116700091399","0.536552299978212","0.52983699995093","1","1","1","1","1","1","1","1","1"
"260056","img/object_images/knife04.jpg","img/object_images/lid01.jpg",NA,"1","1",NA,"1","1",NA,"0.52983699995093","0.569116700091399",NA,"1","1",NA,"1","1",NA,"1","1",NA
"260056","img/object_images/backpack01.jpg",NA,"img/object_images/video_game01.jpg","1",NA,"1","0",NA,"1","0.642020700033754",NA,"0.475762599962763","1",NA,"1","1",NA,"1","1",NA,"1"
"260056","img/object_images/video_game01.jpg","img/object_images/backpack01.jpg","img/object_images/knit03.jpg","1","1","0","1","0","1","0.475762599962763","0.642020700033754","0.561179000069387","1","1","1","1","1","1","1","1","1"
"260056","img/object_images/knit03.jpg","img/object_images/video_game01.jpg","img/object_images/tool18.jpg","0","1","1","1","1","0","0.561179000069387","0.475762599962763","0.582700000028126","1","1","1","1","1","1","1","1","1"
"260056","img/object_images/tool18.jpg","img/object_images/knit03.jpg","img/object_images/hoverboard01.jpg","1","0","1","0","1","0","0.582700000028126","0.561179000069387","0.542077600024641","1","1","1","1","1","1","1","1","1"
"260056","img/object_images/hoverboard01.jpg","img/object_images/tool18.jpg","img/object_images/remover01.jpg","1","1","1","0","0","1","0.542077600024641","0.582700000028126","0.759021800011396","1","1","1","1","1","1","1","1","1"
"260056","img/object_images/remover01.jpg","img/object_images/hoverboard01.jpg","img/object_images/keyboard02.jpg","1","1","1","1","0","1","0.759021800011396","0.542077600024641","0.540544499992393","1","1","1","1","1","1","1","1","1"
"260056","img/object_images/keyboard02.jpg","img/object_images/remover01.jpg","img/object_images/bottle07.jpg","1","1","1","1","1","1","0.540544499992393","0.759021800011396","0.458518999977969","1","1","1","1","1","1","1","1","1"
"260056","img/object_images/bottle07.jpg","img/object_images/keyboard02.jpg","img/object_images/toy08.jpg","1","1","1","1","1","0","0.458518999977969","0.540544499992393","0.769659899990074","1","1","1","1","1","1","1","1","1"
"260056","img/object_images/toy08.jpg","img/object_images/bottle07.jpg","img/object_images/Statue01.jpg","1","1","0","0","1","1","0.769659899990074","0.458518999977969","0.620305099990219","1","1","1","1","1","1","1","1","1"
"260056","img/object_images/Statue01.jpg","img/object_images/toy08.jpg","img/object_images/flashlight03.jpg","0","1","1","1","0","0","0.620305099990219","0.769659899990074","0.585692299995571","1","1","1","1","1","1","1","1","1"
"260056","img/object_images/flashlight03.jpg","img/object_images/Statue01.jpg","img/object_images/paper_cup02.jpg","1","0","1","0","1","1","0.585692299995571","0.620305099990219","0.732120500062592","1","1","1","1","1","1","1","1","1"
"260056","img/object_images/paper_cup02.jpg","img/object_images/flashlight03.jpg","img/object_images/mail_box01.jpg","1","1","1","1","0","0","0.732120500062592","0.585692299995571","0.646525399992242","1","1","1","1","1","1","1","1","1"
"260056","img/object_images/mail_box01.jpg","img/object_images/paper_cup02.jpg","img/object_images/knife02.jpg","1","1","1","0","1","0","0.646525399992242","0.732120500062592","0.662475100019947","1","1","1","1","1","1","1","1","1"
"260056","img/object_images/knife02.jpg","img/object_images/mail_box01.jpg","img/object_images/stereo02.jpg","1","1","1","0","0","0","0.662475100019947","0.646525399992242","0.597595900064334","1","1","1","1","1","1","1","1","1"
"260056","img/object_images/stereo02.jpg","img/object_images/knife02.jpg","img/object_images/matches02.jpg","1","1","1","0","0","0","0.597595900064334","0.662475100019947","0.725373400026001","1","1","1","1","1","1","1","1","1"
"260056","img/object_images/matches02.jpg","img/object_images/stereo02.jpg","img/object_images/hand_grip_exerciser01.jpg","1","1","1","0","0","0","0.725373400026001","0.597595900064334","0.776444899966009","1","1","1","1","1","1","1","1","1"
"260056","img/object_images/hand_grip_exerciser01.jpg","img/object_images/matches02.jpg","img/object_images/curtain02.jpg","1","1","1","0","0","0","0.776444899966009","0.725373400026001","0.693729900056496","1","1","1","1","1","1","1","1","1"
"260056","img/object_images/curtain02.jpg","img/object_images/hand_grip_exerciser01.jpg","img/object_images/dresser03.jpg","1","1","1","0","0","0","0.693729900056496","0.776444899966009","0.727917599957436","1","1","1","1","1","1","1","1","1"
"260056","img/object_images/dresser03.jpg","img/object_images/curtain02.jpg","img/object_images/knit04.jpg","1","1","1","0","0","1","0.727917599957436","0.693729900056496","0.682023400091566","1","1","1","1","1","1","1","1","1"
"260056","img/object_images/knit04.jpg","img/object_images/dresser03.jpg","img/object_images/jacket04.jpg","1","1","1","1","0","0","0.682023400091566","0.727917599957436","0.611880400101654","1","1","1","1","1","1","1","1","1"
"260056","img/object_images/jacket04.jpg","img/object_images/knit04.jpg","img/object_images/boat04.jpg","1","1","1","0","1","0","0.611880400101654","0.682023400091566","0.608863300061785","1","1","1","1","1","1","1","1","1"
"260056","img/object_images/boat04.jpg","img/object_images/jacket04.jpg","img/object_images/remote_controller01.jpg","1","1","1","0","0","1","0.608863300061785","0.611880400101654","0.580825500073843","1","1","1","1","1","1","1","1","1"
"260056","img/object_images/remote_controller01.jpg","img/object_images/boat04.jpg","img/object_images/kite01.jpg","1","1","1","1","0","1","0.580825500073843","0.608863300061785","0.657803699956276","1","1","1","1","1","1","1","1","1"
"260056","img/object_images/kite01.jpg","img/object_images/remote_controller01.jpg","img/object_images/car01.jpg","1","1","1","1","1","1","0.657803699956276","0.580825500073843","0.689192999969237","1","1","1","1","1","1","1","1","1"
"260056","img/object_images/car01.jpg","img/object_images/kite01.jpg","img/object_images/basket04.jpg","1","1","1","1","1","1","0.689192999969237","0.657803699956276","0.576950100017712","1","1","1","1","1","1","1","1","1"
"260056","img/object_images/basket04.jpg","img/object_images/car01.jpg","img/object_images/phone02.jpg","1","1","1","1","1","1","0.576950100017712","0.689192999969237","0.721344899968244","1","1","1","1","1","1","1","1","1"
"260056","img/object_images/phone02.jpg","img/object_images/basket04.jpg","img/object_images/sponge03.jpg","1","1","1","1","1","1","0.721344899968244","0.576950100017712","0.579914700007066","1","1","1","1","1","1","1","1","1"
"260056","img/object_images/sponge03.jpg","img/object_images/phone02.jpg","img/object_images/camera03.jpg","1","1","1","1","1","0","0.579914700007066","0.721344899968244","0.541881400044076","1","1","1","1","1","1","1","1","1"
"260056","img/object_images/camera03.jpg","img/object_images/sponge03.jpg","img/object_images/blender02.jpg","1","1","1","0","1","1","0.541881400044076","0.579914700007066","0.606863599969074","1","1","1","1","1","1","1","1","1"
"260056","img/object_images/blender02.jpg","img/object_images/camera03.jpg","img/object_images/shower_head01.jpg","1","1","1","1","0","1","0.606863599969074","0.541881400044076","0.498175399960019","1","1","1","1","1","1","1","1","1"
"260056","img/object_images/shower_head01.jpg","img/object_images/blender02.jpg","img/object_images/gloves02.jpg","1","1","1","1","1","0","0.498175399960019","0.606863599969074","0.831449899938889","1","1","1","1","1","1","1","1","1"
"260056","img/object_images/gloves02.jpg","img/object_images/shower_head01.jpg",NA,"1","1",NA,"0","1",NA,"0.831449899938889","0.498175399960019",NA,"1","1",NA,"1","1",NA,"1","1",NA
