"participant_id","current_trial_object","pre_trial_object","post_trial_object","current_trial_accuracy","pre_trial_accuracy","post_trial_accuracy","current_trial_congruency","pre_trial_congruency","post_trial_congruency","current_trial_rt","pre_trial_rt","post_trial_rt","current_trial_responded","pre_trial_responded","post_trial_responded","current_trial_legitResponse","pre_trial_legitResponse","post_trial_legitResponse","current_trial_resp_nums","pre_trial_resp_nums","post_trial_resp_nums"
"260055","img/object_images/curtain02.jpg",NA,"img/object_images/hand_grip_exerciser01.jpg","1",NA,"1","0",NA,"0","0.759217500017257",NA,"0.753099800029304","1",NA,"1","1",NA,"1","1",NA,"1"
"260055","img/object_images/hand_grip_exerciser01.jpg","img/object_images/curtain02.jpg","img/object_images/matches02.jpg","1","1","1","0","0","0","0.753099800029304","0.759217500017257","0.508858400018653","1","1","1","1","1","1","1","1","1"
"260055","img/object_images/matches02.jpg","img/object_images/hand_grip_exerciser01.jpg","img/object_images/phone02.jpg","1","1","1","0","0","1","0.508858400018653","0.753099800029304","0.603087500028778","1","1","1","1","1","1","1","1","1"
"260055","img/object_images/phone02.jpg","img/object_images/matches02.jpg","img/object_images/video_game01.jpg","1","1","1","1","0","1","0.603087500028778","0.508858400018653","0.475253200012958","1","1","1","1","1","1","1","1","1"
"260055","img/object_images/video_game01.jpg","img/object_images/phone02.jpg","img/object_images/kite01.jpg","1","1","1","1","1","1","0.475253200012958","0.603087500028778","0.468625700013945","1","1","1","1","1","1","1","1","1"
"260055","img/object_images/kite01.jpg","img/object_images/video_game01.jpg","img/object_images/flashlight03.jpg","1","1","1","1","1","0","0.468625700013945","0.475253200012958","0.389619000023231","1","1","1","1","1","1","1","1","1"
"260055","img/object_images/flashlight03.jpg","img/object_images/kite01.jpg","img/object_images/bottle07.jpg","1","1","1","0","1","1","0.389619000023231","0.468625700013945","0.483138800016604","1","1","1","1","1","1","1","1","1"
"260055","img/object_images/bottle07.jpg","img/object_images/flashlight03.jpg","img/object_images/sponge03.jpg","1","1","1","1","0","1","0.483138800016604","0.389619000023231","0.518432200013194","1","1","1","1","1","1","1","1","1"
"260055","img/object_images/sponge03.jpg","img/object_images/bottle07.jpg","img/object_images/knife02.jpg","1","1","1","1","1","0","0.518432200013194","0.483138800016604","0.78164940001443","1","1","1","1","1","1","1","1","1"
"260055","img/object_images/knife02.jpg","img/object_images/sponge03.jpg","img/object_images/dresser03.jpg","1","1","1","0","1","0","0.78164940001443","0.518432200013194","0.613679100002628","1","1","1","1","1","1","1","1","1"
"260055","img/object_images/dresser03.jpg","img/object_images/knife02.jpg","img/object_images/Statue01.jpg","1","1","1","0","0","1","0.613679100002628","0.78164940001443","0.615844500018284","1","1","1","1","1","1","1","1","1"
"260055","img/object_images/Statue01.jpg","img/object_images/dresser03.jpg","img/object_images/jacket04.jpg","1","1","1","1","0","0","0.615844500018284","0.613679100002628","0.502090200025123","1","1","1","1","1","1","1","1","1"
"260055","img/object_images/jacket04.jpg","img/object_images/Statue01.jpg","img/object_images/toy08.jpg","1","1","1","0","1","0","0.502090200025123","0.615844500018284","0.718075700016925","1","1","1","1","1","1","1","1","1"
"260055","img/object_images/toy08.jpg","img/object_images/jacket04.jpg","img/object_images/remote_controller01.jpg","1","1","1","0","0","1","0.718075700016925","0.502090200025123","0.731025700020837","1","1","1","1","1","1","1","1","1"
"260055","img/object_images/remote_controller01.jpg","img/object_images/toy08.jpg","img/object_images/mail_box01.jpg","1","1","1","1","0","0","0.731025700020837","0.718075700016925","0.995138200029032","1","1","1","1","1","1","1","1","1"
"260055","img/object_images/mail_box01.jpg","img/object_images/remote_controller01.jpg","img/object_images/stereo02.jpg","1","1","1","0","1","0","0.995138200029032","0.731025700020837","0.927363200025866","1","1","1","1","1","1","1","1","1"
"260055","img/object_images/stereo02.jpg","img/object_images/mail_box01.jpg","img/object_images/knit03.jpg","1","1","1","0","0","1","0.927363200025866","0.995138200029032","0.502803500014124","1","1","1","1","1","1","1","1","1"
"260055","img/object_images/knit03.jpg","img/object_images/stereo02.jpg","img/object_images/remover01.jpg","1","1","1","1","0","1","0.502803500014124","0.927363200025866","0.645491800038144","1","1","1","1","1","1","1","1","1"
"260055","img/object_images/remover01.jpg","img/object_images/knit03.jpg","img/object_images/shower_head01.jpg","1","1","1","1","1","1","0.645491800038144","0.502803500014124","0.541118700028164","1","1","1","1","1","1","1","1","1"
"260055","img/object_images/shower_head01.jpg","img/object_images/remover01.jpg","img/object_images/gloves02.jpg","1","1","1","1","1","0","0.541118700028164","0.645491800038144","0.550842600030592","1","1","1","1","1","1","1","1","1"
"260055","img/object_images/gloves02.jpg","img/object_images/shower_head01.jpg","img/object_images/blender02.jpg","1","1","1","0","1","1","0.550842600030592","0.541118700028164","0.478673900041031","1","1","1","1","1","1","1","1","1"
"260055","img/object_images/blender02.jpg","img/object_images/gloves02.jpg","img/object_images/basket04.jpg","1","1","1","1","0","1","0.478673900041031","0.550842600030592","0.50644190001185","1","1","1","1","1","1","1","1","1"
"260055","img/object_images/basket04.jpg","img/object_images/blender02.jpg","img/object_images/camera03.jpg","1","1","1","1","1","0","0.50644190001185","0.478673900041031","0.513365800026804","1","1","1","1","1","1","1","1","1"
"260055","img/object_images/camera03.jpg","img/object_images/basket04.jpg","img/object_images/tool18.jpg","1","1","1","0","1","0","0.513365800026804","0.50644190001185","0.545538100006524","1","1","1","1","1","1","1","1","1"
"260055","img/object_images/tool18.jpg","img/object_images/camera03.jpg","img/object_images/backpack01.jpg","1","1","1","0","0","0","0.545538100006524","0.513365800026804","0.564292100025341","1","1","1","1","1","1","1","1","1"
"260055","img/object_images/backpack01.jpg","img/object_images/tool18.jpg","img/object_images/keyboard02.jpg","1","1","1","0","0","1","0.564292100025341","0.545538100006524","0.638099000032526","1","1","1","1","1","1","1","1","1"
"260055","img/object_images/keyboard02.jpg","img/object_images/backpack01.jpg","img/object_images/hoverboard01.jpg","1","1","1","1","0","0","0.638099000032526","0.564292100025341","0.940089000039734","1","1","1","1","1","1","1","1","1"
"260055","img/object_images/hoverboard01.jpg","img/object_images/keyboard02.jpg","img/object_images/paper_cup02.jpg","1","1","1","0","1","1","0.940089000039734","0.638099000032526","0.65159110003151","1","1","1","1","1","1","1","1","1"
"260055","img/object_images/paper_cup02.jpg","img/object_images/hoverboard01.jpg","img/object_images/boat04.jpg","1","1","1","1","0","0","0.65159110003151","0.940089000039734","0.830943900044076","1","1","1","1","1","1","1","1","1"
"260055","img/object_images/boat04.jpg","img/object_images/paper_cup02.jpg","img/object_images/car01.jpg","1","1","1","0","1","1","0.830943900044076","0.65159110003151","0.659239700005855","1","1","1","1","1","1","1","1","1"
"260055","img/object_images/car01.jpg","img/object_images/boat04.jpg","img/object_images/knit04.jpg","1","1","1","1","0","1","0.659239700005855","0.830943900044076","0.591004700021585","1","1","1","1","1","1","1","1","1"
"260055","img/object_images/knit04.jpg","img/object_images/car01.jpg",NA,"1","1",NA,"1","1",NA,"0.591004700021585","0.659239700005855",NA,"1","1",NA,"1","1",NA,"1","1",NA
"260055","img/object_images/socks02.jpg",NA,"img/object_images/dresser04.jpg","1",NA,"1","0",NA,"0","0.70415860004141",NA,"0.563001800008351","1",NA,"1","1",NA,"1","1",NA,"1"
"260055","img/object_images/dresser04.jpg","img/object_images/socks02.jpg","img/object_images/sleeping_bag01.jpg","1","1","1","0","0","0","0.563001800008351","0.70415860004141","0.542557100037811","1","1","1","1","1","1","1","1","1"
"260055","img/object_images/sleeping_bag01.jpg","img/object_images/dresser04.jpg","img/object_images/funnel01.jpg","1","1","0","0","0","0","0.542557100037811","0.563001800008351","0.340137300052447","1","1","1","1","1","1","1","1","2"
"260055","img/object_images/funnel01.jpg","img/object_images/sleeping_bag01.jpg","img/object_images/wallet02.jpg","0","1","0","0","0","1","0.340137300052447","0.542557100037811","0.413021400047","1","1","1","1","1","1","2","1","2"
"260055","img/object_images/wallet02.jpg","img/object_images/funnel01.jpg","img/object_images/bow_tie01.jpg","0","0","1","1","0","0","0.413021400047","0.340137300052447","0.541265600040788","1","1","1","1","1","1","2","2","1"
"260055","img/object_images/bow_tie01.jpg","img/object_images/wallet02.jpg","img/object_images/bath_tub01.jpg","1","0","1","0","1","0","0.541265600040788","0.413021400047","0.431339800008573","1","1","1","1","1","1","1","2","1"
"260055","img/object_images/bath_tub01.jpg","img/object_images/bow_tie01.jpg","img/object_images/pitcher02.jpg","1","1","1","0","0","1","0.431339800008573","0.541265600040788","0.56441740001901","1","1","1","1","1","1","1","1","1"
"260055","img/object_images/pitcher02.jpg","img/object_images/bath_tub01.jpg","img/object_images/Screws01.jpg","1","1","1","1","0","1","0.56441740001901","0.431339800008573","0.562912100052927","1","1","1","1","1","1","1","1","1"
"260055","img/object_images/Screws01.jpg","img/object_images/pitcher02.jpg","img/object_images/balloon01.jpg","1","1","1","1","1","0","0.562912100052927","0.56441740001901","0.433256100019207","1","1","1","1","1","1","1","1","1"
"260055","img/object_images/balloon01.jpg","img/object_images/Screws01.jpg","img/object_images/measuring_tape02.jpg","1","1","1","0","1","1","0.433256100019207","0.562912100052927","0.361819700017804","1","1","1","1","1","1","1","1","1"
"260055","img/object_images/measuring_tape02.jpg","img/object_images/balloon01.jpg","img/object_images/clip02.jpg","1","1","1","1","0","1","0.361819700017804","0.433256100019207","0.428316000004997","1","1","1","1","1","1","1","1","1"
"260055","img/object_images/clip02.jpg","img/object_images/measuring_tape02.jpg","img/object_images/Witchhat01.jpg","1","1","1","1","1","1","0.428316000004997","0.361819700017804","0.30661880003754","1","1","1","1","1","1","1","1","1"
"260055","img/object_images/Witchhat01.jpg","img/object_images/clip02.jpg","img/object_images/golf_ball03.jpg","1","1","1","1","1","1","0.30661880003754","0.428316000004997","0.377339700004086","1","1","1","1","1","1","1","1","1"
"260055","img/object_images/golf_ball03.jpg","img/object_images/Witchhat01.jpg","img/object_images/bow_tie02.jpg","1","1","1","1","1","0","0.377339700004086","0.30661880003754","0.431045000033919","1","1","1","1","1","1","1","1","1"
"260055","img/object_images/bow_tie02.jpg","img/object_images/golf_ball03.jpg","img/object_images/lock04.jpg","1","1","1","0","1","1","0.431045000033919","0.377339700004086","0.347703500010539","1","1","1","1","1","1","1","1","1"
"260055","img/object_images/lock04.jpg","img/object_images/bow_tie02.jpg","img/object_images/coloring_pencil01.jpg","1","1","1","1","0","1","0.347703500010539","0.431045000033919","0.352935400034767","1","1","1","1","1","1","1","1","1"
"260055","img/object_images/coloring_pencil01.jpg","img/object_images/lock04.jpg","img/object_images/jacket03.jpg","1","1","0","1","1","0","0.352935400034767","0.347703500010539","0.301532400015276","1","1","1","1","1","1","1","1","1"
"260055","img/object_images/jacket03.jpg","img/object_images/coloring_pencil01.jpg","img/object_images/gift_box03.jpg","0","1","1","0","1","0","0.301532400015276","0.352935400034767","0.476263800024753","1","1","1","1","1","1","1","1","1"
"260055","img/object_images/gift_box03.jpg","img/object_images/jacket03.jpg","img/object_images/gift_box02.jpg","1","0","1","0","0","1","0.476263800024753","0.301532400015276","0.328795200039167","1","1","1","1","1","1","1","1","1"
"260055","img/object_images/gift_box02.jpg","img/object_images/gift_box03.jpg","img/object_images/camera07.jpg","1","1","0","1","0","1","0.328795200039167","0.476263800024753","0.402593600039836","1","1","1","1","1","1","1","1","2"
"260055","img/object_images/camera07.jpg","img/object_images/gift_box02.jpg","img/object_images/handkerchief01.jpg","0","1","1","1","1","0","0.402593600039836","0.328795200039167","0.534260200045537","1","1","1","1","1","1","2","1","1"
"260055","img/object_images/handkerchief01.jpg","img/object_images/camera07.jpg","img/object_images/grater01.jpg","1","0","0","0","1","1","0.534260200045537","0.402593600039836","0.520924500015099","1","1","1","1","1","1","1","2","1"
"260055","img/object_images/grater01.jpg","img/object_images/handkerchief01.jpg","img/object_images/paper_cup01.jpg","0","1","1","1","0","0","0.520924500015099","0.534260200045537","0.571159400016768","1","1","1","1","1","1","1","1","1"
"260055","img/object_images/paper_cup01.jpg","img/object_images/grater01.jpg","img/object_images/couch03.jpg","1","0","1","0","1","0","0.571159400016768","0.520924500015099","0.426418000017293","1","1","1","1","1","1","1","1","1"
"260055","img/object_images/couch03.jpg","img/object_images/paper_cup01.jpg","img/object_images/fork03.jpg","1","1","1","0","0","1","0.426418000017293","0.571159400016768","0.405029300018214","1","1","1","1","1","1","1","1","1"
"260055","img/object_images/fork03.jpg","img/object_images/couch03.jpg","img/object_images/lawn_mower01.jpg","1","1","1","1","0","1","0.405029300018214","0.426418000017293","0.490605500031961","1","1","1","1","1","1","1","1","1"
"260055","img/object_images/lawn_mower01.jpg","img/object_images/fork03.jpg","img/object_images/hammer01.jpg","1","1","0","1","1","0","0.490605500031961","0.405029300018214","0.453831300023012","1","1","1","1","1","1","1","1","2"
"260055","img/object_images/hammer01.jpg","img/object_images/lawn_mower01.jpg","img/object_images/jewelry01.jpg","0","1","1","0","1","1","0.453831300023012","0.490605500031961","0.533361700014211","1","1","1","1","1","1","2","1","1"
"260055","img/object_images/jewelry01.jpg","img/object_images/hammer01.jpg","img/object_images/ironing_table01.jpg","1","0","1","1","0","0","0.533361700014211","0.453831300023012","0.503683600021759","1","1","1","1","1","1","1","2","1"
"260055","img/object_images/ironing_table01.jpg","img/object_images/jewelry01.jpg","img/object_images/gift_box01.jpg","1","1","1","0","1","1","0.503683600021759","0.533361700014211","0.455575700005284","1","1","1","1","1","1","1","1","1"
"260055","img/object_images/gift_box01.jpg","img/object_images/ironing_table01.jpg","img/object_images/vga_port 01.jpg","1","1","1","1","0","0","0.455575700005284","0.503683600021759","0.545184500020696","1","1","1","1","1","1","1","1","1"
"260055","img/object_images/vga_port 01.jpg","img/object_images/gift_box01.jpg",NA,"1","1",NA,"0","1",NA,"0.545184500020696","0.455575700005284",NA,"1","1",NA,"1","1",NA,"1","1",NA
"260055","img/object_images/tool08.jpg",NA,"img/object_images/cup03.jpg","1",NA,"1","0",NA,"1","0.511772100027883",NA,"0.429808100016089","1",NA,"1","1",NA,"1","2",NA,"1"
"260055","img/object_images/cup03.jpg","img/object_images/tool08.jpg","img/object_images/hole_puncher01.jpg","1","1","1","1","0","1","0.429808100016089","0.511772100027883","0.364830700011225","1","1","1","1","1","1","1","2","1"
"260055","img/object_images/hole_puncher01.jpg","img/object_images/cup03.jpg","img/object_images/Kitchen_Towel.jpg","1","1","0","1","1","0","0.364830700011225","0.429808100016089","0.306318200018723","1","1","1","1","1","1","1","1","1"
"260055","img/object_images/Kitchen_Towel.jpg","img/object_images/hole_puncher01.jpg","img/object_images/projector01.jpg","0","1","1","0","1","0","0.306318200018723","0.364830700011225","0.489930700015975","1","1","1","1","1","1","1","1","1"
"260055","img/object_images/projector01.jpg","img/object_images/Kitchen_Towel.jpg","img/object_images/basket02.jpg","1","0","1","0","0","0","0.489930700015975","0.306318200018723","0.443890700029442","1","1","1","1","1","1","1","1","1"
"260055","img/object_images/basket02.jpg","img/object_images/projector01.jpg","img/object_images/gift_box04.jpg","1","1","0","0","0","0","0.443890700029442","0.489930700015975","0.627892200020142","1","1","1","1","1","1","1","1","1"
"260055","img/object_images/gift_box04.jpg","img/object_images/basket02.jpg","img/object_images/pan01.jpg","0","1","1","0","0","1","0.627892200020142","0.443890700029442","0.595406100037508","1","1","1","1","1","1","1","1","1"
"260055","img/object_images/pan01.jpg","img/object_images/gift_box04.jpg","img/object_images/colander01.jpg","1","0","1","1","0","0","0.595406100037508","0.627892200020142","0.377338900027098","1","1","1","1","1","1","1","1","1"
"260055","img/object_images/colander01.jpg","img/object_images/pan01.jpg","img/object_images/purse01.jpg","1","1","1","0","1","1","0.377338900027098","0.595406100037508","0.3996336000273","1","1","1","1","1","1","1","1","1"
"260055","img/object_images/purse01.jpg","img/object_images/colander01.jpg","img/object_images/jewelry09.jpg","1","1","1","1","0","1","0.3996336000273","0.377338900027098","0.436109800037229","1","1","1","1","1","1","1","1","1"
"260055","img/object_images/jewelry09.jpg","img/object_images/purse01.jpg","img/object_images/tool07.jpg","1","1","1","1","1","0","0.436109800037229","0.3996336000273","0.474928500014357","1","1","1","1","1","1","1","1","1"
"260055","img/object_images/tool07.jpg","img/object_images/jewelry09.jpg","img/object_images/speaker01.jpg","1","1","1","0","1","1","0.474928500014357","0.436109800037229","0.403637000039453","1","1","1","1","1","1","1","1","1"
"260055","img/object_images/speaker01.jpg","img/object_images/tool07.jpg","img/object_images/Traffic Sign 01.jpg","1","1","0","1","0","0","0.403637000039453","0.474928500014357","0.306476600031601","1","1","1","1","1","1","1","1","1"
"260055","img/object_images/Traffic Sign 01.jpg","img/object_images/speaker01.jpg","img/object_images/Sprayer01.jpg","0","1","1","0","1","0","0.306476600031601","0.403637000039453","0.376497200020822","1","1","1","1","1","1","1","1","1"
"260055","img/object_images/Sprayer01.jpg","img/object_images/Traffic Sign 01.jpg","img/object_images/bicycle_lock01.jpg","1","0","0","0","0","0","0.376497200020822","0.306476600031601","0.425542200013297","1","1","1","1","1","1","1","1","1"
"260055","img/object_images/bicycle_lock01.jpg","img/object_images/Sprayer01.jpg","img/object_images/lighter01.jpg","0","1","1","0","0","1","0.425542200013297","0.376497200020822","0.459720800019568","1","1","1","1","1","1","1","1","1"
"260055","img/object_images/lighter01.jpg","img/object_images/bicycle_lock01.jpg","img/object_images/tray01.jpg","1","0","1","1","0","1","0.459720800019568","0.425542200013297","0.604999600036535","1","1","1","1","1","1","1","1","1"
"260055","img/object_images/tray01.jpg","img/object_images/lighter01.jpg","img/object_images/TrashCan02.jpg","1","1","1","1","1","1","0.604999600036535","0.459720800019568","0.458344500046223","1","1","1","1","1","1","1","1","1"
"260055","img/object_images/TrashCan02.jpg","img/object_images/tray01.jpg","img/object_images/blanket01.jpg","1","1","1","1","1","1","0.458344500046223","0.604999600036535","0.492147600016324","1","1","1","1","1","1","1","1","1"
"260055","img/object_images/blanket01.jpg","img/object_images/TrashCan02.jpg","img/object_images/glasses06.jpg","1","1","1","1","1","1","0.492147600016324","0.458344500046223","0.501179200044135","1","1","1","1","1","1","1","1","1"
"260055","img/object_images/glasses06.jpg","img/object_images/blanket01.jpg","img/object_images/handcuffs01.jpg","1","1","0","1","1","0","0.501179200044135","0.492147600016324","0.509402600029716","1","1","1","1","1","1","1","1","1"
"260055","img/object_images/handcuffs01.jpg","img/object_images/glasses06.jpg","img/object_images/book01.jpg","0","1","1","0","1","1","0.509402600029716","0.501179200044135","0.419928300048923","1","1","1","1","1","1","1","1","1"
"260055","img/object_images/book01.jpg","img/object_images/handcuffs01.jpg","img/object_images/ring03.jpg","1","0","1","1","0","1","0.419928300048923","0.509402600029716","0.429895200009923","1","1","1","1","1","1","1","1","1"
"260055","img/object_images/ring03.jpg","img/object_images/book01.jpg","img/object_images/yo_yo01.jpg","1","1","1","1","1","0","0.429895200009923","0.419928300048923","0.37196750001749","1","1","1","1","1","1","1","1","1"
"260055","img/object_images/yo_yo01.jpg","img/object_images/ring03.jpg","img/object_images/fire_extinguisher01.jpg","1","1","0","0","1","0","0.37196750001749","0.429895200009923","0.463722000014968","1","1","1","1","1","1","1","1","2"
"260055","img/object_images/fire_extinguisher01.jpg","img/object_images/yo_yo01.jpg","img/object_images/glasses07.jpg","0","1","1","0","0","1","0.463722000014968","0.37196750001749","0.50884170003701","1","1","1","1","1","1","2","1","1"
"260055","img/object_images/glasses07.jpg","img/object_images/fire_extinguisher01.jpg","img/object_images/cellphone02.jpg","1","0","1","1","0","1","0.50884170003701","0.463722000014968","0.522283900034381","1","1","1","1","1","1","1","2","1"
"260055","img/object_images/cellphone02.jpg","img/object_images/glasses07.jpg","img/object_images/hair_clips01.jpg","1","1","1","1","1","1","0.522283900034381","0.50884170003701","0.448896700021578","1","1","1","1","1","1","1","1","1"
"260055","img/object_images/hair_clips01.jpg","img/object_images/cellphone02.jpg","img/object_images/exfoliater_brush01.jpg","1","1","0","1","1","0","0.448896700021578","0.522283900034381","0.570613400021102","1","1","1","1","1","1","1","1","1"
"260055","img/object_images/exfoliater_brush01.jpg","img/object_images/hair_clips01.jpg","img/object_images/Pottery01.jpg","0","1","0","0","1","0","0.570613400021102","0.448896700021578","0.404463800019585","1","1","1","1","1","1","1","1","1"
"260055","img/object_images/Pottery01.jpg","img/object_images/exfoliater_brush01.jpg","img/object_images/faucet01.jpg","0","0","1","0","0","0","0.404463800019585","0.570613400021102","0.691943300014827","1","1","1","1","1","1","1","1","1"
"260055","img/object_images/faucet01.jpg","img/object_images/Pottery01.jpg",NA,"1","0",NA,"0","0",NA,"0.691943300014827","0.404463800019585",NA,"1","1",NA,"1","1",NA,"1","1",NA
"260055","img/object_images/phone04.jpg",NA,"img/object_images/ToolBag01.jpg","1",NA,"1","1",NA,"0","0.63983620001818",NA,"0.453755300026387","1",NA,"1","1",NA,"1","1",NA,"1"
"260055","img/object_images/ToolBag01.jpg","img/object_images/phone04.jpg","img/object_images/fan01.jpg","1","1","1","0","1","0","0.453755300026387","0.63983620001818","0.49049660001765","1","1","1","1","1","1","1","1","1"
"260055","img/object_images/fan01.jpg","img/object_images/ToolBag01.jpg","img/object_images/egg_basket01.jpg","1","1","1","0","0","1","0.49049660001765","0.453755300026387","0.422923900012393","1","1","1","1","1","1","1","1","1"
"260055","img/object_images/egg_basket01.jpg","img/object_images/fan01.jpg","img/object_images/Safe01.jpg","1","1","0","1","0","1","0.422923900012393","0.49049660001765","0.40499560002354","1","1","1","1","1","1","1","1","2"
"260055","img/object_images/Safe01.jpg","img/object_images/egg_basket01.jpg","img/object_images/water_gun01.jpg","0","1","0","1","1","1","0.40499560002354","0.422923900012393","0.53604760003509","1","1","1","1","1","1","2","1","1"
"260055","img/object_images/water_gun01.jpg","img/object_images/Safe01.jpg","img/object_images/joystick03.jpg","0","0","1","1","1","1","0.53604760003509","0.40499560002354","0.6928233000217","1","1","1","1","1","1","1","2","1"
"260055","img/object_images/joystick03.jpg","img/object_images/water_gun01.jpg","img/object_images/belt03.jpg","1","0","1","1","1","0","0.6928233000217","0.53604760003509","0.579263200022979","1","1","1","1","1","1","1","1","1"
"260055","img/object_images/belt03.jpg","img/object_images/joystick03.jpg","img/object_images/Shoes05.jpg","1","1","1","0","1","0","0.579263200022979","0.6928233000217","0.596283600025345","1","1","1","1","1","1","1","1","1"
"260055","img/object_images/Shoes05.jpg","img/object_images/belt03.jpg","img/object_images/bottle06.jpg","1","1","0","0","0","0","0.596283600025345","0.579263200022979","0.470589800039306","1","1","1","1","1","1","1","1","1"
"260055","img/object_images/bottle06.jpg","img/object_images/Shoes05.jpg","img/object_images/tennis_racket01.jpg","0","1","1","0","0","1","0.470589800039306","0.596283600025345","0.572816600033548","1","1","1","1","1","1","1","1","1"
"260055","img/object_images/tennis_racket01.jpg","img/object_images/bottle06.jpg","img/object_images/bookmark01.jpg","1","0","1","1","0","0","0.572816600033548","0.470589800039306","0.515128300030483","1","1","1","1","1","1","1","1","1"
"260055","img/object_images/bookmark01.jpg","img/object_images/tennis_racket01.jpg","img/object_images/frame01.jpg","1","1","1","0","1","1","0.515128300030483","0.572816600033548","0.461712300020736","1","1","1","1","1","1","1","1","1"
"260055","img/object_images/frame01.jpg","img/object_images/bookmark01.jpg","img/object_images/piano03.jpg","1","1","0","1","0","0","0.461712300020736","0.515128300030483","0.36462470004335","1","1","1","1","1","1","1","1","1"
"260055","img/object_images/piano03.jpg","img/object_images/frame01.jpg","img/object_images/yoga_mat01.jpg","0","1","1","0","1","0","0.36462470004335","0.461712300020736","0.447090300032869","1","1","1","1","1","1","1","1","1"
"260055","img/object_images/yoga_mat01.jpg","img/object_images/piano03.jpg","img/object_images/note_book02.jpg","1","0","1","0","0","0","0.447090300032869","0.36462470004335","0.350708800018765","1","1","1","1","1","1","1","1","1"
"260055","img/object_images/note_book02.jpg","img/object_images/yoga_mat01.jpg","img/object_images/scale02.jpg","1","1","1","0","0","0","0.350708800018765","0.447090300032869","0.272334200009936","1","1","1","1","1","1","1","1","1"
"260055","img/object_images/scale02.jpg","img/object_images/note_book02.jpg","img/object_images/Eyeliner01.jpg","1","1","1","0","0","1","0.272334200009936","0.350708800018765","0.343191400024807","1","1","1","1","1","1","1","1","1"
"260055","img/object_images/Eyeliner01.jpg","img/object_images/scale02.jpg","img/object_images/dice01.jpg","1","1","0","1","0","0","0.343191400024807","0.272334200009936","0.281328700046288","1","1","1","1","1","1","1","1","1"
"260055","img/object_images/dice01.jpg","img/object_images/Eyeliner01.jpg","img/object_images/lock03.jpg","0","1","0","0","1","1","0.281328700046288","0.343191400024807","0.397159300016938","1","1","1","1","1","1","1","1","1"
"260055","img/object_images/lock03.jpg","img/object_images/dice01.jpg","img/object_images/TreeSlice01.jpg","0","0","1","1","0","1","0.397159300016938","0.281328700046288","0.535814900038531","1","1","1","1","1","1","1","1","1"
"260055","img/object_images/TreeSlice01.jpg","img/object_images/lock03.jpg","img/object_images/jewel02.jpg","1","0","1","1","1","0","0.535814900038531","0.397159300016938","0.448999600019306","1","1","1","1","1","1","1","1","1"
"260055","img/object_images/jewel02.jpg","img/object_images/TreeSlice01.jpg","img/object_images/usb03.jpg","1","1","1","0","1","0","0.448999600019306","0.535814900038531","0.433115000021644","1","1","1","1","1","1","1","1","1"
"260055","img/object_images/usb03.jpg","img/object_images/jewel02.jpg","img/object_images/badminton01.jpg","1","1","1","0","0","1","0.433115000021644","0.448999600019306","0.643292600027053","1","1","1","1","1","1","1","1","1"
"260055","img/object_images/badminton01.jpg","img/object_images/usb03.jpg","img/object_images/trumpet01.jpg","1","1","0","1","0","0","0.643292600027053","0.433115000021644","0.322659900033614","1","1","1","1","1","1","1","1","1"
"260055","img/object_images/trumpet01.jpg","img/object_images/badminton01.jpg","img/object_images/shovel01.jpg","0","1","0","0","1","0","0.322659900033614","0.643292600027053","0.334564200020395","1","1","1","1","1","1","1","1","1"
"260055","img/object_images/shovel01.jpg","img/object_images/trumpet01.jpg","img/object_images/pitcher07.jpg","0","0","0","0","0","1","0.334564200020395","0.322659900033614","0.447848000039812","1","1","1","1","1","1","1","1","1"
"260055","img/object_images/pitcher07.jpg","img/object_images/shovel01.jpg","img/object_images/headset02.jpg","0","0","1","1","0","0","0.447848000039812","0.334564200020395","0.497483700019075","1","1","1","1","1","1","1","1","1"
"260055","img/object_images/headset02.jpg","img/object_images/pitcher07.jpg","img/object_images/origami01.jpg","1","0","1","0","1","1","0.497483700019075","0.447848000039812","0.451068200025475","1","1","1","1","1","1","1","1","1"
"260055","img/object_images/origami01.jpg","img/object_images/headset02.jpg","img/object_images/nut_cracker01.jpg","1","1","1","1","0","1","0.451068200025475","0.497483700019075","0.409973100002389","1","1","1","1","1","1","1","1","1"
"260055","img/object_images/nut_cracker01.jpg","img/object_images/origami01.jpg","img/object_images/bucket01.jpg","1","1","1","1","1","1","0.409973100002389","0.451068200025475","0.651050900050905","1","1","1","1","1","1","1","1","1"
"260055","img/object_images/bucket01.jpg","img/object_images/nut_cracker01.jpg","img/object_images/helmet03.jpg","1","1","1","1","1","1","0.651050900050905","0.409973100002389","0.513465000025462","1","1","1","1","1","1","1","1","1"
"260055","img/object_images/helmet03.jpg","img/object_images/bucket01.jpg",NA,"1","1",NA,"1","1",NA,"0.513465000025462","0.651050900050905",NA,"1","1",NA,"1","1",NA,"1","1",NA
"260055","img/object_images/cards01.jpg",NA,"img/object_images/car03.jpg","1",NA,"1","0",NA,"0","0.581081100011943",NA,"0.486610800027847","1",NA,"1","1",NA,"1","1",NA,"1"
"260055","img/object_images/car03.jpg","img/object_images/cards01.jpg","img/object_images/mask01.jpg","1","1","0","0","0","0","0.486610800027847","0.581081100011943","0.360521100024926","1","1","1","1","1","1","1","1","1"
"260055","img/object_images/mask01.jpg","img/object_images/car03.jpg","img/object_images/car04.jpg","0","1","1","0","0","0","0.360521100024926","0.486610800027847","0.435650500032352","1","1","1","1","1","1","1","1","1"
"260055","img/object_images/car04.jpg","img/object_images/mask01.jpg","img/object_images/chair04.jpg","1","0","1","0","0","1","0.435650500032352","0.360521100024926","0.556818700017175","1","1","1","1","1","1","1","1","1"
"260055","img/object_images/chair04.jpg","img/object_images/car04.jpg","img/object_images/ribbon01.jpg","1","1","1","1","0","0","0.556818700017175","0.435650500032352","0.467533200018806","1","1","1","1","1","1","1","1","1"
"260055","img/object_images/ribbon01.jpg","img/object_images/chair04.jpg","img/object_images/dress03.jpg","1","1","1","0","1","1","0.467533200018806","0.556818700017175","0.390382600016892","1","1","1","1","1","1","1","1","1"
"260055","img/object_images/dress03.jpg","img/object_images/ribbon01.jpg","img/object_images/lemon_squeezer02.jpg","1","1","1","1","0","1","0.390382600016892","0.467533200018806","0.442595100030303","1","1","1","1","1","1","1","1","1"
"260055","img/object_images/lemon_squeezer02.jpg","img/object_images/dress03.jpg","img/object_images/ladle02.jpg","1","1","0","1","1","0","0.442595100030303","0.390382600016892","0.366373400029261","1","1","1","1","1","1","1","1","1"
"260055","img/object_images/ladle02.jpg","img/object_images/lemon_squeezer02.jpg","img/object_images/ice_tray03.jpg","0","1","1","0","1","1","0.366373400029261","0.442595100030303","0.722224200027995","1","1","1","1","1","1","1","1","1"
"260055","img/object_images/ice_tray03.jpg","img/object_images/ladle02.jpg","img/object_images/tv01.jpg","1","0","1","1","0","0","0.722224200027995","0.366373400029261","0.549219100008486","1","1","1","1","1","1","1","1","1"
"260055","img/object_images/tv01.jpg","img/object_images/ice_tray03.jpg","img/object_images/razor01.jpg","1","1","1","0","1","0","0.549219100008486","0.722224200027995","0.738754000019981","1","1","1","1","1","1","1","1","1"
"260055","img/object_images/razor01.jpg","img/object_images/tv01.jpg","img/object_images/tool11.jpg","1","1","1","0","0","1","0.738754000019981","0.549219100008486","0.485999400028959","1","1","1","1","1","1","1","1","1"
"260055","img/object_images/tool11.jpg","img/object_images/razor01.jpg","img/object_images/hair_brush05.jpg","1","1","1","1","0","1","0.485999400028959","0.738754000019981","0.480293700034963","1","1","1","1","1","1","1","1","1"
"260055","img/object_images/hair_brush05.jpg","img/object_images/tool11.jpg","img/object_images/jewelry07.jpg","1","1","1","1","1","1","0.480293700034963","0.485999400028959","0.529206500010332","1","1","1","1","1","1","1","1","1"
"260055","img/object_images/jewelry07.jpg","img/object_images/hair_brush05.jpg","img/object_images/WitchHat02.jpg","1","1","1","1","1","1","0.529206500010332","0.480293700034963","0.454763300047489","1","1","1","1","1","1","1","1","1"
"260055","img/object_images/WitchHat02.jpg","img/object_images/jewelry07.jpg","img/object_images/shower_head03.jpg","1","1","1","1","1","1","0.454763300047489","0.529206500010332","0.408176700031618","1","1","1","1","1","1","1","1","1"
"260055","img/object_images/shower_head03.jpg","img/object_images/WitchHat02.jpg","img/object_images/shoes10.jpg","1","1","1","1","1","0","0.408176700031618","0.454763300047489","0.478478800039738","1","1","1","1","1","1","1","1","1"
"260055","img/object_images/shoes10.jpg","img/object_images/shower_head03.jpg","img/object_images/MeasuringCup01.jpg","1","1","1","0","1","1","0.478478800039738","0.408176700031618","0.392501700029243","1","1","1","1","1","1","1","1","1"
"260055","img/object_images/MeasuringCup01.jpg","img/object_images/shoes10.jpg","img/object_images/key02.jpg","1","1","1","1","0","1","0.392501700029243","0.478478800039738","0.461609600024531","1","1","1","1","1","1","1","1","1"
"260055","img/object_images/key02.jpg","img/object_images/MeasuringCup01.jpg","img/object_images/jewel01.jpg","1","1","0","1","1","0","0.461609600024531","0.392501700029243","0.34762930002762","1","1","1","1","1","1","1","1","1"
"260055","img/object_images/jewel01.jpg","img/object_images/key02.jpg","img/object_images/belt01.jpg","0","1","0","0","1","0","0.34762930002762","0.461609600024531","0.580821900017327","1","1","1","1","1","1","1","1","1"
"260055","img/object_images/belt01.jpg","img/object_images/jewel01.jpg","img/object_images/cutting_board01.jpg","0","0","1","0","0","1","0.580821900017327","0.34762930002762","0.4773863000446","1","1","1","1","1","1","1","1","1"
"260055","img/object_images/cutting_board01.jpg","img/object_images/belt01.jpg","img/object_images/toaster02.jpg","1","0","1","1","0","1","0.4773863000446","0.580821900017327","0.477813900011824","1","1","1","1","1","1","1","1","1"
"260055","img/object_images/toaster02.jpg","img/object_images/cutting_board01.jpg","img/object_images/yarn02.jpg","1","1","1","1","1","0","0.477813900011824","0.4773863000446","0.495715600030962","1","1","1","1","1","1","1","1","1"
"260055","img/object_images/yarn02.jpg","img/object_images/toaster02.jpg","img/object_images/bag06.jpg","1","1","1","0","1","1","0.495715600030962","0.477813900011824","0.500451200030511","1","1","1","1","1","1","1","1","1"
"260055","img/object_images/bag06.jpg","img/object_images/yarn02.jpg","img/object_images/satellite01.jpg","1","1","1","1","0","0","0.500451200030511","0.495715600030962","0.572179000038886","1","1","1","1","1","1","1","1","1"
"260055","img/object_images/satellite01.jpg","img/object_images/bag06.jpg","img/object_images/slinky_toy01.jpg","1","1","1","0","1","1","0.572179000038886","0.500451200030511","0.574071500013815","1","1","1","1","1","1","1","1","1"
"260055","img/object_images/slinky_toy01.jpg","img/object_images/satellite01.jpg","img/object_images/fan05.jpg","1","1","0","1","0","0","0.574071500013815","0.572179000038886","0.379195900051855","1","1","1","1","1","1","1","1","1"
"260055","img/object_images/fan05.jpg","img/object_images/slinky_toy01.jpg","img/object_images/rock03.jpg","0","1","1","0","1","0","0.379195900051855","0.574071500013815","1.04799810002442","1","1","1","1","1","1","1","1","1"
"260055","img/object_images/rock03.jpg","img/object_images/fan05.jpg","img/object_images/binoculars03.jpg","1","0","1","0","0","1","1.04799810002442","0.379195900051855","0.478791700035799","1","1","1","1","1","1","1","1","1"
"260055","img/object_images/binoculars03.jpg","img/object_images/rock03.jpg","img/object_images/screwdriver01.jpg","1","1","1","1","0","0","0.478791700035799","1.04799810002442","0.453687700035516","1","1","1","1","1","1","1","1","1"
"260055","img/object_images/screwdriver01.jpg","img/object_images/binoculars03.jpg",NA,"1","1",NA,"0","1",NA,"0.453687700035516","0.478791700035799",NA,"1","1",NA,"1","1",NA,"1","1",NA
"260055","img/object_images/trash_can03.jpg",NA,"img/object_images/vase01.jpg","1",NA,"1","1",NA,"0","0.53850640001474",NA,"0.481846600014251","1",NA,"1","1",NA,"1","1",NA,"1"
"260055","img/object_images/vase01.jpg","img/object_images/trash_can03.jpg","img/object_images/laptop03.jpg","1","1","1","0","1","1","0.481846600014251","0.53850640001474","0.512969000003068","1","1","1","1","1","1","1","1","1"
"260055","img/object_images/laptop03.jpg","img/object_images/vase01.jpg","img/object_images/helmet02.jpg","1","1","1","1","0","0","0.512969000003068","0.481846600014251","0.418980700022075","1","1","1","1","1","1","1","1","1"
"260055","img/object_images/helmet02.jpg","img/object_images/laptop03.jpg","img/object_images/ball02.jpg","1","1","1","0","1","1","0.418980700022075","0.512969000003068","0.359927500016056","1","1","1","1","1","1","1","1","1"
"260055","img/object_images/ball02.jpg","img/object_images/helmet02.jpg","img/object_images/hair_brush02.jpg","1","1","1","1","0","0","0.359927500016056","0.418980700022075","0.43875320002553","1","1","1","1","1","1","1","1","1"
"260055","img/object_images/hair_brush02.jpg","img/object_images/ball02.jpg","img/object_images/bucket02.jpg","1","1","1","0","1","1","0.43875320002553","0.359927500016056","0.47779710002942","1","1","1","1","1","1","1","1","1"
"260055","img/object_images/bucket02.jpg","img/object_images/hair_brush02.jpg","img/object_images/chair02.jpg","1","1","1","1","0","1","0.47779710002942","0.43875320002553","0.379062100051669","1","1","1","1","1","1","1","1","1"
"260055","img/object_images/chair02.jpg","img/object_images/bucket02.jpg","img/object_images/jewel03.jpg","1","1","1","1","1","1","0.379062100051669","0.47779710002942","0.423698600003263","1","1","1","1","1","1","1","1","1"
"260055","img/object_images/jewel03.jpg","img/object_images/chair02.jpg","img/object_images/shoes08.jpg","1","1","1","1","1","1","0.423698600003263","0.379062100051669","0.423945500020636","1","1","1","1","1","1","1","1","1"
"260055","img/object_images/shoes08.jpg","img/object_images/jewel03.jpg","img/object_images/fan04.jpg","1","1","1","1","1","0","0.423945500020636","0.423698600003263","0.614615500031505","1","1","1","1","1","1","1","1","1"
"260055","img/object_images/fan04.jpg","img/object_images/shoes08.jpg","img/object_images/pitcher05.jpg","1","1","0","0","1","0","0.614615500031505","0.423945500020636","0.442462000035448","1","1","1","1","1","1","1","1","1"
"260055","img/object_images/pitcher05.jpg","img/object_images/fan04.jpg","img/object_images/surf_board01.jpg","0","1","1","0","0","1","0.442462000035448","0.614615500031505","0.622665800037794","1","1","1","1","1","1","1","1","1"
"260055","img/object_images/surf_board01.jpg","img/object_images/pitcher05.jpg","img/object_images/chess_piece01.jpg","1","0","1","1","0","0","0.622665800037794","0.442462000035448","0.581800800020574","1","1","1","1","1","1","1","1","1"
"260055","img/object_images/chess_piece01.jpg","img/object_images/surf_board01.jpg","img/object_images/combs01.jpg","1","1","1","0","1","1","0.581800800020574","0.622665800037794","0.470509400038282","1","1","1","1","1","1","1","1","1"
"260055","img/object_images/combs01.jpg","img/object_images/chess_piece01.jpg","img/object_images/stove01.jpg","1","1","1","1","0","0","0.470509400038282","0.581800800020574","0.500668200023938","1","1","1","1","1","1","1","1","1"
"260055","img/object_images/stove01.jpg","img/object_images/combs01.jpg","img/object_images/gift_box05.jpg","1","1","1","0","1","0","0.500668200023938","0.470509400038282","0.470333000004757","1","1","1","1","1","1","1","1","1"
"260055","img/object_images/gift_box05.jpg","img/object_images/stove01.jpg","img/object_images/accardion01.jpg","1","1","1","0","0","1","0.470333000004757","0.500668200023938","0.543929500039667","1","1","1","1","1","1","1","1","1"
"260055","img/object_images/accardion01.jpg","img/object_images/gift_box05.jpg","img/object_images/microphone03.jpg","1","1","1","1","0","1","0.543929500039667","0.470333000004757","0.468826600030297","1","1","1","1","1","1","1","1","1"
"260055","img/object_images/microphone03.jpg","img/object_images/accardion01.jpg","img/object_images/Vest02.jpg","1","1","1","1","1","0","0.468826600030297","0.543929500039667","0.645221300044795","1","1","1","1","1","1","1","1","1"
"260055","img/object_images/Vest02.jpg","img/object_images/microphone03.jpg","img/object_images/towels01.jpg","1","1","1","0","1","0","0.645221300044795","0.468826600030297","0.477477600041311","1","1","1","1","1","1","1","1","1"
"260055","img/object_images/towels01.jpg","img/object_images/Vest02.jpg","img/object_images/trash_can05.jpg","1","1","1","0","0","1","0.477477600041311","0.645221300044795","0.353700300038327","1","1","1","1","1","1","1","1","1"
"260055","img/object_images/trash_can05.jpg","img/object_images/towels01.jpg","img/object_images/umbrella01.jpg","1","1","0","1","0","0","0.353700300038327","0.477477600041311","0.350351400033105","1","1","1","1","1","1","1","1","1"
"260055","img/object_images/umbrella01.jpg","img/object_images/trash_can05.jpg","img/object_images/laptop01.jpg","0","1","1","0","1","0","0.350351400033105","0.353700300038327","0.639829000021564","1","1","1","1","1","1","1","1","1"
"260055","img/object_images/laptop01.jpg","img/object_images/umbrella01.jpg","img/object_images/Lint_Roller02.jpg","1","0","1","0","0","0","0.639829000021564","0.350351400033105","0.515889200032689","1","1","1","1","1","1","1","1","1"
"260055","img/object_images/Lint_Roller02.jpg","img/object_images/laptop01.jpg","img/object_images/toy05.jpg","1","1","1","0","0","0","0.515889200032689","0.639829000021564","0.538130400003865","1","1","1","1","1","1","1","1","1"
"260055","img/object_images/toy05.jpg","img/object_images/Lint_Roller02.jpg","img/object_images/backpack03.jpg","1","1","1","0","0","1","0.538130400003865","0.515889200032689","0.398118500044802","1","1","1","1","1","1","1","1","1"
"260055","img/object_images/backpack03.jpg","img/object_images/toy05.jpg","img/object_images/robe01.jpg","1","1","1","1","0","1","0.398118500044802","0.538130400003865","0.365793700038921","1","1","1","1","1","1","1","1","1"
"260055","img/object_images/robe01.jpg","img/object_images/backpack03.jpg","img/object_images/lock01.jpg","1","1","0","1","1","0","0.365793700038921","0.398118500044802","0.407630300032906","1","1","1","1","1","1","1","1","1"
"260055","img/object_images/lock01.jpg","img/object_images/robe01.jpg","img/object_images/hair_dryer01.jpg","0","1","1","0","1","0","0.407630300032906","0.365793700038921","0.990454800019506","1","1","1","1","1","1","1","1","1"
"260055","img/object_images/hair_dryer01.jpg","img/object_images/lock01.jpg","img/object_images/spatula02.jpg","1","0","1","0","0","1","0.990454800019506","0.407630300032906","0.961905000003753","1","1","1","1","1","1","1","1","1"
"260055","img/object_images/spatula02.jpg","img/object_images/hair_dryer01.jpg","img/object_images/calculator01.jpg","1","1","1","1","0","1","0.961905000003753","0.990454800019506","0.499797500029672","1","1","1","1","1","1","1","1","1"
"260055","img/object_images/calculator01.jpg","img/object_images/spatula02.jpg",NA,"1","1",NA,"1","1",NA,"0.499797500029672","0.961905000003753",NA,"1","1",NA,"1","1",NA,"1","1",NA
"260055","img/object_images/lid01.jpg",NA,"img/object_images/crutches02.jpg","1",NA,"1","1",NA,"0","0.714514700026484",NA,"0.427990300027886","1",NA,"1","1",NA,"1","1",NA,"1"
"260055","img/object_images/crutches02.jpg","img/object_images/lid01.jpg","img/object_images/pen03.jpg","1","1","1","0","1","0","0.427990300027886","0.714514700026484","0.463089600030798","1","1","1","1","1","1","1","1","1"
"260055","img/object_images/pen03.jpg","img/object_images/crutches02.jpg","img/object_images/cellphone01.jpg","1","1","1","0","0","1","0.463089600030798","0.427990300027886","0.544611600023927","1","1","1","1","1","1","1","1","1"
"260055","img/object_images/cellphone01.jpg","img/object_images/pen03.jpg","img/object_images/clock02.jpg","1","1","1","1","0","0","0.544611600023927","0.463089600030798","0.369306200038409","1","1","1","1","1","1","1","1","1"
"260055","img/object_images/clock02.jpg","img/object_images/cellphone01.jpg","img/object_images/pillows01.jpg","1","1","1","0","1","1","0.369306200038409","0.544611600023927","0.299200300039956","1","1","1","1","1","1","1","1","1"
"260055","img/object_images/pillows01.jpg","img/object_images/clock02.jpg","img/object_images/knife04.jpg","1","1","0","1","0","1","0.299200300039956","0.369306200038409","0.344985200033989","1","1","1","1","1","1","1","1","1"
"260055","img/object_images/knife04.jpg","img/object_images/pillows01.jpg","img/object_images/Thermometer01.jpg","0","1","1","1","1","0","0.344985200033989","0.299200300039956","0.504714200040326","1","1","1","1","1","1","1","1","1"
"260055","img/object_images/Thermometer01.jpg","img/object_images/knife04.jpg","img/object_images/hammer03.jpg","1","0","1","0","1","1","0.504714200040326","0.344985200033989","0.385231400025077","1","1","1","1","1","1","1","1","1"
"260055","img/object_images/hammer03.jpg","img/object_images/Thermometer01.jpg","img/object_images/bottle01.jpg","1","1","1","1","0","0","0.385231400025077","0.504714200040326","0.508024200011278","1","1","1","1","1","1","1","1","1"
"260055","img/object_images/bottle01.jpg","img/object_images/hammer03.jpg","img/object_images/clip03.jpg","1","1","1","0","1","0","0.508024200011278","0.385231400025077","0.533368000033079","1","1","1","1","1","1","1","1","1"
"260055","img/object_images/clip03.jpg","img/object_images/bottle01.jpg","img/object_images/compass01.jpg","1","1","1","0","0","1","0.533368000033079","0.508024200011278","0.310462200024631","1","1","1","1","1","1","1","1","1"
"260055","img/object_images/compass01.jpg","img/object_images/clip03.jpg","img/object_images/wire02.jpg","1","1","0","1","0","1","0.310462200024631","0.533368000033079","0.25202340001124","1","1","1","1","1","1","1","1","1"
"260055","img/object_images/wire02.jpg","img/object_images/compass01.jpg","img/object_images/usb02.jpg","0","1","1","1","1","0","0.25202340001124","0.310462200024631","0.390378800046164","1","1","1","1","1","1","1","1","1"
"260055","img/object_images/usb02.jpg","img/object_images/wire02.jpg","img/object_images/chess_piece02.jpg","1","0","1","0","1","1","0.390378800046164","0.25202340001124","0.397463400004199","1","1","1","1","1","1","1","1","1"
"260055","img/object_images/chess_piece02.jpg","img/object_images/usb02.jpg","img/object_images/floppy_disk03.jpg","1","1","0","1","0","1","0.397463400004199","0.390378800046164","0.489382900035707","1","1","1","1","1","1","1","1","1"
"260055","img/object_images/floppy_disk03.jpg","img/object_images/chess_piece02.jpg","img/object_images/floppy_disk02.jpg","0","1","0","1","1","0","0.489382900035707","0.397463400004199","0.467185500019696","1","1","1","1","1","1","1","1","1"
"260055","img/object_images/floppy_disk02.jpg","img/object_images/floppy_disk03.jpg","img/object_images/chair05.jpg","0","0","1","0","1","0","0.467185500019696","0.489382900035707","0.485058000020217","1","1","1","1","1","1","1","1","1"
"260055","img/object_images/chair05.jpg","img/object_images/floppy_disk02.jpg","img/object_images/paint_brush04.jpg","1","0","1","0","0","0","0.485058000020217","0.467185500019696","0.365926500031492","1","1","1","1","1","1","1","1","1"
"260055","img/object_images/paint_brush04.jpg","img/object_images/chair05.jpg","img/object_images/tv02.jpg","1","1","0","0","0","0","0.365926500031492","0.485058000020217","0.334488800028339","1","1","1","1","1","1","1","1","1"
"260055","img/object_images/tv02.jpg","img/object_images/paint_brush04.jpg","img/object_images/pitcher01.jpg","0","1","1","0","0","0","0.334488800028339","0.365926500031492","0.426373400026932","1","1","1","1","1","1","1","1","1"
"260055","img/object_images/pitcher01.jpg","img/object_images/tv02.jpg","img/object_images/bell02.jpg","1","0","1","0","0","0","0.426373400026932","0.334488800028339","0.474008900026092","1","1","1","1","1","1","1","1","1"
"260055","img/object_images/bell02.jpg","img/object_images/pitcher01.jpg","img/object_images/retainer01.jpg","1","1","0","0","0","0","0.474008900026092","0.426373400026932","0.483880800020415","1","1","1","1","1","1","1","1","1"
"260055","img/object_images/retainer01.jpg","img/object_images/bell02.jpg","img/object_images/tennis_racket02.jpg","0","1","1","0","0","1","0.483880800020415","0.474008900026092","0.477657000039471","1","1","1","1","1","1","1","1","1"
"260055","img/object_images/tennis_racket02.jpg","img/object_images/retainer01.jpg","img/object_images/Oven01.jpg","1","0","1","1","0","1","0.477657000039471","0.483880800020415","0.584897900029318","1","1","1","1","1","1","1","1","1"
"260055","img/object_images/Oven01.jpg","img/object_images/tennis_racket02.jpg","img/object_images/note_book01.jpg","1","1","1","1","1","0","0.584897900029318","0.477657000039471","0.653367400023853","1","1","1","1","1","1","1","1","1"
"260055","img/object_images/note_book01.jpg","img/object_images/Oven01.jpg","img/object_images/motorcycle01.jpg","1","1","1","0","1","1","0.653367400023853","0.584897900029318","0.494617200020002","1","1","1","1","1","1","1","1","1"
"260055","img/object_images/motorcycle01.jpg","img/object_images/note_book01.jpg","img/object_images/knit05.jpg","1","1","1","1","0","1","0.494617200020002","0.653367400023853","0.328053900040686","1","1","1","1","1","1","1","1","1"
"260055","img/object_images/knit05.jpg","img/object_images/motorcycle01.jpg","img/object_images/microscope01.jpg","1","1","1","1","1","0","0.328053900040686","0.494617200020002","0.314828400034457","1","1","1","1","1","1","1","1","1"
"260055","img/object_images/microscope01.jpg","img/object_images/knit05.jpg","img/object_images/book03.jpg","1","1","1","0","1","1","0.314828400034457","0.328053900040686","0.423524200014072","1","1","1","1","1","1","1","1","1"
"260055","img/object_images/book03.jpg","img/object_images/microscope01.jpg","img/object_images/Staples01.jpg","1","1","0","1","0","1","0.423524200014072","0.314828400034457","0.305451900028856","1","1","1","1","1","1","1","1","2"
"260055","img/object_images/Staples01.jpg","img/object_images/book03.jpg","img/object_images/ear_bud01.jpg","0","1","1","1","1","1","0.305451900028856","0.423524200014072","0.388556000019889","1","1","1","1","1","1","2","1","1"
"260055","img/object_images/ear_bud01.jpg","img/object_images/Staples01.jpg",NA,"1","0",NA,"1","1",NA,"0.388556000019889","0.305451900028856",NA,"1","1",NA,"1","1",NA,"1","2",NA
"260055","img/object_images/Stool01.jpg",NA,"img/object_images/acoustic_capo01.jpg","0",NA,"1","0",NA,"1","0.406173600029433",NA,"0.491880400048103","1",NA,"1","1",NA,"1","1",NA,"1"
"260055","img/object_images/acoustic_capo01.jpg","img/object_images/Stool01.jpg","img/object_images/shovel03.jpg","1","0","1","1","0","1","0.491880400048103","0.406173600029433","0.456623700039927","1","1","1","1","1","1","1","1","1"
"260055","img/object_images/shovel03.jpg","img/object_images/acoustic_capo01.jpg","img/object_images/bow01.jpg","1","1","1","1","1","1","0.456623700039927","0.491880400048103","0.484918400034076","1","1","1","1","1","1","1","1","1"
"260055","img/object_images/bow01.jpg","img/object_images/shovel03.jpg","img/object_images/Vacuum01.jpg","1","1","0","1","1","0","0.484918400034076","0.456623700039927","0.386758200038457","1","1","1","1","1","1","1","1","1"
"260055","img/object_images/Vacuum01.jpg","img/object_images/bow01.jpg","img/object_images/bottle05.jpg","0","1","0","0","1","0","0.386758200038457","0.484918400034076","0.447201200033305","1","1","1","1","1","1","1","1","1"
"260055","img/object_images/bottle05.jpg","img/object_images/Vacuum01.jpg","img/object_images/frisbee01.jpg","0","0","1","0","0","1","0.447201200033305","0.386758200038457","0.464722000033362","1","1","1","1","1","1","1","1","1"
"260055","img/object_images/frisbee01.jpg","img/object_images/bottle05.jpg","img/object_images/towel02.jpg","1","0","1","1","0","1","0.464722000033362","0.447201200033305","0.348006300046109","1","1","1","1","1","1","1","1","1"
"260055","img/object_images/towel02.jpg","img/object_images/frisbee01.jpg","img/object_images/crown02.jpg","1","1","1","1","1","1","0.348006300046109","0.464722000033362","0.576434200018412","1","1","1","1","1","1","1","1","1"
"260055","img/object_images/crown02.jpg","img/object_images/towel02.jpg","img/object_images/Ring02.jpg","1","1","1","1","1","0","0.576434200018412","0.348006300046109","0.276402500021504","1","1","1","1","1","1","1","1","1"
"260055","img/object_images/Ring02.jpg","img/object_images/crown02.jpg","img/object_images/ornament01.jpg","1","1","1","0","1","1","0.276402500021504","0.576434200018412","0.348862200014992","1","1","1","1","1","1","1","1","1"
"260055","img/object_images/ornament01.jpg","img/object_images/Ring02.jpg","img/object_images/outlet01.jpg","1","1","0","1","0","0","0.348862200014992","0.276402500021504","0.288832800055388","1","1","1","1","1","1","1","1","1"
"260055","img/object_images/outlet01.jpg","img/object_images/ornament01.jpg","img/object_images/toy04.jpg","0","1","1","0","1","0","0.288832800055388","0.348862200014992","0.512854300031904","1","1","1","1","1","1","1","1","1"
"260055","img/object_images/toy04.jpg","img/object_images/outlet01.jpg","img/object_images/helmet01.jpg","1","0","1","0","0","0","0.512854300031904","0.288832800055388","0.317139700026019","1","1","1","1","1","1","1","1","2"
"260055","img/object_images/helmet01.jpg","img/object_images/toy04.jpg","img/object_images/Tin01.jpg","1","1","1","0","0","1","0.317139700026019","0.512854300031904","0.381377500016242","1","1","1","1","1","1","2","1","1"
"260055","img/object_images/Tin01.jpg","img/object_images/helmet01.jpg","img/object_images/fridge03.jpg","1","1","1","1","0","0","0.381377500016242","0.317139700026019","0.395501600025455","1","1","1","1","1","1","1","2","1"
"260055","img/object_images/fridge03.jpg","img/object_images/Tin01.jpg","img/object_images/gauze01.jpg","1","1","1","0","1","0","0.395501600025455","0.381377500016242","0.380531200033147","1","1","1","1","1","1","1","1","1"
"260055","img/object_images/gauze01.jpg","img/object_images/fridge03.jpg","img/object_images/MetalWire01.jpg","1","1","0","0","0","0","0.380531200033147","0.395501600025455","0.359196700010216","1","1","1","1","1","1","1","1","1"
"260055","img/object_images/MetalWire01.jpg","img/object_images/gauze01.jpg","img/object_images/bird_house02.jpg","0","1","0","0","0","1","0.359196700010216","0.380531200033147","0.548033200000646","1","1","1","1","1","1","1","1","2"
"260055","img/object_images/bird_house02.jpg","img/object_images/MetalWire01.jpg","img/object_images/guitar02.jpg","0","0","0","1","0","0","0.548033200000646","0.359196700010216","0.352819500025362","1","1","1","1","1","1","2","1","1"
"260055","img/object_images/guitar02.jpg","img/object_images/bird_house02.jpg","img/object_images/mirror01.jpg","0","0","1","0","1","1","0.352819500025362","0.548033200000646","0.37176210002508","1","1","1","1","1","1","1","2","1"
"260055","img/object_images/mirror01.jpg","img/object_images/guitar02.jpg","img/object_images/toy03.jpg","1","0","1","1","0","1","0.37176210002508","0.352819500025362","0.515301400038879","1","1","1","1","1","1","1","1","1"
"260055","img/object_images/toy03.jpg","img/object_images/mirror01.jpg","img/object_images/sink01.jpg","1","1","0","1","1","0","0.515301400038879","0.37176210002508","0.487265100033255","1","1","1","1","1","1","1","1","1"
"260055","img/object_images/sink01.jpg","img/object_images/toy03.jpg","img/object_images/dart01.jpg","0","1","1","0","1","0","0.487265100033255","0.515301400038879","0.523668500041822","1","1","1","1","1","1","1","1","1"
"260055","img/object_images/dart01.jpg","img/object_images/sink01.jpg","img/object_images/pot01 (1).jpg","1","0","1","0","0","0","0.523668500041822","0.487265100033255","0.479308500012849","1","1","1","1","1","1","1","1","1"
"260055","img/object_images/pot01 (1).jpg","img/object_images/dart01.jpg","img/object_images/tool02.jpg","1","1","1","0","0","1","0.479308500012849","0.523668500041822","0.365949700033525","1","1","1","1","1","1","1","1","1"
"260055","img/object_images/tool02.jpg","img/object_images/pot01 (1).jpg","img/object_images/stapler.jpg","1","1","0","1","0","1","0.365949700033525","0.479308500012849","0.405100800009677","1","1","1","1","1","1","1","1","1"
"260055","img/object_images/stapler.jpg","img/object_images/tool02.jpg","img/object_images/jewel04.jpg","0","1","1","1","1","0","0.405100800009677","0.365949700033525","0.512733500043396","1","1","1","1","1","1","1","1","1"
"260055","img/object_images/jewel04.jpg","img/object_images/stapler.jpg","img/object_images/video_game07.jpg","1","0","1","0","1","1","0.512733500043396","0.405100800009677","0.601252300024498","1","1","1","1","1","1","1","1","1"
"260055","img/object_images/video_game07.jpg","img/object_images/jewel04.jpg","img/object_images/watch01.jpg","1","1","1","1","0","0","0.601252300024498","0.512733500043396","0.462915100011742","1","1","1","1","1","1","1","1","1"
"260055","img/object_images/watch01.jpg","img/object_images/video_game07.jpg","img/object_images/tool09.jpg","1","1","1","0","1","1","0.462915100011742","0.601252300024498","0.389854300010484","1","1","1","1","1","1","1","1","1"
"260055","img/object_images/tool09.jpg","img/object_images/watch01.jpg","img/object_images/judge_gavel01.jpg","1","1","1","1","0","1","0.389854300010484","0.462915100011742","0.40527200003271","1","1","1","1","1","1","1","1","1"
"260055","img/object_images/judge_gavel01.jpg","img/object_images/tool09.jpg",NA,"1","1",NA,"1","1",NA,"0.40527200003271","0.389854300010484",NA,"1","1",NA,"1","1",NA,"1","1",NA
"260055","img/object_images/gloves05.jpg",NA,"img/object_images/Wisk01.jpg","1",NA,"1","1",NA,"1","0.41324020002503",NA,"0.486707700008992","1",NA,"1","1",NA,"1","1",NA,"1"
"260055","img/object_images/Wisk01.jpg","img/object_images/gloves05.jpg","img/object_images/pitcher03.jpg","1","1","1","1","1","1","0.486707700008992","0.41324020002503","0.393242100049974","1","1","1","1","1","1","1","1","1"
"260055","img/object_images/pitcher03.jpg","img/object_images/Wisk01.jpg","img/object_images/ironing_table02.jpg","1","1","0","1","1","0","0.393242100049974","0.486707700008992","0.356940100027714","1","1","1","1","1","1","1","1","2"
"260055","img/object_images/ironing_table02.jpg","img/object_images/pitcher03.jpg","img/object_images/tie01.jpg","0","1","0","0","1","0","0.356940100027714","0.393242100049974","0.500183600030141","1","1","1","1","1","1","2","1","1"
"260055","img/object_images/tie01.jpg","img/object_images/ironing_table02.jpg","img/object_images/razor03.jpg","0","0","1","0","0","0","0.500183600030141","0.356940100027714","0.504630300041754","1","1","1","1","1","1","1","2","1"
"260055","img/object_images/razor03.jpg","img/object_images/tie01.jpg","img/object_images/toilet_paper01.jpg","1","0","1","0","0","1","0.504630300041754","0.500183600030141","0.296845600038068","1","1","1","1","1","1","1","1","1"
"260055","img/object_images/toilet_paper01.jpg","img/object_images/razor03.jpg","img/object_images/toy_train02.jpg","1","1","1","1","0","1","0.296845600038068","0.504630300041754","0.286779600050068","1","1","1","1","1","1","1","1","1"
"260055","img/object_images/toy_train02.jpg","img/object_images/toilet_paper01.jpg","img/object_images/pot01.jpg","1","1","1","1","1","0","0.286779600050068","0.296845600038068","0.341137000039453","1","1","1","1","1","1","1","1","1"
"260055","img/object_images/pot01.jpg","img/object_images/toy_train02.jpg","img/object_images/broom01.jpg","1","1","1","0","1","1","0.341137000039453","0.286779600050068","0.310604500031332","1","1","1","1","1","1","1","1","1"
"260055","img/object_images/broom01.jpg","img/object_images/pot01.jpg","img/object_images/couch04.jpg","1","1","1","1","0","1","0.310604500031332","0.341137000039453","0.407374200032791","1","1","1","1","1","1","1","1","1"
"260055","img/object_images/couch04.jpg","img/object_images/broom01.jpg","img/object_images/guitar01.jpg","1","1","1","1","1","1","0.407374200032791","0.310604500031332","0.386952400032897","1","1","1","1","1","1","1","1","1"
"260055","img/object_images/guitar01.jpg","img/object_images/couch04.jpg","img/object_images/chair01.jpg","1","1","0","1","1","0","0.386952400032897","0.407374200032791","0.29429320001509","1","1","1","1","1","1","1","1","1"
"260055","img/object_images/chair01.jpg","img/object_images/guitar01.jpg","img/object_images/airfryer01.jpg","0","1","1","0","1","0","0.29429320001509","0.386952400032897","0.376182700041682","1","1","1","1","1","1","1","1","1"
"260055","img/object_images/airfryer01.jpg","img/object_images/chair01.jpg","img/object_images/helmet05.jpg","1","0","1","0","0","1","0.376182700041682","0.29429320001509","0.373908300040057","1","1","1","1","1","1","1","1","1"
"260055","img/object_images/helmet05.jpg","img/object_images/airfryer01.jpg","img/object_images/cochlear_implant01.jpg","1","1","1","1","0","0","0.373908300040057","0.376182700041682","0.406456700031413","1","1","1","1","1","1","1","1","1"
"260055","img/object_images/cochlear_implant01.jpg","img/object_images/helmet05.jpg","img/object_images/video_game06.jpg","1","1","1","0","1","0","0.406456700031413","0.373908300040057","0.299348500033375","1","1","1","1","1","1","1","1","1"
"260055","img/object_images/video_game06.jpg","img/object_images/cochlear_implant01.jpg","img/object_images/bottle12.jpg","1","1","1","0","0","1","0.299348500033375","0.406456700031413","0.349728200031677","1","1","1","1","1","1","1","1","1"
"260055","img/object_images/bottle12.jpg","img/object_images/video_game06.jpg","img/object_images/car02.jpg","1","1","0","1","0","0","0.349728200031677","0.299348500033375","0.363395900028991","1","1","1","1","1","1","1","1","2"
"260055","img/object_images/car02.jpg","img/object_images/bottle12.jpg","img/object_images/Recycling01.jpg","0","1","0","0","1","1","0.363395900028991","0.349728200031677","0.409077100019203","1","1","1","1","1","1","2","1","1"
"260055","img/object_images/Recycling01.jpg","img/object_images/car02.jpg","img/object_images/basketball_hoop02.jpg","0","0","1","1","0","0","0.409077100019203","0.363395900028991","0.462157800007844","1","1","1","1","1","1","1","2","1"
"260055","img/object_images/basketball_hoop02.jpg","img/object_images/Recycling01.jpg","img/object_images/container01.jpg","1","0","1","0","1","0","0.462157800007844","0.409077100019203","0.465204100037226","1","1","1","1","1","1","1","1","1"
"260055","img/object_images/container01.jpg","img/object_images/basketball_hoop02.jpg","img/object_images/lamp01.jpg","1","1","0","0","0","1","0.465204100037226","0.462157800007844","0.335463000024902","1","1","1","1","1","1","1","1","1"
"260055","img/object_images/lamp01.jpg","img/object_images/container01.jpg","img/object_images/brief_case02.jpg","0","1","1","1","0","1","0.335463000024902","0.465204100037226","0.331669700011844","1","1","1","1","1","1","1","1","1"
"260055","img/object_images/brief_case02.jpg","img/object_images/lamp01.jpg","img/object_images/brief_case01.jpg","1","0","1","1","1","0","0.331669700011844","0.335463000024902","0.42570000005071","1","1","1","1","1","1","1","1","1"
"260055","img/object_images/brief_case01.jpg","img/object_images/brief_case02.jpg","img/object_images/Woopie01.jpg","1","1","1","0","1","1","0.42570000005071","0.331669700011844","0.436143700033426","1","1","1","1","1","1","1","1","1"
"260055","img/object_images/Woopie01.jpg","img/object_images/brief_case01.jpg","img/object_images/hat02.jpg","1","1","1","1","0","0","0.436143700033426","0.42570000005071","0.281002100004116","1","1","1","1","1","1","1","1","1"
"260055","img/object_images/hat02.jpg","img/object_images/Woopie01.jpg","img/object_images/drone02.jpg","1","1","1","0","1","0","0.281002100004116","0.436143700033426","0.51008700003149","1","1","1","1","1","1","1","1","1"
"260055","img/object_images/drone02.jpg","img/object_images/hat02.jpg","img/object_images/ball01.jpg","1","1","1","0","0","1","0.51008700003149","0.281002100004116","0.542188200051896","1","1","1","1","1","1","1","1","1"
"260055","img/object_images/ball01.jpg","img/object_images/drone02.jpg","img/object_images/decorative02.jpg","1","1","0","1","0","0","0.542188200051896","0.51008700003149","0.299670300009893","1","1","1","1","1","1","1","1","1"
"260055","img/object_images/decorative02.jpg","img/object_images/ball01.jpg","img/object_images/soap01.jpg","0","1","1","0","1","0","0.299670300009893","0.542188200051896","0.385433400020702","1","1","1","1","1","1","1","1","1"
"260055","img/object_images/soap01.jpg","img/object_images/decorative02.jpg","img/object_images/lantern01.jpg","1","0","1","0","0","1","0.385433400020702","0.299670300009893","0.287433100049384","1","1","1","1","1","1","1","1","1"
"260055","img/object_images/lantern01.jpg","img/object_images/soap01.jpg",NA,"1","1",NA,"1","0",NA,"0.287433100049384","0.385433400020702",NA,"1","1",NA,"1","1",NA,"1","1",NA
"260055","img/object_images/floss01.jpg",NA,"img/object_images/hammer02.jpg","0",NA,"0","1",NA,"0","2.55832480001845",NA,NA,"1",NA,"0","1",NA,"0","1",NA,"0"
"260055","img/object_images/hammer02.jpg","img/object_images/floss01.jpg","img/object_images/bag04.jpg","0","0","0","0","1","0",NA,"2.55832480001845",NA,"0","1","0","0","1","0","0","1","0"
"260055","img/object_images/bag04.jpg","img/object_images/hammer02.jpg","img/object_images/knife01.jpg","0","0","1","0","0","1",NA,NA,"0.386062700039474","0","0","1","0","0","1","0","0","1"
"260055","img/object_images/knife01.jpg","img/object_images/bag04.jpg","img/object_images/pan03.jpg","1","0","0","1","0","1","0.386062700039474",NA,NA,"1","0","0","1","0","0","1","0","0"
"260055","img/object_images/pan03.jpg","img/object_images/knife01.jpg","img/object_images/video_game02.jpg","0","1","0","1","1","1",NA,"0.386062700039474",NA,"0","1","0","0","1","0","0","1","0"
"260055","img/object_images/video_game02.jpg","img/object_images/pan03.jpg","img/object_images/Confetti 01.jpg","0","0","0","1","1","0",NA,NA,"0.27433120002388","0","0","1","0","0","1","0","0","1"
"260055","img/object_images/Confetti 01.jpg","img/object_images/video_game02.jpg","img/object_images/Candle_Holder01.jpg","0","0","0","0","1","0","0.27433120002388",NA,NA,"1","0","0","1","0","0","1","0","0"
"260055","img/object_images/Candle_Holder01.jpg","img/object_images/Confetti 01.jpg","img/object_images/camera05.jpg","0","0","1","0","0","0",NA,"0.27433120002388","0.348438200046076","0","1","1","0","1","1","0","1","1"
"260055","img/object_images/camera05.jpg","img/object_images/Candle_Holder01.jpg","img/object_images/vase02.jpg","1","0","0","0","0","1","0.348438200046076",NA,NA,"1","0","0","1","0","0","1","0","0"
"260055","img/object_images/vase02.jpg","img/object_images/camera05.jpg","img/object_images/hat09.jpg","0","1","1","1","0","0",NA,"0.348438200046076","0.368975600023987","0","1","1","0","1","1","0","1","1"
"260055","img/object_images/hat09.jpg","img/object_images/vase02.jpg","img/object_images/tool20.jpg","1","0","0","0","1","0","0.368975600023987",NA,NA,"1","0","0","1","0","0","1","0","0"
"260055","img/object_images/tool20.jpg","img/object_images/hat09.jpg","img/object_images/socks01.jpg","0","1","1","0","0","1",NA,"0.368975600023987","0.39952450004057","0","1","1","0","1","1","0","1","1"
"260055","img/object_images/socks01.jpg","img/object_images/tool20.jpg","img/object_images/board01.jpg","1","0","0","1","0","1","0.39952450004057",NA,NA,"1","0","0","1","0","0","1","0","0"
"260055","img/object_images/board01.jpg","img/object_images/socks01.jpg","img/object_images/clipboard01.jpg","0","1","0","1","1","1",NA,"0.39952450004057",NA,"0","1","0","0","1","0","0","1","0"
"260055","img/object_images/clipboard01.jpg","img/object_images/board01.jpg","img/object_images/hat13.jpg","0","0","0","1","1","1",NA,NA,NA,"0","0","0","0","0","0","0","0","0"
"260055","img/object_images/hat13.jpg","img/object_images/clipboard01.jpg","img/object_images/sign02.jpg","0","0","0","1","1","0",NA,NA,"0.29087590004201","0","0","1","0","0","1","0","0","1"
"260055","img/object_images/sign02.jpg","img/object_images/hat13.jpg","img/object_images/cup01.jpg","0","0","0","0","1","0","0.29087590004201",NA,NA,"1","0","0","1","0","0","1","0","0"
"260055","img/object_images/cup01.jpg","img/object_images/sign02.jpg","img/object_images/razor02.jpg","0","0","0","0","0","1",NA,"0.29087590004201",NA,"0","1","0","0","1","0","0","1","0"
"260055","img/object_images/razor02.jpg","img/object_images/cup01.jpg","img/object_images/pen06.jpg","0","0","1","1","0","0",NA,NA,"0.45656850002706","0","0","1","0","0","1","0","0","1"
"260055","img/object_images/pen06.jpg","img/object_images/razor02.jpg","img/object_images/ruler02.jpg","1","0","0","0","1","1","0.45656850002706",NA,NA,"1","0","0","1","0","0","1","0","0"
"260055","img/object_images/ruler02.jpg","img/object_images/pen06.jpg","img/object_images/dust_pan01.jpg","0","1","1","1","0","1",NA,"0.45656850002706","0.348785400041379","0","1","1","0","1","1","0","1","1"
"260055","img/object_images/dust_pan01.jpg","img/object_images/ruler02.jpg","img/object_images/lemon_squeezer01.jpg","1","0","1","1","1","1","0.348785400041379",NA,"0.326367800036678","1","0","1","1","0","1","1","0","1"
"260055","img/object_images/lemon_squeezer01.jpg","img/object_images/dust_pan01.jpg","img/object_images/bow_tie03.jpg","1","1","1","1","1","1","0.326367800036678","0.348785400041379","0.364772500033723","1","1","1","1","1","1","1","1","1"
"260055","img/object_images/bow_tie03.jpg","img/object_images/lemon_squeezer01.jpg","img/object_images/perfume01.jpg","1","1","1","1","1","0","0.364772500033723","0.326367800036678","0.281060200039065","1","1","1","1","1","1","1","1","1"
"260055","img/object_images/perfume01.jpg","img/object_images/bow_tie03.jpg","img/object_images/tool13.jpg","1","1","1","0","1","1","0.281060200039065","0.364772500033723","0.258740200020839","1","1","1","1","1","1","1","1","1"
"260055","img/object_images/tool13.jpg","img/object_images/perfume01.jpg","img/object_images/glasses03.jpg","1","1","0","1","0","0","0.258740200020839","0.281060200039065","0.272356100031175","1","1","1","1","1","1","1","1","1"
"260055","img/object_images/glasses03.jpg","img/object_images/tool13.jpg","img/object_images/duster01.jpg","0","1","1","0","1","0","0.272356100031175","0.258740200020839","0.601422500010813","1","1","1","1","1","1","1","1","1"
"260055","img/object_images/duster01.jpg","img/object_images/glasses03.jpg","img/object_images/sink_filter01 (1).jpg","1","0","0","0","0","0","0.601422500010813","0.272356100031175",NA,"1","1","0","1","1","0","1","1","0"
"260055","img/object_images/sink_filter01 (1).jpg","img/object_images/duster01.jpg","img/object_images/spray_can01.jpg","0","1","1","0","0","0",NA,"0.601422500010813","0.364563100010855","0","1","1","0","1","1","0","1","1"
"260055","img/object_images/spray_can01.jpg","img/object_images/sink_filter01 (1).jpg","img/object_images/candle02.jpg","1","0","0","0","0","0","0.364563100010855",NA,NA,"1","0","0","1","0","0","1","0","0"
"260055","img/object_images/candle02.jpg","img/object_images/spray_can01.jpg","img/object_images/office_supplies01.jpg","0","1","1","0","0","1",NA,"0.364563100010855","0.383895000035409","0","1","1","0","1","1","0","1","1"
"260055","img/object_images/office_supplies01.jpg","img/object_images/candle02.jpg",NA,"1","0",NA,"1","0",NA,"0.383895000035409",NA,NA,"1","0",NA,"1","0",NA,"1","0",NA
"260055","img/object_images/boat_toy10.jpg",NA,"img/object_images/knit01.jpg","1",NA,"0","0",NA,"0","0.376603300042916",NA,NA,"1",NA,"0","1",NA,"0","1",NA,"0"
"260055","img/object_images/knit01.jpg","img/object_images/boat_toy10.jpg","img/object_images/shoes07.jpg","0","1","0","0","0","0",NA,"0.376603300042916","0.311315800034208","0","1","1","0","1","1","0","1","1"
"260055","img/object_images/shoes07.jpg","img/object_images/knit01.jpg","img/object_images/flask01.jpg","0","0","1","0","0","0","0.311315800034208",NA,"0.418987000040943","1","0","1","1","0","1","1","0","1"
"260055","img/object_images/flask01.jpg","img/object_images/shoes07.jpg","img/object_images/coloring_pencil02.jpg","1","0","1","0","0","0","0.418987000040943","0.311315800034208","0.395824600040214","1","1","1","1","1","1","1","1","1"
"260055","img/object_images/coloring_pencil02.jpg","img/object_images/flask01.jpg","img/object_images/wagon_cart03.jpg","1","1","0","0","0","1","0.395824600040214","0.418987000040943",NA,"1","1","0","1","1","0","1","1","0"
"260055","img/object_images/wagon_cart03.jpg","img/object_images/coloring_pencil02.jpg","img/object_images/scoreboard01.jpg","0","1","0","1","0","1",NA,"0.395824600040214",NA,"0","1","0","0","1","0","0","1","0"
"260055","img/object_images/scoreboard01.jpg","img/object_images/wagon_cart03.jpg","img/object_images/tie02.jpg","0","0","0","1","1","0",NA,NA,NA,"0","0","0","0","0","0","0","0","0"
"260055","img/object_images/tie02.jpg","img/object_images/scoreboard01.jpg","img/object_images/chair03.jpg","0","0","0","0","1","0",NA,NA,NA,"0","0","0","0","0","0","0","0","0"
"260055","img/object_images/chair03.jpg","img/object_images/tie02.jpg","img/object_images/cellphone03.jpg","0","0","0","0","0","0",NA,NA,"0.359785300039221","0","0","1","0","0","1","0","0","1"
"260055","img/object_images/cellphone03.jpg","img/object_images/chair03.jpg","img/object_images/water_scooter01.jpg","0","0","0","0","0","1","0.359785300039221",NA,NA,"1","0","0","1","0","0","1","0","0"
"260055","img/object_images/water_scooter01.jpg","img/object_images/cellphone03.jpg","img/object_images/bean_bag02.jpg","0","0","0","1","0","1",NA,"0.359785300039221","0.389704200031701","0","1","1","0","1","1","0","1","1"
"260055","img/object_images/bean_bag02.jpg","img/object_images/water_scooter01.jpg","img/object_images/pen05.jpg","0","0","0","1","1","0","0.389704200031701",NA,NA,"1","0","0","1","0","0","1","0","0"
"260055","img/object_images/pen05.jpg","img/object_images/bean_bag02.jpg","img/object_images/purse04.jpg","0","0","1","0","1","1",NA,"0.389704200031701","0.363765400048578","0","1","1","0","1","1","0","1","1"
"260055","img/object_images/purse04.jpg","img/object_images/pen05.jpg","img/object_images/bottle02.jpg","1","0","0","1","0","1","0.363765400048578",NA,NA,"1","0","0","1","0","0","1","0","0"
"260055","img/object_images/bottle02.jpg","img/object_images/purse04.jpg","img/object_images/perfume02.jpg","0","1","1","1","1","0",NA,"0.363765400048578","0.297227600036422","0","1","1","0","1","1","0","1","1"
"260055","img/object_images/perfume02.jpg","img/object_images/bottle02.jpg","img/object_images/audio_port01.jpg","1","0","1","0","1","1","0.297227600036422",NA,"0.477611400012393","1","0","1","1","0","1","1","0","1"
"260055","img/object_images/audio_port01.jpg","img/object_images/perfume02.jpg","img/object_images/bottle10.jpg","1","1","0","1","0","1","0.477611400012393","0.297227600036422",NA,"1","1","0","1","1","0","1","1","0"
"260055","img/object_images/bottle10.jpg","img/object_images/audio_port01.jpg","img/object_images/tool19.jpg","0","1","1","1","1","1",NA,"0.477611400012393","0.316680500021903","0","1","1","0","1","1","0","1","1"
"260055","img/object_images/tool19.jpg","img/object_images/bottle10.jpg","img/object_images/toaster01.jpg","1","0","0","1","1","1","0.316680500021903",NA,"0.368134600052144","1","0","1","1","0","1","1","0","1"
"260055","img/object_images/toaster01.jpg","img/object_images/tool19.jpg","img/object_images/helmet04.jpg","0","1","0","1","1","1","0.368134600052144","0.316680500021903",NA,"1","1","0","1","1","0","1","1","0"
"260055","img/object_images/helmet04.jpg","img/object_images/toaster01.jpg","img/object_images/hot_air_balloon02.jpg","0","0","0","1","1","0",NA,"0.368134600052144","0.534281800006283","0","1","1","0","1","1","0","1","1"
"260055","img/object_images/hot_air_balloon02.jpg","img/object_images/helmet04.jpg","img/object_images/hat06.jpg","0","0","0","0","1","0","0.534281800006283",NA,NA,"1","0","0","1","0","0","1","0","0"
"260055","img/object_images/hat06.jpg","img/object_images/hot_air_balloon02.jpg","img/object_images/dog_leash01.jpg","0","0","1","0","0","0",NA,"0.534281800006283","0.406210100045428","0","1","1","0","1","1","0","1","1"
"260055","img/object_images/dog_leash01.jpg","img/object_images/hat06.jpg","img/object_images/piggy_bank01.jpg","1","0","1","0","0","1","0.406210100045428",NA,"0.375231900019571","1","0","1","1","0","1","1","0","1"
"260055","img/object_images/piggy_bank01.jpg","img/object_images/dog_leash01.jpg","img/object_images/bicycle01.jpg","1","1","0","1","0","1","0.375231900019571","0.406210100045428","0.309065300039947","1","1","1","1","1","1","1","1","1"
"260055","img/object_images/bicycle01.jpg","img/object_images/piggy_bank01.jpg","img/object_images/fan02.jpg","0","1","0","1","1","0","0.309065300039947","0.375231900019571",NA,"1","1","0","1","1","0","1","1","0"
"260055","img/object_images/fan02.jpg","img/object_images/bicycle01.jpg","img/object_images/WoodBox01.jpg","0","0","1","0","1","0",NA,"0.309065300039947","0.416040800017072","0","1","1","0","1","1","0","1","1"
"260055","img/object_images/WoodBox01.jpg","img/object_images/fan02.jpg","img/object_images/camera_lens01.jpg","1","0","0","0","0","1","0.416040800017072",NA,NA,"1","0","0","1","0","0","1","0","0"
"260055","img/object_images/camera_lens01.jpg","img/object_images/WoodBox01.jpg","img/object_images/bottle09.jpg","0","1","1","1","0","0",NA,"0.416040800017072","0.629929300048389","0","1","1","0","1","1","0","1","1"
"260055","img/object_images/bottle09.jpg","img/object_images/camera_lens01.jpg","img/object_images/boat02.jpg","1","0","1","0","1","1","0.629929300048389",NA,"0.394003800029168","1","0","1","1","0","1","1","0","1"
"260055","img/object_images/boat02.jpg","img/object_images/bottle09.jpg","img/object_images/toilet_paper_dispenser01.jpg","1","1","1","1","0","1","0.394003800029168","0.629929300048389","0.404896000021836","1","1","1","1","1","1","1","1","1"
"260055","img/object_images/toilet_paper_dispenser01.jpg","img/object_images/boat02.jpg",NA,"1","1",NA,"1","1",NA,"0.404896000021836","0.394003800029168",NA,"1","1",NA,"1","1",NA,"1","1",NA
"260055","img/object_images/skate_board01.jpg",NA,"img/object_images/soap03.jpg","1",NA,"0","0",NA,"0","0.417713800037745",NA,NA,"1",NA,"0","1",NA,"0","1",NA,"0"
"260055","img/object_images/soap03.jpg","img/object_images/skate_board01.jpg","img/object_images/hair_brush01.jpg","0","1","0","0","0","1",NA,"0.417713800037745","0.262692800024524","0","1","1","0","1","1","0","1","1"
"260055","img/object_images/hair_brush01.jpg","img/object_images/soap03.jpg","img/object_images/toy01.jpg","0","0","1","1","0","1","0.262692800024524",NA,"0.431051000021398","1","0","1","1","0","1","1","0","1"
"260055","img/object_images/toy01.jpg","img/object_images/hair_brush01.jpg","img/object_images/rock02.jpg","1","0","0","1","1","0","0.431051000021398","0.262692800024524",NA,"1","1","0","1","1","0","1","1","0"
"260055","img/object_images/rock02.jpg","img/object_images/toy01.jpg","img/object_images/computer_mouse02.jpg","0","1","1","0","1","0",NA,"0.431051000021398","0.412991500023054","0","1","1","0","1","1","0","1","1"
"260055","img/object_images/computer_mouse02.jpg","img/object_images/rock02.jpg","img/object_images/couch01.jpg","1","0","0","0","0","0","0.412991500023054",NA,NA,"1","0","0","1","0","0","1","0","0"
"260055","img/object_images/couch01.jpg","img/object_images/computer_mouse02.jpg","img/object_images/scarf01.jpg","0","1","1","0","0","1",NA,"0.412991500023054","0.354553400014993","0","1","1","0","1","1","0","1","1"
"260055","img/object_images/scarf01.jpg","img/object_images/couch01.jpg","img/object_images/drone01.jpg","1","0","1","1","0","1","0.354553400014993",NA,"0.392329200025415","1","0","1","1","0","1","1","0","1"
"260055","img/object_images/drone01.jpg","img/object_images/scarf01.jpg","img/object_images/blender01.jpg","1","1","0","1","1","0","0.392329200025415","0.354553400014993",NA,"1","1","0","1","1","0","1","1","0"
"260055","img/object_images/blender01.jpg","img/object_images/drone01.jpg","img/object_images/egg_slicer01.jpg","0","1","1","0","1","1",NA,"0.392329200025415","0.324749300023541","0","1","1","0","1","1","0","1","1"
"260055","img/object_images/egg_slicer01.jpg","img/object_images/blender01.jpg","img/object_images/toothbrush01.jpg","1","0","0","1","0","0","0.324749300023541",NA,NA,"1","0","0","1","0","0","1","0","0"
"260055","img/object_images/toothbrush01.jpg","img/object_images/egg_slicer01.jpg","img/object_images/mail_box02.jpg","0","1","1","0","1","1",NA,"0.324749300023541","0.431403000024147","0","1","1","0","1","1","0","1","1"
"260055","img/object_images/mail_box02.jpg","img/object_images/toothbrush01.jpg","img/object_images/box03.jpg","1","0","0","1","0","0","0.431403000024147",NA,NA,"1","0","0","1","0","0","1","0","0"
"260055","img/object_images/box03.jpg","img/object_images/mail_box02.jpg","img/object_images/book02.jpg","0","1","0","0","1","1",NA,"0.431403000024147",NA,"0","1","0","0","1","0","0","1","0"
"260055","img/object_images/book02.jpg","img/object_images/box03.jpg","img/object_images/shoes12.jpg","0","0","0","1","0","1",NA,NA,NA,"0","0","0","0","0","0","0","0","0"
"260055","img/object_images/shoes12.jpg","img/object_images/book02.jpg","img/object_images/tool06.jpg","0","0","0","1","1","0",NA,NA,NA,"0","0","0","0","0","0","0","0","0"
"260055","img/object_images/tool06.jpg","img/object_images/shoes12.jpg","img/object_images/airfryer02.jpg","0","0","0","0","1","1",NA,NA,NA,"0","0","0","0","0","0","0","0","0"
"260055","img/object_images/airfryer02.jpg","img/object_images/tool06.jpg","img/object_images/chair06.jpg","0","0","0","1","0","0",NA,NA,NA,"0","0","0","0","0","0","0","0","0"
"260055","img/object_images/chair06.jpg","img/object_images/airfryer02.jpg","img/object_images/floss02.jpg","0","0","0","0","1","1",NA,NA,NA,"0","0","0","0","0","0","0","0","0"
"260055","img/object_images/floss02.jpg","img/object_images/chair06.jpg","img/object_images/Violin01.jpg","0","0","1","1","0","0",NA,NA,"0.36087210002006","0","0","1","0","0","1","0","0","1"
"260055","img/object_images/Violin01.jpg","img/object_images/floss02.jpg","img/object_images/bell03.jpg","1","0","0","0","1","0","0.36087210002006",NA,NA,"1","0","0","1","0","0","1","0","0"
"260055","img/object_images/bell03.jpg","img/object_images/Violin01.jpg","img/object_images/video_game03.jpg","0","1","0","0","0","1",NA,"0.36087210002006",NA,"0","1","0","0","1","0","0","1","0"
"260055","img/object_images/video_game03.jpg","img/object_images/bell03.jpg","img/object_images/pitcher09.jpg","0","0","1","1","0","1",NA,NA,"0.276670100021875","0","0","1","0","0","1","0","0","1"
"260055","img/object_images/pitcher09.jpg","img/object_images/video_game03.jpg","img/object_images/Trowel01.jpg","1","0","0","1","1","0","0.276670100021875",NA,NA,"1","0","0","1","0","0","1","0","0"
"260055","img/object_images/Trowel01.jpg","img/object_images/pitcher09.jpg","img/object_images/bag_pipes01.jpg","0","1","0","0","1","1",NA,"0.276670100021875","0.350020900019445","0","1","1","0","1","1","0","1","1"
"260055","img/object_images/bag_pipes01.jpg","img/object_images/Trowel01.jpg","img/object_images/pen01.jpg","0","0","0","1","0","0","0.350020900019445",NA,NA,"1","0","0","1","0","0","1","0","0"
"260055","img/object_images/pen01.jpg","img/object_images/bag_pipes01.jpg","img/object_images/fork02.jpg","0","0","1","0","1","0",NA,"0.350020900019445","0.294992100039963","0","1","1","0","1","1","0","1","1"
"260055","img/object_images/fork02.jpg","img/object_images/pen01.jpg","img/object_images/chain01.jpg","1","0","1","0","0","0","0.294992100039963",NA,"0.451624500012258","1","0","1","1","0","1","1","0","1"
"260055","img/object_images/chain01.jpg","img/object_images/fork02.jpg","img/object_images/clip04.jpg","1","1","0","0","0","1","0.451624500012258","0.294992100039963",NA,"1","1","0","1","1","0","1","1","0"
"260055","img/object_images/clip04.jpg","img/object_images/chain01.jpg","img/object_images/tripod01.jpg","0","1","0","1","0","1",NA,"0.451624500012258",NA,"0","1","0","0","1","0","0","1","0"
"260055","img/object_images/tripod01.jpg","img/object_images/clip04.jpg","img/object_images/computer_mouse01.jpg","0","0","1","1","1","1",NA,NA,"0.438835400040262","0","0","1","0","0","1","0","0","1"
"260055","img/object_images/computer_mouse01.jpg","img/object_images/tripod01.jpg",NA,"1","0",NA,"1","1",NA,"0.438835400040262",NA,NA,"1","0",NA,"1","0",NA,"1","0",NA
