"participant_id","current_trial_object","pre_trial_object","post_trial_object","current_trial_accuracy","pre_trial_accuracy","post_trial_accuracy","current_trial_congruency","pre_trial_congruency","post_trial_congruency","current_trial_rt","pre_trial_rt","post_trial_rt","current_trial_responded","pre_trial_responded","post_trial_responded","current_trial_legitResponse","pre_trial_legitResponse","post_trial_legitResponse","current_trial_resp_nums","pre_trial_resp_nums","post_trial_resp_nums"
"260045","img/object_images/bookmark01.jpg",NA,"img/object_images/phone04.jpg","1",NA,"1","0",NA,"1","1.21648100018501",NA,"0.494127500103787","1",NA,"1","1",NA,"1","1",NA,"1"
"260045","img/object_images/phone04.jpg","img/object_images/bookmark01.jpg","img/object_images/bottle06.jpg","1","1","1","1","0","0","0.494127500103787","1.21648100018501","0.589442900149152","1","1","1","1","1","1","1","1","1"
"260045","img/object_images/bottle06.jpg","img/object_images/phone04.jpg","img/object_images/lock03.jpg","1","1","1","0","1","1","0.589442900149152","0.494127500103787","0.501754899974912","1","1","1","1","1","1","1","1","1"
"260045","img/object_images/lock03.jpg","img/object_images/bottle06.jpg","img/object_images/trumpet01.jpg","1","1","1","1","0","0","0.501754899974912","0.589442900149152","0.520611500134692","1","1","1","1","1","1","1","1","1"
"260045","img/object_images/trumpet01.jpg","img/object_images/lock03.jpg","img/object_images/nut_cracker01.jpg","1","1","1","0","1","1","0.520611500134692","0.501754899974912","0.611985500203446","1","1","1","1","1","1","1","1","1"
"260045","img/object_images/nut_cracker01.jpg","img/object_images/trumpet01.jpg","img/object_images/belt03.jpg","1","1","1","1","0","0","0.611985500203446","0.520611500134692","0.683290400076658","1","1","1","1","1","1","1","1","1"
"260045","img/object_images/belt03.jpg","img/object_images/nut_cracker01.jpg","img/object_images/usb03.jpg","1","1","1","0","1","0","0.683290400076658","0.611985500203446","0.577125200070441","1","1","1","1","1","1","1","1","1"
"260045","img/object_images/usb03.jpg","img/object_images/belt03.jpg","img/object_images/tennis_racket01.jpg","1","1","1","0","0","1","0.577125200070441","0.683290400076658","0.526505100075155","1","1","1","1","1","1","1","1","1"
"260045","img/object_images/tennis_racket01.jpg","img/object_images/usb03.jpg","img/object_images/yoga_mat01.jpg","1","1","1","1","0","0","0.526505100075155","0.577125200070441","0.596623300109059","1","1","1","1","1","1","1","1","1"
"260045","img/object_images/yoga_mat01.jpg","img/object_images/tennis_racket01.jpg","img/object_images/ToolBag01.jpg","1","1","1","0","1","0","0.596623300109059","0.526505100075155","0.446064000250772","1","1","1","1","1","1","1","1","1"
"260045","img/object_images/ToolBag01.jpg","img/object_images/yoga_mat01.jpg","img/object_images/origami01.jpg","1","1","1","0","0","1","0.446064000250772","0.596623300109059","0.488496599951759","1","1","1","1","1","1","1","1","1"
"260045","img/object_images/origami01.jpg","img/object_images/ToolBag01.jpg","img/object_images/fan01.jpg","1","1","1","1","0","0","0.488496599951759","0.446064000250772","0.567746500251815","1","1","1","1","1","1","1","1","1"
"260045","img/object_images/fan01.jpg","img/object_images/origami01.jpg","img/object_images/badminton01.jpg","1","1","1","0","1","1","0.567746500251815","0.488496599951759","0.504552100086585","1","1","1","1","1","1","1","1","1"
"260045","img/object_images/badminton01.jpg","img/object_images/fan01.jpg","img/object_images/frame01.jpg","1","1","1","1","0","1","0.504552100086585","0.567746500251815","0.547485700109974","1","1","1","1","1","1","1","1","1"
"260045","img/object_images/frame01.jpg","img/object_images/badminton01.jpg","img/object_images/Safe01.jpg","1","1","1","1","1","1","0.547485700109974","0.504552100086585","0.558863100130111","1","1","1","1","1","1","1","1","1"
"260045","img/object_images/Safe01.jpg","img/object_images/frame01.jpg","img/object_images/pitcher07.jpg","1","1","1","1","1","1","0.558863100130111","0.547485700109974","0.568134900182486","1","1","1","1","1","1","1","1","1"
"260045","img/object_images/pitcher07.jpg","img/object_images/Safe01.jpg","img/object_images/helmet03.jpg","1","1","1","1","1","1","0.568134900182486","0.558863100130111","0.590493600117043","1","1","1","1","1","1","1","1","1"
"260045","img/object_images/helmet03.jpg","img/object_images/pitcher07.jpg","img/object_images/scale02.jpg","1","1","1","1","1","0","0.590493600117043","0.568134900182486","0.496049300068989","1","1","1","1","1","1","1","1","1"
"260045","img/object_images/scale02.jpg","img/object_images/helmet03.jpg","img/object_images/headset02.jpg","1","1","1","0","1","0","0.496049300068989","0.590493600117043","0.565812900196761","1","1","1","1","1","1","1","1","1"
"260045","img/object_images/headset02.jpg","img/object_images/scale02.jpg","img/object_images/water_gun01.jpg","1","1","1","0","0","1","0.565812900196761","0.496049300068989","0.448130700271577","1","1","1","1","1","1","1","1","1"
"260045","img/object_images/water_gun01.jpg","img/object_images/headset02.jpg","img/object_images/bucket01.jpg","1","1","1","1","0","1","0.448130700271577","0.565812900196761","0.45310530019924","1","1","1","1","1","1","1","1","1"
"260045","img/object_images/bucket01.jpg","img/object_images/water_gun01.jpg","img/object_images/Shoes05.jpg","1","1","1","1","1","0","0.45310530019924","0.448130700271577","0.500915800221264","1","1","1","1","1","1","1","1","1"
"260045","img/object_images/Shoes05.jpg","img/object_images/bucket01.jpg","img/object_images/Eyeliner01.jpg","1","1","1","0","1","1","0.500915800221264","0.45310530019924","0.495155700016767","1","1","1","1","1","1","1","1","1"
"260045","img/object_images/Eyeliner01.jpg","img/object_images/Shoes05.jpg","img/object_images/TreeSlice01.jpg","1","1","1","1","0","1","0.495155700016767","0.500915800221264","0.482756900135428","1","1","1","1","1","1","1","1","1"
"260045","img/object_images/TreeSlice01.jpg","img/object_images/Eyeliner01.jpg","img/object_images/egg_basket01.jpg","1","1","1","1","1","1","0.482756900135428","0.495155700016767","0.531458500074223","1","1","1","1","1","1","1","1","1"
"260045","img/object_images/egg_basket01.jpg","img/object_images/TreeSlice01.jpg","img/object_images/joystick03.jpg","1","1","1","1","1","1","0.531458500074223","0.482756900135428","0.527141700033098","1","1","1","1","1","1","1","1","1"
"260045","img/object_images/joystick03.jpg","img/object_images/egg_basket01.jpg","img/object_images/note_book02.jpg","1","1","1","1","1","0","0.527141700033098","0.531458500074223","0.589683700120077","1","1","1","1","1","1","1","1","1"
"260045","img/object_images/note_book02.jpg","img/object_images/joystick03.jpg","img/object_images/shovel01.jpg","1","1","1","0","1","0","0.589683700120077","0.527141700033098","0.455691199982539","1","1","1","1","1","1","1","1","1"
"260045","img/object_images/shovel01.jpg","img/object_images/note_book02.jpg","img/object_images/dice01.jpg","1","1","1","0","0","0","0.455691199982539","0.589683700120077","0.473013700218871","1","1","1","1","1","1","1","1","1"
"260045","img/object_images/dice01.jpg","img/object_images/shovel01.jpg","img/object_images/jewel02.jpg","1","1","0","0","0","0","0.473013700218871","0.455691199982539","0.628217600053176","1","1","1","1","1","1","1","1","1"
"260045","img/object_images/jewel02.jpg","img/object_images/dice01.jpg","img/object_images/piano03.jpg","0","1","1","0","0","0","0.628217600053176","0.473013700218871","0.528033700305969","1","1","1","1","1","1","1","1","1"
"260045","img/object_images/piano03.jpg","img/object_images/jewel02.jpg",NA,"1","0",NA,"0","0",NA,"0.528033700305969","0.628217600053176",NA,"1","1",NA,"1","1",NA,"1","1",NA
"260045","img/object_images/tv02.jpg",NA,"img/object_images/motorcycle01.jpg","0",NA,"1","0",NA,"1","0.571902499999851",NA,"0.418729700148106","1",NA,"1","1",NA,"1","1",NA,"1"
"260045","img/object_images/motorcycle01.jpg","img/object_images/tv02.jpg","img/object_images/Oven01.jpg","1","0","1","1","0","1","0.418729700148106","0.571902499999851","0.319350700126961","1","1","1","1","1","1","1","1","1"
"260045","img/object_images/Oven01.jpg","img/object_images/motorcycle01.jpg","img/object_images/Thermometer01.jpg","1","1","0","1","1","0","0.319350700126961","0.418729700148106","0.370879400055856","1","1","1","1","1","1","1","1","1"
"260045","img/object_images/Thermometer01.jpg","img/object_images/Oven01.jpg","img/object_images/hammer03.jpg","0","1","1","0","1","1","0.370879400055856","0.319350700126961","0.857754600001499","1","1","1","1","1","1","1","1","1"
"260045","img/object_images/hammer03.jpg","img/object_images/Thermometer01.jpg","img/object_images/clip03.jpg","1","0","0","1","0","0","0.857754600001499","0.370879400055856","0.304967100033536","1","1","1","1","1","1","1","1","1"
"260045","img/object_images/clip03.jpg","img/object_images/hammer03.jpg","img/object_images/cellphone01.jpg","0","1","1","0","1","1","0.304967100033536","0.857754600001499","0.477187900105491","1","1","1","1","1","1","1","1","1"
"260045","img/object_images/cellphone01.jpg","img/object_images/clip03.jpg","img/object_images/knit05.jpg","1","0","1","1","0","1","0.477187900105491","0.304967100033536","0.548316600034013","1","1","1","1","1","1","1","1","1"
"260045","img/object_images/knit05.jpg","img/object_images/cellphone01.jpg","img/object_images/floppy_disk02.jpg","1","1","1","1","1","0","0.548316600034013","0.477187900105491","0.555439800256863","1","1","1","1","1","1","1","1","1"
"260045","img/object_images/floppy_disk02.jpg","img/object_images/knit05.jpg","img/object_images/chess_piece02.jpg","1","1","1","0","1","1","0.555439800256863","0.548316600034013","0.383932000026107","1","1","1","1","1","1","1","1","1"
"260045","img/object_images/chess_piece02.jpg","img/object_images/floppy_disk02.jpg","img/object_images/retainer01.jpg","1","1","1","1","0","0","0.383932000026107","0.555439800256863","0.505139300134033","1","1","1","1","1","1","1","1","1"
"260045","img/object_images/retainer01.jpg","img/object_images/chess_piece02.jpg","img/object_images/pillows01.jpg","1","1","1","0","1","1","0.505139300134033","0.383932000026107","0.542949600145221","1","1","1","1","1","1","1","1","1"
"260045","img/object_images/pillows01.jpg","img/object_images/retainer01.jpg","img/object_images/usb02.jpg","1","1","1","1","0","0","0.542949600145221","0.505139300134033","0.540879700100049","1","1","1","1","1","1","1","1","1"
"260045","img/object_images/usb02.jpg","img/object_images/pillows01.jpg","img/object_images/note_book01.jpg","1","1","0","0","1","0","0.540879700100049","0.542949600145221","0.389446299988777","1","1","1","1","1","1","1","1","1"
"260045","img/object_images/note_book01.jpg","img/object_images/usb02.jpg","img/object_images/book03.jpg","0","1","1","0","0","1","0.389446299988777","0.540879700100049","0.487622600281611","1","1","1","1","1","1","1","1","1"
"260045","img/object_images/book03.jpg","img/object_images/note_book01.jpg","img/object_images/pitcher01.jpg","1","0","1","1","0","0","0.487622600281611","0.389446299988777","0.511735400184989","1","1","1","1","1","1","1","1","1"
"260045","img/object_images/pitcher01.jpg","img/object_images/book03.jpg","img/object_images/microscope01.jpg","1","1","1","0","1","0","0.511735400184989","0.487622600281611","0.456389400176704","1","1","1","1","1","1","1","1","1"
"260045","img/object_images/microscope01.jpg","img/object_images/pitcher01.jpg","img/object_images/pen03.jpg","1","1","1","0","0","0","0.456389400176704","0.511735400184989","0.493259500013664","1","1","1","1","1","1","1","1","1"
"260045","img/object_images/pen03.jpg","img/object_images/microscope01.jpg","img/object_images/floppy_disk03.jpg","1","1","1","0","0","1","0.493259500013664","0.456389400176704","0.362339500105008","1","1","1","1","1","1","1","1","1"
"260045","img/object_images/floppy_disk03.jpg","img/object_images/pen03.jpg","img/object_images/clock02.jpg","1","1","0","1","0","0","0.362339500105008","0.493259500013664","0.380142000271007","1","1","1","1","1","1","1","1","1"
"260045","img/object_images/clock02.jpg","img/object_images/floppy_disk03.jpg","img/object_images/crutches02.jpg","0","1","1","0","1","0","0.380142000271007","0.362339500105008","0.482028000056744","1","1","1","1","1","1","1","1","1"
"260045","img/object_images/crutches02.jpg","img/object_images/clock02.jpg","img/object_images/bell02.jpg","1","0","1","0","0","0","0.482028000056744","0.380142000271007","0.507147199939936","1","1","1","1","1","1","1","1","1"
"260045","img/object_images/bell02.jpg","img/object_images/crutches02.jpg","img/object_images/lid01.jpg","1","1","1","0","0","1","0.507147199939936","0.482028000056744","0.45595040009357","1","1","1","1","1","1","1","1","1"
"260045","img/object_images/lid01.jpg","img/object_images/bell02.jpg","img/object_images/tennis_racket02.jpg","1","1","1","1","0","1","0.45595040009357","0.507147199939936","0.462076399940997","1","1","1","1","1","1","1","1","1"
"260045","img/object_images/tennis_racket02.jpg","img/object_images/lid01.jpg","img/object_images/compass01.jpg","1","1","1","1","1","1","0.462076399940997","0.45595040009357","0.571073400089517","1","1","1","1","1","1","1","1","1"
"260045","img/object_images/compass01.jpg","img/object_images/tennis_racket02.jpg","img/object_images/paint_brush04.jpg","1","1","1","1","1","0","0.571073400089517","0.462076399940997","0.487546400167048","1","1","1","1","1","1","1","1","1"
"260045","img/object_images/paint_brush04.jpg","img/object_images/compass01.jpg","img/object_images/wire02.jpg","1","1","1","0","1","1","0.487546400167048","0.571073400089517","0.381765400292352","1","1","1","1","1","1","1","1","1"
"260045","img/object_images/wire02.jpg","img/object_images/paint_brush04.jpg","img/object_images/knife04.jpg","1","1","1","1","0","1","0.381765400292352","0.487546400167048","0.349656600039452","1","1","1","1","1","1","1","1","1"
"260045","img/object_images/knife04.jpg","img/object_images/wire02.jpg","img/object_images/chair05.jpg","1","1","1","1","1","0","0.349656600039452","0.381765400292352","0.383438300108537","1","1","1","1","1","1","1","1","1"
"260045","img/object_images/chair05.jpg","img/object_images/knife04.jpg","img/object_images/ear_bud01.jpg","1","1","1","0","1","1","0.383438300108537","0.349656600039452","0.491031999932602","1","1","1","1","1","1","1","1","1"
"260045","img/object_images/ear_bud01.jpg","img/object_images/chair05.jpg","img/object_images/bottle01.jpg","1","1","1","1","0","0","0.491031999932602","0.383438300108537","0.601242900127545","1","1","1","1","1","1","1","1","1"
"260045","img/object_images/bottle01.jpg","img/object_images/ear_bud01.jpg","img/object_images/Staples01.jpg","1","1","1","0","1","1","0.601242900127545","0.491031999932602","0.478556200163439","1","1","1","1","1","1","1","1","1"
"260045","img/object_images/Staples01.jpg","img/object_images/bottle01.jpg",NA,"1","1",NA,"1","0",NA,"0.478556200163439","0.601242900127545",NA,"1","1",NA,"1","1",NA,"1","1",NA
"260045","img/object_images/chain01.jpg",NA,"img/object_images/Violin01.jpg","1",NA,"1","0",NA,"0","1.43044430017471",NA,"0.479224500013515","1",NA,"1","1",NA,"1","1",NA,"1"
"260045","img/object_images/Violin01.jpg","img/object_images/chain01.jpg","img/object_images/computer_mouse02.jpg","1","1","1","0","0","0","0.479224500013515","1.43044430017471","0.456217000028118","1","1","1","1","1","1","1","1","1"
"260045","img/object_images/computer_mouse02.jpg","img/object_images/Violin01.jpg","img/object_images/tripod01.jpg","1","1","1","0","0","1","0.456217000028118","0.479224500013515","0.482977600069717","1","1","1","1","1","1","1","1","1"
"260045","img/object_images/tripod01.jpg","img/object_images/computer_mouse02.jpg","img/object_images/mail_box02.jpg","1","1","1","1","0","1","0.482977600069717","0.456217000028118","0.434986500069499","1","1","1","1","1","1","1","1","1"
"260045","img/object_images/mail_box02.jpg","img/object_images/tripod01.jpg","img/object_images/egg_slicer01.jpg","1","1","1","1","1","1","0.434986500069499","0.482977600069717","0.449776200111955","1","1","1","1","1","1","1","1","1"
"260045","img/object_images/egg_slicer01.jpg","img/object_images/mail_box02.jpg","img/object_images/blender01.jpg","1","1","0","1","1","0","0.449776200111955","0.434986500069499","0.494743300136179","1","1","1","1","1","1","1","1","1"
"260045","img/object_images/blender01.jpg","img/object_images/egg_slicer01.jpg","img/object_images/pitcher09.jpg","0","1","1","0","1","1","0.494743300136179","0.449776200111955","0.389984900131822","1","1","1","1","1","1","1","1","1"
"260045","img/object_images/pitcher09.jpg","img/object_images/blender01.jpg","img/object_images/Trowel01.jpg","1","0","1","1","0","0","0.389984900131822","0.494743300136179","0.542156100273132","1","1","1","1","1","1","1","1","1"
"260045","img/object_images/Trowel01.jpg","img/object_images/pitcher09.jpg","img/object_images/airfryer02.jpg","1","1","1","0","1","1","0.542156100273132","0.389984900131822","0.450969299999997","1","1","1","1","1","1","1","1","1"
"260045","img/object_images/airfryer02.jpg","img/object_images/Trowel01.jpg","img/object_images/rock02.jpg","1","1","1","1","0","0","0.450969299999997","0.542156100273132","0.579916800139472","1","1","1","1","1","1","1","1","1"
"260045","img/object_images/rock02.jpg","img/object_images/airfryer02.jpg","img/object_images/tool06.jpg","1","1","1","0","1","0","0.579916800139472","0.450969299999997","0.44924410013482","1","1","1","1","1","1","1","1","1"
"260045","img/object_images/tool06.jpg","img/object_images/rock02.jpg","img/object_images/drone01.jpg","1","1","1","0","0","1","0.44924410013482","0.579916800139472","0.448306000092998","1","1","1","1","1","1","1","1","1"
"260045","img/object_images/drone01.jpg","img/object_images/tool06.jpg","img/object_images/bell03.jpg","1","1","1","1","0","0","0.448306000092998","0.44924410013482","0.649523300118744","1","1","1","1","1","1","1","1","1"
"260045","img/object_images/bell03.jpg","img/object_images/drone01.jpg","img/object_images/bag_pipes01.jpg","1","1","1","0","1","1","0.649523300118744","0.448306000092998","0.445120400050655","1","1","1","1","1","1","1","1","1"
"260045","img/object_images/bag_pipes01.jpg","img/object_images/bell03.jpg","img/object_images/floss02.jpg","1","1","1","1","0","1","0.445120400050655","0.649523300118744","0.657419600058347","1","1","1","1","1","1","1","1","1"
"260045","img/object_images/floss02.jpg","img/object_images/bag_pipes01.jpg","img/object_images/skate_board01.jpg","1","1","1","1","1","0","0.657419600058347","0.445120400050655","0.555462199961767","1","1","1","1","1","1","1","1","1"
"260045","img/object_images/skate_board01.jpg","img/object_images/floss02.jpg","img/object_images/fork02.jpg","1","1","0","0","1","0","0.555462199961767","0.657419600058347","0.62952580023557","1","1","1","1","1","1","1","1","2"
"260045","img/object_images/fork02.jpg","img/object_images/skate_board01.jpg","img/object_images/couch01.jpg","0","1","1","0","0","0","0.62952580023557","0.555462199961767","0.545189900090918","1","1","1","1","1","1","2","1","1"
"260045","img/object_images/couch01.jpg","img/object_images/fork02.jpg","img/object_images/book02.jpg","1","0","1","0","0","1","0.545189900090918","0.62952580023557","0.506259700050578","1","1","1","1","1","1","1","2","1"
"260045","img/object_images/book02.jpg","img/object_images/couch01.jpg","img/object_images/video_game03.jpg","1","1","1","1","0","1","0.506259700050578","0.545189900090918","0.57056500017643","1","1","1","1","1","1","1","1","1"
"260045","img/object_images/video_game03.jpg","img/object_images/book02.jpg","img/object_images/pen01.jpg","1","1","1","1","1","0","0.57056500017643","0.506259700050578","0.531066600000486","1","1","1","1","1","1","1","1","1"
"260045","img/object_images/pen01.jpg","img/object_images/video_game03.jpg","img/object_images/soap03.jpg","1","1","1","0","1","0","0.531066600000486","0.57056500017643","0.607812700094655","1","1","1","1","1","1","1","1","1"
"260045","img/object_images/soap03.jpg","img/object_images/pen01.jpg","img/object_images/shoes12.jpg","1","1","1","0","0","1","0.607812700094655","0.531066600000486","0.436363799963147","1","1","1","1","1","1","1","1","1"
"260045","img/object_images/shoes12.jpg","img/object_images/soap03.jpg","img/object_images/scarf01.jpg","1","1","1","1","0","1","0.436363799963147","0.607812700094655","0.459900600137189","1","1","1","1","1","1","1","1","1"
"260045","img/object_images/scarf01.jpg","img/object_images/shoes12.jpg","img/object_images/computer_mouse01.jpg","1","1","1","1","1","1","0.459900600137189","0.436363799963147","0.414379700087011","1","1","1","1","1","1","1","1","1"
"260045","img/object_images/computer_mouse01.jpg","img/object_images/scarf01.jpg","img/object_images/chair06.jpg","1","1","1","1","1","0","0.414379700087011","0.459900600137189","0.529539000010118","1","1","1","1","1","1","1","1","1"
"260045","img/object_images/chair06.jpg","img/object_images/computer_mouse01.jpg","img/object_images/clip04.jpg","1","1","1","0","1","1","0.529539000010118","0.414379700087011","0.443093500100076","1","1","1","1","1","1","1","1","1"
"260045","img/object_images/clip04.jpg","img/object_images/chair06.jpg","img/object_images/hair_brush01.jpg","1","1","1","1","0","1","0.443093500100076","0.529539000010118","0.485058800084516","1","1","1","1","1","1","1","1","1"
"260045","img/object_images/hair_brush01.jpg","img/object_images/clip04.jpg","img/object_images/toy01.jpg","1","1","1","1","1","1","0.485058800084516","0.443093500100076","0.58000750024803","1","1","1","1","1","1","1","1","1"
"260045","img/object_images/toy01.jpg","img/object_images/hair_brush01.jpg","img/object_images/box03.jpg","1","1","1","1","1","0","0.58000750024803","0.485058800084516","0.457847299985588","1","1","1","1","1","1","1","1","1"
"260045","img/object_images/box03.jpg","img/object_images/toy01.jpg","img/object_images/toothbrush01.jpg","1","1","1","0","1","0","0.457847299985588","0.58000750024803","0.779480200028047","1","1","1","1","1","1","1","1","1"
"260045","img/object_images/toothbrush01.jpg","img/object_images/box03.jpg",NA,"1","1",NA,"0","0",NA,"0.779480200028047","0.457847299985588",NA,"1","1",NA,"1","1",NA,"1","1",NA
"260045","img/object_images/key02.jpg",NA,"img/object_images/ice_tray03.jpg","1",NA,"1","1",NA,"1","0.50319750001654",NA,"0.447144000325352","1",NA,"1","1",NA,"1","1",NA,"1"
"260045","img/object_images/ice_tray03.jpg","img/object_images/key02.jpg","img/object_images/tool11.jpg","1","1","1","1","1","1","0.447144000325352","0.50319750001654","0.523506300058216","1","1","1","1","1","1","1","1","1"
"260045","img/object_images/tool11.jpg","img/object_images/ice_tray03.jpg","img/object_images/jewelry07.jpg","1","1","1","1","1","1","0.523506300058216","0.447144000325352","0.419887500116602","1","1","1","1","1","1","1","1","1"
"260045","img/object_images/jewelry07.jpg","img/object_images/tool11.jpg","img/object_images/satellite01.jpg","1","1","1","1","1","0","0.419887500116602","0.523506300058216","0.455158200114965","1","1","1","1","1","1","1","1","1"
"260045","img/object_images/satellite01.jpg","img/object_images/jewelry07.jpg","img/object_images/shower_head03.jpg","1","1","1","0","1","1","0.455158200114965","0.419887500116602","0.525614600162953","1","1","1","1","1","1","1","1","1"
"260045","img/object_images/shower_head03.jpg","img/object_images/satellite01.jpg","img/object_images/yarn02.jpg","1","1","1","1","0","0","0.525614600162953","0.455158200114965","0.552703900029883","1","1","1","1","1","1","1","1","1"
"260045","img/object_images/yarn02.jpg","img/object_images/shower_head03.jpg","img/object_images/bag06.jpg","1","1","1","0","1","1","0.552703900029883","0.525614600162953","0.479626900050789","1","1","1","1","1","1","1","1","1"
"260045","img/object_images/bag06.jpg","img/object_images/yarn02.jpg","img/object_images/rock03.jpg","1","1","1","1","0","0","0.479626900050789","0.552703900029883","0.61702960007824","1","1","1","1","1","1","1","1","1"
"260045","img/object_images/rock03.jpg","img/object_images/bag06.jpg","img/object_images/binoculars03.jpg","1","1","1","0","1","1","0.61702960007824","0.479626900050789","0.395385000156239","1","1","1","1","1","1","1","1","1"
"260045","img/object_images/binoculars03.jpg","img/object_images/rock03.jpg","img/object_images/ribbon01.jpg","1","1","1","1","0","0","0.395385000156239","0.61702960007824","0.437082699965686","1","1","1","1","1","1","1","1","1"
"260045","img/object_images/ribbon01.jpg","img/object_images/binoculars03.jpg","img/object_images/lemon_squeezer02.jpg","1","1","1","0","1","1","0.437082699965686","0.395385000156239","0.551788200158626","1","1","1","1","1","1","1","1","1"
"260045","img/object_images/lemon_squeezer02.jpg","img/object_images/ribbon01.jpg","img/object_images/WitchHat02.jpg","1","1","1","1","0","1","0.551788200158626","0.437082699965686","0.481143700191751","1","1","1","1","1","1","1","1","1"
"260045","img/object_images/WitchHat02.jpg","img/object_images/lemon_squeezer02.jpg","img/object_images/mask01.jpg","1","1","1","1","1","0","0.481143700191751","0.551788200158626","0.526304800063372","1","1","1","1","1","1","1","1","1"
"260045","img/object_images/mask01.jpg","img/object_images/WitchHat02.jpg","img/object_images/screwdriver01.jpg","1","1","1","0","1","0","0.526304800063372","0.481143700191751","0.482875700108707","1","1","1","1","1","1","1","1","1"
"260045","img/object_images/screwdriver01.jpg","img/object_images/mask01.jpg","img/object_images/slinky_toy01.jpg","1","1","1","0","0","1","0.482875700108707","0.526304800063372","0.576744300080463","1","1","1","1","1","1","1","1","1"
"260045","img/object_images/slinky_toy01.jpg","img/object_images/screwdriver01.jpg","img/object_images/razor01.jpg","1","1","1","1","0","0","0.576744300080463","0.482875700108707","0.51809939998202","1","1","1","1","1","1","1","1","1"
"260045","img/object_images/razor01.jpg","img/object_images/slinky_toy01.jpg","img/object_images/dress03.jpg","1","1","1","0","1","1","0.51809939998202","0.576744300080463","0.338347000069916","1","1","1","1","1","1","1","1","1"
"260045","img/object_images/dress03.jpg","img/object_images/razor01.jpg","img/object_images/belt01.jpg","1","1","0","1","0","0","0.338347000069916","0.51809939998202","0.392606300069019","1","1","1","1","1","1","1","1","1"
"260045","img/object_images/belt01.jpg","img/object_images/dress03.jpg","img/object_images/shoes10.jpg","0","1","0","0","1","0","0.392606300069019","0.338347000069916","0.452293700072914","1","1","1","1","1","1","1","1","1"
"260045","img/object_images/shoes10.jpg","img/object_images/belt01.jpg","img/object_images/cutting_board01.jpg","0","0","1","0","0","1","0.452293700072914","0.392606300069019","0.45791030023247","1","1","1","1","1","1","1","1","1"
"260045","img/object_images/cutting_board01.jpg","img/object_images/shoes10.jpg","img/object_images/chair04.jpg","1","0","1","1","0","1","0.45791030023247","0.452293700072914","0.438684600172564","1","1","1","1","1","1","1","1","1"
"260045","img/object_images/chair04.jpg","img/object_images/cutting_board01.jpg","img/object_images/cards01.jpg","1","1","1","1","1","0","0.438684600172564","0.45791030023247","0.403578100260347","1","1","1","1","1","1","1","1","1"
"260045","img/object_images/cards01.jpg","img/object_images/chair04.jpg","img/object_images/ladle02.jpg","1","1","1","0","1","0","0.403578100260347","0.438684600172564","0.556614000117406","1","1","1","1","1","1","1","1","1"
"260045","img/object_images/ladle02.jpg","img/object_images/cards01.jpg","img/object_images/hair_brush05.jpg","1","1","1","0","0","1","0.556614000117406","0.403578100260347","0.517469299957156","1","1","1","1","1","1","1","1","1"
"260045","img/object_images/hair_brush05.jpg","img/object_images/ladle02.jpg","img/object_images/toaster02.jpg","1","1","1","1","0","1","0.517469299957156","0.556614000117406","0.437751900171861","1","1","1","1","1","1","1","1","1"
"260045","img/object_images/toaster02.jpg","img/object_images/hair_brush05.jpg","img/object_images/jewel01.jpg","1","1","1","1","1","0","0.437751900171861","0.517469299957156","0.48836880014278","1","1","1","1","1","1","1","1","1"
"260045","img/object_images/jewel01.jpg","img/object_images/toaster02.jpg","img/object_images/fan05.jpg","1","1","1","0","1","0","0.48836880014278","0.437751900171861","0.547209300100803","1","1","1","1","1","1","1","1","1"
"260045","img/object_images/fan05.jpg","img/object_images/jewel01.jpg","img/object_images/car04.jpg","1","1","1","0","0","0","0.547209300100803","0.48836880014278","0.662518400000408","1","1","1","1","1","1","1","1","1"
"260045","img/object_images/car04.jpg","img/object_images/fan05.jpg","img/object_images/MeasuringCup01.jpg","1","1","1","0","0","1","0.662518400000408","0.547209300100803","0.587368300184608","1","1","1","1","1","1","1","1","1"
"260045","img/object_images/MeasuringCup01.jpg","img/object_images/car04.jpg","img/object_images/car03.jpg","1","1","1","1","0","0","0.587368300184608","0.662518400000408","0.498077500145882","1","1","1","1","1","1","1","1","1"
"260045","img/object_images/car03.jpg","img/object_images/MeasuringCup01.jpg","img/object_images/tv01.jpg","1","1","0","0","1","0","0.498077500145882","0.587368300184608","0.586663500173017","1","1","1","1","1","1","1","1","1"
"260045","img/object_images/tv01.jpg","img/object_images/car03.jpg",NA,"0","1",NA,"0","0",NA,"0.586663500173017","0.498077500145882",NA,"1","1",NA,"1","1",NA,"1","1",NA
"260045","img/object_images/vase02.jpg",NA,"img/object_images/tool13.jpg","1",NA,"1","1",NA,"1","0.522700400091708",NA,"0.464194300118834","1",NA,"1","1",NA,"1","1",NA,"1"
"260045","img/object_images/tool13.jpg","img/object_images/vase02.jpg","img/object_images/bag04.jpg","1","1","1","1","1","0","0.464194300118834","0.522700400091708","0.340036700014025","1","1","1","1","1","1","1","1","1"
"260045","img/object_images/bag04.jpg","img/object_images/tool13.jpg","img/object_images/clipboard01.jpg","1","1","1","0","1","1","0.340036700014025","0.464194300118834","0.568594600073993","1","1","1","1","1","1","1","1","1"
"260045","img/object_images/clipboard01.jpg","img/object_images/bag04.jpg","img/object_images/Confetti 01.jpg","1","1","1","1","0","0","0.568594600073993","0.340036700014025","0.567426800262183","1","1","1","1","1","1","1","1","1"
"260045","img/object_images/Confetti 01.jpg","img/object_images/clipboard01.jpg","img/object_images/cup01.jpg","1","1","1","0","1","0","0.567426800262183","0.568594600073993","0.463692800141871","1","1","1","1","1","1","1","1","1"
"260045","img/object_images/cup01.jpg","img/object_images/Confetti 01.jpg","img/object_images/perfume01.jpg","1","1","0","0","0","0","0.463692800141871","0.567426800262183","0.421372100012377","1","1","1","1","1","1","1","1","1"
"260045","img/object_images/perfume01.jpg","img/object_images/cup01.jpg","img/object_images/dust_pan01.jpg","0","1","1","0","0","1","0.421372100012377","0.463692800141871","0.408015500055626","1","1","1","1","1","1","1","1","1"
"260045","img/object_images/dust_pan01.jpg","img/object_images/perfume01.jpg","img/object_images/bow_tie03.jpg","1","0","1","1","0","1","0.408015500055626","0.421372100012377","0.479331000009552","1","1","1","1","1","1","1","1","1"
"260045","img/object_images/bow_tie03.jpg","img/object_images/dust_pan01.jpg","img/object_images/pan03.jpg","1","1","1","1","1","1","0.479331000009552","0.408015500055626","0.418278000084683","1","1","1","1","1","1","1","1","1"
"260045","img/object_images/pan03.jpg","img/object_images/bow_tie03.jpg","img/object_images/camera05.jpg","1","1","1","1","1","0","0.418278000084683","0.479331000009552","0.548972000135109","1","1","1","1","1","1","1","1","1"
"260045","img/object_images/camera05.jpg","img/object_images/pan03.jpg","img/object_images/floss01.jpg","1","1","1","0","1","1","0.548972000135109","0.418278000084683","0.50593820004724","1","1","1","1","1","1","1","1","1"
"260045","img/object_images/floss01.jpg","img/object_images/camera05.jpg","img/object_images/hat09.jpg","1","1","1","1","0","0","0.50593820004724","0.548972000135109","0.467745700152591","1","1","1","1","1","1","1","1","1"
"260045","img/object_images/hat09.jpg","img/object_images/floss01.jpg","img/object_images/pen06.jpg","1","1","1","0","1","0","0.467745700152591","0.50593820004724","0.49014770030044","1","1","1","1","1","1","1","1","1"
"260045","img/object_images/pen06.jpg","img/object_images/hat09.jpg","img/object_images/ruler02.jpg","1","1","1","0","0","1","0.49014770030044","0.467745700152591","0.414467600174248","1","1","1","1","1","1","1","1","1"
"260045","img/object_images/ruler02.jpg","img/object_images/pen06.jpg","img/object_images/hammer02.jpg","1","1","1","1","0","0","0.414467600174248","0.49014770030044","0.639489100081846","1","1","1","1","1","1","1","1","1"
"260045","img/object_images/hammer02.jpg","img/object_images/ruler02.jpg","img/object_images/lemon_squeezer01.jpg","1","1","1","0","1","1","0.639489100081846","0.414467600174248","0.417058800114319","1","1","1","1","1","1","1","1","1"
"260045","img/object_images/lemon_squeezer01.jpg","img/object_images/hammer02.jpg","img/object_images/tool20.jpg","1","1","1","1","0","0","0.417058800114319","0.639489100081846","0.449926900211722","1","1","1","1","1","1","1","1","1"
"260045","img/object_images/tool20.jpg","img/object_images/lemon_squeezer01.jpg","img/object_images/board01.jpg","1","1","0","0","1","1","0.449926900211722","0.417058800114319","0.500930499983951","1","1","1","1","1","1","1","1","1"
"260045","img/object_images/board01.jpg","img/object_images/tool20.jpg","img/object_images/Candle_Holder01.jpg","0","1","1","1","0","0","0.500930499983951","0.449926900211722","0.443368700100109","1","1","1","1","1","1","1","1","1"
"260045","img/object_images/Candle_Holder01.jpg","img/object_images/board01.jpg","img/object_images/spray_can01.jpg","1","0","1","0","1","0","0.443368700100109","0.500930499983951","0.513498899992555","1","1","1","1","1","1","1","1","1"
"260045","img/object_images/spray_can01.jpg","img/object_images/Candle_Holder01.jpg","img/object_images/razor02.jpg","1","1","1","0","0","1","0.513498899992555","0.443368700100109","0.497978300321847","1","1","1","1","1","1","1","1","1"
"260045","img/object_images/razor02.jpg","img/object_images/spray_can01.jpg","img/object_images/candle02.jpg","1","1","1","1","0","0","0.497978300321847","0.513498899992555","0.541469800053164","1","1","1","1","1","1","1","1","1"
"260045","img/object_images/candle02.jpg","img/object_images/razor02.jpg","img/object_images/duster01.jpg","1","1","1","0","1","0","0.541469800053164","0.497978300321847","0.471667900215834","1","1","1","1","1","1","1","1","1"
"260045","img/object_images/duster01.jpg","img/object_images/candle02.jpg","img/object_images/sign02.jpg","1","1","1","0","0","0","0.471667900215834","0.541469800053164","0.391788000240922","1","1","1","1","1","1","1","1","1"
"260045","img/object_images/sign02.jpg","img/object_images/duster01.jpg","img/object_images/knife01.jpg","1","1","1","0","0","1","0.391788000240922","0.471667900215834","0.42597039998509","1","1","1","1","1","1","1","1","1"
"260045","img/object_images/knife01.jpg","img/object_images/sign02.jpg","img/object_images/sink_filter01 (1).jpg","1","1","0","1","0","0","0.42597039998509","0.391788000240922","0.637497700052336","1","1","1","1","1","1","1","1","1"
"260045","img/object_images/sink_filter01 (1).jpg","img/object_images/knife01.jpg","img/object_images/office_supplies01.jpg","0","1","1","0","1","1","0.637497700052336","0.42597039998509","0.39303439995274","1","1","1","1","1","1","1","1","1"
"260045","img/object_images/office_supplies01.jpg","img/object_images/sink_filter01 (1).jpg","img/object_images/glasses03.jpg","1","0","1","1","0","0","0.39303439995274","0.637497700052336","0.369761700043455","1","1","1","1","1","1","1","1","1"
"260045","img/object_images/glasses03.jpg","img/object_images/office_supplies01.jpg","img/object_images/socks01.jpg","1","1","1","0","1","1","0.369761700043455","0.39303439995274","0.448719600215554","1","1","1","1","1","1","1","1","1"
"260045","img/object_images/socks01.jpg","img/object_images/glasses03.jpg","img/object_images/video_game02.jpg","1","1","1","1","0","1","0.448719600215554","0.369761700043455","0.403231299947947","1","1","1","1","1","1","1","1","1"
"260045","img/object_images/video_game02.jpg","img/object_images/socks01.jpg","img/object_images/hat13.jpg","1","1","1","1","1","1","0.403231299947947","0.448719600215554","0.579627300146967","1","1","1","1","1","1","1","1","1"
"260045","img/object_images/hat13.jpg","img/object_images/video_game02.jpg",NA,"1","1",NA,"1","1",NA,"0.579627300146967","0.403231299947947",NA,"1","1",NA,"1","1",NA,"1","1",NA
"260045","img/object_images/wagon_cart03.jpg",NA,"img/object_images/scoreboard01.jpg","1",NA,"1","1",NA,"1","0.499749400187284",NA,"0.606913800118491","1",NA,"1","1",NA,"1","1",NA,"1"
"260045","img/object_images/scoreboard01.jpg","img/object_images/wagon_cart03.jpg","img/object_images/bottle10.jpg","1","1","1","1","1","1","0.606913800118491","0.499749400187284","0.420587800210342","1","1","1","1","1","1","1","1","1"
"260045","img/object_images/bottle10.jpg","img/object_images/scoreboard01.jpg","img/object_images/audio_port01.jpg","1","1","1","1","1","1","0.420587800210342","0.606913800118491","0.353694899939001","1","1","1","1","1","1","1","1","1"
"260045","img/object_images/audio_port01.jpg","img/object_images/bottle10.jpg","img/object_images/boat_toy10.jpg","1","1","0","1","1","0","0.353694899939001","0.420587800210342","0.330460300203413","1","1","1","1","1","1","1","1","1"
"260045","img/object_images/boat_toy10.jpg","img/object_images/audio_port01.jpg","img/object_images/purse04.jpg","0","1","1","0","1","1","0.330460300203413","0.353694899939001","0.469864000100642","1","1","1","1","1","1","1","1","1"
"260045","img/object_images/purse04.jpg","img/object_images/boat_toy10.jpg","img/object_images/shoes07.jpg","1","0","1","1","0","0","0.469864000100642","0.330460300203413","0.509310699999332","1","1","1","1","1","1","1","1","1"
"260045","img/object_images/shoes07.jpg","img/object_images/purse04.jpg","img/object_images/bottle09.jpg","1","1","1","0","1","0","0.509310699999332","0.469864000100642","0.322772900108248","1","1","1","1","1","1","1","1","1"
"260045","img/object_images/bottle09.jpg","img/object_images/shoes07.jpg","img/object_images/knit01.jpg","1","1","1","0","0","0","0.322772900108248","0.509310699999332","0.443194300169125","1","1","1","1","1","1","1","1","1"
"260045","img/object_images/knit01.jpg","img/object_images/bottle09.jpg","img/object_images/bean_bag02.jpg","1","1","1","0","0","1","0.443194300169125","0.322772900108248","0.455587900010869","1","1","1","1","1","1","1","1","1"
"260045","img/object_images/bean_bag02.jpg","img/object_images/knit01.jpg","img/object_images/WoodBox01.jpg","1","1","1","1","0","0","0.455587900010869","0.443194300169125","0.448724200250581","1","1","1","1","1","1","1","1","1"
"260045","img/object_images/WoodBox01.jpg","img/object_images/bean_bag02.jpg","img/object_images/camera_lens01.jpg","1","1","1","0","1","1","0.448724200250581","0.455587900010869","0.556696500163525","1","1","1","1","1","1","1","1","1"
"260045","img/object_images/camera_lens01.jpg","img/object_images/WoodBox01.jpg","img/object_images/piggy_bank01.jpg","1","1","1","1","0","1","0.556696500163525","0.448724200250581","0.385706699918956","1","1","1","1","1","1","1","1","1"
"260045","img/object_images/piggy_bank01.jpg","img/object_images/camera_lens01.jpg","img/object_images/tie02.jpg","1","1","1","1","1","0","0.385706699918956","0.556696500163525","0.410031500039622","1","1","1","1","1","1","1","1","1"
"260045","img/object_images/tie02.jpg","img/object_images/piggy_bank01.jpg","img/object_images/fan02.jpg","1","1","1","0","1","0","0.410031500039622","0.385706699918956","0.430111899971962","1","1","1","1","1","1","1","1","1"
"260045","img/object_images/fan02.jpg","img/object_images/tie02.jpg","img/object_images/chair03.jpg","1","1","1","0","0","0","0.430111899971962","0.410031500039622","0.37672880012542","1","1","1","1","1","1","1","1","1"
"260045","img/object_images/chair03.jpg","img/object_images/fan02.jpg","img/object_images/cellphone03.jpg","1","1","0","0","0","0","0.37672880012542","0.430111899971962","0.433053500019014","1","1","1","1","1","1","1","1","1"
"260045","img/object_images/cellphone03.jpg","img/object_images/chair03.jpg","img/object_images/perfume02.jpg","0","1","0","0","0","0","0.433053500019014","0.37672880012542","0.393982600187883","1","1","1","1","1","1","1","1","1"
"260045","img/object_images/perfume02.jpg","img/object_images/cellphone03.jpg","img/object_images/bicycle01.jpg","0","0","1","0","0","1","0.393982600187883","0.433053500019014","0.517818300053477","1","1","1","1","1","1","1","1","1"
"260045","img/object_images/bicycle01.jpg","img/object_images/perfume02.jpg","img/object_images/dog_leash01.jpg","1","0","0","1","0","0","0.517818300053477","0.393982600187883","0.516835700022057","1","1","1","1","1","1","1","1","1"
"260045","img/object_images/dog_leash01.jpg","img/object_images/bicycle01.jpg","img/object_images/flask01.jpg","0","1","1","0","1","0","0.516835700022057","0.517818300053477","0.35449910024181","1","1","1","1","1","1","1","1","1"
"260045","img/object_images/flask01.jpg","img/object_images/dog_leash01.jpg","img/object_images/bottle02.jpg","1","0","1","0","0","1","0.35449910024181","0.516835700022057","0.350698700174689","1","1","1","1","1","1","1","1","1"
"260045","img/object_images/bottle02.jpg","img/object_images/flask01.jpg","img/object_images/tool19.jpg","1","1","1","1","0","1","0.350698700174689","0.35449910024181","0.397143500158563","1","1","1","1","1","1","1","1","1"
"260045","img/object_images/tool19.jpg","img/object_images/bottle02.jpg","img/object_images/boat02.jpg","1","1","1","1","1","1","0.397143500158563","0.350698700174689","0.595580900087953","1","1","1","1","1","1","1","1","1"
"260045","img/object_images/boat02.jpg","img/object_images/tool19.jpg","img/object_images/water_scooter01.jpg","1","1","1","1","1","1","0.595580900087953","0.397143500158563","0.313601000001654","1","1","1","1","1","1","1","1","1"
"260045","img/object_images/water_scooter01.jpg","img/object_images/boat02.jpg","img/object_images/hat06.jpg","1","1","0","1","1","0","0.313601000001654","0.595580900087953","0.321014800108969","1","1","1","1","1","1","1","1","1"
"260045","img/object_images/hat06.jpg","img/object_images/water_scooter01.jpg","img/object_images/coloring_pencil02.jpg","0","1","1","0","1","0","0.321014800108969","0.313601000001654","0.432310900185257","1","1","1","1","1","1","1","1","1"
"260045","img/object_images/coloring_pencil02.jpg","img/object_images/hat06.jpg","img/object_images/toaster01.jpg","1","0","1","0","0","1","0.432310900185257","0.321014800108969","0.311469400068745","1","1","1","1","1","1","1","1","1"
"260045","img/object_images/toaster01.jpg","img/object_images/coloring_pencil02.jpg","img/object_images/helmet04.jpg","1","1","1","1","0","1","0.311469400068745","0.432310900185257","0.327518600039184","1","1","1","1","1","1","1","1","1"
"260045","img/object_images/helmet04.jpg","img/object_images/toaster01.jpg","img/object_images/hot_air_balloon02.jpg","1","1","1","1","1","0","0.327518600039184","0.311469400068745","0.425586300203577","1","1","1","1","1","1","1","1","1"
"260045","img/object_images/hot_air_balloon02.jpg","img/object_images/helmet04.jpg","img/object_images/toilet_paper_dispenser01.jpg","1","1","1","0","1","1","0.425586300203577","0.327518600039184","0.388553400058299","1","1","1","1","1","1","1","1","1"
"260045","img/object_images/toilet_paper_dispenser01.jpg","img/object_images/hot_air_balloon02.jpg","img/object_images/pen05.jpg","1","1","0","1","0","0","0.388553400058299","0.425586300203577","0.485249900259078","1","1","1","1","1","1","1","1","1"
"260045","img/object_images/pen05.jpg","img/object_images/toilet_paper_dispenser01.jpg",NA,"0","1",NA,"0","1",NA,"0.485249900259078","0.388553400058299",NA,"1","1",NA,"1","1",NA,"1","1",NA
"260045","img/object_images/coloring_pencil01.jpg",NA,"img/object_images/hammer01.jpg","1",NA,"1","1",NA,"0","0.859234699979424",NA,"0.625171100255102","1",NA,"1","1",NA,"1","1",NA,"1"
"260045","img/object_images/hammer01.jpg","img/object_images/coloring_pencil01.jpg","img/object_images/Screws01.jpg","1","1","1","0","1","1","0.625171100255102","0.859234699979424","0.52662320015952","1","1","1","1","1","1","1","1","1"
"260045","img/object_images/Screws01.jpg","img/object_images/hammer01.jpg","img/object_images/fork03.jpg","1","1","1","1","0","1","0.52662320015952","0.625171100255102","0.46840970008634","1","1","1","1","1","1","1","1","1"
"260045","img/object_images/fork03.jpg","img/object_images/Screws01.jpg","img/object_images/paper_cup01.jpg","1","1","1","1","1","0","0.46840970008634","0.52662320015952","0.41534910001792","1","1","1","1","1","1","1","1","1"
"260045","img/object_images/paper_cup01.jpg","img/object_images/fork03.jpg","img/object_images/bow_tie02.jpg","1","1","1","0","1","0","0.41534910001792","0.46840970008634","0.546008200151846","1","1","1","1","1","1","1","1","1"
"260045","img/object_images/bow_tie02.jpg","img/object_images/paper_cup01.jpg","img/object_images/couch03.jpg","1","1","0","0","0","0","0.546008200151846","0.41534910001792","0.360846000025049","1","1","1","1","1","1","1","1","1"
"260045","img/object_images/couch03.jpg","img/object_images/bow_tie02.jpg","img/object_images/Witchhat01.jpg","0","1","1","0","0","1","0.360846000025049","0.546008200151846","0.416749000083655","1","1","1","1","1","1","1","1","1"
"260045","img/object_images/Witchhat01.jpg","img/object_images/couch03.jpg","img/object_images/pitcher02.jpg","1","0","1","1","0","1","0.416749000083655","0.360846000025049","0.446199900005013","1","1","1","1","1","1","1","1","1"
"260045","img/object_images/pitcher02.jpg","img/object_images/Witchhat01.jpg","img/object_images/gift_box02.jpg","1","1","1","1","1","1","0.446199900005013","0.416749000083655","0.437265200074762","1","1","1","1","1","1","1","1","1"
"260045","img/object_images/gift_box02.jpg","img/object_images/pitcher02.jpg","img/object_images/lawn_mower01.jpg","1","1","1","1","1","1","0.437265200074762","0.446199900005013","0.443729100050405","1","1","1","1","1","1","1","1","1"
"260045","img/object_images/lawn_mower01.jpg","img/object_images/gift_box02.jpg","img/object_images/sleeping_bag01.jpg","1","1","1","1","1","0","0.443729100050405","0.437265200074762","0.412162400083616","1","1","1","1","1","1","1","1","1"
"260045","img/object_images/sleeping_bag01.jpg","img/object_images/lawn_mower01.jpg","img/object_images/balloon01.jpg","1","1","1","0","1","0","0.412162400083616","0.443729100050405","0.560920600080863","1","1","1","1","1","1","1","1","1"
"260045","img/object_images/balloon01.jpg","img/object_images/sleeping_bag01.jpg","img/object_images/lock04.jpg","1","1","0","0","0","1","0.560920600080863","0.412162400083616","0.290359000209719","1","1","1","1","1","1","1","1","1"
"260045","img/object_images/lock04.jpg","img/object_images/balloon01.jpg","img/object_images/clip02.jpg","0","1","1","1","0","1","0.290359000209719","0.560920600080863","0.433697300031781","1","1","1","1","1","1","1","1","1"
"260045","img/object_images/clip02.jpg","img/object_images/lock04.jpg","img/object_images/wallet02.jpg","1","0","1","1","1","1","0.433697300031781","0.290359000209719","0.450606500264257","1","1","1","1","1","1","1","1","1"
"260045","img/object_images/wallet02.jpg","img/object_images/clip02.jpg","img/object_images/gift_box03.jpg","1","1","0","1","1","0","0.450606500264257","0.433697300031781","0.442081400193274","1","1","1","1","1","1","1","1","1"
"260045","img/object_images/gift_box03.jpg","img/object_images/wallet02.jpg","img/object_images/dresser04.jpg","0","1","0","0","1","0","0.442081400193274","0.450606500264257","0.532935400027782","1","1","1","1","1","1","1","1","1"
"260045","img/object_images/dresser04.jpg","img/object_images/gift_box03.jpg","img/object_images/socks02.jpg","0","0","1","0","0","0","0.532935400027782","0.442081400193274","0.442679099971429","1","1","1","1","1","1","1","1","1"
"260045","img/object_images/socks02.jpg","img/object_images/dresser04.jpg","img/object_images/handkerchief01.jpg","1","0","1","0","0","0","0.442679099971429","0.532935400027782","0.428356600226834","1","1","1","1","1","1","1","1","1"
"260045","img/object_images/handkerchief01.jpg","img/object_images/socks02.jpg","img/object_images/camera07.jpg","1","1","1","0","0","1","0.428356600226834","0.442679099971429","0.545837600016966","1","1","1","1","1","1","1","1","1"
"260045","img/object_images/camera07.jpg","img/object_images/handkerchief01.jpg","img/object_images/funnel01.jpg","1","1","1","1","0","0","0.545837600016966","0.428356600226834","0.532064000144601","1","1","1","1","1","1","1","1","1"
"260045","img/object_images/funnel01.jpg","img/object_images/camera07.jpg","img/object_images/bath_tub01.jpg","1","1","1","0","1","0","0.532064000144601","0.545837600016966","0.623364600120112","1","1","1","1","1","1","1","1","1"
"260045","img/object_images/bath_tub01.jpg","img/object_images/funnel01.jpg","img/object_images/bow_tie01.jpg","1","1","0","0","0","0","0.623364600120112","0.532064000144601","0.427467599976808","1","1","1","1","1","1","1","1","1"
"260045","img/object_images/bow_tie01.jpg","img/object_images/bath_tub01.jpg","img/object_images/golf_ball03.jpg","0","1","1","0","0","1","0.427467599976808","0.623364600120112","0.593291100347415","1","1","1","1","1","1","1","1","1"
"260045","img/object_images/golf_ball03.jpg","img/object_images/bow_tie01.jpg","img/object_images/gift_box01.jpg","1","0","1","1","0","1","0.593291100347415","0.427467599976808","0.457538800081238","1","1","1","1","1","1","1","1","1"
"260045","img/object_images/gift_box01.jpg","img/object_images/golf_ball03.jpg","img/object_images/measuring_tape02.jpg","1","1","1","1","1","1","0.457538800081238","0.593291100347415","0.517211999977008","1","1","1","1","1","1","1","1","1"
"260045","img/object_images/measuring_tape02.jpg","img/object_images/gift_box01.jpg","img/object_images/jacket03.jpg","1","1","1","1","1","0","0.517211999977008","0.457538800081238","0.523944200249389","1","1","1","1","1","1","1","1","1"
"260045","img/object_images/jacket03.jpg","img/object_images/measuring_tape02.jpg","img/object_images/grater01.jpg","1","1","1","0","1","1","0.523944200249389","0.517211999977008","0.431657900102436","1","1","1","1","1","1","1","1","1"
"260045","img/object_images/grater01.jpg","img/object_images/jacket03.jpg","img/object_images/ironing_table01.jpg","1","1","1","1","0","0","0.431657900102436","0.523944200249389","0.560488800052553","1","1","1","1","1","1","1","1","1"
"260045","img/object_images/ironing_table01.jpg","img/object_images/grater01.jpg","img/object_images/vga_port 01.jpg","1","1","1","0","1","0","0.560488800052553","0.431657900102436","0.454075200250372","1","1","1","1","1","1","1","1","1"
"260045","img/object_images/vga_port 01.jpg","img/object_images/ironing_table01.jpg","img/object_images/jewelry01.jpg","1","1","1","0","0","1","0.454075200250372","0.560488800052553","0.534905600128695","1","1","1","1","1","1","1","1","1"
"260045","img/object_images/jewelry01.jpg","img/object_images/vga_port 01.jpg",NA,"1","1",NA,"1","0",NA,"0.534905600128695","0.454075200250372",NA,"1","1",NA,"1","1",NA,"1","1",NA
"260045","img/object_images/dresser03.jpg",NA,"img/object_images/backpack01.jpg","0",NA,"1","0",NA,"0","0.921060800086707",NA,"0.592328800121322","1",NA,"1","1",NA,"1","1",NA,"1"
"260045","img/object_images/backpack01.jpg","img/object_images/dresser03.jpg","img/object_images/tool18.jpg","1","0","1","0","0","0","0.592328800121322","0.921060800086707","0.571380500216037","1","1","1","1","1","1","1","1","1"
"260045","img/object_images/tool18.jpg","img/object_images/backpack01.jpg","img/object_images/hoverboard01.jpg","1","1","1","0","0","0","0.571380500216037","0.592328800121322","0.471377900103107","1","1","1","1","1","1","1","1","1"
"260045","img/object_images/hoverboard01.jpg","img/object_images/tool18.jpg","img/object_images/Statue01.jpg","1","1","1","0","0","1","0.471377900103107","0.571380500216037","0.460498800035566","1","1","1","1","1","1","1","1","1"
"260045","img/object_images/Statue01.jpg","img/object_images/hoverboard01.jpg","img/object_images/stereo02.jpg","1","1","0","1","0","0","0.460498800035566","0.471377900103107","0.373150000115856","1","1","1","1","1","1","1","1","1"
"260045","img/object_images/stereo02.jpg","img/object_images/Statue01.jpg","img/object_images/jacket04.jpg","0","1","1","0","1","0","0.373150000115856","0.460498800035566","0.490380400093272","1","1","1","1","1","1","1","1","1"
"260045","img/object_images/jacket04.jpg","img/object_images/stereo02.jpg","img/object_images/hand_grip_exerciser01.jpg","1","0","1","0","0","0","0.490380400093272","0.373150000115856","0.545566400047392","1","1","1","1","1","1","1","1","1"
"260045","img/object_images/hand_grip_exerciser01.jpg","img/object_images/jacket04.jpg","img/object_images/blender02.jpg","1","1","1","0","0","1","0.545566400047392","0.490380400093272","0.72096800012514","1","1","1","1","1","1","1","1","1"
"260045","img/object_images/blender02.jpg","img/object_images/hand_grip_exerciser01.jpg","img/object_images/kite01.jpg","1","1","1","1","0","1","0.72096800012514","0.545566400047392","0.445180300157517","1","1","1","1","1","1","1","1","1"
"260045","img/object_images/kite01.jpg","img/object_images/blender02.jpg","img/object_images/basket04.jpg","1","1","1","1","1","1","0.445180300157517","0.72096800012514","0.604912500130013","1","1","1","1","1","1","1","1","1"
"260045","img/object_images/basket04.jpg","img/object_images/kite01.jpg","img/object_images/gloves02.jpg","1","1","0","1","1","0","0.604912500130013","0.445180300157517","0.448636800050735","1","1","1","1","1","1","1","1","1"
"260045","img/object_images/gloves02.jpg","img/object_images/basket04.jpg","img/object_images/knit04.jpg","0","1","1","0","1","1","0.448636800050735","0.604912500130013","0.446856900118291","1","1","1","1","1","1","1","1","1"
"260045","img/object_images/knit04.jpg","img/object_images/gloves02.jpg","img/object_images/shower_head01.jpg","1","0","1","1","0","1","0.446856900118291","0.448636800050735","0.428792400052771","1","1","1","1","1","1","1","1","1"
"260045","img/object_images/shower_head01.jpg","img/object_images/knit04.jpg","img/object_images/keyboard02.jpg","1","1","1","1","1","1","0.428792400052771","0.446856900118291","0.461429000133649","1","1","1","1","1","1","1","1","1"
"260045","img/object_images/keyboard02.jpg","img/object_images/shower_head01.jpg","img/object_images/paper_cup02.jpg","1","1","1","1","1","1","0.461429000133649","0.428792400052771","0.371181299909949","1","1","1","1","1","1","1","1","1"
"260045","img/object_images/paper_cup02.jpg","img/object_images/keyboard02.jpg","img/object_images/bottle07.jpg","1","1","1","1","1","1","0.371181299909949","0.461429000133649","0.426706900121644","1","1","1","1","1","1","1","1","1"
"260045","img/object_images/bottle07.jpg","img/object_images/paper_cup02.jpg","img/object_images/curtain02.jpg","1","1","1","1","1","0","0.426706900121644","0.371181299909949","0.73413830017671","1","1","1","1","1","1","1","1","1"
"260045","img/object_images/curtain02.jpg","img/object_images/bottle07.jpg","img/object_images/camera03.jpg","1","1","1","0","1","0","0.73413830017671","0.426706900121644","0.52163020032458","1","1","1","1","1","1","1","1","1"
"260045","img/object_images/camera03.jpg","img/object_images/curtain02.jpg","img/object_images/mail_box01.jpg","1","1","0","0","0","0","0.52163020032458","0.73413830017671","0.455785900121555","1","1","1","1","1","1","1","1","1"
"260045","img/object_images/mail_box01.jpg","img/object_images/camera03.jpg","img/object_images/knife02.jpg","0","1","0","0","0","0","0.455785900121555","0.52163020032458","0.413722899975255","1","1","1","1","1","1","1","1","1"
"260045","img/object_images/knife02.jpg","img/object_images/mail_box01.jpg","img/object_images/phone02.jpg","0","0","1","0","0","1","0.413722899975255","0.455785900121555","0.458005900261924","1","1","1","1","1","1","1","1","1"
"260045","img/object_images/phone02.jpg","img/object_images/knife02.jpg","img/object_images/flashlight03.jpg","1","0","1","1","0","0","0.458005900261924","0.413722899975255","0.568914300063625","1","1","1","1","1","1","1","1","1"
"260045","img/object_images/flashlight03.jpg","img/object_images/phone02.jpg","img/object_images/remover01.jpg","1","1","1","0","1","1","0.568914300063625","0.458005900261924","0.466635100077838","1","1","1","1","1","1","1","1","1"
"260045","img/object_images/remover01.jpg","img/object_images/flashlight03.jpg","img/object_images/video_game01.jpg","1","1","1","1","0","1","0.466635100077838","0.568914300063625","0.38707820000127","1","1","1","1","1","1","1","1","1"
"260045","img/object_images/video_game01.jpg","img/object_images/remover01.jpg","img/object_images/knit03.jpg","1","1","1","1","1","1","0.38707820000127","0.466635100077838","0.580648500006646","1","1","1","1","1","1","1","1","1"
"260045","img/object_images/knit03.jpg","img/object_images/video_game01.jpg","img/object_images/car01.jpg","1","1","1","1","1","1","0.580648500006646","0.38707820000127","0.472409300273284","1","1","1","1","1","1","1","1","1"
"260045","img/object_images/car01.jpg","img/object_images/knit03.jpg","img/object_images/sponge03.jpg","1","1","1","1","1","1","0.472409300273284","0.580648500006646","0.42425819998607","1","1","1","1","1","1","1","1","1"
"260045","img/object_images/sponge03.jpg","img/object_images/car01.jpg","img/object_images/boat04.jpg","1","1","0","1","1","0","0.42425819998607","0.472409300273284","0.567919900175184","1","1","1","1","1","1","1","1","1"
"260045","img/object_images/boat04.jpg","img/object_images/sponge03.jpg","img/object_images/matches02.jpg","0","1","1","0","1","0","0.567919900175184","0.42425819998607","0.350773300044239","1","1","1","1","1","1","1","1","1"
"260045","img/object_images/matches02.jpg","img/object_images/boat04.jpg","img/object_images/remote_controller01.jpg","1","0","1","0","0","1","0.350773300044239","0.567919900175184","0.59246200020425","1","1","1","1","1","1","1","1","1"
"260045","img/object_images/remote_controller01.jpg","img/object_images/matches02.jpg","img/object_images/toy08.jpg","1","1","1","1","0","0","0.59246200020425","0.350773300044239","0.477660200092942","1","1","1","1","1","1","1","1","1"
"260045","img/object_images/toy08.jpg","img/object_images/remote_controller01.jpg",NA,"1","1",NA,"0","1",NA,"0.477660200092942","0.59246200020425",NA,"1","1",NA,"1","1",NA,"1","1",NA
"260045","img/object_images/Traffic Sign 01.jpg",NA,"img/object_images/pan01.jpg","1",NA,"1","0",NA,"1","0.648943100124598",NA,"0.43432390014641","1",NA,"1","1",NA,"1","1",NA,"1"
"260045","img/object_images/pan01.jpg","img/object_images/Traffic Sign 01.jpg","img/object_images/gift_box04.jpg","1","1","1","1","0","0","0.43432390014641","0.648943100124598","0.512849200051278","1","1","1","1","1","1","1","1","1"
"260045","img/object_images/gift_box04.jpg","img/object_images/pan01.jpg","img/object_images/handcuffs01.jpg","1","1","1","0","1","0","0.512849200051278","0.43432390014641","0.519985700258985","1","1","1","1","1","1","1","1","1"
"260045","img/object_images/handcuffs01.jpg","img/object_images/gift_box04.jpg","img/object_images/hair_clips01.jpg","1","1","1","0","0","1","0.519985700258985","0.512849200051278","0.432938700076193","1","1","1","1","1","1","1","1","1"
"260045","img/object_images/hair_clips01.jpg","img/object_images/handcuffs01.jpg","img/object_images/basket02.jpg","1","1","0","1","0","0","0.432938700076193","0.519985700258985","0.476479400182143","1","1","1","1","1","1","1","1","1"
"260045","img/object_images/basket02.jpg","img/object_images/hair_clips01.jpg","img/object_images/tool08.jpg","0","1","1","0","1","0","0.476479400182143","0.432938700076193","0.597291500074789","1","1","1","1","1","1","1","1","1"
"260045","img/object_images/tool08.jpg","img/object_images/basket02.jpg","img/object_images/speaker01.jpg","1","0","1","0","0","1","0.597291500074789","0.476479400182143","0.515229000011459","1","1","1","1","1","1","1","1","1"
"260045","img/object_images/speaker01.jpg","img/object_images/tool08.jpg","img/object_images/cellphone02.jpg","1","1","1","1","0","1","0.515229000011459","0.597291500074789","0.403431500075385","1","1","1","1","1","1","1","1","1"
"260045","img/object_images/cellphone02.jpg","img/object_images/speaker01.jpg","img/object_images/bicycle_lock01.jpg","1","1","1","1","1","0","0.403431500075385","0.515229000011459","0.587663700105622","1","1","1","1","1","1","1","1","1"
"260045","img/object_images/bicycle_lock01.jpg","img/object_images/cellphone02.jpg","img/object_images/fire_extinguisher01.jpg","1","1","0","0","1","0","0.587663700105622","0.403431500075385","0.37853470002301","1","1","1","1","1","1","1","1","1"
"260045","img/object_images/fire_extinguisher01.jpg","img/object_images/bicycle_lock01.jpg","img/object_images/exfoliater_brush01.jpg","0","1","1","0","0","0","0.37853470002301","0.587663700105622","0.44271850027144","1","1","1","1","1","1","1","1","1"
"260045","img/object_images/exfoliater_brush01.jpg","img/object_images/fire_extinguisher01.jpg","img/object_images/Pottery01.jpg","1","0","1","0","0","0","0.44271850027144","0.37853470002301","0.655239200219512","1","1","1","1","1","1","1","1","1"
"260045","img/object_images/Pottery01.jpg","img/object_images/exfoliater_brush01.jpg","img/object_images/TrashCan02.jpg","1","1","1","0","0","1","0.655239200219512","0.44271850027144","0.479623200139031","1","1","1","1","1","1","1","1","1"
"260045","img/object_images/TrashCan02.jpg","img/object_images/Pottery01.jpg","img/object_images/yo_yo01.jpg","1","1","0","1","0","0","0.479623200139031","0.655239200219512","0.359369200188667","1","1","1","1","1","1","1","1","1"
"260045","img/object_images/yo_yo01.jpg","img/object_images/TrashCan02.jpg","img/object_images/jewelry09.jpg","0","1","1","0","1","1","0.359369200188667","0.479623200139031","0.588580900104716","1","1","1","1","1","1","1","1","1"
"260045","img/object_images/jewelry09.jpg","img/object_images/yo_yo01.jpg","img/object_images/blanket01.jpg","1","0","1","1","0","1","0.588580900104716","0.359369200188667","0.457767100073397","1","1","1","1","1","1","1","1","1"
"260045","img/object_images/blanket01.jpg","img/object_images/jewelry09.jpg","img/object_images/Sprayer01.jpg","1","1","1","1","1","0","0.457767100073397","0.588580900104716","0.521864800015464","1","1","1","1","1","1","1","1","1"
"260045","img/object_images/Sprayer01.jpg","img/object_images/blanket01.jpg","img/object_images/book01.jpg","1","1","1","0","1","1","0.521864800015464","0.457767100073397","0.500475900247693","1","1","1","1","1","1","1","1","1"
"260045","img/object_images/book01.jpg","img/object_images/Sprayer01.jpg","img/object_images/Kitchen_Towel.jpg","1","1","1","1","0","0","0.500475900247693","0.521864800015464","0.494711600011215","1","1","1","1","1","1","1","1","1"
"260045","img/object_images/Kitchen_Towel.jpg","img/object_images/book01.jpg","img/object_images/colander01.jpg","1","1","1","0","1","0","0.494711600011215","0.500475900247693","0.544946300098673","1","1","1","1","1","1","1","1","1"
"260045","img/object_images/colander01.jpg","img/object_images/Kitchen_Towel.jpg","img/object_images/tool07.jpg","1","1","1","0","0","0","0.544946300098673","0.494711600011215","0.466794300125912","1","1","1","1","1","1","1","1","1"
"260045","img/object_images/tool07.jpg","img/object_images/colander01.jpg","img/object_images/ring03.jpg","1","1","1","0","0","1","0.466794300125912","0.544946300098673","0.424788500182331","1","1","1","1","1","1","1","1","1"
"260045","img/object_images/ring03.jpg","img/object_images/tool07.jpg","img/object_images/faucet01.jpg","1","1","1","1","0","0","0.424788500182331","0.466794300125912","0.438281300244853","1","1","1","1","1","1","1","1","1"
"260045","img/object_images/faucet01.jpg","img/object_images/ring03.jpg","img/object_images/lighter01.jpg","1","1","1","0","1","1","0.438281300244853","0.424788500182331","0.515267500188202","1","1","1","1","1","1","1","1","1"
"260045","img/object_images/lighter01.jpg","img/object_images/faucet01.jpg","img/object_images/glasses07.jpg","1","1","1","1","0","1","0.515267500188202","0.438281300244853","0.493715299991891","1","1","1","1","1","1","1","1","1"
"260045","img/object_images/glasses07.jpg","img/object_images/lighter01.jpg","img/object_images/projector01.jpg","1","1","0","1","1","0","0.493715299991891","0.515267500188202","0.318403600016609","1","1","1","1","1","1","1","1","1"
"260045","img/object_images/projector01.jpg","img/object_images/glasses07.jpg","img/object_images/purse01.jpg","0","1","1","0","1","1","0.318403600016609","0.493715299991891","0.406687299953774","1","1","1","1","1","1","1","1","1"
"260045","img/object_images/purse01.jpg","img/object_images/projector01.jpg","img/object_images/glasses06.jpg","1","0","1","1","0","1","0.406687299953774","0.318403600016609","0.558457500068471","1","1","1","1","1","1","1","1","1"
"260045","img/object_images/glasses06.jpg","img/object_images/purse01.jpg","img/object_images/cup03.jpg","1","1","1","1","1","1","0.558457500068471","0.406687299953774","0.459962800145149","1","1","1","1","1","1","1","1","1"
"260045","img/object_images/cup03.jpg","img/object_images/glasses06.jpg","img/object_images/hole_puncher01.jpg","1","1","1","1","1","1","0.459962800145149","0.558457500068471","0.39413890009746","1","1","1","1","1","1","1","1","1"
"260045","img/object_images/hole_puncher01.jpg","img/object_images/cup03.jpg","img/object_images/tray01.jpg","1","1","1","1","1","1","0.39413890009746","0.459962800145149","0.497954400023445","1","1","1","1","1","1","1","1","1"
"260045","img/object_images/tray01.jpg","img/object_images/hole_puncher01.jpg",NA,"1","1",NA,"1","1",NA,"0.497954400023445","0.39413890009746",NA,"1","1",NA,"1","1",NA,"1","1",NA
"260045","img/object_images/trash_can03.jpg",NA,"img/object_images/hair_brush02.jpg","1",NA,"0","1",NA,"0","0.606766600161791",NA,"0.363883400103077","1",NA,"1","1",NA,"1","1",NA,"1"
"260045","img/object_images/hair_brush02.jpg","img/object_images/trash_can03.jpg","img/object_images/spatula02.jpg","0","1","1","0","1","1","0.363883400103077","0.606766600161791","0.454993499908596","1","1","1","1","1","1","1","1","1"
"260045","img/object_images/spatula02.jpg","img/object_images/hair_brush02.jpg","img/object_images/robe01.jpg","1","0","1","1","0","1","0.454993499908596","0.363883400103077","0.40479340031743","1","1","1","1","1","1","1","1","1"
"260045","img/object_images/robe01.jpg","img/object_images/spatula02.jpg","img/object_images/chess_piece01.jpg","1","1","1","1","1","0","0.40479340031743","0.454993499908596","0.512080400018021","1","1","1","1","1","1","1","1","1"
"260045","img/object_images/chess_piece01.jpg","img/object_images/robe01.jpg","img/object_images/helmet02.jpg","1","1","1","0","1","0","0.512080400018021","0.40479340031743","0.366274100029841","1","1","1","1","1","1","1","1","1"
"260045","img/object_images/helmet02.jpg","img/object_images/chess_piece01.jpg","img/object_images/jewel03.jpg","1","1","1","0","0","1","0.366274100029841","0.512080400018021","0.563417800003663","1","1","1","1","1","1","1","1","1"
"260045","img/object_images/jewel03.jpg","img/object_images/helmet02.jpg","img/object_images/fan04.jpg","1","1","1","1","0","0","0.563417800003663","0.366274100029841","0.410655899904668","1","1","1","1","1","1","1","1","1"
"260045","img/object_images/fan04.jpg","img/object_images/jewel03.jpg","img/object_images/lock01.jpg","1","1","1","0","1","0","0.410655899904668","0.563417800003663","0.411654900060967","1","1","1","1","1","1","1","1","1"
"260045","img/object_images/lock01.jpg","img/object_images/fan04.jpg","img/object_images/towels01.jpg","1","1","1","0","0","0","0.411654900060967","0.410655899904668","0.44474590010941","1","1","1","1","1","1","1","1","1"
"260045","img/object_images/towels01.jpg","img/object_images/lock01.jpg","img/object_images/gift_box05.jpg","1","1","1","0","0","0","0.44474590010941","0.411654900060967","0.448816600255668","1","1","1","1","1","1","1","1","1"
"260045","img/object_images/gift_box05.jpg","img/object_images/towels01.jpg","img/object_images/laptop01.jpg","1","1","1","0","0","0","0.448816600255668","0.44474590010941","0.54963710019365","1","1","1","1","1","1","1","1","1"
"260045","img/object_images/laptop01.jpg","img/object_images/gift_box05.jpg","img/object_images/Lint_Roller02.jpg","1","1","0","0","0","0","0.54963710019365","0.448816600255668","0.328373899916187","1","1","1","1","1","1","1","1","1"
"260045","img/object_images/Lint_Roller02.jpg","img/object_images/laptop01.jpg","img/object_images/laptop03.jpg","0","1","1","0","0","1","0.328373899916187","0.54963710019365","0.397958400193602","1","1","1","1","1","1","1","1","1"
"260045","img/object_images/laptop03.jpg","img/object_images/Lint_Roller02.jpg","img/object_images/backpack03.jpg","1","0","1","1","0","1","0.397958400193602","0.328373899916187","0.366578100016341","1","1","1","1","1","1","1","1","1"
"260045","img/object_images/backpack03.jpg","img/object_images/laptop03.jpg","img/object_images/accardion01.jpg","1","1","1","1","1","1","0.366578100016341","0.397958400193602","0.565903300186619","1","1","1","1","1","1","1","1","1"
"260045","img/object_images/accardion01.jpg","img/object_images/backpack03.jpg","img/object_images/stove01.jpg","1","1","1","1","1","0","0.565903300186619","0.366578100016341","0.493771300185472","1","1","1","1","1","1","1","1","1"
"260045","img/object_images/stove01.jpg","img/object_images/accardion01.jpg","img/object_images/pitcher05.jpg","1","1","1","0","1","0","0.493771300185472","0.565903300186619","0.408471300266683","1","1","1","1","1","1","1","1","1"
"260045","img/object_images/pitcher05.jpg","img/object_images/stove01.jpg","img/object_images/bucket02.jpg","1","1","1","0","0","1","0.408471300266683","0.493771300185472","0.427104500122368","1","1","1","1","1","1","1","1","1"
"260045","img/object_images/bucket02.jpg","img/object_images/pitcher05.jpg","img/object_images/Vest02.jpg","1","1","0","1","0","0","0.427104500122368","0.408471300266683","0.427673800149933","1","1","1","1","1","1","1","1","1"
"260045","img/object_images/Vest02.jpg","img/object_images/bucket02.jpg","img/object_images/combs01.jpg","0","1","0","0","1","1","0.427673800149933","0.427104500122368","0.505051299929619","1","1","1","1","1","1","1","1","1"
"260045","img/object_images/combs01.jpg","img/object_images/Vest02.jpg","img/object_images/chair02.jpg","0","0","1","1","0","1","0.505051299929619","0.427673800149933","0.45460300007835","1","1","1","1","1","1","1","1","1"
"260045","img/object_images/chair02.jpg","img/object_images/combs01.jpg","img/object_images/microphone03.jpg","1","0","1","1","1","1","0.45460300007835","0.505051299929619","0.594403699971735","1","1","1","1","1","1","1","1","1"
"260045","img/object_images/microphone03.jpg","img/object_images/chair02.jpg","img/object_images/hair_dryer01.jpg","1","1","0","1","1","0","0.594403699971735","0.45460300007835","0.395102500217035","1","1","1","1","1","1","1","1","1"
"260045","img/object_images/hair_dryer01.jpg","img/object_images/microphone03.jpg","img/object_images/umbrella01.jpg","0","1","1","0","1","0","0.395102500217035","0.594403699971735","0.525089200120419","1","1","1","1","1","1","1","1","1"
"260045","img/object_images/umbrella01.jpg","img/object_images/hair_dryer01.jpg","img/object_images/calculator01.jpg","1","0","1","0","0","1","0.525089200120419","0.395102500217035","0.428372400114313","1","1","1","1","1","1","1","1","1"
"260045","img/object_images/calculator01.jpg","img/object_images/umbrella01.jpg","img/object_images/trash_can05.jpg","1","1","1","1","0","1","0.428372400114313","0.525089200120419","0.523417300079018","1","1","1","1","1","1","1","1","1"
"260045","img/object_images/trash_can05.jpg","img/object_images/calculator01.jpg","img/object_images/toy05.jpg","1","1","0","1","1","0","0.523417300079018","0.428372400114313","0.368011800339446","1","1","1","1","1","1","1","1","1"
"260045","img/object_images/toy05.jpg","img/object_images/trash_can05.jpg","img/object_images/vase01.jpg","0","1","1","0","1","0","0.368011800339446","0.523417300079018","0.520937900058925","1","1","1","1","1","1","1","1","1"
"260045","img/object_images/vase01.jpg","img/object_images/toy05.jpg","img/object_images/ball02.jpg","1","0","1","0","0","1","0.520937900058925","0.368011800339446","0.46516970009543","1","1","1","1","1","1","1","1","1"
"260045","img/object_images/ball02.jpg","img/object_images/vase01.jpg","img/object_images/surf_board01.jpg","1","1","1","1","0","1","0.46516970009543","0.520937900058925","0.655199700267985","1","1","1","1","1","1","1","1","1"
"260045","img/object_images/surf_board01.jpg","img/object_images/ball02.jpg","img/object_images/shoes08.jpg","1","1","1","1","1","1","0.655199700267985","0.46516970009543","0.525424099992961","1","1","1","1","1","1","1","1","1"
"260045","img/object_images/shoes08.jpg","img/object_images/surf_board01.jpg",NA,"1","1",NA,"1","1",NA,"0.525424099992961","0.655199700267985",NA,"1","1",NA,"1","1",NA,"1","1",NA
"260045","img/object_images/basketball_hoop02.jpg",NA,"img/object_images/ironing_table02.jpg","1",NA,"1","0",NA,"0","0.516403600107878",NA,"0.460426900070161","1",NA,"1","1",NA,"1","1",NA,"1"
"260045","img/object_images/ironing_table02.jpg","img/object_images/basketball_hoop02.jpg","img/object_images/brief_case01.jpg","1","1","1","0","0","0","0.460426900070161","0.516403600107878","0.515522900037467","1","1","1","1","1","1","1","1","1"
"260045","img/object_images/brief_case01.jpg","img/object_images/ironing_table02.jpg","img/object_images/helmet05.jpg","1","1","1","0","0","1","0.515522900037467","0.460426900070161","0.396796900080517","1","1","1","1","1","1","1","1","1"
"260045","img/object_images/helmet05.jpg","img/object_images/brief_case01.jpg","img/object_images/ball01.jpg","1","1","1","1","0","1","0.396796900080517","0.515522900037467","0.390055200085044","1","1","1","1","1","1","1","1","1"
"260045","img/object_images/ball01.jpg","img/object_images/helmet05.jpg","img/object_images/pitcher03.jpg","1","1","1","1","1","1","0.390055200085044","0.396796900080517","0.510263400152326","1","1","1","1","1","1","1","1","1"
"260045","img/object_images/pitcher03.jpg","img/object_images/ball01.jpg","img/object_images/broom01.jpg","1","1","1","1","1","1","0.510263400152326","0.390055200085044","0.411765600321814","1","1","1","1","1","1","1","1","1"
"260045","img/object_images/broom01.jpg","img/object_images/pitcher03.jpg","img/object_images/toy_train02.jpg","1","1","1","1","1","1","0.411765600321814","0.510263400152326","0.402173800161108","1","1","1","1","1","1","1","1","1"
"260045","img/object_images/toy_train02.jpg","img/object_images/broom01.jpg","img/object_images/Woopie01.jpg","1","1","1","1","1","1","0.402173800161108","0.411765600321814","0.470591000048444","1","1","1","1","1","1","1","1","1"
"260045","img/object_images/Woopie01.jpg","img/object_images/toy_train02.jpg","img/object_images/airfryer01.jpg","1","1","1","1","1","0","0.470591000048444","0.402173800161108","0.556511200033128","1","1","1","1","1","1","1","1","1"
"260045","img/object_images/airfryer01.jpg","img/object_images/Woopie01.jpg","img/object_images/drone02.jpg","1","1","1","0","1","0","0.556511200033128","0.470591000048444","0.487834400264546","1","1","1","1","1","1","1","1","1"
"260045","img/object_images/drone02.jpg","img/object_images/airfryer01.jpg","img/object_images/Recycling01.jpg","1","1","1","0","0","1","0.487834400264546","0.556511200033128","0.411681200144812","1","1","1","1","1","1","1","1","1"
"260045","img/object_images/Recycling01.jpg","img/object_images/drone02.jpg","img/object_images/container01.jpg","1","1","0","1","0","0","0.411681200144812","0.487834400264546","0.520293900044635","1","1","1","1","1","1","1","1","1"
"260045","img/object_images/container01.jpg","img/object_images/Recycling01.jpg","img/object_images/car02.jpg","0","1","0","0","1","0","0.520293900044635","0.411681200144812","0.418043500045314","1","1","1","1","1","1","1","1","1"
"260045","img/object_images/car02.jpg","img/object_images/container01.jpg","img/object_images/gloves05.jpg","0","0","1","0","0","1","0.418043500045314","0.520293900044635","0.405745000112802","1","1","1","1","1","1","1","1","1"
"260045","img/object_images/gloves05.jpg","img/object_images/car02.jpg","img/object_images/chair01.jpg","1","0","0","1","0","0","0.405745000112802","0.418043500045314","0.430673200171441","1","1","1","1","1","1","1","1","2"
"260045","img/object_images/chair01.jpg","img/object_images/gloves05.jpg","img/object_images/video_game06.jpg","0","1","1","0","1","0","0.430673200171441","0.405745000112802","0.469230399932712","1","1","1","1","1","1","2","1","1"
"260045","img/object_images/video_game06.jpg","img/object_images/chair01.jpg","img/object_images/cochlear_implant01.jpg","1","0","1","0","0","0","0.469230399932712","0.430673200171441","0.550721100065857","1","1","1","1","1","1","1","2","1"
"260045","img/object_images/cochlear_implant01.jpg","img/object_images/video_game06.jpg","img/object_images/Wisk01.jpg","1","1","1","0","0","1","0.550721100065857","0.469230399932712","0.444436900317669","1","1","1","1","1","1","1","1","1"
"260045","img/object_images/Wisk01.jpg","img/object_images/cochlear_implant01.jpg","img/object_images/pot01.jpg","1","1","1","1","0","0","0.444436900317669","0.550721100065857","0.440677999984473","1","1","1","1","1","1","1","1","1"
"260045","img/object_images/pot01.jpg","img/object_images/Wisk01.jpg","img/object_images/tie01.jpg","1","1","0","0","1","0","0.440677999984473","0.444436900317669","0.346940700197592","1","1","1","1","1","1","1","1","1"
"260045","img/object_images/tie01.jpg","img/object_images/pot01.jpg","img/object_images/toilet_paper01.jpg","0","1","1","0","0","1","0.346940700197592","0.440677999984473","0.426932800095528","1","1","1","1","1","1","1","1","1"
"260045","img/object_images/toilet_paper01.jpg","img/object_images/tie01.jpg","img/object_images/couch04.jpg","1","0","1","1","0","1","0.426932800095528","0.346940700197592","0.477683100150898","1","1","1","1","1","1","1","1","1"
"260045","img/object_images/couch04.jpg","img/object_images/toilet_paper01.jpg","img/object_images/hat02.jpg","1","1","1","1","1","0","0.477683100150898","0.426932800095528","0.498519900254905","1","1","1","1","1","1","1","1","1"
"260045","img/object_images/hat02.jpg","img/object_images/couch04.jpg","img/object_images/brief_case02.jpg","1","1","1","0","1","1","0.498519900254905","0.477683100150898","0.439153700135648","1","1","1","1","1","1","1","1","1"
"260045","img/object_images/brief_case02.jpg","img/object_images/hat02.jpg","img/object_images/guitar01.jpg","1","1","1","1","0","1","0.439153700135648","0.498519900254905","0.40948580019176","1","1","1","1","1","1","1","1","1"
"260045","img/object_images/guitar01.jpg","img/object_images/brief_case02.jpg","img/object_images/lamp01.jpg","1","1","1","1","1","1","0.40948580019176","0.439153700135648","0.387184400111437","1","1","1","1","1","1","1","1","1"
"260045","img/object_images/lamp01.jpg","img/object_images/guitar01.jpg","img/object_images/soap01.jpg","1","1","1","1","1","0","0.387184400111437","0.40948580019176","0.549856600118801","1","1","1","1","1","1","1","1","1"
"260045","img/object_images/soap01.jpg","img/object_images/lamp01.jpg","img/object_images/bottle12.jpg","1","1","1","0","1","1","0.549856600118801","0.387184400111437","0.820566900307313","1","1","1","1","1","1","1","1","1"
"260045","img/object_images/bottle12.jpg","img/object_images/soap01.jpg","img/object_images/lantern01.jpg","1","1","1","1","0","1","0.820566900307313","0.549856600118801","0.39958340022713","1","1","1","1","1","1","1","1","1"
"260045","img/object_images/lantern01.jpg","img/object_images/bottle12.jpg","img/object_images/decorative02.jpg","1","1","0","1","1","0","0.39958340022713","0.820566900307313","0.485041600186378","1","1","1","1","1","1","1","1","1"
"260045","img/object_images/decorative02.jpg","img/object_images/lantern01.jpg","img/object_images/razor03.jpg","0","1","1","0","1","0","0.485041600186378","0.39958340022713","0.463785700267181","1","1","1","1","1","1","1","1","1"
"260045","img/object_images/razor03.jpg","img/object_images/decorative02.jpg",NA,"1","0",NA,"0","0",NA,"0.463785700267181","0.485041600186378",NA,"1","1",NA,"1","1",NA,"1","1",NA
"260045","img/object_images/mirror01.jpg",NA,"img/object_images/towel02.jpg","1",NA,"1","1",NA,"1","0.400993500137702",NA,"0.328258600085974","1",NA,"1","1",NA,"1","1",NA,"1"
"260045","img/object_images/towel02.jpg","img/object_images/mirror01.jpg","img/object_images/tool09.jpg","1","1","1","1","1","1","0.328258600085974","0.400993500137702","0.40017530019395","1","1","1","1","1","1","1","1","1"
"260045","img/object_images/tool09.jpg","img/object_images/towel02.jpg","img/object_images/shovel03.jpg","1","1","1","1","1","1","0.40017530019395","0.328258600085974","0.365855500102043","1","1","1","1","1","1","1","1","1"
"260045","img/object_images/shovel03.jpg","img/object_images/tool09.jpg","img/object_images/Ring02.jpg","1","1","1","1","1","0","0.365855500102043","0.40017530019395","0.512433000141755","1","1","1","1","1","1","1","1","1"
"260045","img/object_images/Ring02.jpg","img/object_images/shovel03.jpg","img/object_images/bird_house02.jpg","1","1","1","0","1","1","0.512433000141755","0.365855500102043","0.52231950010173","1","1","1","1","1","1","1","1","1"
"260045","img/object_images/bird_house02.jpg","img/object_images/Ring02.jpg","img/object_images/pot01 (1).jpg","1","1","0","1","0","0","0.52231950010173","0.512433000141755","0.364744100021198","1","1","1","1","1","1","1","1","1"
"260045","img/object_images/pot01 (1).jpg","img/object_images/bird_house02.jpg","img/object_images/MetalWire01.jpg","0","1","1","0","1","0","0.364744100021198","0.52231950010173","0.464643599931151","1","1","1","1","1","1","1","1","1"
"260045","img/object_images/MetalWire01.jpg","img/object_images/pot01 (1).jpg","img/object_images/bottle05.jpg","1","0","1","0","0","0","0.464643599931151","0.364744100021198","0.406393100041896","1","1","1","1","1","1","1","1","1"
"260045","img/object_images/bottle05.jpg","img/object_images/MetalWire01.jpg","img/object_images/stapler.jpg","1","1","1","0","0","1","0.406393100041896","0.464643599931151","0.419060599990189","1","1","1","1","1","1","1","1","1"
"260045","img/object_images/stapler.jpg","img/object_images/bottle05.jpg","img/object_images/outlet01.jpg","1","1","0","1","0","0","0.419060599990189","0.406393100041896","0.483817200176418","1","1","1","1","1","1","1","1","1"
"260045","img/object_images/outlet01.jpg","img/object_images/stapler.jpg","img/object_images/video_game07.jpg","0","1","1","0","1","1","0.483817200176418","0.419060599990189","0.439334000227973","1","1","1","1","1","1","1","1","1"
"260045","img/object_images/video_game07.jpg","img/object_images/outlet01.jpg","img/object_images/Stool01.jpg","1","0","1","1","0","0","0.439334000227973","0.483817200176418","0.547517800005153","1","1","1","1","1","1","1","1","1"
"260045","img/object_images/Stool01.jpg","img/object_images/video_game07.jpg","img/object_images/tool02.jpg","1","1","1","0","1","1","0.547517800005153","0.439334000227973","0.563417500117794","1","1","1","1","1","1","1","1","1"
"260045","img/object_images/tool02.jpg","img/object_images/Stool01.jpg","img/object_images/sink01.jpg","1","1","1","1","0","0","0.563417500117794","0.547517800005153","0.459875599946827","1","1","1","1","1","1","1","1","1"
"260045","img/object_images/sink01.jpg","img/object_images/tool02.jpg","img/object_images/watch01.jpg","1","1","1","0","1","0","0.459875599946827","0.563417500117794","0.621151000028476","1","1","1","1","1","1","1","1","1"
"260045","img/object_images/watch01.jpg","img/object_images/sink01.jpg","img/object_images/judge_gavel01.jpg","1","1","1","0","0","1","0.621151000028476","0.459875599946827","0.421201600227505","1","1","1","1","1","1","1","1","1"
"260045","img/object_images/judge_gavel01.jpg","img/object_images/watch01.jpg","img/object_images/ornament01.jpg","1","1","1","1","0","1","0.421201600227505","0.621151000028476","0.437947800150141","1","1","1","1","1","1","1","1","1"
"260045","img/object_images/ornament01.jpg","img/object_images/judge_gavel01.jpg","img/object_images/jewel04.jpg","1","1","0","1","1","0","0.437947800150141","0.421201600227505","0.54325670003891","1","1","1","1","1","1","1","1","1"
"260045","img/object_images/jewel04.jpg","img/object_images/ornament01.jpg","img/object_images/helmet01.jpg","0","1","0","0","1","0","0.54325670003891","0.437947800150141","0.733963400125504","1","1","1","1","1","1","1","1","1"
"260045","img/object_images/helmet01.jpg","img/object_images/jewel04.jpg","img/object_images/gauze01.jpg","0","0","1","0","0","0","0.733963400125504","0.54325670003891","0.465400299988687","1","1","1","1","1","1","1","1","1"
"260045","img/object_images/gauze01.jpg","img/object_images/helmet01.jpg","img/object_images/Tin01.jpg","1","0","1","0","0","1","0.465400299988687","0.733963400125504","0.345892500132322","1","1","1","1","1","1","1","1","1"
"260045","img/object_images/Tin01.jpg","img/object_images/gauze01.jpg","img/object_images/toy04.jpg","1","1","1","1","0","0","0.345892500132322","0.465400299988687","0.484489900059998","1","1","1","1","1","1","1","1","1"
"260045","img/object_images/toy04.jpg","img/object_images/Tin01.jpg","img/object_images/acoustic_capo01.jpg","1","1","1","0","1","1","0.484489900059998","0.345892500132322","0.453677100129426","1","1","1","1","1","1","1","1","1"
"260045","img/object_images/acoustic_capo01.jpg","img/object_images/toy04.jpg","img/object_images/toy03.jpg","1","1","1","1","0","1","0.453677100129426","0.484489900059998","0.583026699954644","1","1","1","1","1","1","1","1","1"
"260045","img/object_images/toy03.jpg","img/object_images/acoustic_capo01.jpg","img/object_images/bow01.jpg","1","1","1","1","1","1","0.583026699954644","0.453677100129426","0.626152100274339","1","1","1","1","1","1","1","1","1"
"260045","img/object_images/bow01.jpg","img/object_images/toy03.jpg","img/object_images/fridge03.jpg","1","1","1","1","1","0","0.626152100274339","0.583026699954644","0.600877800257877","1","1","1","1","1","1","1","1","1"
"260045","img/object_images/fridge03.jpg","img/object_images/bow01.jpg","img/object_images/frisbee01.jpg","1","1","1","0","1","1","0.600877800257877","0.626152100274339","0.431116000050679","1","1","1","1","1","1","1","1","1"
"260045","img/object_images/frisbee01.jpg","img/object_images/fridge03.jpg","img/object_images/dart01.jpg","1","1","1","1","0","0","0.431116000050679","0.600877800257877","0.415816600201651","1","1","1","1","1","1","1","1","1"
"260045","img/object_images/dart01.jpg","img/object_images/frisbee01.jpg","img/object_images/Vacuum01.jpg","1","1","1","0","1","0","0.415816600201651","0.431116000050679","0.523885800037533","1","1","1","1","1","1","1","1","1"
"260045","img/object_images/Vacuum01.jpg","img/object_images/dart01.jpg","img/object_images/crown02.jpg","1","1","1","0","0","1","0.523885800037533","0.415816600201651","0.497825000202283","1","1","1","1","1","1","1","1","1"
"260045","img/object_images/crown02.jpg","img/object_images/Vacuum01.jpg","img/object_images/guitar02.jpg","1","1","0","1","0","0","0.497825000202283","0.523885800037533","0.32845939998515","1","1","1","1","1","1","1","1","1"
"260045","img/object_images/guitar02.jpg","img/object_images/crown02.jpg",NA,"0","1",NA,"0","1",NA,"0.32845939998515","0.497825000202283",NA,"1","1",NA,"1","1",NA,"1","1",NA
