"participant_id","object","surpAcc","memory_surp_responses","memory_surp_rt","keep_surp_memory_trial_based_on_rt","surp_block_num","exclude_block","number_of_surp_resp_items_used","num_blocks_excluded"
"260050","img/object_images/mask01.jpg","0","s","4.64704520022497",1,1,0,2,0
"260050","img/object_images/ornament01.jpg","1","s","1.67983450042084",1,1,0,2,0
"260050","img/object_images/knife01.jpg","1","s","1.05559970019385",1,1,0,2,0
"260050","img/object_images/cellphone03.jpg","1","k","0.932750900276005",1,1,0,2,0
"260050","img/object_images/crown02.jpg","1","s","0.93202990014106",1,1,0,2,0
"260050","img/object_images/pen03.jpg","0","s","1.11235700035468",1,1,0,2,0
"260050","img/object_images/vase01.jpg","1","s","1.00912509998307",1,1,0,2,0
"260050","img/object_images/MetalWire01.jpg","1","s","1.31131600076333",1,1,0,2,0
"260050","img/object_images/book03.jpg","1","k","0.862106100656092",1,1,0,2,0
"260050","img/object_images/bird_house02.jpg","1","s","1.24639960052446",1,1,0,2,0
"260050","img/object_images/key02.jpg","1","s","1.14455500012264",1,1,0,2,0
"260050","img/object_images/bow_tie03.jpg","1","k","3.5333857005462",1,1,0,2,0
"260050","img/object_images/purse04.jpg","0","s","2.24364520050585",1,1,0,2,0
"260050","img/object_images/clip02.jpg","1","k","2.17973740026355",1,1,0,2,0
"260050","img/object_images/scarf01.jpg","1","k","1.17559460038319",1,1,0,2,0
"260050","img/object_images/hair_brush02.jpg","1","s","1.30199090018868",1,1,0,2,0
"260050","img/object_images/broom01.jpg","1","k","1.42826290009543",1,1,0,2,0
"260050","img/object_images/Thermometer01.jpg","1","k","0.908557200338692",1,1,0,2,0
"260050","img/object_images/tv01.jpg","0","k","1.84543460002169",1,1,0,2,0
"260050","img/object_images/fan01.jpg","1","s","1.02406520070508",1,1,0,2,0
"260050","img/object_images/bottle05.jpg","1","k","1.16748830070719",1,1,0,2,0
"260050","img/object_images/ruler02.jpg","1","s","0.689095700159669",1,1,0,2,0
"260050","img/object_images/bow_tie01.jpg","0","s","2.55506920069456",1,1,0,2,0
"260050","img/object_images/toaster01.jpg","1","k","1.21324079995975",1,1,0,2,0
"260050","img/object_images/Vest02.jpg","1","k","1.11325160041451",1,1,0,2,0
"260050","img/object_images/Lint_Roller02.jpg","1","s","2.75859050033614",1,1,0,2,0
"260050","img/object_images/pitcher02.jpg","1","k","1.10510670067742",1,1,0,2,0
"260050","img/object_images/brief_case02.jpg","1","k","0.959556400310248",1,1,0,2,0
"260050","img/object_images/accardion01.jpg","1","s","0.740805900190026",1,1,0,2,0
"260050","img/object_images/shower_head01.jpg","0","k","1.73367100022733",1,1,0,2,0
"260050","img/object_images/knife02.jpg","0","s","1.98661580029875",1,1,0,2,0
"260050","img/object_images/flashlight03.jpg","1","k","1.20621390035376",1,1,0,2,0
"260050","img/object_images/ToolBag01.jpg","1","k","2.25035390025005",1,1,0,2,0
"260050","img/object_images/perfume02.jpg","1","k","1.11760210013017",1,1,0,2,0
"260050","img/object_images/knit05.jpg","1","s","1.34470790065825",1,1,0,2,0
"260050","img/object_images/dress03.jpg","1","k","1.04523990023881",1,1,0,2,0
"260050","img/object_images/microphone03.jpg","1","s","1.58775900024921",1,1,0,2,0
"260050","img/object_images/knife04.jpg","1","s","1.94902600022033",1,1,0,2,0
"260050","img/object_images/WoodBox01.jpg","1","s","2.83690930018201",1,1,0,2,0
"260050","img/object_images/sink01.jpg","1","s","1.5210299002938",1,1,0,2,0
"260050","img/object_images/video_game02.jpg","1","k","1.13795520039275",1,1,0,2,0
"260050","img/object_images/matches02.jpg","1","k","1.16124310018495",1,1,0,2,0
"260050","img/object_images/guitar02.jpg","1","k","1.03434590063989",1,1,0,2,0
"260050","img/object_images/Traffic Sign 01.jpg","0","k","1.48766230000183",1,1,0,2,0
"260050","img/object_images/jewel04.jpg","1","s","1.04819860029966",1,1,0,2,0
"260050","img/object_images/razor01.jpg","1","k","2.33497080067173",1,1,0,2,0
"260050","img/object_images/boat04.jpg","0","k","2.51616410026327",1,1,0,2,0
"260050","img/object_images/pot01.jpg","1","s","1.9902701000683",1,1,0,2,0
"260050","img/object_images/microscope01.jpg","0","s","3.1298147002235",1,2,0,2,0
"260050","img/object_images/helmet01.jpg","1","s","2.22603670042008",1,2,0,2,0
"260050","img/object_images/ball02.jpg","1","k","1.06463060015813",1,2,0,2,0
"260050","img/object_images/TreeSlice01.jpg","1","k","0.989416300319135",1,2,0,2,0
"260050","img/object_images/trash_can05.jpg","1","s","2.60177600057796",1,2,0,2,0
"260050","img/object_images/ear_bud01.jpg","1","k","1.03972360026091",1,2,0,2,0
"260050","img/object_images/Witchhat01.jpg","0","k","1.87040670076385",1,2,0,2,0
"260050","img/object_images/tripod01.jpg","1","s","1.44270170060918",1,2,0,2,0
"260050","img/object_images/curtain02.jpg","0","s","1.3371119000949",1,2,0,2,0
"260050","img/object_images/board01.jpg","1","k","1.25767570035532",1,2,0,2,0
"260050","img/object_images/tie02.jpg","1","s","1.64213610021397",1,2,0,2,0
"260050","img/object_images/pitcher01.jpg","1","k","1.27337130019441",1,2,0,2,0
"260050","img/object_images/bath_tub01.jpg","1","s","1.69375680014491",1,2,0,2,0
"260050","img/object_images/ice_tray03.jpg","0","s","1.54117280058563",1,2,0,2,0
"260050","img/object_images/tool11.jpg","1","s","2.03576250048354",1,2,0,2,0
"260050","img/object_images/backpack01.jpg","1","s","1.32236690027639",1,2,0,2,0
"260050","img/object_images/mail_box02.jpg","1","k","2.58131400030106",1,2,0,2,0
"260050","img/object_images/lemon_squeezer01.jpg","1","s","1.03305190056562",1,2,0,2,0
"260050","img/object_images/robe01.jpg","1","k","1.15919730067253",1,2,0,2,0
"260050","img/object_images/clip04.jpg","1","k","1.28002850012854",1,2,0,2,0
"260050","img/object_images/projector01.jpg","0","k","1.27833050023764",1,2,0,2,0
"260050","img/object_images/lemon_squeezer02.jpg","1","s","1.48758160043508",1,2,0,2,0
"260050","img/object_images/airfryer01.jpg","1","s","2.12875280017033",1,2,0,2,0
"260050","img/object_images/soap01.jpg","1","s","2.08999190013856",1,2,0,2,0
"260050","img/object_images/note_book02.jpg","0","k","2.13889910001308",1,2,0,2,0
"260050","img/object_images/wallet02.jpg","0","k","1.50557300029323",1,2,0,2,0
"260050","img/object_images/acoustic_capo01.jpg","1","s","2.12323470041156",1,2,0,2,0
"260050","img/object_images/retainer01.jpg","1","s","1.48516370076686",1,2,0,2,0
"260050","img/object_images/knit01.jpg","1","k","2.94311999995261",1,2,0,2,0
"260050","img/object_images/pan01.jpg","1","s","1.7723696003668",1,2,0,2,0
"260050","img/object_images/toothbrush01.jpg","0","k","5.34784040041268",1,2,0,2,0
"260050","img/object_images/dice01.jpg","1","s","0.75704750046134",1,2,0,2,0
"260050","img/object_images/boat_toy10.jpg","0","s","4.42311009997502",1,2,0,2,0
"260050","img/object_images/crutches02.jpg","1","k","1.18927810015157",1,2,0,2,0
"260050","img/object_images/pen05.jpg","1","s","1.87453930033371",1,2,0,2,0
"260050","img/object_images/tool07.jpg","1","s","1.90780250076205",1,2,0,2,0
"260050","img/object_images/gauze01.jpg","0","k","1.9787444001995",1,2,0,2,0
"260050","img/object_images/slinky_toy01.jpg","1","k","1.1014162003994",1,2,0,2,0
"260050","img/object_images/gift_box02.jpg","1","s","1.47516850056127",1,2,0,2,0
"260050","img/object_images/surf_board01.jpg","1","s","2.30232810042799",1,2,0,2,0
"260050","img/object_images/hat13.jpg","1","k","1.31334150023758",1,2,0,2,0
"260050","img/object_images/ironing_table01.jpg","1","s","2.96531310025603",1,2,0,2,0
"260050","img/object_images/pen01.jpg","1","s","2.02923820028082",1,2,0,2,0
"260050","img/object_images/vase02.jpg","1","k","1.30059510050341",1,2,0,2,0
"260050","img/object_images/glasses03.jpg","1","k","1.54218770004809",1,2,0,2,0
"260050","img/object_images/hole_puncher01.jpg","1","s","1.72769270045683",1,2,0,2,0
"260050","img/object_images/WitchHat02.jpg","1","s","2.9144143005833",1,2,0,2,0
"260050","img/object_images/hammer03.jpg","0","s","3.61854840023443",1,2,0,2,0
"260050","img/object_images/bottle12.jpg","1","k","1.32874569995329",1,3,0,2,0
"260050","img/object_images/book02.jpg","1","s","0.772062700241804",1,3,0,2,0
"260050","img/object_images/combs01.jpg","1","s","1.4462138004601",1,3,0,2,0
"260050","img/object_images/trumpet01.jpg","1","s","1.41426630038768",1,3,0,2,0
"260050","img/object_images/camera05.jpg","1","s","1.61197530059144",1,3,0,2,0
"260050","img/object_images/hoverboard01.jpg","1","k","1.11140260007232",1,3,0,2,0
"260050","img/object_images/bottle02.jpg","1","s","1.25999920070171",1,3,0,2,0
"260050","img/object_images/floppy_disk02.jpg","1","s","1.81846660049632",1,3,0,2,0
"260050","img/object_images/toy_train02.jpg","1","s","0.959220100194216",1,3,0,2,0
"260050","img/object_images/fan04.jpg","1","s","4.21246180031449",1,3,0,2,0
"260050","img/object_images/spatula02.jpg","1","k","1.37033570045605",1,3,0,2,0
"260050","img/object_images/stereo02.jpg","1","k","2.3562562004663",1,3,0,2,0
"260050","img/object_images/kite01.jpg","0","k","2.19700950011611",1,3,0,2,0
"260050","img/object_images/origami01.jpg","1","s","1.18204900063574",1,3,0,2,0
"260050","img/object_images/sleeping_bag01.jpg","0","k","4.07655800040811",1,3,0,2,0
"260050","img/object_images/Ring02.jpg","1","k","1.20318880025297",1,3,0,2,0
"260050","img/object_images/Violin01.jpg","1","k","1.95247500017285",1,3,0,2,0
"260050","img/object_images/backpack03.jpg","1","s","1.31484710052609",1,3,0,2,0
"260050","img/object_images/candle02.jpg","1","k","2.05771850049496",1,3,0,2,0
"260050","img/object_images/yarn02.jpg","1","k","2.81572770047933",1,3,0,2,0
"260050","img/object_images/computer_mouse01.jpg","0","s","3.3930227002129",1,3,0,2,0
"260050","img/object_images/toy03.jpg","1","s","1.55405380018055",1,3,0,2,0
"260050","img/object_images/bag04.jpg","1","s","4.09578690025955",1,3,0,2,0
"260050","img/object_images/dog_leash01.jpg","1","s","1.36809270037338",1,3,0,2,0
"260050","img/object_images/bookmark01.jpg","1","s","0.989517800044268",1,3,0,2,0
"260050","img/object_images/Candle_Holder01.jpg","1","k","1.57278880057856",1,3,0,2,0
"260050","img/object_images/toy08.jpg","0","s","1.99582870025188",1,3,0,2,0
"260050","img/object_images/MeasuringCup01.jpg","0","s","2.05597760016099",1,3,0,2,0
"260050","img/object_images/bucket02.jpg","0","s","1.51876100013033",1,3,0,2,0
"260050","img/object_images/lock03.jpg","1","s","1.03312430065125",1,3,0,2,0
"260050","img/object_images/tool08.jpg","0","k","2.52998030046001",1,3,0,2,0
"260050","img/object_images/water_gun01.jpg","0","s","1.37207280052826",1,3,0,2,0
"260050","img/object_images/tool02.jpg","1","s","1.96766360057518",1,3,0,2,0
"260050","img/object_images/TrashCan02.jpg","1","s","1.69944680016488",1,3,0,2,0
"260050","img/object_images/video_game06.jpg","1","s","2.06805890006945",1,3,0,2,0
"260050","img/object_images/toy01.jpg","1","s","1.60381090035662",1,3,0,2,0
"260050","img/object_images/audio_port01.jpg","1","s","2.63349390029907",1,3,0,2,0
"260050","img/object_images/basket02.jpg","1","s","2.01667580008507",1,3,0,2,0
"260050","img/object_images/blender01.jpg","1","k","1.54929560050368",1,3,0,2,0
"260050","img/object_images/note_book01.jpg","1","k","1.95227740053087",1,3,0,2,0
"260050","img/object_images/sink_filter01 (1).jpg","0","s","2.86013620020822",1,3,0,2,0
"260050","img/object_images/exfoliater_brush01.jpg","1","s","1.45452990010381",1,3,0,2,0
"260050","img/object_images/gloves05.jpg","1","s","1.88010160019621",1,3,0,2,0
"260050","img/object_images/shovel01.jpg","0","k","1.92254690034315",1,3,0,2,0
"260050","img/object_images/Tin01.jpg","0","s","1.73018340067938",1,3,0,2,0
"260050","img/object_images/book01.jpg","1","s","1.20485820062459",1,3,0,2,0
"260050","img/object_images/jewelry01.jpg","1","k","2.3579920004122",1,3,0,2,0
"260050","img/object_images/clock02.jpg","0","s","1.29362660041079",1,3,0,2,0
"260050","img/object_images/speaker01.jpg","1","k","2.09316670009866",1,4,0,2,0
"260050","img/object_images/Woopie01.jpg","1","s","0.95397620042786",1,4,0,2,0
"260050","img/object_images/ball01.jpg","1","s","2.50456140004098",1,4,0,2,0
"260050","img/object_images/Pottery01.jpg","1","k","3.13605200033635",1,4,0,2,0
"260050","img/object_images/colander01.jpg","1","k","2.5834549004212",1,4,0,2,0
"260050","img/object_images/bean_bag02.jpg","0","s","1.72562770033255",1,4,0,2,0
"260050","img/object_images/chain01.jpg","0","k","1.13181310053915",1,4,0,2,0
"260050","img/object_images/golf_ball03.jpg","0","k","2.29027570039034",1,4,0,2,0
"260050","img/object_images/judge_gavel01.jpg","1","s","0.705473600421101",1,4,0,2,0
"260050","img/object_images/water_scooter01.jpg","1","k","1.2710297005251",1,4,0,2,0
"260050","img/object_images/chair02.jpg","0","k","0.813102500047535",1,4,0,2,0
"260050","img/object_images/lamp01.jpg","1","s","1.87735420046374",1,4,0,2,0
"260050","img/object_images/tool18.jpg","1","s","1.374829900451",1,4,0,2,0
"260050","img/object_images/pitcher05.jpg","1","k","1.1551175005734",1,4,0,2,0
"260050","img/object_images/flask01.jpg","0","s","2.16245430056006",1,4,0,2,0
"260050","img/object_images/basket04.jpg","1","s","1.77756780060008",1,4,0,2,0
"260050","img/object_images/cards01.jpg","1","k","0.888523500412703",1,4,0,2,0
"260050","img/object_images/bag_pipes01.jpg","1","s","0.959994200151414",1,4,0,2,0
"260050","img/object_images/jacket04.jpg","1","k","0.997001000680029",1,4,0,2,0
"260050","img/object_images/video_game07.jpg","1","k","3.18114280048758",1,4,0,2,0
"260050","img/object_images/lighter01.jpg","1","s","0.894132200162858",1,4,0,2,0
"260050","img/object_images/couch03.jpg","1","k","1.208443000447",1,4,0,2,0
"260050","img/object_images/hat02.jpg","1","k","1.05909860040992",1,4,0,2,0
"260050","img/object_images/joystick03.jpg","1","s","1.4383359006606",1,4,0,2,0
"260050","img/object_images/bicycle_lock01.jpg","1","k","1.81538240006194",1,4,0,2,0
"260050","img/object_images/jewel02.jpg","1","k","1.35810800036415",1,4,0,2,0
"260050","img/object_images/knit03.jpg","1","s","1.68593290029094",1,4,0,2,0
"260050","img/object_images/yo_yo01.jpg","1","k","1.2331744004041",1,4,0,2,0
"260050","img/object_images/Staples01.jpg","1","s","1.23869530064985",1,4,0,2,0
"260050","img/object_images/egg_slicer01.jpg","1","k","1.21669250028208",1,4,0,2,0
"260050","img/object_images/Trowel01.jpg","1","s","1.49506510049105",1,4,0,2,0
"260050","img/object_images/mirror01.jpg","1","k","1.19183830032125",1,4,0,2,0
"260050","img/object_images/container01.jpg","1","s","0.9678392005153",1,4,0,2,0
"260050","img/object_images/chess_piece02.jpg","1","s","0.70376850059256",1,4,0,2,0
"260050","img/object_images/bottle01.jpg","1","s","1.5296422005631",1,4,0,2,0
"260050","img/object_images/hair_brush05.jpg","1","s","2.31047180015594",1,4,0,2,0
"260050","img/object_images/bottle09.jpg","1","k","6.11877890024334",1,4,0,2,0
"260050","img/object_images/piggy_bank01.jpg","1","s","2.11532420059666",1,4,0,2,0
"260050","img/object_images/Wisk01.jpg","1","s","1.86916190059856",1,4,0,2,0
"260050","img/object_images/guitar01.jpg","1","k","1.35534250037745",1,4,0,2,0
"260050","img/object_images/brief_case01.jpg","0","k","2.20379160065204",1,4,0,2,0
"260050","img/object_images/motorcycle01.jpg","0","k","2.12962090037763",1,4,0,2,0
"260050","img/object_images/hammer01.jpg","1","k","1.43931790022179",1,4,0,2,0
"260050","img/object_images/chair05.jpg","1","s","1.89981590025127",1,4,0,2,0
"260050","img/object_images/Statue01.jpg","0","s","2.52573710028082",1,4,0,2,0
"260050","img/object_images/handcuffs01.jpg","1","s","1.23369270004332",1,4,0,2,0
"260050","img/object_images/bow01.jpg","1","k","1.16576510062441",1,4,0,2,0
"260050","img/object_images/usb03.jpg","0","s","1.8489578999579",1,4,0,2,0
"260050","img/object_images/sign02.jpg","1","s","1.41485080029815",1,5,0,2,0
"260050","img/object_images/tennis_racket01.jpg","0","s","1.08032360021025",1,5,0,2,0
"260050","img/object_images/vga_port 01.jpg","1","s","0.807935500051826",1,5,0,2,0
"260050","img/object_images/bottle10.jpg","0","k","1.88774300040677",1,5,0,2,0
"260050","img/object_images/pitcher09.jpg","1","s","0.997577500529587",1,5,0,2,0
"260050","img/object_images/bag06.jpg","1","s","1.94604160031304",1,5,0,2,0
"260050","img/object_images/dresser03.jpg","1","s","1.71035350020975",1,5,0,2,0
"260050","img/object_images/grater01.jpg","1","k","3.60736110061407",1,5,0,2,0
"260050","img/object_images/socks01.jpg","0","k","2.75673810020089",1,5,0,2,0
"260050","img/object_images/binoculars03.jpg","1","s","1.1057075005956",1,5,0,2,0
"260050","img/object_images/jewelry09.jpg","1","s","0.822590900585055",1,5,0,2,0
"260050","img/object_images/pitcher03.jpg","1","s","0.972219800576568",1,5,0,2,0
"260050","img/object_images/bell03.jpg","1","k","1.206403600052",1,5,0,2,0
"260050","img/object_images/camera07.jpg","1","k","1.46950420038775",1,5,0,2,0
"260050","img/object_images/socks02.jpg","0","s","5.48475510021672",1,5,0,2,0
"260050","img/object_images/Vacuum01.jpg","0","k","2.61609060037881",1,5,0,2,0
"260050","img/object_images/tie01.jpg","1","k","1.4600031003356",1,5,0,2,0
"260050","img/object_images/jewel01.jpg","1","s","1.0219929004088",1,5,0,2,0
"260050","img/object_images/bow_tie02.jpg","1","k","1.70651340065524",1,5,0,2,0
"260050","img/object_images/toy04.jpg","1","s","1.04798180051148",1,5,0,2,0
"260050","img/object_images/coloring_pencil01.jpg","1","k","1.2080293004401",1,5,0,2,0
"260050","img/object_images/lawn_mower01.jpg","1","k","1.22248150035739",1,5,0,2,0
"260050","img/object_images/car04.jpg","1","s","1.4781861002557",1,5,0,2,0
"260050","img/object_images/Kitchen_Towel.jpg","1","s","3.97056670067832",1,5,0,2,0
"260050","img/object_images/lock01.jpg","1","k","1.2546590003185",1,5,0,2,0
"260050","img/object_images/lid01.jpg","1","s","1.55119730066508",1,5,0,2,0
"260050","img/object_images/helmet05.jpg","0","s","1.37625260045752",1,5,0,2,0
"260050","img/object_images/shoes10.jpg","1","s","0.799645500257611",1,5,0,2,0
"260050","img/object_images/helmet03.jpg","1","s","1.64951070025563",1,5,0,2,0
"260050","img/object_images/faucet01.jpg","1","k","1.30988350044936",1,5,0,2,0
"260050","img/object_images/phone02.jpg","1","k","2.6025089006871",1,5,0,2,0
"260050","img/object_images/badminton01.jpg","0","s","1.28085590014234",1,5,0,2,0
"260050","img/object_images/tool13.jpg","1","k","1.35651470068842",1,5,0,2,0
"260050","img/object_images/couch04.jpg","0","k","1.63737440062687",1,5,0,2,0
"260050","img/object_images/laptop01.jpg","1","k","2.15869400044903",1,5,0,2,0
"260050","img/object_images/fan05.jpg","1","s","1.48455490032211",1,5,0,2,0
"260050","img/object_images/paint_brush04.jpg","1","k","1.98061260022223",1,5,0,2,0
"260050","img/object_images/clip03.jpg","1","s","1.46050680056214",1,5,0,2,0
"260050","img/object_images/watch01.jpg","1","s","2.93368400027975",1,5,0,2,0
"260050","img/object_images/headset02.jpg","1","s","1.46317610051483",1,5,0,2,0
"260050","img/object_images/office_supplies01.jpg","1","k","1.50444780057296",1,5,0,2,0
"260050","img/object_images/video_game01.jpg","0","s","2.58738970011473",1,5,0,2,0
"260050","img/object_images/razor02.jpg","1","k","1.20967980008572",1,5,0,2,0
"260050","img/object_images/shoes08.jpg","1","k","2.09784239996225",1,5,0,2,0
"260050","img/object_images/hammer02.jpg","1","k","1.37236210051924",1,5,0,2,0
"260050","img/object_images/lock04.jpg","0","s","1.84293460054323",1,5,0,2,0
"260050","img/object_images/coloring_pencil02.jpg","1","s","1.10548850055784",1,5,0,2,0
"260050","img/object_images/balloon01.jpg","0","k","2.05071730026975",1,5,0,2,0
"260050","img/object_images/hair_brush01.jpg","1","s","2.55776280071586",1,6,0,2,0
"260050","img/object_images/gift_box05.jpg","1","k","3.45865160040557",1,6,0,2,0
"260050","img/object_images/toy05.jpg","1","k","2.17802240047604",1,6,0,2,0
"260050","img/object_images/purse01.jpg","1","s","1.06022700015455",1,6,0,2,0
"260050","img/object_images/hot_air_balloon02.jpg","0","k","3.43581560067832",1,6,0,2,0
"260050","img/object_images/scale02.jpg","1","k","1.31485670059919",1,6,0,2,0
"260050","img/object_images/soap03.jpg","1","s","0.894007900264114",1,6,0,2,0
"260050","img/object_images/chair04.jpg","1","k","0.796330300159752",1,6,0,2,0
"260050","img/object_images/cutting_board01.jpg","1","k","1.27500140061602",1,6,0,2,0
"260050","img/object_images/fridge03.jpg","1","k","0.919097900390625",1,6,0,2,0
"260050","img/object_images/hand_grip_exerciser01.jpg","1","k","1.26611960073933",1,6,0,2,0
"260050","img/object_images/toaster02.jpg","1","k","2.15857350034639",1,6,0,2,0
"260050","img/object_images/glasses07.jpg","1","k","1.07708440022543",1,6,0,2,0
"260050","img/object_images/Eyeliner01.jpg","1","k","1.94196840049699",1,6,0,2,0
"260050","img/object_images/Sprayer01.jpg","1","k","1.56559500005096",1,6,0,2,0
"260050","img/object_images/rock02.jpg","1","k","2.73999740043655",1,6,0,2,0
"260050","img/object_images/shoes07.jpg","0","k","1.98389230063185",1,6,0,2,0
"260050","img/object_images/remote_controller01.jpg","0","k","2.19704550039023",1,6,0,2,0
"260050","img/object_images/hair_dryer01.jpg","0","s","1.57725570071489",1,6,0,2,0
"260050","img/object_images/camera_lens01.jpg","1","s","1.43712310027331",1,6,0,2,0
"260050","img/object_images/spray_can01.jpg","1","k","2.61046110000461",1,6,0,2,0
"260050","img/object_images/jewel03.jpg","1","k","0.70407470036298",1,6,0,2,0
"260050","img/object_images/tool19.jpg","1","k","1.1578617002815",1,6,0,2,0
"260050","img/object_images/bucket01.jpg","1","k","1.61061540059745",1,6,0,2,0
"260050","img/object_images/paper_cup01.jpg","1","k","2.17418900039047",1,6,0,2,0
"260050","img/object_images/tray01.jpg","1","s","2.87028140062466",1,6,0,2,0
"260050","img/object_images/usb02.jpg","1","k","1.06893240055069",1,6,0,2,0
"260050","img/object_images/shoes12.jpg","1","k","1.84987290063873",1,6,0,2,0
"260050","img/object_images/paper_cup02.jpg","1","s","1.77005140017718",1,6,0,2,0
"260050","img/object_images/drone02.jpg","1","s","0.901770900469273",1,6,0,2,0
"260050","img/object_images/umbrella01.jpg","0","k","1.37009780015796",1,6,0,2,0
"260050","img/object_images/cup03.jpg","0","s","1.38209620025009",1,6,0,2,0
"260050","img/object_images/trash_can03.jpg","0","s","2.43923460040241",1,6,0,2,0
"260050","img/object_images/jewelry07.jpg","1","k","1.67655850015581",1,6,0,2,0
"260050","img/object_images/ribbon01.jpg","0","s","2.81660460028797",1,6,0,2,0
"260050","img/object_images/perfume01.jpg","1","s","1.75284970039502",1,6,0,2,0
"260050","img/object_images/car02.jpg","0","k","1.74657780025154",1,6,0,2,0
"260050","img/object_images/funnel01.jpg","0","s","2.09704770054668",1,6,0,2,0
"260050","img/object_images/tool06.jpg","1","k","1.41097410023212",1,6,0,2,0
"260050","img/object_images/ironing_table02.jpg","1","k","2.1184367001988",1,6,0,2,0
"260050","img/object_images/fork02.jpg","0","s","2.46130720013753",1,6,0,2,0
"260050","img/object_images/belt01.jpg","1","s","1.11894930014387",1,6,0,2,0
"260050","img/object_images/computer_mouse02.jpg","0","k","1.49661480030045",1,6,0,2,0
"260050","img/object_images/piano03.jpg","0","s","2.61700090067461",1,6,0,2,0
"260050","img/object_images/blender02.jpg","1","k","1.42782720038667",1,6,0,2,0
"260050","img/object_images/keyboard02.jpg","0","s","1.30160810053349",1,6,0,2,0
"260050","img/object_images/shower_head03.jpg","1","k","1.79710890026763",1,6,0,2,0
"260050","img/object_images/pitcher07.jpg","1","s","2.00921160029247",1,6,0,2,0
"260050","img/object_images/glasses06.jpg","1","k","1.29253800027072",1,7,0,2,0
"260050","img/object_images/chair03.jpg","0","s","1.06797410035506",1,7,0,2,0
"260050","img/object_images/floss02.jpg","1","k","1.9269966003485",1,7,0,2,0
"260050","img/object_images/frame01.jpg","1","k","1.75331990001723",1,7,0,2,0
"260050","img/object_images/handkerchief01.jpg","0","s","1.40852660033852",1,7,0,2,0
"260050","img/object_images/compass01.jpg","1","s","1.55080580059439",1,7,0,2,0
"260050","img/object_images/rock03.jpg","1","k","1.13755660038441",1,7,0,2,0
"260050","img/object_images/Stool01.jpg","0","s","1.27561680041254",1,7,0,2,0
"260050","img/object_images/Oven01.jpg","1","k","1.87591210007668",1,7,0,2,0
"260050","img/object_images/duster01.jpg","1","s","1.761399500072",1,7,0,2,0
"260050","img/object_images/remover01.jpg","1","s","1.10472340043634",1,7,0,2,0
"260050","img/object_images/razor03.jpg","1","s","0.90005400031805",1,7,0,2,0
"260050","img/object_images/fan02.jpg","1","s","1.0285911001265",1,7,0,2,0
"260050","img/object_images/yoga_mat01.jpg","1","s","0.995411800220609",1,7,0,2,0
"260050","img/object_images/boat02.jpg","1","s","1.50916200038046",1,7,0,2,0
"260050","img/object_images/measuring_tape02.jpg","0","k","2.056526100263",1,7,0,2,0
"260050","img/object_images/chair06.jpg","1","s","1.08539690030739",1,7,0,2,0
"260050","img/object_images/mail_box01.jpg","0","k","2.06244470039383",1,7,0,2,0
"260050","img/object_images/stapler.jpg","1","s","2.88792850030586",1,7,0,2,0
"260050","img/object_images/tv02.jpg","0","s","2.82863400038332",1,7,0,2,0
"260050","img/object_images/hat09.jpg","0","k","2.52946940017864",1,7,0,2,0
"260050","img/object_images/hair_clips01.jpg","1","k","4.01492010010406",1,7,0,2,0
"260050","img/object_images/towel02.jpg","1","s","2.42541550053284",1,7,0,2,0
"260050","img/object_images/Confetti 01.jpg","1","s","1.35299190040678",1,7,0,2,0
"260050","img/object_images/stove01.jpg","0","k","1.98262990033254",1,7,0,2,0
"260050","img/object_images/decorative02.jpg","1","s","2.07347160065547",1,7,0,2,0
"260050","img/object_images/cochlear_implant01.jpg","1","k","1.19086080044508",1,7,0,2,0
"260050","img/object_images/jacket03.jpg","1","k","1.15403560036793",1,7,0,2,0
"260050","img/object_images/car03.jpg","0","s","1.19962240057066",1,7,0,2,0
"260050","img/object_images/fork03.jpg","1","s","1.23052880028263",1,7,0,2,0
"260050","img/object_images/tennis_racket02.jpg","1","s","1.23115479992703",1,7,0,2,0
"260050","img/object_images/video_game03.jpg","1","k","1.12972280010581",1,7,0,2,0
"260050","img/object_images/car01.jpg","1","s","0.674852300435305",1,7,0,2,0
"260050","img/object_images/outlet01.jpg","1","s","0.7637347006239",1,7,0,2,0
"260050","img/object_images/cup01.jpg","1","s","1.03787650028244",1,7,0,2,0
"260050","img/object_images/gloves02.jpg","1","k","1.77223490038887",1,7,0,2,0
"260050","img/object_images/bell02.jpg","1","k","1.20958510041237",1,7,0,2,0
"260050","img/object_images/ring03.jpg","1","k","1.10745670041069",1,7,0,2,0
"260050","img/object_images/pen06.jpg","1","k","2.16568070044741",1,7,0,2,0
"260050","img/object_images/towels01.jpg","0","k","2.97875760030001",1,7,0,2,0
"260050","img/object_images/camera03.jpg","0","k","1.83642030041665",1,7,0,2,0
"260050","img/object_images/screwdriver01.jpg","1","s","2.68371070036665",1,7,0,2,0
"260050","img/object_images/basketball_hoop02.jpg","1","s","0.869373300578445",1,7,0,2,0
"260050","img/object_images/clipboard01.jpg","1","s","1.44773780042306",1,7,0,2,0
"260050","img/object_images/bottle06.jpg","1","k","2.05852830037475",1,7,0,2,0
"260050","img/object_images/box03.jpg","0","k","2.65910430066288",1,7,0,2,0
"260050","img/object_images/wire02.jpg","1","k","1.40749640017748",1,7,0,2,0
"260050","img/object_images/bicycle01.jpg","1","s","1.69205510057509",1,7,0,2,0
"260050","img/object_images/phone04.jpg","1","s","1.06899640057236",1,8,0,2,0
"260050","img/object_images/belt03.jpg","1","k","1.56438330002129",1,8,0,2,0
"260050","img/object_images/calculator01.jpg","1","k","1.44238210050389",1,8,0,2,0
"260050","img/object_images/bottle07.jpg","1","s","2.4505277001299",1,8,0,2,0
"260050","img/object_images/cellphone01.jpg","0","s","1.73283680016175",1,8,0,2,0
"260050","img/object_images/gift_box04.jpg","1","s","0.970838400069624",1,8,0,2,0
"260050","img/object_images/toilet_paper01.jpg","0","s","3.12047180021182",1,8,0,2,0
"260050","img/object_images/pillows01.jpg","1","k","2.11837330041453",1,8,0,2,0
"260050","img/object_images/gift_box01.jpg","1","s","1.77655180031434",1,8,0,2,0
"260050","img/object_images/tool20.jpg","1","k","1.18055470054969",1,8,0,2,0
"260050","img/object_images/laptop03.jpg","1","k","2.28672030055895",1,8,0,2,0
"260050","img/object_images/knit04.jpg","1","k","1.80087839998305",1,8,0,2,0
"260050","img/object_images/helmet02.jpg","1","s","1.369479900226",1,8,0,2,0
"260050","img/object_images/couch01.jpg","1","k","1.99714910052717",1,8,0,2,0
"260050","img/object_images/wagon_cart03.jpg","0","k","2.06720160041004",1,8,0,2,0
"260050","img/object_images/Safe01.jpg","1","s","1.78237430006266",1,8,0,2,0
"260050","img/object_images/cellphone02.jpg","0","s","1.15827610017732",1,8,0,2,0
"260050","img/object_images/egg_basket01.jpg","1","k","2.04684960050508",1,8,0,2,0
"260050","img/object_images/chess_piece01.jpg","0","k","3.38326100027189",1,8,0,2,0
"260050","img/object_images/satellite01.jpg","1","s","1.86346360016614",1,8,0,2,0
"260050","img/object_images/gift_box03.jpg","1","s","1.23653540061787",1,8,0,2,0
"260050","img/object_images/Shoes05.jpg","1","k","7.05038420017809",1,8,0,2,0
"260050","img/object_images/scoreboard01.jpg","1","s","2.56709760054946",1,8,0,2,0
"260050","img/object_images/frisbee01.jpg","1","k","1.43947910005227",1,8,0,2,0
"260050","img/object_images/hat06.jpg","1","k","1.45854130014777",1,8,0,2,0
"260050","img/object_images/dart01.jpg","1","s","1.0975097999908",1,8,0,2,0
"260050","img/object_images/ladle02.jpg","0","s","1.44654670031741",1,8,0,2,0
"260050","img/object_images/dresser04.jpg","1","k","1.52055229991674",1,8,0,2,0
"260050","img/object_images/helmet04.jpg","1","k","2.96481769997626",1,8,0,2,0
"260050","img/object_images/fire_extinguisher01.jpg","1","k","2.59219210036099",1,8,0,2,0
"260050","img/object_images/Screws01.jpg","1","k","1.47923740046099",1,8,0,2,0
"260050","img/object_images/pot01 (1).jpg","1","k","1.38728919997811",1,8,0,2,0
"260050","img/object_images/toilet_paper_dispenser01.jpg","0","s","4.25042540021241",1,8,0,2,0
"260050","img/object_images/lantern01.jpg","1","s","1.0627415003255",1,8,0,2,0
"260050","img/object_images/dust_pan01.jpg","1","k","2.74794860044494",1,8,0,2,0
"260050","img/object_images/sponge03.jpg","1","s","0.763820799998939",1,8,0,2,0
"260050","img/object_images/floppy_disk03.jpg","1","s","1.58114260062575",1,8,0,2,0
"260050","img/object_images/nut_cracker01.jpg","1","k","1.58480260055512",1,8,0,2,0
"260050","img/object_images/pan03.jpg","1","s","1.50240660039708",1,8,0,2,0
"260050","img/object_images/chair01.jpg","0","s","1.98302150052041",1,8,0,2,0
"260050","img/object_images/skate_board01.jpg","1","k","1.2710372004658",1,8,0,2,0
"260050","img/object_images/floss01.jpg","1","k","1.01115790009499",1,8,0,2,0
"260050","img/object_images/Recycling01.jpg","1","k","2.55145230004564",1,8,0,2,0
"260050","img/object_images/airfryer02.jpg","0","k","1.79214050015435",1,8,0,2,0
"260050","img/object_images/blanket01.jpg","0","k","2.10552470013499",1,8,0,2,0
"260050","img/object_images/drone01.jpg","1","k","1.2440462000668",1,8,0,2,0
"260050","img/object_images/shovel03.jpg","1","k","2.28211610019207",1,8,0,2,0
"260050","img/object_images/tool09.jpg","0","s","1.3391181002371",1,8,0,2,0
