"participant_id","current_trial_object","pre_trial_object","post_trial_object","current_trial_accuracy","pre_trial_accuracy","post_trial_accuracy","current_trial_congruency","pre_trial_congruency","post_trial_congruency","current_trial_rt","pre_trial_rt","post_trial_rt","current_trial_responded","pre_trial_responded","post_trial_responded","current_trial_legitResponse","pre_trial_legitResponse","post_trial_legitResponse","current_trial_resp_nums","pre_trial_resp_nums","post_trial_resp_nums"
"260041","img/object_images/robe01.jpg",NA,"img/object_images/umbrella01.jpg","1",NA,"1","1",NA,"0","0.604588400019566",NA,"0.598671699990518","1",NA,"1","1",NA,"1","1",NA,"1"
"260041","img/object_images/umbrella01.jpg","img/object_images/robe01.jpg","img/object_images/accardion01.jpg","1","1","1","0","1","1","0.598671699990518","0.604588400019566","0.368646900024032","1","1","1","1","1","1","1","1","1"
"260041","img/object_images/accardion01.jpg","img/object_images/umbrella01.jpg","img/object_images/pitcher05.jpg","1","1","1","1","0","0","0.368646900024032","0.598671699990518","0.529116299992893","1","1","1","1","1","1","1","1","1"
"260041","img/object_images/pitcher05.jpg","img/object_images/accardion01.jpg","img/object_images/Lint_Roller02.jpg","1","1","1","0","1","0","0.529116299992893","0.368646900024032","0.50579830002971","1","1","1","1","1","1","1","1","1"
"260041","img/object_images/Lint_Roller02.jpg","img/object_images/pitcher05.jpg","img/object_images/spatula02.jpg","1","1","1","0","0","1","0.50579830002971","0.529116299992893","0.387026299984427","1","1","1","1","1","1","1","1","1"
"260041","img/object_images/spatula02.jpg","img/object_images/Lint_Roller02.jpg","img/object_images/microphone03.jpg","1","1","1","1","0","1","0.387026299984427","0.50579830002971","0.406216200004565","1","1","1","1","1","1","1","1","1"
"260041","img/object_images/microphone03.jpg","img/object_images/spatula02.jpg","img/object_images/chair02.jpg","1","1","0","1","1","1","0.406216200004565","0.387026299984427","0.511636900017038","1","1","1","1","1","1","1","1","2"
"260041","img/object_images/chair02.jpg","img/object_images/microphone03.jpg","img/object_images/trash_can03.jpg","0","1","1","1","1","1","0.511636900017038","0.406216200004565","0.543808899994474","1","1","1","1","1","1","2","1","1"
"260041","img/object_images/trash_can03.jpg","img/object_images/chair02.jpg","img/object_images/shoes08.jpg","1","0","1","1","1","1","0.543808899994474","0.511636900017038","0.476311500009615","1","1","1","1","1","1","1","2","1"
"260041","img/object_images/shoes08.jpg","img/object_images/trash_can03.jpg","img/object_images/hair_brush02.jpg","1","1","1","1","1","0","0.476311500009615","0.543808899994474","0.522174899990205","1","1","1","1","1","1","1","1","1"
"260041","img/object_images/hair_brush02.jpg","img/object_images/shoes08.jpg","img/object_images/chess_piece01.jpg","1","1","0","0","1","0","0.522174899990205","0.476311500009615","0.483776200009743","1","1","1","1","1","1","1","1","1"
"260041","img/object_images/chess_piece01.jpg","img/object_images/hair_brush02.jpg","img/object_images/gift_box05.jpg","0","1","1","0","0","0","0.483776200009743","0.522174899990205","0.689315199997509","1","1","1","1","1","1","1","1","1"
"260041","img/object_images/gift_box05.jpg","img/object_images/chess_piece01.jpg","img/object_images/helmet02.jpg","1","0","1","0","0","0","0.689315199997509","0.483776200009743","0.533647200005362","1","1","1","1","1","1","1","1","1"
"260041","img/object_images/helmet02.jpg","img/object_images/gift_box05.jpg","img/object_images/vase01.jpg","1","1","1","0","0","0","0.533647200005362","0.689315199997509","0.537060200003907","1","1","1","1","1","1","1","1","1"
"260041","img/object_images/vase01.jpg","img/object_images/helmet02.jpg","img/object_images/backpack03.jpg","1","1","1","0","0","1","0.537060200003907","0.533647200005362","0.489775099995313","1","1","1","1","1","1","1","1","1"
"260041","img/object_images/backpack03.jpg","img/object_images/vase01.jpg","img/object_images/laptop01.jpg","1","1","1","1","0","0","0.489775099995313","0.537060200003907","0.481579700019211","1","1","1","1","1","1","1","1","1"
"260041","img/object_images/laptop01.jpg","img/object_images/backpack03.jpg","img/object_images/hair_dryer01.jpg","1","1","1","0","1","0","0.481579700019211","0.489775099995313","0.442521000019042","1","1","1","1","1","1","1","1","1"
"260041","img/object_images/hair_dryer01.jpg","img/object_images/laptop01.jpg","img/object_images/calculator01.jpg","1","1","1","0","0","1","0.442521000019042","0.481579700019211","0.404147799999919","1","1","1","1","1","1","1","1","1"
"260041","img/object_images/calculator01.jpg","img/object_images/hair_dryer01.jpg","img/object_images/towels01.jpg","1","1","1","1","0","0","0.404147799999919","0.442521000019042","0.472543799987761","1","1","1","1","1","1","1","1","1"
"260041","img/object_images/towels01.jpg","img/object_images/calculator01.jpg","img/object_images/fan04.jpg","1","1","1","0","1","0","0.472543799987761","0.404147799999919","0.513443900010316","1","1","1","1","1","1","1","1","1"
"260041","img/object_images/fan04.jpg","img/object_images/towels01.jpg","img/object_images/lock01.jpg","1","1","1","0","0","0","0.513443900010316","0.472543799987761","0.61489020002773","1","1","1","1","1","1","1","1","1"
"260041","img/object_images/lock01.jpg","img/object_images/fan04.jpg","img/object_images/combs01.jpg","1","1","1","0","0","1","0.61489020002773","0.513443900010316","0.648381899984088","1","1","1","1","1","1","1","1","1"
"260041","img/object_images/combs01.jpg","img/object_images/lock01.jpg","img/object_images/stove01.jpg","1","1","1","1","0","0","0.648381899984088","0.61489020002773","0.462747300014598","1","1","1","1","1","1","1","1","1"
"260041","img/object_images/stove01.jpg","img/object_images/combs01.jpg","img/object_images/surf_board01.jpg","1","1","1","0","1","1","0.462747300014598","0.648381899984088","0.419843800016679","1","1","1","1","1","1","1","1","1"
"260041","img/object_images/surf_board01.jpg","img/object_images/stove01.jpg","img/object_images/ball02.jpg","1","1","1","1","0","1","0.419843800016679","0.462747300014598","0.48266139999032","1","1","1","1","1","1","1","1","1"
"260041","img/object_images/ball02.jpg","img/object_images/surf_board01.jpg","img/object_images/bucket02.jpg","1","1","1","1","1","1","0.48266139999032","0.419843800016679","0.441487400006736","1","1","1","1","1","1","1","1","1"
"260041","img/object_images/bucket02.jpg","img/object_images/ball02.jpg","img/object_images/trash_can05.jpg","1","1","1","1","1","1","0.441487400006736","0.48266139999032","0.538165100006154","1","1","1","1","1","1","1","1","1"
"260041","img/object_images/trash_can05.jpg","img/object_images/bucket02.jpg","img/object_images/laptop03.jpg","1","1","1","1","1","1","0.538165100006154","0.441487400006736","1.0267452999833","1","1","1","1","1","1","1","1","1"
"260041","img/object_images/laptop03.jpg","img/object_images/trash_can05.jpg","img/object_images/toy05.jpg","1","1","1","1","1","0","1.0267452999833","0.538165100006154","0.697356999997282","1","1","1","1","1","1","1","1","1"
"260041","img/object_images/toy05.jpg","img/object_images/laptop03.jpg","img/object_images/Vest02.jpg","1","1","1","0","1","0","0.697356999997282","1.0267452999833","0.697160700015957","1","1","1","1","1","1","1","1","1"
"260041","img/object_images/Vest02.jpg","img/object_images/toy05.jpg","img/object_images/jewel03.jpg","1","1","1","0","0","1","0.697160700015957","0.697356999997282","0.496803999994882","1","1","1","1","1","1","1","1","1"
"260041","img/object_images/jewel03.jpg","img/object_images/Vest02.jpg",NA,"1","1",NA,"1","0",NA,"0.496803999994882","0.697160700015957",NA,"1","1",NA,"1","1",NA,"1","1",NA
"260041","img/object_images/Screws01.jpg",NA,"img/object_images/ironing_table01.jpg","1",NA,"1","1",NA,"0","0.4309149000037",NA,"0.5019895999867","1",NA,"1","1",NA,"1","1",NA,"1"
"260041","img/object_images/ironing_table01.jpg","img/object_images/Screws01.jpg","img/object_images/bath_tub01.jpg","1","1","1","0","1","0","0.5019895999867","0.4309149000037","0.39581069999258","1","1","1","1","1","1","1","1","1"
"260041","img/object_images/bath_tub01.jpg","img/object_images/ironing_table01.jpg","img/object_images/couch03.jpg","1","1","1","0","0","0","0.39581069999258","0.5019895999867","0.405039600009331","1","1","1","1","1","1","1","1","1"
"260041","img/object_images/couch03.jpg","img/object_images/bath_tub01.jpg","img/object_images/gift_box03.jpg","1","1","0","0","0","0","0.405039600009331","0.39581069999258","0.353498899989063","1","1","1","1","1","1","1","1","1"
"260041","img/object_images/gift_box03.jpg","img/object_images/couch03.jpg","img/object_images/measuring_tape02.jpg","0","1","1","0","0","1","0.353498899989063","0.405039600009331","0.351329099998111","1","1","1","1","1","1","1","1","1"
"260041","img/object_images/measuring_tape02.jpg","img/object_images/gift_box03.jpg","img/object_images/socks02.jpg","1","0","0","1","0","0","0.351329099998111","0.353498899989063","0.366234599991003","1","1","1","1","1","1","1","1","1"
"260041","img/object_images/socks02.jpg","img/object_images/measuring_tape02.jpg","img/object_images/camera07.jpg","0","1","0","0","1","1","0.366234599991003","0.351329099998111","0.689775300008478","1","1","1","1","1","1","1","1","1"
"260041","img/object_images/camera07.jpg","img/object_images/socks02.jpg","img/object_images/handkerchief01.jpg","0","0","1","1","0","0","0.689775300008478","0.366234599991003","0.541685700009111","1","1","1","1","1","1","1","1","1"
"260041","img/object_images/handkerchief01.jpg","img/object_images/camera07.jpg","img/object_images/jewelry01.jpg","1","0","1","0","1","1","0.541685700009111","0.689775300008478","0.453659500024514","1","1","1","1","1","1","1","1","1"
"260041","img/object_images/jewelry01.jpg","img/object_images/handkerchief01.jpg","img/object_images/vga_port 01.jpg","1","1","1","1","0","0","0.453659500024514","0.541685700009111","0.514293999993242","1","1","1","1","1","1","1","1","1"
"260041","img/object_images/vga_port 01.jpg","img/object_images/jewelry01.jpg","img/object_images/hammer01.jpg","1","1","1","0","1","0","0.514293999993242","0.453659500024514","0.497362599999178","1","1","1","1","1","1","1","1","1"
"260041","img/object_images/hammer01.jpg","img/object_images/vga_port 01.jpg","img/object_images/golf_ball03.jpg","1","1","1","0","0","1","0.497362599999178","0.514293999993242","0.382082700001774","1","1","1","1","1","1","1","1","1"
"260041","img/object_images/golf_ball03.jpg","img/object_images/hammer01.jpg","img/object_images/bow_tie02.jpg","1","1","1","1","0","0","0.382082700001774","0.497362599999178","0.483834800019395","1","1","1","1","1","1","1","1","1"
"260041","img/object_images/bow_tie02.jpg","img/object_images/golf_ball03.jpg","img/object_images/jacket03.jpg","1","1","0","0","1","0","0.483834800019395","0.382082700001774","0.375994299974991","1","1","1","1","1","1","1","1","1"
"260041","img/object_images/jacket03.jpg","img/object_images/bow_tie02.jpg","img/object_images/clip02.jpg","0","1","1","0","0","1","0.375994299974991","0.483834800019395","0.414930600003572","1","1","1","1","1","1","1","1","1"
"260041","img/object_images/clip02.jpg","img/object_images/jacket03.jpg","img/object_images/pitcher02.jpg","1","0","1","1","0","1","0.414930600003572","0.375994299974991","0.430983900005231","1","1","1","1","1","1","1","1","1"
"260041","img/object_images/pitcher02.jpg","img/object_images/clip02.jpg","img/object_images/sleeping_bag01.jpg","1","1","0","1","1","0","0.430983900005231","0.414930600003572","0.415440499986289","1","1","1","1","1","1","1","1","1"
"260041","img/object_images/sleeping_bag01.jpg","img/object_images/pitcher02.jpg","img/object_images/Witchhat01.jpg","0","1","1","0","1","1","0.415440499986289","0.430983900005231","0.424565599998459","1","1","1","1","1","1","1","1","1"
"260041","img/object_images/Witchhat01.jpg","img/object_images/sleeping_bag01.jpg","img/object_images/lawn_mower01.jpg","1","0","1","1","0","1","0.424565599998459","0.415440499986289","0.424639300006675","1","1","1","1","1","1","1","1","1"
"260041","img/object_images/lawn_mower01.jpg","img/object_images/Witchhat01.jpg","img/object_images/paper_cup01.jpg","1","1","1","1","1","0","0.424639300006675","0.424565599998459","0.4805028999981","1","1","1","1","1","1","1","1","1"
"260041","img/object_images/paper_cup01.jpg","img/object_images/lawn_mower01.jpg","img/object_images/grater01.jpg","1","1","1","0","1","1","0.4805028999981","0.424639300006675","0.381868099997519","1","1","1","1","1","1","1","1","1"
"260041","img/object_images/grater01.jpg","img/object_images/paper_cup01.jpg","img/object_images/wallet02.jpg","1","1","1","1","0","1","0.381868099997519","0.4805028999981","0.417248100013239","1","1","1","1","1","1","1","1","1"
"260041","img/object_images/wallet02.jpg","img/object_images/grater01.jpg","img/object_images/fork03.jpg","1","1","1","1","1","1","0.417248100013239","0.381868099997519","0.463060000009136","1","1","1","1","1","1","1","1","1"
"260041","img/object_images/fork03.jpg","img/object_images/wallet02.jpg","img/object_images/gift_box01.jpg","1","1","1","1","1","1","0.463060000009136","0.417248100013239","0.462576600024477","1","1","1","1","1","1","1","1","1"
"260041","img/object_images/gift_box01.jpg","img/object_images/fork03.jpg","img/object_images/coloring_pencil01.jpg","1","1","1","1","1","1","0.462576600024477","0.463060000009136","0.574901200016029","1","1","1","1","1","1","1","1","1"
"260041","img/object_images/coloring_pencil01.jpg","img/object_images/gift_box01.jpg","img/object_images/funnel01.jpg","1","1","1","1","1","0","0.574901200016029","0.462576600024477","0.481469600024866","1","1","1","1","1","1","1","1","1"
"260041","img/object_images/funnel01.jpg","img/object_images/coloring_pencil01.jpg","img/object_images/lock04.jpg","1","1","1","0","1","1","0.481469600024866","0.574901200016029","0.409629700006917","1","1","1","1","1","1","1","1","1"
"260041","img/object_images/lock04.jpg","img/object_images/funnel01.jpg","img/object_images/balloon01.jpg","1","1","1","1","0","0","0.409629700006917","0.481469600024866","0.420333500020206","1","1","1","1","1","1","1","1","1"
"260041","img/object_images/balloon01.jpg","img/object_images/lock04.jpg","img/object_images/gift_box02.jpg","1","1","1","0","1","1","0.420333500020206","0.409629700006917","0.403915999981109","1","1","1","1","1","1","1","1","1"
"260041","img/object_images/gift_box02.jpg","img/object_images/balloon01.jpg","img/object_images/dresser04.jpg","1","1","1","1","0","0","0.403915999981109","0.420333500020206","0.489355199999409","1","1","1","1","1","1","1","1","1"
"260041","img/object_images/dresser04.jpg","img/object_images/gift_box02.jpg","img/object_images/bow_tie01.jpg","1","1","1","0","1","0","0.489355199999409","0.403915999981109","0.543606799998088","1","1","1","1","1","1","1","1","1"
"260041","img/object_images/bow_tie01.jpg","img/object_images/dresser04.jpg",NA,"1","1",NA,"0","0",NA,"0.543606799998088","0.489355199999409",NA,"1","1",NA,"1","1",NA,"1","1",NA
"260041","img/object_images/book03.jpg",NA,"img/object_images/hammer03.jpg","1",NA,"1","1",NA,"1","0.498392300010892",NA,"0.420938499999465","1",NA,"1","1",NA,"1","1",NA,"1"
"260041","img/object_images/hammer03.jpg","img/object_images/book03.jpg","img/object_images/chess_piece02.jpg","1","1","1","1","1","1","0.420938499999465","0.498392300010892","0.416257299977588","1","1","1","1","1","1","1","1","1"
"260041","img/object_images/chess_piece02.jpg","img/object_images/hammer03.jpg","img/object_images/compass01.jpg","1","1","1","1","1","1","0.416257299977588","0.420938499999465","0.386277099984","1","1","1","1","1","1","1","1","1"
"260041","img/object_images/compass01.jpg","img/object_images/chess_piece02.jpg","img/object_images/usb02.jpg","1","1","1","1","1","0","0.386277099984","0.416257299977588","0.46881660001236","1","1","1","1","1","1","1","1","1"
"260041","img/object_images/usb02.jpg","img/object_images/compass01.jpg","img/object_images/wire02.jpg","1","1","1","0","1","1","0.46881660001236","0.386277099984","0.383459300006507","1","1","1","1","1","1","1","1","1"
"260041","img/object_images/wire02.jpg","img/object_images/usb02.jpg","img/object_images/paint_brush04.jpg","1","1","1","1","0","0","0.383459300006507","0.46881660001236","0.38397100000293","1","1","1","1","1","1","1","1","1"
"260041","img/object_images/paint_brush04.jpg","img/object_images/wire02.jpg","img/object_images/microscope01.jpg","1","1","1","0","1","0","0.38397100000293","0.383459300006507","0.364178800024092","1","1","1","1","1","1","1","1","1"
"260041","img/object_images/microscope01.jpg","img/object_images/paint_brush04.jpg","img/object_images/Oven01.jpg","1","1","1","0","0","1","0.364178800024092","0.38397100000293","0.346003800019389","1","1","1","1","1","1","1","1","1"
"260041","img/object_images/Oven01.jpg","img/object_images/microscope01.jpg","img/object_images/chair05.jpg","1","1","1","1","0","0","0.346003800019389","0.364178800024092","0.490870000008726","1","1","1","1","1","1","1","1","1"
"260041","img/object_images/chair05.jpg","img/object_images/Oven01.jpg","img/object_images/tv02.jpg","1","1","1","0","1","0","0.490870000008726","0.346003800019389","0.348085200006608","1","1","1","1","1","1","1","1","1"
"260041","img/object_images/tv02.jpg","img/object_images/chair05.jpg","img/object_images/cellphone01.jpg","1","1","1","0","0","1","0.348085200006608","0.490870000008726","0.429200499987928","1","1","1","1","1","1","1","1","1"
"260041","img/object_images/cellphone01.jpg","img/object_images/tv02.jpg","img/object_images/motorcycle01.jpg","1","1","1","1","0","1","0.429200499987928","0.348085200006608","0.401261299994076","1","1","1","1","1","1","1","1","1"
"260041","img/object_images/motorcycle01.jpg","img/object_images/cellphone01.jpg","img/object_images/Staples01.jpg","1","1","1","1","1","1","0.401261299994076","0.429200499987928","0.472483100020327","1","1","1","1","1","1","1","1","1"
"260041","img/object_images/Staples01.jpg","img/object_images/motorcycle01.jpg","img/object_images/pitcher01.jpg","1","1","1","1","1","0","0.472483100020327","0.401261299994076","0.463289900013478","1","1","1","1","1","1","1","1","1"
"260041","img/object_images/pitcher01.jpg","img/object_images/Staples01.jpg","img/object_images/pen03.jpg","1","1","1","0","1","0","0.463289900013478","0.472483100020327","0.465326800011098","1","1","1","1","1","1","1","1","1"
"260041","img/object_images/pen03.jpg","img/object_images/pitcher01.jpg","img/object_images/bottle01.jpg","1","1","0","0","0","0","0.465326800011098","0.463289900013478","0.467158000014024","1","1","1","1","1","1","1","1","1"
"260041","img/object_images/bottle01.jpg","img/object_images/pen03.jpg","img/object_images/note_book01.jpg","0","1","1","0","0","0","0.467158000014024","0.465326800011098","0.488928200007649","1","1","1","1","1","1","1","1","1"
"260041","img/object_images/note_book01.jpg","img/object_images/bottle01.jpg","img/object_images/floppy_disk03.jpg","1","0","1","0","0","1","0.488928200007649","0.467158000014024","0.36387860000832","1","1","1","1","1","1","1","1","1"
"260041","img/object_images/floppy_disk03.jpg","img/object_images/note_book01.jpg","img/object_images/Thermometer01.jpg","1","1","1","1","0","0","0.36387860000832","0.488928200007649","0.420768800016958","1","1","1","1","1","1","1","1","1"
"260041","img/object_images/Thermometer01.jpg","img/object_images/floppy_disk03.jpg","img/object_images/lid01.jpg","1","1","1","0","1","1","0.420768800016958","0.36387860000832","0.450667200027965","1","1","1","1","1","1","1","1","1"
"260041","img/object_images/lid01.jpg","img/object_images/Thermometer01.jpg","img/object_images/clock02.jpg","1","1","0","1","0","0","0.450667200027965","0.420768800016958","0.399196000013035","1","1","1","1","1","1","1","1","1"
"260041","img/object_images/clock02.jpg","img/object_images/lid01.jpg","img/object_images/ear_bud01.jpg","0","1","1","0","1","1","0.399196000013035","0.450667200027965","0.471611299988581","1","1","1","1","1","1","1","1","1"
"260041","img/object_images/ear_bud01.jpg","img/object_images/clock02.jpg","img/object_images/crutches02.jpg","1","0","1","1","0","0","0.471611299988581","0.399196000013035","0.47770750001655","1","1","1","1","1","1","1","1","1"
"260041","img/object_images/crutches02.jpg","img/object_images/ear_bud01.jpg","img/object_images/pillows01.jpg","1","1","1","0","1","1","0.47770750001655","0.471611299988581","0.403439400019124","1","1","1","1","1","1","1","1","1"
"260041","img/object_images/pillows01.jpg","img/object_images/crutches02.jpg","img/object_images/bell02.jpg","1","1","1","1","0","0","0.403439400019124","0.47770750001655","0.502169800020056","1","1","1","1","1","1","1","1","1"
"260041","img/object_images/bell02.jpg","img/object_images/pillows01.jpg","img/object_images/clip03.jpg","1","1","1","0","1","0","0.502169800020056","0.403439400019124","0.608040499995695","1","1","1","1","1","1","1","1","1"
"260041","img/object_images/clip03.jpg","img/object_images/bell02.jpg","img/object_images/tennis_racket02.jpg","1","1","1","0","0","1","0.608040499995695","0.502169800020056","0.636581099999603","1","1","1","1","1","1","1","1","1"
"260041","img/object_images/tennis_racket02.jpg","img/object_images/clip03.jpg","img/object_images/retainer01.jpg","1","1","1","1","0","0","0.636581099999603","0.608040499995695","0.454664400022011","1","1","1","1","1","1","1","1","1"
"260041","img/object_images/retainer01.jpg","img/object_images/tennis_racket02.jpg","img/object_images/floppy_disk02.jpg","1","1","1","0","1","0","0.454664400022011","0.636581099999603","0.580427499982761","1","1","1","1","1","1","1","1","1"
"260041","img/object_images/floppy_disk02.jpg","img/object_images/retainer01.jpg","img/object_images/knit05.jpg","1","1","1","0","0","1","0.580427499982761","0.454664400022011","0.475013300019782","1","1","1","1","1","1","1","1","2"
"260041","img/object_images/knit05.jpg","img/object_images/floppy_disk02.jpg","img/object_images/knife04.jpg","1","1","1","1","0","1","0.475013300019782","0.580427499982761","0.543624000012642","1","1","1","1","1","1","2","1","1"
"260041","img/object_images/knife04.jpg","img/object_images/knit05.jpg",NA,"1","1",NA,"1","1",NA,"0.543624000012642","0.475013300019782",NA,"1","1",NA,"1","1",NA,"1","2",NA
"260041","img/object_images/Pottery01.jpg",NA,"img/object_images/cup03.jpg","1",NA,"1","0",NA,"1","0.509829499991611",NA,"0.349518800008809","1",NA,"1","1",NA,"1","1",NA,"1"
"260041","img/object_images/cup03.jpg","img/object_images/Pottery01.jpg","img/object_images/book01.jpg","1","1","1","1","0","1","0.349518800008809","0.509829499991611","0.381827100005466","1","1","1","1","1","1","1","1","1"
"260041","img/object_images/book01.jpg","img/object_images/cup03.jpg","img/object_images/colander01.jpg","1","1","0","1","1","0","0.381827100005466","0.349518800008809","0.397633300017333","1","1","1","1","1","1","1","1","1"
"260041","img/object_images/colander01.jpg","img/object_images/book01.jpg","img/object_images/Kitchen_Towel.jpg","0","1","1","0","1","0","0.397633300017333","0.381827100005466","0.514235000009649","1","1","1","1","1","1","1","1","1"
"260041","img/object_images/Kitchen_Towel.jpg","img/object_images/colander01.jpg","img/object_images/tool08.jpg","1","0","1","0","0","0","0.514235000009649","0.397633300017333","0.591327500005718","1","1","1","1","1","1","1","1","1"
"260041","img/object_images/tool08.jpg","img/object_images/Kitchen_Towel.jpg","img/object_images/ring03.jpg","1","1","1","0","0","1","0.591327500005718","0.514235000009649","0.4313136000128","1","1","1","1","1","1","1","1","1"
"260041","img/object_images/ring03.jpg","img/object_images/tool08.jpg","img/object_images/cellphone02.jpg","1","1","1","1","0","1","0.4313136000128","0.591327500005718","0.41830220000702","1","1","1","1","1","1","1","1","1"
"260041","img/object_images/cellphone02.jpg","img/object_images/ring03.jpg","img/object_images/yo_yo01.jpg","1","1","1","1","1","0","0.41830220000702","0.4313136000128","0.50338800001191","1","1","1","1","1","1","1","1","1"
"260041","img/object_images/yo_yo01.jpg","img/object_images/cellphone02.jpg","img/object_images/basket02.jpg","1","1","1","0","1","0","0.50338800001191","0.41830220000702","0.461455999989994","1","1","1","1","1","1","1","1","1"
"260041","img/object_images/basket02.jpg","img/object_images/yo_yo01.jpg","img/object_images/TrashCan02.jpg","1","1","1","0","0","1","0.461455999989994","0.50338800001191","0.38319589997991","1","1","1","1","1","1","1","1","1"
"260041","img/object_images/TrashCan02.jpg","img/object_images/basket02.jpg","img/object_images/exfoliater_brush01.jpg","1","1","1","1","0","0","0.38319589997991","0.461455999989994","0.375622099993052","1","1","1","1","1","1","1","1","1"
"260041","img/object_images/exfoliater_brush01.jpg","img/object_images/TrashCan02.jpg","img/object_images/blanket01.jpg","1","1","1","0","1","1","0.375622099993052","0.38319589997991","0.362906599999405","1","1","1","1","1","1","1","1","1"
"260041","img/object_images/blanket01.jpg","img/object_images/exfoliater_brush01.jpg","img/object_images/pan01.jpg","1","1","1","1","0","1","0.362906599999405","0.375622099993052","0.396807899989653","1","1","1","1","1","1","1","1","1"
"260041","img/object_images/pan01.jpg","img/object_images/blanket01.jpg","img/object_images/hair_clips01.jpg","1","1","0","1","1","1","0.396807899989653","0.362906599999405","0.403792299999623","1","1","1","1","1","1","1","1","1"
"260041","img/object_images/hair_clips01.jpg","img/object_images/pan01.jpg","img/object_images/gift_box04.jpg","0","1","1","1","1","0","0.403792299999623","0.396807899989653","0.552170299983118","1","1","1","1","1","1","1","1","1"
"260041","img/object_images/gift_box04.jpg","img/object_images/hair_clips01.jpg","img/object_images/faucet01.jpg","1","0","1","0","1","0","0.552170299983118","0.403792299999623","0.515107399987755","1","1","1","1","1","1","1","1","1"
"260041","img/object_images/faucet01.jpg","img/object_images/gift_box04.jpg","img/object_images/purse01.jpg","1","1","1","0","0","1","0.515107399987755","0.552170299983118","0.379621700005373","1","1","1","1","1","1","1","1","1"
"260041","img/object_images/purse01.jpg","img/object_images/faucet01.jpg","img/object_images/fire_extinguisher01.jpg","1","1","0","1","0","0","0.379621700005373","0.515107399987755","0.36309070000425","1","1","1","1","1","1","1","1","1"
"260041","img/object_images/fire_extinguisher01.jpg","img/object_images/purse01.jpg","img/object_images/projector01.jpg","0","1","0","0","1","0","0.36309070000425","0.379621700005373","0.409507699980168","1","1","1","1","1","1","1","1","1"
"260041","img/object_images/projector01.jpg","img/object_images/fire_extinguisher01.jpg","img/object_images/tool07.jpg","0","0","1","0","0","0","0.409507699980168","0.36309070000425","0.517346599983284","1","1","1","1","1","1","1","1","1"
"260041","img/object_images/tool07.jpg","img/object_images/projector01.jpg","img/object_images/glasses06.jpg","1","0","1","0","0","1","0.517346599983284","0.409507699980168","0.460481000016443","1","1","1","1","1","1","1","1","1"
"260041","img/object_images/glasses06.jpg","img/object_images/tool07.jpg","img/object_images/Traffic Sign 01.jpg","1","1","1","1","0","0","0.460481000016443","0.517346599983284","0.560374699998647","1","1","1","1","1","1","1","1","1"
"260041","img/object_images/Traffic Sign 01.jpg","img/object_images/glasses06.jpg","img/object_images/speaker01.jpg","1","1","1","0","1","1","0.560374699998647","0.460481000016443","0.43657869999879","1","1","1","1","1","1","1","1","1"
"260041","img/object_images/speaker01.jpg","img/object_images/Traffic Sign 01.jpg","img/object_images/handcuffs01.jpg","1","1","1","1","0","0","0.43657869999879","0.560374699998647","0.556553400005214","1","1","1","1","1","1","1","1","1"
"260041","img/object_images/handcuffs01.jpg","img/object_images/speaker01.jpg","img/object_images/lighter01.jpg","1","1","0","0","1","1","0.556553400005214","0.43657869999879","0.511628200009","1","1","1","1","1","1","1","1","1"
"260041","img/object_images/lighter01.jpg","img/object_images/handcuffs01.jpg","img/object_images/tray01.jpg","0","1","1","1","0","1","0.511628200009","0.556553400005214","0.551015500008361","1","1","1","1","1","1","1","1","1"
"260041","img/object_images/tray01.jpg","img/object_images/lighter01.jpg","img/object_images/glasses07.jpg","1","0","1","1","1","1","0.551015500008361","0.511628200009","0.498976000002585","1","1","1","1","1","1","1","1","1"
"260041","img/object_images/glasses07.jpg","img/object_images/tray01.jpg","img/object_images/hole_puncher01.jpg","1","1","1","1","1","1","0.498976000002585","0.551015500008361","0.527163899998413","1","1","1","1","1","1","1","1","1"
"260041","img/object_images/hole_puncher01.jpg","img/object_images/glasses07.jpg","img/object_images/bicycle_lock01.jpg","1","1","1","1","1","0","0.527163899998413","0.498976000002585","0.509619599994039","1","1","1","1","1","1","1","1","1"
"260041","img/object_images/bicycle_lock01.jpg","img/object_images/hole_puncher01.jpg","img/object_images/jewelry09.jpg","1","1","1","0","1","1","0.509619599994039","0.527163899998413","0.447749000013573","1","1","1","1","1","1","1","1","1"
"260041","img/object_images/jewelry09.jpg","img/object_images/bicycle_lock01.jpg","img/object_images/Sprayer01.jpg","1","1","1","1","0","0","0.447749000013573","0.509619599994039","0.558939300011843","1","1","1","1","1","1","1","1","1"
"260041","img/object_images/Sprayer01.jpg","img/object_images/jewelry09.jpg",NA,"1","1",NA,"0","1",NA,"0.558939300011843","0.447749000013573",NA,"1","1",NA,"1","1",NA,"1","1",NA
"260041","img/object_images/audio_port01.jpg",NA,"img/object_images/chair03.jpg","1",NA,"0","1",NA,"0","0.506589199998416",NA,"0.51469830001588","1",NA,"1","1",NA,"1","1",NA,"2"
"260041","img/object_images/chair03.jpg","img/object_images/audio_port01.jpg","img/object_images/toaster01.jpg","0","1","1","0","1","1","0.51469830001588","0.506589199998416","0.5701909000054","1","1","1","1","1","1","2","1","1"
"260041","img/object_images/toaster01.jpg","img/object_images/chair03.jpg","img/object_images/hat06.jpg","1","0","1","1","0","0","0.5701909000054","0.51469830001588","0.496429699996952","1","1","1","1","1","1","1","2","1"
"260041","img/object_images/hat06.jpg","img/object_images/toaster01.jpg","img/object_images/bottle10.jpg","1","1","1","0","1","1","0.496429699996952","0.5701909000054","0.458363999990979","1","1","1","1","1","1","1","1","1"
"260041","img/object_images/bottle10.jpg","img/object_images/hat06.jpg","img/object_images/bicycle01.jpg","1","1","1","1","0","1","0.458363999990979","0.496429699996952","0.411910399998305","1","1","1","1","1","1","1","1","1"
"260041","img/object_images/bicycle01.jpg","img/object_images/bottle10.jpg","img/object_images/boat_toy10.jpg","1","1","1","1","1","0","0.411910399998305","0.458363999990979","0.542454099981114","1","1","1","1","1","1","1","1","1"
"260041","img/object_images/boat_toy10.jpg","img/object_images/bicycle01.jpg","img/object_images/knit01.jpg","1","1","1","0","1","0","0.542454099981114","0.411910399998305","0.51985689997673","1","1","1","1","1","1","1","1","1"
"260041","img/object_images/knit01.jpg","img/object_images/boat_toy10.jpg","img/object_images/tie02.jpg","1","1","1","0","0","0","0.51985689997673","0.542454099981114","0.55122520000441","1","1","1","1","1","1","1","1","1"
"260041","img/object_images/tie02.jpg","img/object_images/knit01.jpg","img/object_images/shoes07.jpg","1","1","1","0","0","0","0.55122520000441","0.51985689997673","0.457333300000755","1","1","1","1","1","1","1","1","1"
"260041","img/object_images/shoes07.jpg","img/object_images/tie02.jpg","img/object_images/wagon_cart03.jpg","1","1","1","0","0","1","0.457333300000755","0.55122520000441","0.447866500006057","1","1","1","1","1","1","1","1","1"
"260041","img/object_images/wagon_cart03.jpg","img/object_images/shoes07.jpg","img/object_images/scoreboard01.jpg","1","1","1","1","0","1","0.447866500006057","0.457333300000755","0.530563699983759","1","1","1","1","1","1","1","1","1"
"260041","img/object_images/scoreboard01.jpg","img/object_images/wagon_cart03.jpg","img/object_images/boat02.jpg","1","1","1","1","1","1","0.530563699983759","0.447866500006057","0.44140929999412","1","1","1","1","1","1","1","1","1"
"260041","img/object_images/boat02.jpg","img/object_images/scoreboard01.jpg","img/object_images/fan02.jpg","1","1","0","1","1","0","0.44140929999412","0.530563699983759","0.38038640000741","1","1","1","1","1","1","1","1","1"
"260041","img/object_images/fan02.jpg","img/object_images/boat02.jpg","img/object_images/perfume02.jpg","0","1","1","0","1","0","0.38038640000741","0.44140929999412","0.476095899997745","1","1","1","1","1","1","1","1","1"
"260041","img/object_images/perfume02.jpg","img/object_images/fan02.jpg","img/object_images/bean_bag02.jpg","1","0","1","0","0","1","0.476095899997745","0.38038640000741","0.519530800025677","1","1","1","1","1","1","1","1","1"
"260041","img/object_images/bean_bag02.jpg","img/object_images/perfume02.jpg","img/object_images/water_scooter01.jpg","1","1","0","1","0","1","0.519530800025677","0.476095899997745","0.39796520001255","1","1","1","1","1","1","1","1","1"
"260041","img/object_images/water_scooter01.jpg","img/object_images/bean_bag02.jpg","img/object_images/tool19.jpg","0","1","1","1","1","1","0.39796520001255","0.519530800025677","0.529583100025775","1","1","1","1","1","1","1","1","1"
"260041","img/object_images/tool19.jpg","img/object_images/water_scooter01.jpg","img/object_images/piggy_bank01.jpg","1","0","1","1","1","1","0.529583100025775","0.39796520001255","0.513379599986365","1","1","1","1","1","1","1","1","1"
"260041","img/object_images/piggy_bank01.jpg","img/object_images/tool19.jpg","img/object_images/purse04.jpg","1","1","1","1","1","1","0.513379599986365","0.529583100025775","0.476682299980894","1","1","1","1","1","1","1","1","1"
"260041","img/object_images/purse04.jpg","img/object_images/piggy_bank01.jpg","img/object_images/WoodBox01.jpg","1","1","1","1","1","0","0.476682299980894","0.513379599986365","0.538192500011064","1","1","1","1","1","1","1","1","1"
"260041","img/object_images/WoodBox01.jpg","img/object_images/purse04.jpg","img/object_images/hot_air_balloon02.jpg","1","1","1","0","1","0","0.538192500011064","0.476682299980894","0.634732000005897","1","1","1","1","1","1","1","1","1"
"260041","img/object_images/hot_air_balloon02.jpg","img/object_images/WoodBox01.jpg","img/object_images/helmet04.jpg","1","1","1","0","0","1","0.634732000005897","0.538192500011064","0.543523100001039","1","1","1","1","1","1","1","1","1"
"260041","img/object_images/helmet04.jpg","img/object_images/hot_air_balloon02.jpg","img/object_images/camera_lens01.jpg","1","1","1","1","0","1","0.543523100001039","0.634732000005897","0.523584800015669","1","1","1","1","1","1","1","1","1"
"260041","img/object_images/camera_lens01.jpg","img/object_images/helmet04.jpg","img/object_images/toilet_paper_dispenser01.jpg","1","1","1","1","1","1","0.523584800015669","0.543523100001039","0.494087400002172","1","1","1","1","1","1","1","1","1"
"260041","img/object_images/toilet_paper_dispenser01.jpg","img/object_images/camera_lens01.jpg","img/object_images/dog_leash01.jpg","1","1","1","1","1","0","0.494087400002172","0.523584800015669","0.498935199982952","1","1","1","1","1","1","1","1","1"
"260041","img/object_images/dog_leash01.jpg","img/object_images/toilet_paper_dispenser01.jpg","img/object_images/cellphone03.jpg","1","1","1","0","1","0","0.498935199982952","0.494087400002172","0.649953300016932","1","1","1","1","1","1","1","1","1"
"260041","img/object_images/cellphone03.jpg","img/object_images/dog_leash01.jpg","img/object_images/bottle09.jpg","1","1","1","0","0","0","0.649953300016932","0.498935199982952","0.48386889998801","1","1","1","1","1","1","1","1","1"
"260041","img/object_images/bottle09.jpg","img/object_images/cellphone03.jpg","img/object_images/bottle02.jpg","1","1","1","0","0","1","0.48386889998801","0.649953300016932","0.398136899981182","1","1","1","1","1","1","1","1","1"
"260041","img/object_images/bottle02.jpg","img/object_images/bottle09.jpg","img/object_images/coloring_pencil02.jpg","1","1","1","1","0","0","0.398136899981182","0.48386889998801","0.484500099992147","1","1","1","1","1","1","1","1","1"
"260041","img/object_images/coloring_pencil02.jpg","img/object_images/bottle02.jpg","img/object_images/flask01.jpg","1","1","1","0","1","0","0.484500099992147","0.398136899981182","1.76789259997895","1","1","1","1","1","1","1","1","1"
"260041","img/object_images/flask01.jpg","img/object_images/coloring_pencil02.jpg","img/object_images/pen05.jpg","1","1","1","0","0","0","1.76789259997895","0.484500099992147","0.753665299998829","1","1","1","1","1","1","1","1","1"
"260041","img/object_images/pen05.jpg","img/object_images/flask01.jpg",NA,"1","1",NA,"0","0",NA,"0.753665299998829","1.76789259997895",NA,"1","1",NA,"1","1",NA,"1","1",NA
"260041","img/object_images/Ring02.jpg",NA,"img/object_images/stapler.jpg","1",NA,"1","0",NA,"1","0.572233599988976",NA,"0.395953300001565","1",NA,"1","1",NA,"1","1",NA,"1"
"260041","img/object_images/stapler.jpg","img/object_images/Ring02.jpg","img/object_images/mirror01.jpg","1","1","1","1","0","1","0.395953300001565","0.572233599988976","0.334863299998688","1","1","1","1","1","1","1","1","1"
"260041","img/object_images/mirror01.jpg","img/object_images/stapler.jpg","img/object_images/jewel04.jpg","1","1","1","1","1","0","0.334863299998688","0.395953300001565","0.482290600019042","1","1","1","1","1","1","1","1","1"
"260041","img/object_images/jewel04.jpg","img/object_images/mirror01.jpg","img/object_images/towel02.jpg","1","1","1","0","1","1","0.482290600019042","0.334863299998688","0.399762299988652","1","1","1","1","1","1","1","1","1"
"260041","img/object_images/towel02.jpg","img/object_images/jewel04.jpg","img/object_images/tool02.jpg","1","1","1","1","0","1","0.399762299988652","0.482290600019042","0.408693399978802","1","1","1","1","1","1","1","1","1"
"260041","img/object_images/tool02.jpg","img/object_images/towel02.jpg","img/object_images/tool09.jpg","1","1","1","1","1","1","0.408693399978802","0.399762299988652","0.447737399983453","1","1","1","1","1","1","1","1","1"
"260041","img/object_images/tool09.jpg","img/object_images/tool02.jpg","img/object_images/shovel03.jpg","1","1","1","1","1","1","0.447737399983453","0.408693399978802","0.554542600002605","1","1","1","1","1","1","1","1","1"
"260041","img/object_images/shovel03.jpg","img/object_images/tool09.jpg","img/object_images/bow01.jpg","1","1","1","1","1","1","0.554542600002605","0.447737399983453","0.512945099995704","1","1","1","1","1","1","1","1","1"
"260041","img/object_images/bow01.jpg","img/object_images/shovel03.jpg","img/object_images/gauze01.jpg","1","1","1","1","1","0","0.512945099995704","0.554542600002605","0.44713960000081","1","1","1","1","1","1","1","1","1"
"260041","img/object_images/gauze01.jpg","img/object_images/bow01.jpg","img/object_images/watch01.jpg","1","1","1","0","1","0","0.44713960000081","0.512945099995704","0.523699399986072","1","1","1","1","1","1","1","1","1"
"260041","img/object_images/watch01.jpg","img/object_images/gauze01.jpg","img/object_images/fridge03.jpg","1","1","1","0","0","0","0.523699399986072","0.44713960000081","0.544147799984785","1","1","1","1","1","1","1","1","1"
"260041","img/object_images/fridge03.jpg","img/object_images/watch01.jpg","img/object_images/MetalWire01.jpg","1","1","1","0","0","0","0.544147799984785","0.523699399986072","0.645467800000915","1","1","1","1","1","1","1","1","1"
"260041","img/object_images/MetalWire01.jpg","img/object_images/fridge03.jpg","img/object_images/helmet01.jpg","1","1","1","0","0","0","0.645467800000915","0.544147799984785","0.497229900007369","1","1","1","1","1","1","1","1","1"
"260041","img/object_images/helmet01.jpg","img/object_images/MetalWire01.jpg","img/object_images/Vacuum01.jpg","1","1","1","0","0","0","0.497229900007369","0.645467800000915","0.535403499990935","1","1","1","1","1","1","1","1","1"
"260041","img/object_images/Vacuum01.jpg","img/object_images/helmet01.jpg","img/object_images/judge_gavel01.jpg","1","1","1","0","0","1","0.535403499990935","0.497229900007369","0.467926500015892","1","1","1","1","1","1","1","1","1"
"260041","img/object_images/judge_gavel01.jpg","img/object_images/Vacuum01.jpg","img/object_images/guitar02.jpg","1","1","0","1","0","0","0.467926500015892","0.535403499990935","0.371761399990646","1","1","1","1","1","1","1","1","1"
"260041","img/object_images/guitar02.jpg","img/object_images/judge_gavel01.jpg","img/object_images/ornament01.jpg","0","1","1","0","1","1","0.371761399990646","0.467926500015892","0.491608900018036","1","1","1","1","1","1","1","1","1"
"260041","img/object_images/ornament01.jpg","img/object_images/guitar02.jpg","img/object_images/Stool01.jpg","1","0","1","1","0","0","0.491608900018036","0.371761399990646","0.530867699999362","1","1","1","1","1","1","1","1","1"
"260041","img/object_images/Stool01.jpg","img/object_images/ornament01.jpg","img/object_images/acoustic_capo01.jpg","1","1","1","0","1","1","0.530867699999362","0.491608900018036","0.497866499994416","1","1","1","1","1","1","1","1","1"
"260041","img/object_images/acoustic_capo01.jpg","img/object_images/Stool01.jpg","img/object_images/dart01.jpg","1","1","1","1","0","0","0.497866499994416","0.530867699999362","0.499122799985344","1","1","1","1","1","1","1","1","1"
"260041","img/object_images/dart01.jpg","img/object_images/acoustic_capo01.jpg","img/object_images/frisbee01.jpg","1","1","1","0","1","1","0.499122799985344","0.497866499994416","0.560987900011241","1","1","1","1","1","1","1","1","1"
"260041","img/object_images/frisbee01.jpg","img/object_images/dart01.jpg","img/object_images/toy03.jpg","1","1","1","1","0","1","0.560987900011241","0.499122799985344","0.455990799993742","1","1","1","1","1","1","1","1","1"
"260041","img/object_images/toy03.jpg","img/object_images/frisbee01.jpg","img/object_images/sink01.jpg","1","1","1","1","1","0","0.455990799993742","0.560987900011241","0.49109349999344","1","1","1","1","1","1","1","1","1"
"260041","img/object_images/sink01.jpg","img/object_images/toy03.jpg","img/object_images/Tin01.jpg","1","1","1","0","1","1","0.49109349999344","0.455990799993742","0.443879899976309","1","1","1","1","1","1","1","1","1"
"260041","img/object_images/Tin01.jpg","img/object_images/sink01.jpg","img/object_images/crown02.jpg","1","1","1","1","0","1","0.443879899976309","0.49109349999344","0.476730499998666","1","1","1","1","1","1","1","1","1"
"260041","img/object_images/crown02.jpg","img/object_images/Tin01.jpg","img/object_images/pot01 (1).jpg","1","1","0","1","1","0","0.476730499998666","0.443879899976309","0.455733299982967","1","1","1","1","1","1","1","1","1"
"260041","img/object_images/pot01 (1).jpg","img/object_images/crown02.jpg","img/object_images/outlet01.jpg","0","1","1","0","1","0","0.455733299982967","0.476730499998666","0.553996500006178","1","1","1","1","1","1","1","1","1"
"260041","img/object_images/outlet01.jpg","img/object_images/pot01 (1).jpg","img/object_images/bird_house02.jpg","1","0","1","0","0","1","0.553996500006178","0.455733299982967","0.436207099992316","1","1","1","1","1","1","1","1","1"
"260041","img/object_images/bird_house02.jpg","img/object_images/outlet01.jpg","img/object_images/bottle05.jpg","1","1","1","1","0","0","0.436207099992316","0.553996500006178","0.644186299992725","1","1","1","1","1","1","1","1","1"
"260041","img/object_images/bottle05.jpg","img/object_images/bird_house02.jpg","img/object_images/toy04.jpg","1","1","1","0","1","0","0.644186299992725","0.436207099992316","0.482454500015592","1","1","1","1","1","1","1","1","1"
"260041","img/object_images/toy04.jpg","img/object_images/bottle05.jpg","img/object_images/video_game07.jpg","1","1","1","0","0","1","0.482454500015592","0.644186299992725","0.434605899994494","1","1","1","1","1","1","1","1","1"
"260041","img/object_images/video_game07.jpg","img/object_images/toy04.jpg",NA,"1","1",NA,"1","0",NA,"0.434605899994494","0.482454500015592",NA,"1","1",NA,"1","1",NA,"1","1",NA
"260041","img/object_images/hair_brush05.jpg",NA,"img/object_images/ladle02.jpg","1",NA,"1","1",NA,"0","0.594375100015895",NA,"0.510400900006061","1",NA,"1","1",NA,"1","1",NA,"1"
"260041","img/object_images/ladle02.jpg","img/object_images/hair_brush05.jpg","img/object_images/chair04.jpg","1","1","1","0","1","1","0.510400900006061","0.594375100015895","0.499208499997621","1","1","1","1","1","1","1","1","1"
"260041","img/object_images/chair04.jpg","img/object_images/ladle02.jpg","img/object_images/toaster02.jpg","1","1","1","1","0","1","0.499208499997621","0.510400900006061","0.455600800021784","1","1","1","1","1","1","1","1","1"
"260041","img/object_images/toaster02.jpg","img/object_images/chair04.jpg","img/object_images/slinky_toy01.jpg","1","1","1","1","1","1","0.455600800021784","0.499208499997621","0.485800900001777","1","1","1","1","1","1","1","1","1"
"260041","img/object_images/slinky_toy01.jpg","img/object_images/toaster02.jpg","img/object_images/satellite01.jpg","1","1","0","1","1","0","0.485800900001777","0.455600800021784","0.49770430001081","1","1","1","1","1","1","1","1","2"
"260041","img/object_images/satellite01.jpg","img/object_images/slinky_toy01.jpg","img/object_images/tv01.jpg","0","1","1","0","1","0","0.49770430001081","0.485800900001777","0.655014999996638","1","1","1","1","1","1","2","1","1"
"260041","img/object_images/tv01.jpg","img/object_images/satellite01.jpg","img/object_images/belt01.jpg","1","0","1","0","0","0","0.655014999996638","0.49770430001081","0.511780500004534","1","1","1","1","1","1","1","2","1"
"260041","img/object_images/belt01.jpg","img/object_images/tv01.jpg","img/object_images/binoculars03.jpg","1","1","1","0","0","1","0.511780500004534","0.655014999996638","0.442333199986024","1","1","1","1","1","1","1","1","1"
"260041","img/object_images/binoculars03.jpg","img/object_images/belt01.jpg","img/object_images/MeasuringCup01.jpg","1","1","1","1","0","1","0.442333199986024","0.511780500004534","0.588438999984646","1","1","1","1","1","1","1","1","1"
"260041","img/object_images/MeasuringCup01.jpg","img/object_images/binoculars03.jpg","img/object_images/screwdriver01.jpg","1","1","1","1","1","0","0.588438999984646","0.442333199986024","0.525654800003394","1","1","1","1","1","1","1","1","1"
"260041","img/object_images/screwdriver01.jpg","img/object_images/MeasuringCup01.jpg","img/object_images/cards01.jpg","1","1","1","0","1","0","0.525654800003394","0.588438999984646","0.373812700010603","1","1","1","1","1","1","1","1","1"
"260041","img/object_images/cards01.jpg","img/object_images/screwdriver01.jpg","img/object_images/ribbon01.jpg","1","1","1","0","0","0","0.373812700010603","0.525654800003394","0.451071900024545","1","1","1","1","1","1","1","1","1"
"260041","img/object_images/ribbon01.jpg","img/object_images/cards01.jpg","img/object_images/tool11.jpg","1","1","1","0","0","1","0.451071900024545","0.373812700010603","0.39918450001278","1","1","1","1","1","1","1","1","1"
"260041","img/object_images/tool11.jpg","img/object_images/ribbon01.jpg","img/object_images/car04.jpg","1","1","1","1","0","0","0.39918450001278","0.451071900024545","0.466285600006813","1","1","1","1","1","1","1","1","1"
"260041","img/object_images/car04.jpg","img/object_images/tool11.jpg","img/object_images/yarn02.jpg","1","1","1","0","1","0","0.466285600006813","0.39918450001278","0.511976700014202","1","1","1","1","1","1","1","1","1"
"260041","img/object_images/yarn02.jpg","img/object_images/car04.jpg","img/object_images/fan05.jpg","1","1","0","0","0","0","0.511976700014202","0.466285600006813","0.497277000016766","1","1","1","1","1","1","1","1","1"
"260041","img/object_images/fan05.jpg","img/object_images/yarn02.jpg","img/object_images/ice_tray03.jpg","0","1","1","0","0","1","0.497277000016766","0.511976700014202","0.458976299996721","1","1","1","1","1","1","1","1","1"
"260041","img/object_images/ice_tray03.jpg","img/object_images/fan05.jpg","img/object_images/lemon_squeezer02.jpg","1","0","1","1","0","1","0.458976299996721","0.497277000016766","0.414385200012475","1","1","1","1","1","1","1","1","1"
"260041","img/object_images/lemon_squeezer02.jpg","img/object_images/ice_tray03.jpg","img/object_images/mask01.jpg","1","1","1","1","1","0","0.414385200012475","0.458976299996721","0.60461330000544","1","1","1","1","1","1","1","1","1"
"260041","img/object_images/mask01.jpg","img/object_images/lemon_squeezer02.jpg","img/object_images/shoes10.jpg","1","1","1","0","1","0","0.60461330000544","0.414385200012475","0.506170199980261","1","1","1","1","1","1","1","1","1"
"260041","img/object_images/shoes10.jpg","img/object_images/mask01.jpg","img/object_images/bag06.jpg","1","1","1","0","0","1","0.506170199980261","0.60461330000544","0.488017900002887","1","1","1","1","1","1","1","1","1"
"260041","img/object_images/bag06.jpg","img/object_images/shoes10.jpg","img/object_images/key02.jpg","1","1","1","1","0","1","0.488017900002887","0.506170199980261","0.420988400001079","1","1","1","1","1","1","1","1","1"
"260041","img/object_images/key02.jpg","img/object_images/bag06.jpg","img/object_images/car03.jpg","1","1","1","1","1","0","0.420988400001079","0.488017900002887","0.600166600022931","1","1","1","1","1","1","1","1","1"
"260041","img/object_images/car03.jpg","img/object_images/key02.jpg","img/object_images/jewelry07.jpg","1","1","1","0","1","1","0.600166600022931","0.420988400001079","0.537140000000363","1","1","1","1","1","1","1","1","1"
"260041","img/object_images/jewelry07.jpg","img/object_images/car03.jpg","img/object_images/razor01.jpg","1","1","0","1","0","0","0.537140000000363","0.600166600022931","0.460026299988385","1","1","1","1","1","1","1","1","1"
"260041","img/object_images/razor01.jpg","img/object_images/jewelry07.jpg","img/object_images/shower_head03.jpg","0","1","1","0","1","1","0.460026299988385","0.537140000000363","0.469074399996316","1","1","1","1","1","1","1","1","1"
"260041","img/object_images/shower_head03.jpg","img/object_images/razor01.jpg","img/object_images/WitchHat02.jpg","1","0","1","1","0","1","0.469074399996316","0.460026299988385","0.469323800003622","1","1","1","1","1","1","1","1","1"
"260041","img/object_images/WitchHat02.jpg","img/object_images/shower_head03.jpg","img/object_images/dress03.jpg","1","1","1","1","1","1","0.469323800003622","0.469074399996316","0.453352100012126","1","1","1","1","1","1","1","1","1"
"260041","img/object_images/dress03.jpg","img/object_images/WitchHat02.jpg","img/object_images/jewel01.jpg","1","1","1","1","1","0","0.453352100012126","0.469323800003622","0.524242900020909","1","1","1","1","1","1","1","1","1"
"260041","img/object_images/jewel01.jpg","img/object_images/dress03.jpg","img/object_images/cutting_board01.jpg","1","1","1","0","1","1","0.524242900020909","0.453352100012126","0.450690199999372","1","1","1","1","1","1","1","1","1"
"260041","img/object_images/cutting_board01.jpg","img/object_images/jewel01.jpg","img/object_images/rock03.jpg","1","1","1","1","0","0","0.450690199999372","0.524242900020909","0.493791199987754","1","1","1","1","1","1","1","1","1"
"260041","img/object_images/rock03.jpg","img/object_images/cutting_board01.jpg",NA,"1","1",NA,"0","1",NA,"0.493791199987754","0.450690199999372",NA,"1","1",NA,"1","1",NA,"1","1",NA
"260041","img/object_images/pitcher03.jpg",NA,"img/object_images/ironing_table02.jpg","1",NA,"1","1",NA,"0","0.57705699998769",NA,"0.474263500014786","1",NA,"1","1",NA,"1","1",NA,"1"
"260041","img/object_images/ironing_table02.jpg","img/object_images/pitcher03.jpg","img/object_images/container01.jpg","1","1","1","0","1","0","0.474263500014786","0.57705699998769","0.531950200005667","1","1","1","1","1","1","1","1","1"
"260041","img/object_images/container01.jpg","img/object_images/ironing_table02.jpg","img/object_images/toy_train02.jpg","1","1","1","0","0","1","0.531950200005667","0.474263500014786","0.411690799985081","1","1","1","1","1","1","1","1","1"
"260041","img/object_images/toy_train02.jpg","img/object_images/container01.jpg","img/object_images/drone02.jpg","1","1","1","1","0","0","0.411690799985081","0.531950200005667","0.513200999994297","1","1","1","1","1","1","1","1","1"
"260041","img/object_images/drone02.jpg","img/object_images/toy_train02.jpg","img/object_images/lantern01.jpg","1","1","1","0","1","1","0.513200999994297","0.411690799985081","0.456166899995878","1","1","1","1","1","1","1","1","1"
"260041","img/object_images/lantern01.jpg","img/object_images/drone02.jpg","img/object_images/lamp01.jpg","1","1","1","1","0","1","0.456166899995878","0.513200999994297","0.469356299989158","1","1","1","1","1","1","1","1","1"
"260041","img/object_images/lamp01.jpg","img/object_images/lantern01.jpg","img/object_images/hat02.jpg","1","1","1","1","1","0","0.469356299989158","0.456166899995878","0.469103000010364","1","1","1","1","1","1","1","1","1"
"260041","img/object_images/hat02.jpg","img/object_images/lamp01.jpg","img/object_images/Woopie01.jpg","1","1","1","0","1","1","0.469103000010364","0.469356299989158","0.403279799997108","1","1","1","1","1","1","1","1","1"
"260041","img/object_images/Woopie01.jpg","img/object_images/hat02.jpg","img/object_images/basketball_hoop02.jpg","1","1","1","1","0","0","0.403279799997108","0.469103000010364","0.580754499998875","1","1","1","1","1","1","1","1","1"
"260041","img/object_images/basketball_hoop02.jpg","img/object_images/Woopie01.jpg","img/object_images/guitar01.jpg","1","1","1","0","1","1","0.580754499998875","0.403279799997108","0.435880500008352","1","1","1","1","1","1","1","1","1"
"260041","img/object_images/guitar01.jpg","img/object_images/basketball_hoop02.jpg","img/object_images/toilet_paper01.jpg","1","1","0","1","0","1","0.435880500008352","0.580754499998875","0.438844399992377","1","1","1","1","1","1","1","1","1"
"260041","img/object_images/toilet_paper01.jpg","img/object_images/guitar01.jpg","img/object_images/video_game06.jpg","0","1","1","1","1","0","0.438844399992377","0.435880500008352","0.515021900006104","1","1","1","1","1","1","1","1","1"
"260041","img/object_images/video_game06.jpg","img/object_images/toilet_paper01.jpg","img/object_images/bottle12.jpg","1","0","1","0","1","1","0.515021900006104","0.438844399992377","0.460381300013978","1","1","1","1","1","1","1","1","1"
"260041","img/object_images/bottle12.jpg","img/object_images/video_game06.jpg","img/object_images/Wisk01.jpg","1","1","1","1","0","1","0.460381300013978","0.515021900006104","0.486707100004423","1","1","1","1","1","1","1","1","1"
"260041","img/object_images/Wisk01.jpg","img/object_images/bottle12.jpg","img/object_images/pot01.jpg","1","1","1","1","1","0","0.486707100004423","0.460381300013978","0.468150900007458","1","1","1","1","1","1","1","1","1"
"260041","img/object_images/pot01.jpg","img/object_images/Wisk01.jpg","img/object_images/tie01.jpg","1","1","1","0","1","0","0.468150900007458","0.486707100004423","0.493439799989574","1","1","1","1","1","1","1","1","1"
"260041","img/object_images/tie01.jpg","img/object_images/pot01.jpg","img/object_images/brief_case02.jpg","1","1","1","0","0","1","0.493439799989574","0.468150900007458","0.444260999996914","1","1","1","1","1","1","1","1","1"
"260041","img/object_images/brief_case02.jpg","img/object_images/tie01.jpg","img/object_images/razor03.jpg","1","1","1","1","0","0","0.444260999996914","0.493439799989574","0.528347599989502","1","1","1","1","1","1","1","1","1"
"260041","img/object_images/razor03.jpg","img/object_images/brief_case02.jpg","img/object_images/helmet05.jpg","1","1","1","0","1","1","0.528347599989502","0.444260999996914","0.582186300016474","1","1","1","1","1","1","1","1","1"
"260041","img/object_images/helmet05.jpg","img/object_images/razor03.jpg","img/object_images/soap01.jpg","1","1","1","1","0","0","0.582186300016474","0.528347599989502","0.475090100022499","1","1","1","1","1","1","1","1","1"
"260041","img/object_images/soap01.jpg","img/object_images/helmet05.jpg","img/object_images/chair01.jpg","1","1","1","0","1","0","0.475090100022499","0.582186300016474","0.600783800007775","1","1","1","1","1","1","1","1","1"
"260041","img/object_images/chair01.jpg","img/object_images/soap01.jpg","img/object_images/brief_case01.jpg","1","1","1","0","0","0","0.600783800007775","0.475090100022499","0.567222400015453","1","1","1","1","1","1","1","1","1"
"260041","img/object_images/brief_case01.jpg","img/object_images/chair01.jpg","img/object_images/airfryer01.jpg","1","1","1","0","0","0","0.567222400015453","0.600783800007775","0.661593400000129","1","1","1","1","1","1","1","1","1"
"260041","img/object_images/airfryer01.jpg","img/object_images/brief_case01.jpg","img/object_images/car02.jpg","1","1","1","0","0","0","0.661593400000129","0.567222400015453","0.50892850002856","1","1","1","1","1","1","1","1","1"
"260041","img/object_images/car02.jpg","img/object_images/airfryer01.jpg","img/object_images/ball01.jpg","1","1","1","0","0","1","0.50892850002856","0.661593400000129","0.458645500009879","1","1","1","1","1","1","1","1","1"
"260041","img/object_images/ball01.jpg","img/object_images/car02.jpg","img/object_images/broom01.jpg","1","1","1","1","0","1","0.458645500009879","0.50892850002856","0.429994100006297","1","1","1","1","1","1","1","1","1"
"260041","img/object_images/broom01.jpg","img/object_images/ball01.jpg","img/object_images/gloves05.jpg","1","1","1","1","1","1","0.429994100006297","0.458645500009879","0.583522900007665","1","1","1","1","1","1","1","1","1"
"260041","img/object_images/gloves05.jpg","img/object_images/broom01.jpg","img/object_images/couch04.jpg","1","1","1","1","1","1","0.583522900007665","0.429994100006297","0.563832600018941","1","1","1","1","1","1","1","1","1"
"260041","img/object_images/couch04.jpg","img/object_images/gloves05.jpg","img/object_images/cochlear_implant01.jpg","1","1","1","1","1","0","0.563832600018941","0.583522900007665","0.551316900004167","1","1","1","1","1","1","1","1","1"
"260041","img/object_images/cochlear_implant01.jpg","img/object_images/couch04.jpg","img/object_images/Recycling01.jpg","1","1","1","0","1","1","0.551316900004167","0.563832600018941","0.439108699996723","1","1","1","1","1","1","1","1","1"
"260041","img/object_images/Recycling01.jpg","img/object_images/cochlear_implant01.jpg","img/object_images/decorative02.jpg","1","1","1","1","0","0","0.439108699996723","0.551316900004167","0.488908700004686","1","1","1","1","1","1","1","1","1"
"260041","img/object_images/decorative02.jpg","img/object_images/Recycling01.jpg",NA,"1","1",NA,"0","1",NA,"0.488908700004686","0.439108699996723",NA,"1","1",NA,"1","1",NA,"1","1",NA
"260041","img/object_images/jacket04.jpg",NA,"img/object_images/keyboard02.jpg","1",NA,"1","0",NA,"1","0.501122900022892",NA,"0.480260000011185","1",NA,"1","1",NA,"1","1",NA,"1"
"260041","img/object_images/keyboard02.jpg","img/object_images/jacket04.jpg","img/object_images/phone02.jpg","1","1","1","1","0","1","0.480260000011185","0.501122900022892","0.687145000003511","1","1","1","1","1","1","1","1","1"
"260041","img/object_images/phone02.jpg","img/object_images/keyboard02.jpg","img/object_images/blender02.jpg","1","1","1","1","1","1","0.687145000003511","0.480260000011185","0.483470400009537","1","1","1","1","1","1","1","1","1"
"260041","img/object_images/blender02.jpg","img/object_images/phone02.jpg","img/object_images/car01.jpg","1","1","1","1","1","1","0.483470400009537","0.687145000003511","0.61829700000817","1","1","1","1","1","1","1","1","1"
"260041","img/object_images/car01.jpg","img/object_images/blender02.jpg","img/object_images/paper_cup02.jpg","1","1","1","1","1","1","0.61829700000817","0.483470400009537","0.477843200002098","1","1","1","1","1","1","1","1","1"
"260041","img/object_images/paper_cup02.jpg","img/object_images/car01.jpg","img/object_images/toy08.jpg","1","1","1","1","1","0","0.477843200002098","0.61829700000817","0.528147699980764","1","1","1","1","1","1","1","1","1"
"260041","img/object_images/toy08.jpg","img/object_images/paper_cup02.jpg","img/object_images/backpack01.jpg","1","1","0","0","1","0","0.528147699980764","0.477843200002098","0.520348099991679","1","1","1","1","1","1","1","1","2"
"260041","img/object_images/backpack01.jpg","img/object_images/toy08.jpg","img/object_images/hand_grip_exerciser01.jpg","0","1","1","0","0","0","0.520348099991679","0.528147699980764","0.513595199998235","1","1","1","1","1","1","2","1","1"
"260041","img/object_images/hand_grip_exerciser01.jpg","img/object_images/backpack01.jpg","img/object_images/curtain02.jpg","1","0","1","0","0","0","0.513595199998235","0.520348099991679","0.495897400018293","1","1","1","1","1","1","1","2","1"
"260041","img/object_images/curtain02.jpg","img/object_images/hand_grip_exerciser01.jpg","img/object_images/shower_head01.jpg","1","1","1","0","0","1","0.495897400018293","0.513595199998235","0.504073399992194","1","1","1","1","1","1","1","1","1"
"260041","img/object_images/shower_head01.jpg","img/object_images/curtain02.jpg","img/object_images/video_game01.jpg","1","1","1","1","0","1","0.504073399992194","0.495897400018293","0.500183199997991","1","1","1","1","1","1","1","1","1"
"260041","img/object_images/video_game01.jpg","img/object_images/shower_head01.jpg","img/object_images/camera03.jpg","1","1","1","1","1","0","0.500183199997991","0.504073399992194","0.473559799982468","1","1","1","1","1","1","1","1","1"
"260041","img/object_images/camera03.jpg","img/object_images/video_game01.jpg","img/object_images/dresser03.jpg","1","1","0","0","1","0","0.473559799982468","0.500183199997991","0.520539200020721","1","1","1","1","1","1","1","1","1"
"260041","img/object_images/dresser03.jpg","img/object_images/camera03.jpg","img/object_images/knit03.jpg","0","1","1","0","0","1","0.520539200020721","0.473559799982468","0.515853899996728","1","1","1","1","1","1","1","1","1"
"260041","img/object_images/knit03.jpg","img/object_images/dresser03.jpg","img/object_images/sponge03.jpg","1","0","1","1","0","1","0.515853899996728","0.520539200020721","0.568614499992691","1","1","1","1","1","1","1","1","1"
"260041","img/object_images/sponge03.jpg","img/object_images/knit03.jpg","img/object_images/kite01.jpg","1","1","1","1","1","1","0.568614499992691","0.515853899996728","0.428733100008685","1","1","1","1","1","1","1","1","1"
"260041","img/object_images/kite01.jpg","img/object_images/sponge03.jpg","img/object_images/basket04.jpg","1","1","1","1","1","1","0.428733100008685","0.568614499992691","0.403358200012008","1","1","1","1","1","1","1","1","1"
"260041","img/object_images/basket04.jpg","img/object_images/kite01.jpg","img/object_images/bottle07.jpg","1","1","1","1","1","1","0.403358200012008","0.428733100008685","0.44301680001081","1","1","1","1","1","1","1","1","1"
"260041","img/object_images/bottle07.jpg","img/object_images/basket04.jpg","img/object_images/matches02.jpg","1","1","0","1","1","0","0.44301680001081","0.403358200012008","0.373621000006096","1","1","1","1","1","1","1","1","1"
"260041","img/object_images/matches02.jpg","img/object_images/bottle07.jpg","img/object_images/stereo02.jpg","0","1","1","0","1","0","0.373621000006096","0.44301680001081","0.602174600004219","1","1","1","1","1","1","1","1","1"
"260041","img/object_images/stereo02.jpg","img/object_images/matches02.jpg","img/object_images/tool18.jpg","1","0","0","0","0","0","0.602174600004219","0.373621000006096","0.633394799981033","1","1","1","1","1","1","1","1","1"
"260041","img/object_images/tool18.jpg","img/object_images/stereo02.jpg","img/object_images/gloves02.jpg","0","1","1","0","0","0","0.633394799981033","0.602174600004219","0.557021500018891","1","1","1","1","1","1","1","1","1"
"260041","img/object_images/gloves02.jpg","img/object_images/tool18.jpg","img/object_images/hoverboard01.jpg","1","0","0","0","0","0","0.557021500018891","0.633394799981033","0.585303100000601","1","1","1","1","1","1","1","1","2"
"260041","img/object_images/hoverboard01.jpg","img/object_images/gloves02.jpg","img/object_images/knife02.jpg","0","1","1","0","0","0","0.585303100000601","0.557021500018891","0.635397400008515","1","1","1","1","1","1","2","1","1"
"260041","img/object_images/knife02.jpg","img/object_images/hoverboard01.jpg","img/object_images/remover01.jpg","1","0","1","0","0","1","0.635397400008515","0.585303100000601","0.477074199996423","1","1","1","1","1","1","1","2","1"
"260041","img/object_images/remover01.jpg","img/object_images/knife02.jpg","img/object_images/mail_box01.jpg","1","1","1","1","0","0","0.477074199996423","0.635397400008515","0.562889099994209","1","1","1","1","1","1","1","1","1"
"260041","img/object_images/mail_box01.jpg","img/object_images/remover01.jpg","img/object_images/knit04.jpg","1","1","1","0","1","1","0.562889099994209","0.477074199996423","0.453167400002712","1","1","1","1","1","1","1","1","1"
"260041","img/object_images/knit04.jpg","img/object_images/mail_box01.jpg","img/object_images/boat04.jpg","1","1","1","1","0","0","0.453167400002712","0.562889099994209","0.555023599998094","1","1","1","1","1","1","1","1","1"
"260041","img/object_images/boat04.jpg","img/object_images/knit04.jpg","img/object_images/remote_controller01.jpg","1","1","1","0","1","1","0.555023599998094","0.453167400002712","0.546319299988681","1","1","1","1","1","1","1","1","1"
"260041","img/object_images/remote_controller01.jpg","img/object_images/boat04.jpg","img/object_images/Statue01.jpg","1","1","1","1","0","1","0.546319299988681","0.555023599998094","0.424071999994339","1","1","1","1","1","1","1","1","1"
"260041","img/object_images/Statue01.jpg","img/object_images/remote_controller01.jpg","img/object_images/flashlight03.jpg","1","1","1","1","1","0","0.424071999994339","0.546319299988681","0.64587749997736","1","1","1","1","1","1","1","1","1"
"260041","img/object_images/flashlight03.jpg","img/object_images/Statue01.jpg",NA,"1","1",NA,"0","1",NA,"0.64587749997736","0.424071999994339",NA,"1","1",NA,"1","1",NA,"1","1",NA
"260041","img/object_images/airfryer02.jpg",NA,"img/object_images/rock02.jpg","1",NA,"0","1",NA,"0","0.551365899998927",NA,"0.398013100028038","1",NA,"1","1",NA,"1","1",NA,"1"
"260041","img/object_images/rock02.jpg","img/object_images/airfryer02.jpg","img/object_images/shoes12.jpg","0","1","1","0","1","1","0.398013100028038","0.551365899998927","0.509307600004831","1","1","1","1","1","1","1","1","1"
"260041","img/object_images/shoes12.jpg","img/object_images/rock02.jpg","img/object_images/Violin01.jpg","1","0","0","1","0","0","0.509307600004831","0.398013100028038","0.382518600003095","1","1","1","1","1","1","1","1","1"
"260041","img/object_images/Violin01.jpg","img/object_images/shoes12.jpg","img/object_images/toothbrush01.jpg","0","1","1","0","1","0","0.382518600003095","0.509307600004831","0.556757999991532","1","1","1","1","1","1","1","1","1"
"260041","img/object_images/toothbrush01.jpg","img/object_images/Violin01.jpg","img/object_images/tripod01.jpg","1","0","1","0","0","1","0.556757999991532","0.382518600003095","0.50213460001396","1","1","1","1","1","1","1","1","1"
"260041","img/object_images/tripod01.jpg","img/object_images/toothbrush01.jpg","img/object_images/box03.jpg","1","1","0","1","0","0","0.50213460001396","0.556757999991532","0.509344899997814","1","1","1","1","1","1","1","1","1"
"260041","img/object_images/box03.jpg","img/object_images/tripod01.jpg","img/object_images/egg_slicer01.jpg","0","1","1","0","1","1","0.509344899997814","0.50213460001396","0.408160599996336","1","1","1","1","1","1","1","1","1"
"260041","img/object_images/egg_slicer01.jpg","img/object_images/box03.jpg","img/object_images/computer_mouse01.jpg","1","0","1","1","0","1","0.408160599996336","0.509344899997814","0.474942400003783","1","1","1","1","1","1","1","1","1"
"260041","img/object_images/computer_mouse01.jpg","img/object_images/egg_slicer01.jpg","img/object_images/video_game03.jpg","1","1","1","1","1","1","0.474942400003783","0.408160599996336","0.411502900009509","1","1","1","1","1","1","1","1","1"
"260041","img/object_images/video_game03.jpg","img/object_images/computer_mouse01.jpg","img/object_images/skate_board01.jpg","1","1","1","1","1","0","0.411502900009509","0.474942400003783","0.466180599993095","1","1","1","1","1","1","1","1","1"
"260041","img/object_images/skate_board01.jpg","img/object_images/video_game03.jpg","img/object_images/chair06.jpg","1","1","1","0","1","0","0.466180599993095","0.411502900009509","0.579330700013088","1","1","1","1","1","1","1","1","1"
"260041","img/object_images/chair06.jpg","img/object_images/skate_board01.jpg","img/object_images/Trowel01.jpg","1","1","1","0","0","0","0.579330700013088","0.466180599993095","0.582142100000056","1","1","1","1","1","1","1","1","1"
"260041","img/object_images/Trowel01.jpg","img/object_images/chair06.jpg","img/object_images/couch01.jpg","1","1","0","0","0","0","0.582142100000056","0.579330700013088","0.479770499980077","1","1","1","1","1","1","1","1","1"
"260041","img/object_images/couch01.jpg","img/object_images/Trowel01.jpg","img/object_images/book02.jpg","0","1","1","0","0","1","0.479770499980077","0.582142100000056","0.472154800023418","1","1","1","1","1","1","1","1","1"
"260041","img/object_images/book02.jpg","img/object_images/couch01.jpg","img/object_images/chain01.jpg","1","0","1","1","0","0","0.472154800023418","0.479770499980077","0.475101699994411","1","1","1","1","1","1","1","1","1"
"260041","img/object_images/chain01.jpg","img/object_images/book02.jpg","img/object_images/mail_box02.jpg","1","1","1","0","1","1","0.475101699994411","0.472154800023418","0.479346899985103","1","1","1","1","1","1","1","1","1"
"260041","img/object_images/mail_box02.jpg","img/object_images/chain01.jpg","img/object_images/soap03.jpg","1","1","1","1","0","0","0.479346899985103","0.475101699994411","0.480622000002768","1","1","1","1","1","1","1","1","1"
"260041","img/object_images/soap03.jpg","img/object_images/mail_box02.jpg","img/object_images/fork02.jpg","1","1","1","0","1","0","0.480622000002768","0.479346899985103","0.478839699993841","1","1","1","1","1","1","1","1","1"
"260041","img/object_images/fork02.jpg","img/object_images/soap03.jpg","img/object_images/tool06.jpg","1","1","1","0","0","0","0.478839699993841","0.480622000002768","0.413743799988879","1","1","1","1","1","1","1","1","1"
"260041","img/object_images/tool06.jpg","img/object_images/fork02.jpg","img/object_images/pitcher09.jpg","1","1","1","0","0","1","0.413743799988879","0.478839699993841","0.383023500005947","1","1","1","1","1","1","1","1","1"
"260041","img/object_images/pitcher09.jpg","img/object_images/tool06.jpg","img/object_images/bell03.jpg","1","1","1","1","0","0","0.383023500005947","0.413743799988879","0.508874899998773","1","1","1","1","1","1","1","1","1"
"260041","img/object_images/bell03.jpg","img/object_images/pitcher09.jpg","img/object_images/toy01.jpg","1","1","1","0","1","1","0.508874899998773","0.383023500005947","0.48056299999007","1","1","1","1","1","1","1","1","1"
"260041","img/object_images/toy01.jpg","img/object_images/bell03.jpg","img/object_images/hair_brush01.jpg","1","1","1","1","0","1","0.48056299999007","0.508874899998773","0.52229759999318","1","1","1","1","1","1","1","1","1"
"260041","img/object_images/hair_brush01.jpg","img/object_images/toy01.jpg","img/object_images/computer_mouse02.jpg","1","1","1","1","1","0","0.52229759999318","0.48056299999007","0.421963100001449","1","1","1","1","1","1","1","1","1"
"260041","img/object_images/computer_mouse02.jpg","img/object_images/hair_brush01.jpg","img/object_images/scarf01.jpg","1","1","1","0","1","1","0.421963100001449","0.52229759999318","0.539672699989751","1","1","1","1","1","1","1","1","1"
"260041","img/object_images/scarf01.jpg","img/object_images/computer_mouse02.jpg","img/object_images/floss02.jpg","1","1","1","1","0","1","0.539672699989751","0.421963100001449","0.387410399998771","1","1","1","1","1","1","1","1","1"
"260041","img/object_images/floss02.jpg","img/object_images/scarf01.jpg","img/object_images/pen01.jpg","1","1","1","1","1","0","0.387410399998771","0.539672699989751","0.508254499989562","1","1","1","1","1","1","1","1","1"
"260041","img/object_images/pen01.jpg","img/object_images/floss02.jpg","img/object_images/blender01.jpg","1","1","1","0","1","0","0.508254499989562","0.387410399998771","0.524968699988676","1","1","1","1","1","1","1","1","1"
"260041","img/object_images/blender01.jpg","img/object_images/pen01.jpg","img/object_images/bag_pipes01.jpg","1","1","1","0","0","1","0.524968699988676","0.508254499989562","0.513873799995054","1","1","1","1","1","1","1","1","1"
"260041","img/object_images/bag_pipes01.jpg","img/object_images/blender01.jpg","img/object_images/clip04.jpg","1","1","1","1","0","1","0.513873799995054","0.524968699988676","0.397874499991303","1","1","1","1","1","1","1","1","1"
"260041","img/object_images/clip04.jpg","img/object_images/bag_pipes01.jpg","img/object_images/drone01.jpg","1","1","1","1","1","1","0.397874499991303","0.513873799995054","0.498357000004034","1","1","1","1","1","1","1","1","1"
"260041","img/object_images/drone01.jpg","img/object_images/clip04.jpg",NA,"1","1",NA,"1","1",NA,"0.498357000004034","0.397874499991303",NA,"1","1",NA,"1","1",NA,"1","1",NA
"260041","img/object_images/yoga_mat01.jpg",NA,"img/object_images/belt03.jpg","0",NA,"1","0",NA,"0","1.21013839999796",NA,"0.480167000001529","1",NA,"1","1",NA,"1","1",NA,"1"
"260041","img/object_images/belt03.jpg","img/object_images/yoga_mat01.jpg","img/object_images/bucket01.jpg","1","0","1","0","0","1","0.480167000001529","1.21013839999796","0.504931600007694","1","1","1","1","1","1","1","1","1"
"260041","img/object_images/bucket01.jpg","img/object_images/belt03.jpg","img/object_images/pitcher07.jpg","1","1","0","1","0","1","0.504931600007694","0.480167000001529","0.382068799983244","1","1","1","1","1","1","1","1","1"
"260041","img/object_images/pitcher07.jpg","img/object_images/bucket01.jpg","img/object_images/usb03.jpg","0","1","0","1","1","0","0.382068799983244","0.504931600007694","0.385784200014314","1","1","1","1","1","1","1","1","1"
"260041","img/object_images/usb03.jpg","img/object_images/pitcher07.jpg","img/object_images/trumpet01.jpg","0","0","1","0","1","0","0.385784200014314","0.382068799983244","0.521412800007965","1","1","1","1","1","1","1","1","1"
"260041","img/object_images/trumpet01.jpg","img/object_images/usb03.jpg","img/object_images/ToolBag01.jpg","1","0","1","0","0","0","0.521412800007965","0.385784200014314","0.500740900024539","1","1","1","1","1","1","1","1","1"
"260041","img/object_images/ToolBag01.jpg","img/object_images/trumpet01.jpg","img/object_images/Eyeliner01.jpg","1","1","1","0","0","1","0.500740900024539","0.521412800007965","0.47973289998481","1","1","1","1","1","1","1","1","1"
"260041","img/object_images/Eyeliner01.jpg","img/object_images/ToolBag01.jpg","img/object_images/water_gun01.jpg","1","1","1","1","0","1","0.47973289998481","0.500740900024539","0.476459299999988","1","1","1","1","1","1","1","1","1"
"260041","img/object_images/water_gun01.jpg","img/object_images/Eyeliner01.jpg","img/object_images/piano03.jpg","1","1","1","1","1","0","0.476459299999988","0.47973289998481","0.479516499995952","1","1","1","1","1","1","1","1","1"
"260041","img/object_images/piano03.jpg","img/object_images/water_gun01.jpg","img/object_images/tennis_racket01.jpg","1","1","1","0","1","1","0.479516499995952","0.476459299999988","0.44314790001954","1","1","1","1","1","1","1","1","1"
"260041","img/object_images/tennis_racket01.jpg","img/object_images/piano03.jpg","img/object_images/egg_basket01.jpg","1","1","1","1","0","1","0.44314790001954","0.479516499995952","0.397238100005779","1","1","1","1","1","1","1","1","1"
"260041","img/object_images/egg_basket01.jpg","img/object_images/tennis_racket01.jpg","img/object_images/scale02.jpg","1","1","1","1","1","0","0.397238100005779","0.44314790001954","0.532073600013973","1","1","1","1","1","1","1","1","1"
"260041","img/object_images/scale02.jpg","img/object_images/egg_basket01.jpg","img/object_images/note_book02.jpg","1","1","1","0","1","0","0.532073600013973","0.397238100005779","0.490909499989357","1","1","1","1","1","1","1","1","1"
"260041","img/object_images/note_book02.jpg","img/object_images/scale02.jpg","img/object_images/TreeSlice01.jpg","1","1","1","0","0","1","0.490909499989357","0.532073600013973","0.509660900017479","1","1","1","1","1","1","1","1","1"
"260041","img/object_images/TreeSlice01.jpg","img/object_images/note_book02.jpg","img/object_images/nut_cracker01.jpg","1","1","1","1","0","1","0.509660900017479","0.490909499989357","0.480538600008003","1","1","1","1","1","1","1","1","1"
"260041","img/object_images/nut_cracker01.jpg","img/object_images/TreeSlice01.jpg","img/object_images/helmet03.jpg","1","1","1","1","1","1","0.480538600008003","0.509660900017479","0.55591330002062","1","1","1","1","1","1","1","1","1"
"260041","img/object_images/helmet03.jpg","img/object_images/nut_cracker01.jpg","img/object_images/origami01.jpg","1","1","1","1","1","1","0.55591330002062","0.480538600008003","0.548069799988298","1","1","1","1","1","1","1","1","1"
"260041","img/object_images/origami01.jpg","img/object_images/helmet03.jpg","img/object_images/dice01.jpg","1","1","1","1","1","0","0.548069799988298","0.55591330002062","0.642604299995583","1","1","1","1","1","1","1","1","1"
"260041","img/object_images/dice01.jpg","img/object_images/origami01.jpg","img/object_images/Safe01.jpg","1","1","1","0","1","1","0.642604299995583","0.548069799988298","0.445013199991081","1","1","1","1","1","1","1","1","1"
"260041","img/object_images/Safe01.jpg","img/object_images/dice01.jpg","img/object_images/fan01.jpg","1","1","1","1","0","0","0.445013199991081","0.642604299995583","0.495725499989931","1","1","1","1","1","1","1","1","1"
"260041","img/object_images/fan01.jpg","img/object_images/Safe01.jpg","img/object_images/Shoes05.jpg","1","1","0","0","1","0","0.495725499989931","0.445013199991081","0.47921459999634","1","1","1","1","1","1","1","1","1"
"260041","img/object_images/Shoes05.jpg","img/object_images/fan01.jpg","img/object_images/bookmark01.jpg","0","1","1","0","0","0","0.47921459999634","0.495725499989931","0.462787999975262","1","1","1","1","1","1","1","1","1"
"260041","img/object_images/bookmark01.jpg","img/object_images/Shoes05.jpg","img/object_images/jewel02.jpg","1","0","1","0","0","0","0.462787999975262","0.47921459999634","0.425954799982719","1","1","1","1","1","1","1","1","1"
"260041","img/object_images/jewel02.jpg","img/object_images/bookmark01.jpg","img/object_images/frame01.jpg","1","1","1","0","0","1","0.425954799982719","0.462787999975262","0.534895999997389","1","1","1","1","1","1","1","1","1"
"260041","img/object_images/frame01.jpg","img/object_images/jewel02.jpg","img/object_images/joystick03.jpg","1","1","1","1","0","1","0.534895999997389","0.425954799982719","0.33803290000651","1","1","1","1","1","1","1","1","1"
"260041","img/object_images/joystick03.jpg","img/object_images/frame01.jpg","img/object_images/shovel01.jpg","1","1","0","1","1","0","0.33803290000651","0.534895999997389","0.417091799987247","1","1","1","1","1","1","1","1","1"
"260041","img/object_images/shovel01.jpg","img/object_images/joystick03.jpg","img/object_images/bottle06.jpg","0","1","1","0","1","0","0.417091799987247","0.33803290000651","0.443556399986846","1","1","1","1","1","1","1","1","1"
"260041","img/object_images/bottle06.jpg","img/object_images/shovel01.jpg","img/object_images/badminton01.jpg","1","0","1","0","0","1","0.443556399986846","0.417091799987247","0.426546599977883","1","1","1","1","1","1","1","1","1"
"260041","img/object_images/badminton01.jpg","img/object_images/bottle06.jpg","img/object_images/headset02.jpg","1","1","0","1","0","0","0.426546599977883","0.443556399986846","0.344962699979078","1","1","1","1","1","1","1","1","1"
"260041","img/object_images/headset02.jpg","img/object_images/badminton01.jpg","img/object_images/lock03.jpg","0","1","1","0","1","1","0.344962699979078","0.426546599977883","0.452169199998025","1","1","1","1","1","1","1","1","1"
"260041","img/object_images/lock03.jpg","img/object_images/headset02.jpg","img/object_images/phone04.jpg","1","0","1","1","0","1","0.452169199998025","0.344962699979078","0.477924300008453","1","1","1","1","1","1","1","1","1"
"260041","img/object_images/phone04.jpg","img/object_images/lock03.jpg",NA,"1","1",NA,"1","1",NA,"0.477924300008453","0.452169199998025",NA,"1","1",NA,"1","1",NA,"1","1",NA
"260041","img/object_images/hat09.jpg",NA,"img/object_images/vase02.jpg","1",NA,"1","0",NA,"1","0.474580699985381",NA,"0.434673700015992","1",NA,"1","1",NA,"1","1",NA,"1"
"260041","img/object_images/vase02.jpg","img/object_images/hat09.jpg","img/object_images/pan03.jpg","1","1","1","1","0","1","0.434673700015992","0.474580699985381","0.401675300003262","1","1","1","1","1","1","1","1","1"
"260041","img/object_images/pan03.jpg","img/object_images/vase02.jpg","img/object_images/candle02.jpg","1","1","1","1","1","0","0.401675300003262","0.434673700015992","0.465020300005563","1","1","1","1","1","1","1","1","1"
"260041","img/object_images/candle02.jpg","img/object_images/pan03.jpg","img/object_images/board01.jpg","1","1","1","0","1","1","0.465020300005563","0.401675300003262","0.381139799981611","1","1","1","1","1","1","1","1","1"
"260041","img/object_images/board01.jpg","img/object_images/candle02.jpg","img/object_images/Candle_Holder01.jpg","1","1","1","1","0","0","0.381139799981611","0.465020300005563","0.465273700014222","1","1","1","1","1","1","1","1","1"
"260041","img/object_images/Candle_Holder01.jpg","img/object_images/board01.jpg","img/object_images/pen06.jpg","1","1","1","0","1","0","0.465273700014222","0.381139799981611","0.526958399976138","1","1","1","1","1","1","1","1","1"
"260041","img/object_images/pen06.jpg","img/object_images/Candle_Holder01.jpg","img/object_images/ruler02.jpg","1","1","1","0","0","1","0.526958399976138","0.465273700014222","0.374846200022148","1","1","1","1","1","1","1","1","1"
"260041","img/object_images/ruler02.jpg","img/object_images/pen06.jpg","img/object_images/office_supplies01.jpg","1","1","1","1","0","1","0.374846200022148","0.526958399976138","0.339258299994981","1","1","1","1","1","1","1","1","1"
"260041","img/object_images/office_supplies01.jpg","img/object_images/ruler02.jpg","img/object_images/duster01.jpg","1","1","0","1","1","0","0.339258299994981","0.374846200022148","0.414762600004906","1","1","1","1","1","1","1","1","1"
"260041","img/object_images/duster01.jpg","img/object_images/office_supplies01.jpg","img/object_images/dust_pan01.jpg","0","1","1","0","1","1","0.414762600004906","0.339258299994981","0.388250999996671","1","1","1","1","1","1","1","1","1"
"260041","img/object_images/dust_pan01.jpg","img/object_images/duster01.jpg","img/object_images/lemon_squeezer01.jpg","1","0","1","1","0","1","0.388250999996671","0.414762600004906","0.461759899975732","1","1","1","1","1","1","1","1","1"
"260041","img/object_images/lemon_squeezer01.jpg","img/object_images/dust_pan01.jpg","img/object_images/tool20.jpg","1","1","1","1","1","0","0.461759899975732","0.388250999996671","0.418849400011823","1","1","1","1","1","1","1","1","1"
"260041","img/object_images/tool20.jpg","img/object_images/lemon_squeezer01.jpg","img/object_images/Confetti 01.jpg","1","1","1","0","1","0","0.418849400011823","0.461759899975732","0.488929200015264","1","1","1","1","1","1","1","1","1"
"260041","img/object_images/Confetti 01.jpg","img/object_images/tool20.jpg","img/object_images/perfume01.jpg","1","1","1","0","0","0","0.488929200015264","0.418849400011823","0.481828399992082","1","1","1","1","1","1","1","1","1"
"260041","img/object_images/perfume01.jpg","img/object_images/Confetti 01.jpg","img/object_images/floss01.jpg","1","1","1","0","0","1","0.481828399992082","0.488929200015264","0.504583500005538","1","1","1","1","1","1","1","1","1"
"260041","img/object_images/floss01.jpg","img/object_images/perfume01.jpg","img/object_images/bow_tie03.jpg","1","1","1","1","0","1","0.504583500005538","0.481828399992082","0.44647540000733","1","1","1","1","1","1","1","1","1"
"260041","img/object_images/bow_tie03.jpg","img/object_images/floss01.jpg","img/object_images/bag04.jpg","1","1","1","1","1","0","0.44647540000733","0.504583500005538","0.484692300000461","1","1","1","1","1","1","1","1","1"
"260041","img/object_images/bag04.jpg","img/object_images/bow_tie03.jpg","img/object_images/spray_can01.jpg","1","1","1","0","1","0","0.484692300000461","0.44647540000733","0.466176699992502","1","1","1","1","1","1","1","1","1"
"260041","img/object_images/spray_can01.jpg","img/object_images/bag04.jpg","img/object_images/video_game02.jpg","1","1","1","0","0","1","0.466176699992502","0.484692300000461","0.445080900011817","1","1","1","1","1","1","1","1","1"
"260041","img/object_images/video_game02.jpg","img/object_images/spray_can01.jpg","img/object_images/tool13.jpg","1","1","1","1","0","1","0.445080900011817","0.466176699992502","0.375303400011035","1","1","1","1","1","1","1","1","1"
"260041","img/object_images/tool13.jpg","img/object_images/video_game02.jpg","img/object_images/sign02.jpg","1","1","1","1","1","0","0.375303400011035","0.445080900011817","0.457863000017824","1","1","1","1","1","1","1","1","1"
"260041","img/object_images/sign02.jpg","img/object_images/tool13.jpg","img/object_images/socks01.jpg","1","1","1","0","1","1","0.457863000017824","0.375303400011035","0.482705100002931","1","1","1","1","1","1","1","1","1"
"260041","img/object_images/socks01.jpg","img/object_images/sign02.jpg","img/object_images/sink_filter01 (1).jpg","1","1","1","1","0","0","0.482705100002931","0.457863000017824","0.462611499999184","1","1","1","1","1","1","1","1","1"
"260041","img/object_images/sink_filter01 (1).jpg","img/object_images/socks01.jpg","img/object_images/cup01.jpg","1","1","1","0","1","0","0.462611499999184","0.482705100002931","0.500109399989014","1","1","1","1","1","1","1","1","1"
"260041","img/object_images/cup01.jpg","img/object_images/sink_filter01 (1).jpg","img/object_images/hat13.jpg","1","1","1","0","0","1","0.500109399989014","0.462611499999184","0.550078400003258","1","1","1","1","1","1","1","1","1"
"260041","img/object_images/hat13.jpg","img/object_images/cup01.jpg","img/object_images/clipboard01.jpg","1","1","1","1","0","1","0.550078400003258","0.500109399989014","0.553548500000034","1","1","1","1","1","1","1","1","1"
"260041","img/object_images/clipboard01.jpg","img/object_images/hat13.jpg","img/object_images/camera05.jpg","1","1","0","1","1","0","0.553548500000034","0.550078400003258","0.93689589999849","1","1","1","1","1","1","1","1","1"
"260041","img/object_images/camera05.jpg","img/object_images/clipboard01.jpg","img/object_images/razor02.jpg","0","1","1","0","1","1","0.93689589999849","0.553548500000034","0.451412599999458","1","1","1","1","1","1","1","1","1"
"260041","img/object_images/razor02.jpg","img/object_images/camera05.jpg","img/object_images/knife01.jpg","1","0","1","1","0","1","0.451412599999458","0.93689589999849","0.415296599996509","1","1","1","1","1","1","1","1","1"
"260041","img/object_images/knife01.jpg","img/object_images/razor02.jpg","img/object_images/hammer02.jpg","1","1","1","1","1","0","0.415296599996509","0.451412599999458","0.456635400012601","1","1","1","1","1","1","1","1","1"
"260041","img/object_images/hammer02.jpg","img/object_images/knife01.jpg","img/object_images/glasses03.jpg","1","1","0","0","1","0","0.456635400012601","0.415296599996509","0.498652600013884","1","1","1","1","1","1","1","1","2"
"260041","img/object_images/glasses03.jpg","img/object_images/hammer02.jpg",NA,"0","1",NA,"0","0",NA,"0.498652600013884","0.456635400012601",NA,"1","1",NA,"1","1",NA,"2","1",NA
