"participant_id","current_trial_object","pre_trial_object","post_trial_object","current_trial_accuracy","pre_trial_accuracy","post_trial_accuracy","current_trial_congruency","pre_trial_congruency","post_trial_congruency","current_trial_rt","pre_trial_rt","post_trial_rt","current_trial_responded","pre_trial_responded","post_trial_responded","current_trial_legitResponse","pre_trial_legitResponse","post_trial_legitResponse","current_trial_resp_nums","pre_trial_resp_nums","post_trial_resp_nums"
"260017","img/object_images/decorative02.jpg",NA,"img/object_images/Woopie01.jpg","1",NA,"1","0",NA,"1","1.30210530001204",NA,"0.593901399988681","1",NA,"1","1",NA,"1","1",NA,"1"
"260017","img/object_images/Woopie01.jpg","img/object_images/decorative02.jpg","img/object_images/gloves05.jpg","1","1","1","1","0","1","0.593901399988681","1.30210530001204","0.455553800042253","1","1","1","1","1","1","1","1","1"
"260017","img/object_images/gloves05.jpg","img/object_images/Woopie01.jpg","img/object_images/brief_case02.jpg","1","1","1","1","1","1","0.455553800042253","0.593901399988681","0.68623029999435","1","1","1","1","1","1","1","1","1"
"260017","img/object_images/brief_case02.jpg","img/object_images/gloves05.jpg","img/object_images/bottle12.jpg","1","1","1","1","1","1","0.68623029999435","0.455553800042253","0.545974100008607","1","1","1","1","1","1","1","1","1"
"260017","img/object_images/bottle12.jpg","img/object_images/brief_case02.jpg","img/object_images/couch04.jpg","1","1","1","1","1","1","0.545974100008607","0.68623029999435","0.529913400008809","1","1","1","1","1","1","1","1","1"
"260017","img/object_images/couch04.jpg","img/object_images/bottle12.jpg","img/object_images/lantern01.jpg","1","1","1","1","1","1","0.529913400008809","0.545974100008607","0.749883299984504","1","1","1","1","1","1","1","1","1"
"260017","img/object_images/lantern01.jpg","img/object_images/couch04.jpg","img/object_images/guitar01.jpg","1","1","1","1","1","1","0.749883299984504","0.529913400008809","0.727333999995608","1","1","1","1","1","1","1","1","1"
"260017","img/object_images/guitar01.jpg","img/object_images/lantern01.jpg","img/object_images/airfryer01.jpg","1","1","1","1","1","0","0.727333999995608","0.749883299984504","0.781869500002358","1","1","1","1","1","1","1","1","1"
"260017","img/object_images/airfryer01.jpg","img/object_images/guitar01.jpg","img/object_images/lamp01.jpg","1","1","1","0","1","1","0.781869500002358","0.727333999995608","0.616293900005985","1","1","1","1","1","1","1","1","1"
"260017","img/object_images/lamp01.jpg","img/object_images/airfryer01.jpg","img/object_images/ball01.jpg","1","1","1","1","0","1","0.616293900005985","0.781869500002358","0.657847700000275","1","1","1","1","1","1","1","1","1"
"260017","img/object_images/ball01.jpg","img/object_images/lamp01.jpg","img/object_images/Recycling01.jpg","1","1","1","1","1","1","0.657847700000275","0.616293900005985","0.609577699971851","1","1","1","1","1","1","1","1","1"
"260017","img/object_images/Recycling01.jpg","img/object_images/ball01.jpg","img/object_images/brief_case01.jpg","1","1","1","1","1","0","0.609577699971851","0.657847700000275","0.795926799997687","1","1","1","1","1","1","1","1","1"
"260017","img/object_images/brief_case01.jpg","img/object_images/Recycling01.jpg","img/object_images/razor03.jpg","1","1","1","0","1","0","0.795926799997687","0.609577699971851","0.656571600004099","1","1","1","1","1","1","1","1","1"
"260017","img/object_images/razor03.jpg","img/object_images/brief_case01.jpg","img/object_images/soap01.jpg","1","1","1","0","0","0","0.656571600004099","0.795926799997687","0.673920400033239","1","1","1","1","1","1","1","1","1"
"260017","img/object_images/soap01.jpg","img/object_images/razor03.jpg","img/object_images/cochlear_implant01.jpg","1","1","1","0","0","0","0.673920400033239","0.656571600004099","0.726438499987125","1","1","1","1","1","1","1","1","1"
"260017","img/object_images/cochlear_implant01.jpg","img/object_images/soap01.jpg","img/object_images/chair01.jpg","1","1","1","0","0","0","0.726438499987125","0.673920400033239","0.688337699975818","1","1","1","1","1","1","1","1","1"
"260017","img/object_images/chair01.jpg","img/object_images/cochlear_implant01.jpg","img/object_images/container01.jpg","1","1","1","0","0","0","0.688337699975818","0.726438499987125","0.617419499962125","1","1","1","1","1","1","1","1","1"
"260017","img/object_images/container01.jpg","img/object_images/chair01.jpg","img/object_images/Wisk01.jpg","1","1","1","0","0","1","0.617419499962125","0.688337699975818","0.724930999975186","1","1","1","1","1","1","1","1","1"
"260017","img/object_images/Wisk01.jpg","img/object_images/container01.jpg","img/object_images/toy_train02.jpg","1","1","1","1","0","1","0.724930999975186","0.617419499962125","0.694019799993839","1","1","1","1","1","1","1","1","1"
"260017","img/object_images/toy_train02.jpg","img/object_images/Wisk01.jpg","img/object_images/drone02.jpg","1","1","1","1","1","0","0.694019799993839","0.724930999975186","0.772605600010138","1","1","1","1","1","1","1","1","1"
"260017","img/object_images/drone02.jpg","img/object_images/toy_train02.jpg","img/object_images/broom01.jpg","1","1","1","0","1","1","0.772605600010138","0.694019799993839","0.639450300019234","1","1","1","1","1","1","1","1","1"
"260017","img/object_images/broom01.jpg","img/object_images/drone02.jpg","img/object_images/car02.jpg","1","1","1","1","0","0","0.639450300019234","0.772605600010138","0.741811599989887","1","1","1","1","1","1","1","1","1"
"260017","img/object_images/car02.jpg","img/object_images/broom01.jpg","img/object_images/hat02.jpg","1","1","1","0","1","0","0.741811599989887","0.639450300019234","0.599090400035493","1","1","1","1","1","1","1","1","1"
"260017","img/object_images/hat02.jpg","img/object_images/car02.jpg","img/object_images/video_game06.jpg","1","1","1","0","0","0","0.599090400035493","0.741811599989887","0.646568100026343","1","1","1","1","1","1","1","1","1"
"260017","img/object_images/video_game06.jpg","img/object_images/hat02.jpg","img/object_images/pot01.jpg","1","1","1","0","0","0","0.646568100026343","0.599090400035493","0.62705220002681","1","1","1","1","1","1","1","1","1"
"260017","img/object_images/pot01.jpg","img/object_images/video_game06.jpg","img/object_images/tie01.jpg","1","1","1","0","0","0","0.62705220002681","0.646568100026343","0.654117699945346","1","1","1","1","1","1","1","1","1"
"260017","img/object_images/tie01.jpg","img/object_images/pot01.jpg","img/object_images/basketball_hoop02.jpg","1","1","1","0","0","0","0.654117699945346","0.62705220002681","0.660200699989218","1","1","1","1","1","1","1","1","1"
"260017","img/object_images/basketball_hoop02.jpg","img/object_images/tie01.jpg","img/object_images/ironing_table02.jpg","1","1","1","0","0","0","0.660200699989218","0.654117699945346","0.55159539997112","1","1","1","1","1","1","1","1","1"
"260017","img/object_images/ironing_table02.jpg","img/object_images/basketball_hoop02.jpg","img/object_images/helmet05.jpg","1","1","1","0","0","1","0.55159539997112","0.660200699989218","0.593604299996514","1","1","1","1","1","1","1","1","1"
"260017","img/object_images/helmet05.jpg","img/object_images/ironing_table02.jpg","img/object_images/toilet_paper01.jpg","1","1","1","1","0","1","0.593604299996514","0.55159539997112","0.656805299979169","1","1","1","1","1","1","1","1","1"
"260017","img/object_images/toilet_paper01.jpg","img/object_images/helmet05.jpg","img/object_images/pitcher03.jpg","1","1","1","1","1","1","0.656805299979169","0.593604299996514","0.607031499966979","1","1","1","1","1","1","1","1","1"
"260017","img/object_images/pitcher03.jpg","img/object_images/toilet_paper01.jpg",NA,"1","1",NA,"1","1",NA,"0.607031499966979","0.656805299979169",NA,"1","1",NA,"1","1",NA,"1","1",NA
"260017","img/object_images/razor02.jpg",NA,"img/object_images/clipboard01.jpg","1",NA,"1","1",NA,"1","0.660345000040252",NA,"0.584726400033105","1",NA,"1","1",NA,"1","1",NA,"1"
"260017","img/object_images/clipboard01.jpg","img/object_images/razor02.jpg","img/object_images/ruler02.jpg","1","1","1","1","1","1","0.584726400033105","0.660345000040252","0.513778099964838","1","1","1","1","1","1","1","1","1"
"260017","img/object_images/ruler02.jpg","img/object_images/clipboard01.jpg","img/object_images/candle02.jpg","1","1","1","1","1","0","0.513778099964838","0.584726400033105","0.699399199977051","1","1","1","1","1","1","1","1","1"
"260017","img/object_images/candle02.jpg","img/object_images/ruler02.jpg","img/object_images/knife01.jpg","1","1","1","0","1","1","0.699399199977051","0.513778099964838","0.385219699994195","1","1","1","1","1","1","1","1","1"
"260017","img/object_images/knife01.jpg","img/object_images/candle02.jpg","img/object_images/camera05.jpg","1","1","1","1","0","0","0.385219699994195","0.699399199977051","0.997417900012806","1","1","1","1","1","1","1","1","1"
"260017","img/object_images/camera05.jpg","img/object_images/knife01.jpg","img/object_images/hat09.jpg","1","1","1","0","1","0","0.997417900012806","0.385219699994195","0.710857999976724","1","1","1","1","1","1","1","1","1"
"260017","img/object_images/hat09.jpg","img/object_images/camera05.jpg","img/object_images/glasses03.jpg","1","1","1","0","0","0","0.710857999976724","0.997417900012806","0.908313699997962","1","1","1","1","1","1","1","1","1"
"260017","img/object_images/glasses03.jpg","img/object_images/hat09.jpg","img/object_images/Confetti 01.jpg","1","1","1","0","0","0","0.908313699997962","0.710857999976724","0.81078709999565","1","1","1","1","1","1","1","1","1"
"260017","img/object_images/Confetti 01.jpg","img/object_images/glasses03.jpg","img/object_images/office_supplies01.jpg","1","1","1","0","0","1","0.81078709999565","0.908313699997962","1.02962310001021","1","1","1","1","1","1","1","1","1"
"260017","img/object_images/office_supplies01.jpg","img/object_images/Confetti 01.jpg","img/object_images/cup01.jpg","1","1","1","1","0","0","1.02962310001021","0.81078709999565","0.77186169999186","1","1","1","1","1","1","1","1","1"
"260017","img/object_images/cup01.jpg","img/object_images/office_supplies01.jpg","img/object_images/sink_filter01 (1).jpg","1","1","1","0","1","0","0.77186169999186","1.02962310001021","0.726279700000305","1","1","1","1","1","1","1","1","1"
"260017","img/object_images/sink_filter01 (1).jpg","img/object_images/cup01.jpg","img/object_images/board01.jpg","1","1","1","0","0","1","0.726279700000305","0.77186169999186","0.658343199989758","1","1","1","1","1","1","1","1","1"
"260017","img/object_images/board01.jpg","img/object_images/sink_filter01 (1).jpg","img/object_images/dust_pan01.jpg","1","1","1","1","0","1","0.658343199989758","0.726279700000305","0.673087699979078","1","1","1","1","1","1","1","1","1"
"260017","img/object_images/dust_pan01.jpg","img/object_images/board01.jpg","img/object_images/pen06.jpg","1","1","1","1","1","0","0.673087699979078","0.658343199989758","0.845300499990117","1","1","1","1","1","1","1","1","1"
"260017","img/object_images/pen06.jpg","img/object_images/dust_pan01.jpg","img/object_images/duster01.jpg","1","1","1","0","1","0","0.845300499990117","0.673087699979078","0.580633600009605","1","1","1","1","1","1","1","1","1"
"260017","img/object_images/duster01.jpg","img/object_images/pen06.jpg","img/object_images/Candle_Holder01.jpg","1","1","1","0","0","0","0.580633600009605","0.845300499990117","0.64638550003292","1","1","1","1","1","1","1","1","1"
"260017","img/object_images/Candle_Holder01.jpg","img/object_images/duster01.jpg","img/object_images/lemon_squeezer01.jpg","1","1","1","0","0","1","0.64638550003292","0.580633600009605","0.645964800030924","1","1","1","1","1","1","1","1","1"
"260017","img/object_images/lemon_squeezer01.jpg","img/object_images/Candle_Holder01.jpg","img/object_images/socks01.jpg","1","1","1","1","0","1","0.645964800030924","0.64638550003292","0.618014400009997","1","1","1","1","1","1","1","1","1"
"260017","img/object_images/socks01.jpg","img/object_images/lemon_squeezer01.jpg","img/object_images/tool13.jpg","1","1","1","1","1","1","0.618014400009997","0.645964800030924","0.592894500005059","1","1","1","1","1","1","1","1","1"
"260017","img/object_images/tool13.jpg","img/object_images/socks01.jpg","img/object_images/bag04.jpg","1","1","1","1","1","0","0.592894500005059","0.618014400009997","0.790269599994645","1","1","1","1","1","1","1","1","1"
"260017","img/object_images/bag04.jpg","img/object_images/tool13.jpg","img/object_images/perfume01.jpg","1","1","1","0","1","0","0.790269599994645","0.592894500005059","0.731562500004657","1","1","1","1","1","1","1","1","1"
"260017","img/object_images/perfume01.jpg","img/object_images/bag04.jpg","img/object_images/bow_tie03.jpg","1","1","1","0","0","1","0.731562500004657","0.790269599994645","0.759156599990092","1","1","1","1","1","1","1","1","1"
"260017","img/object_images/bow_tie03.jpg","img/object_images/perfume01.jpg","img/object_images/video_game02.jpg","1","1","1","1","0","1","0.759156599990092","0.731562500004657","0.51291669998318","1","1","1","1","1","1","1","1","1"
"260017","img/object_images/video_game02.jpg","img/object_images/bow_tie03.jpg","img/object_images/sign02.jpg","1","1","1","1","1","0","0.51291669998318","0.759156599990092","0.692731900024228","1","1","1","1","1","1","1","1","1"
"260017","img/object_images/sign02.jpg","img/object_images/video_game02.jpg","img/object_images/tool20.jpg","1","1","1","0","1","0","0.692731900024228","0.51291669998318","0.691236699989531","1","1","1","1","1","1","1","1","1"
"260017","img/object_images/tool20.jpg","img/object_images/sign02.jpg","img/object_images/floss01.jpg","1","1","1","0","0","1","0.691236699989531","0.692731900024228","0.692396000027657","1","1","1","1","1","1","1","1","1"
"260017","img/object_images/floss01.jpg","img/object_images/tool20.jpg","img/object_images/pan03.jpg","1","1","1","1","0","1","0.692396000027657","0.691236699989531","0.643774199998006","1","1","1","1","1","1","1","1","1"
"260017","img/object_images/pan03.jpg","img/object_images/floss01.jpg","img/object_images/hammer02.jpg","1","1","1","1","1","0","0.643774199998006","0.692396000027657","0.600264000007883","1","1","1","1","1","1","1","1","1"
"260017","img/object_images/hammer02.jpg","img/object_images/pan03.jpg","img/object_images/vase02.jpg","1","1","1","0","1","1","0.600264000007883","0.643774199998006","0.563189000007696","1","1","1","1","1","1","1","1","1"
"260017","img/object_images/vase02.jpg","img/object_images/hammer02.jpg","img/object_images/spray_can01.jpg","1","1","1","1","0","0","0.563189000007696","0.600264000007883","0.702993100043386","1","1","1","1","1","1","1","1","1"
"260017","img/object_images/spray_can01.jpg","img/object_images/vase02.jpg","img/object_images/hat13.jpg","1","1","1","0","1","1","0.702993100043386","0.563189000007696","0.49011720000999","1","1","1","1","1","1","1","1","1"
"260017","img/object_images/hat13.jpg","img/object_images/spray_can01.jpg",NA,"1","1",NA,"1","0",NA,"0.49011720000999","0.702993100043386",NA,"1","1",NA,"1","1",NA,"1","1",NA
"260017","img/object_images/measuring_tape02.jpg",NA,"img/object_images/funnel01.jpg","1",NA,"1","1",NA,"0","0.721606800041627",NA,"0.532319400052074","1",NA,"1","1",NA,"1","1",NA,"1"
"260017","img/object_images/funnel01.jpg","img/object_images/measuring_tape02.jpg","img/object_images/lock04.jpg","1","1","1","0","1","1","0.532319400052074","0.721606800041627","0.598641099990346","1","1","1","1","1","1","1","1","1"
"260017","img/object_images/lock04.jpg","img/object_images/funnel01.jpg","img/object_images/lawn_mower01.jpg","1","1","1","1","0","1","0.598641099990346","0.532319400052074","0.563555700005963","1","1","1","1","1","1","1","1","1"
"260017","img/object_images/lawn_mower01.jpg","img/object_images/lock04.jpg","img/object_images/wallet02.jpg","1","1","1","1","1","1","0.563555700005963","0.598641099990346","0.569186899985652","1","1","1","1","1","1","1","1","1"
"260017","img/object_images/wallet02.jpg","img/object_images/lawn_mower01.jpg","img/object_images/coloring_pencil01.jpg","1","1","1","1","1","1","0.569186899985652","0.563555700005963","0.633304300019518","1","1","1","1","1","1","1","1","1"
"260017","img/object_images/coloring_pencil01.jpg","img/object_images/wallet02.jpg","img/object_images/Screws01.jpg","1","1","1","1","1","1","0.633304300019518","0.569186899985652","0.523604599991813","1","1","1","1","1","1","1","1","1"
"260017","img/object_images/Screws01.jpg","img/object_images/coloring_pencil01.jpg","img/object_images/ironing_table01.jpg","1","1","1","1","1","0","0.523604599991813","0.633304300019518","0.637790100008715","1","1","1","1","1","1","1","1","1"
"260017","img/object_images/ironing_table01.jpg","img/object_images/Screws01.jpg","img/object_images/balloon01.jpg","1","1","1","0","1","0","0.637790100008715","0.523604599991813","0.705274500011001","1","1","1","1","1","1","1","1","1"
"260017","img/object_images/balloon01.jpg","img/object_images/ironing_table01.jpg","img/object_images/handkerchief01.jpg","1","1","1","0","0","0","0.705274500011001","0.637790100008715","0.729521300003398","1","1","1","1","1","1","1","1","1"
"260017","img/object_images/handkerchief01.jpg","img/object_images/balloon01.jpg","img/object_images/jewelry01.jpg","1","1","1","0","0","1","0.729521300003398","0.705274500011001","0.574693000002299","1","1","1","1","1","1","1","1","1"
"260017","img/object_images/jewelry01.jpg","img/object_images/handkerchief01.jpg","img/object_images/sleeping_bag01.jpg","1","1","1","1","0","0","0.574693000002299","0.729521300003398","0.761578100034967","1","1","1","1","1","1","1","1","1"
"260017","img/object_images/sleeping_bag01.jpg","img/object_images/jewelry01.jpg","img/object_images/gift_box01.jpg","1","1","1","0","1","1","0.761578100034967","0.574693000002299","0.669252199993934","1","1","1","1","1","1","1","1","1"
"260017","img/object_images/gift_box01.jpg","img/object_images/sleeping_bag01.jpg","img/object_images/clip02.jpg","1","1","1","1","0","1","0.669252199993934","0.761578100034967","0.619484499969985","1","1","1","1","1","1","1","1","1"
"260017","img/object_images/clip02.jpg","img/object_images/gift_box01.jpg","img/object_images/pitcher02.jpg","1","1","1","1","1","1","0.619484499969985","0.669252199993934","0.622673300036695","1","1","1","1","1","1","1","1","1"
"260017","img/object_images/pitcher02.jpg","img/object_images/clip02.jpg","img/object_images/vga_port 01.jpg","1","1","1","1","1","0","0.622673300036695","0.619484499969985","0.542232099978719","1","1","1","1","1","1","1","1","1"
"260017","img/object_images/vga_port 01.jpg","img/object_images/pitcher02.jpg","img/object_images/bow_tie02.jpg","1","1","0","0","1","0","0.542232099978719","0.622673300036695","0.860688399989158","1","1","1","1","1","1","1","1","1"
"260017","img/object_images/bow_tie02.jpg","img/object_images/vga_port 01.jpg","img/object_images/fork03.jpg","0","1","1","0","0","1","0.860688399989158","0.542232099978719","1.2107476000092","1","1","1","1","1","1","1","1","1"
"260017","img/object_images/fork03.jpg","img/object_images/bow_tie02.jpg","img/object_images/bow_tie01.jpg","1","0","1","1","0","0","1.2107476000092","0.860688399989158","0.565568500023801","1","1","1","1","1","1","1","1","1"
"260017","img/object_images/bow_tie01.jpg","img/object_images/fork03.jpg","img/object_images/grater01.jpg","1","1","1","0","1","1","0.565568500023801","1.2107476000092","0.60612760001095","1","1","1","1","1","1","1","1","1"
"260017","img/object_images/grater01.jpg","img/object_images/bow_tie01.jpg","img/object_images/paper_cup01.jpg","1","1","1","1","0","0","0.60612760001095","0.565568500023801","1.02194669999881","1","1","1","1","1","1","1","1","1"
"260017","img/object_images/paper_cup01.jpg","img/object_images/grater01.jpg","img/object_images/golf_ball03.jpg","1","1","1","0","1","1","1.02194669999881","0.60612760001095","0.61494490003679","1","1","1","1","1","1","1","1","1"
"260017","img/object_images/golf_ball03.jpg","img/object_images/paper_cup01.jpg","img/object_images/gift_box03.jpg","1","1","1","1","0","0","0.61494490003679","1.02194669999881","0.614924099994823","1","1","1","1","1","1","1","1","1"
"260017","img/object_images/gift_box03.jpg","img/object_images/golf_ball03.jpg","img/object_images/dresser04.jpg","1","1","1","0","1","0","0.614924099994823","0.61494490003679","0.619209200027399","1","1","1","1","1","1","1","1","1"
"260017","img/object_images/dresser04.jpg","img/object_images/gift_box03.jpg","img/object_images/hammer01.jpg","1","1","1","0","0","0","0.619209200027399","0.614924099994823","1.17910269997083","1","1","1","1","1","1","1","1","1"
"260017","img/object_images/hammer01.jpg","img/object_images/dresser04.jpg","img/object_images/bath_tub01.jpg","1","1","0","0","0","0","1.17910269997083","0.619209200027399","0.622854100016411","1","1","1","1","1","1","1","1","1"
"260017","img/object_images/bath_tub01.jpg","img/object_images/hammer01.jpg","img/object_images/jacket03.jpg","0","1","1","0","0","0","0.622854100016411","1.17910269997083","0.714366000029258","1","1","1","1","1","1","1","1","1"
"260017","img/object_images/jacket03.jpg","img/object_images/bath_tub01.jpg","img/object_images/couch03.jpg","1","0","1","0","0","0","0.714366000029258","0.622854100016411","0.718797500012442","1","1","1","1","1","1","1","1","1"
"260017","img/object_images/couch03.jpg","img/object_images/jacket03.jpg","img/object_images/socks02.jpg","1","1","1","0","0","0","0.718797500012442","0.714366000029258","0.601398000027984","1","1","1","1","1","1","1","1","1"
"260017","img/object_images/socks02.jpg","img/object_images/couch03.jpg","img/object_images/camera07.jpg","1","1","1","0","0","1","0.601398000027984","0.718797500012442","0.620448499976192","1","1","1","1","1","1","1","1","1"
"260017","img/object_images/camera07.jpg","img/object_images/socks02.jpg","img/object_images/Witchhat01.jpg","1","1","1","1","0","1","0.620448499976192","0.601398000027984","0.612117699987721","1","1","1","1","1","1","1","1","1"
"260017","img/object_images/Witchhat01.jpg","img/object_images/camera07.jpg","img/object_images/gift_box02.jpg","1","1","1","1","1","1","0.612117699987721","0.620448499976192","0.584490299981553","1","1","1","1","1","1","1","1","1"
"260017","img/object_images/gift_box02.jpg","img/object_images/Witchhat01.jpg",NA,"1","1",NA,"1","1",NA,"0.584490299981553","0.612117699987721",NA,"1","1",NA,"1","1",NA,"1","1",NA
"260017","img/object_images/video_game01.jpg",NA,"img/object_images/bottle07.jpg","1",NA,"1","1",NA,"1","1.40275870001642",NA,"0.600849199981894","1",NA,"1","1",NA,"1","1",NA,"1"
"260017","img/object_images/bottle07.jpg","img/object_images/video_game01.jpg","img/object_images/dresser03.jpg","1","1","1","1","1","0","0.600849199981894","1.40275870001642","0.595889199990779","1","1","1","1","1","1","1","1","1"
"260017","img/object_images/dresser03.jpg","img/object_images/bottle07.jpg","img/object_images/flashlight03.jpg","1","1","1","0","1","0","0.595889199990779","0.600849199981894","0.61417709995294","1","1","1","1","1","1","1","1","1"
"260017","img/object_images/flashlight03.jpg","img/object_images/dresser03.jpg","img/object_images/hand_grip_exerciser01.jpg","1","1","1","0","0","0","0.61417709995294","0.595889199990779","0.789465500041842","1","1","1","1","1","1","1","1","1"
"260017","img/object_images/hand_grip_exerciser01.jpg","img/object_images/flashlight03.jpg","img/object_images/stereo02.jpg","1","1","1","0","0","0","0.789465500041842","0.61417709995294","0.721628800034523","1","1","1","1","1","1","1","1","1"
"260017","img/object_images/stereo02.jpg","img/object_images/hand_grip_exerciser01.jpg","img/object_images/Statue01.jpg","1","1","1","0","0","1","0.721628800034523","0.789465500041842","0.634510000003502","1","1","1","1","1","1","1","1","1"
"260017","img/object_images/Statue01.jpg","img/object_images/stereo02.jpg","img/object_images/remover01.jpg","1","1","1","1","0","1","0.634510000003502","0.721628800034523","0.606231899990235","1","1","1","1","1","1","1","1","1"
"260017","img/object_images/remover01.jpg","img/object_images/Statue01.jpg","img/object_images/curtain02.jpg","1","1","0","1","1","0","0.606231899990235","0.634510000003502","0.701946400047746","1","1","1","1","1","1","1","1","1"
"260017","img/object_images/curtain02.jpg","img/object_images/remover01.jpg","img/object_images/toy08.jpg","0","1","1","0","1","0","0.701946400047746","0.606231899990235","0.730508300010115","1","1","1","1","1","1","1","1","1"
"260017","img/object_images/toy08.jpg","img/object_images/curtain02.jpg","img/object_images/camera03.jpg","1","0","1","0","0","0","0.730508300010115","0.701946400047746","0.669231399951968","1","1","1","1","1","1","1","1","1"
"260017","img/object_images/camera03.jpg","img/object_images/toy08.jpg","img/object_images/gloves02.jpg","1","1","1","0","0","0","0.669231399951968","0.730508300010115","0.853984599991236","1","1","1","1","1","1","1","1","1"
"260017","img/object_images/gloves02.jpg","img/object_images/camera03.jpg","img/object_images/knit04.jpg","1","1","1","0","0","1","0.853984599991236","0.669231399951968","0.751992700039409","1","1","1","1","1","1","1","1","1"
"260017","img/object_images/knit04.jpg","img/object_images/gloves02.jpg","img/object_images/kite01.jpg","1","1","1","1","0","1","0.751992700039409","0.853984599991236","0.662379000044893","1","1","1","1","1","1","1","1","1"
"260017","img/object_images/kite01.jpg","img/object_images/knit04.jpg","img/object_images/tool18.jpg","1","1","1","1","1","0","0.662379000044893","0.751992700039409","0.711515500035603","1","1","1","1","1","1","1","1","1"
"260017","img/object_images/tool18.jpg","img/object_images/kite01.jpg","img/object_images/blender02.jpg","1","1","1","0","1","1","0.711515500035603","0.662379000044893","0.675961299974006","1","1","1","1","1","1","1","1","1"
"260017","img/object_images/blender02.jpg","img/object_images/tool18.jpg","img/object_images/sponge03.jpg","1","1","1","1","0","1","0.675961299974006","0.711515500035603","0.609897999966051","1","1","1","1","1","1","1","1","1"
"260017","img/object_images/sponge03.jpg","img/object_images/blender02.jpg","img/object_images/boat04.jpg","1","1","1","1","1","0","0.609897999966051","0.675961299974006","0.60663769999519","1","1","1","1","1","1","1","1","1"
"260017","img/object_images/boat04.jpg","img/object_images/sponge03.jpg","img/object_images/knit03.jpg","1","1","1","0","1","1","0.60663769999519","0.609897999966051","0.691480900044553","1","1","1","1","1","1","1","1","1"
"260017","img/object_images/knit03.jpg","img/object_images/boat04.jpg","img/object_images/hoverboard01.jpg","1","1","1","1","0","0","0.691480900044553","0.60663769999519","0.810750200005714","1","1","1","1","1","1","1","1","1"
"260017","img/object_images/hoverboard01.jpg","img/object_images/knit03.jpg","img/object_images/car01.jpg","1","1","1","0","1","1","0.810750200005714","0.691480900044553","0.596391500032041","1","1","1","1","1","1","1","1","1"
"260017","img/object_images/car01.jpg","img/object_images/hoverboard01.jpg","img/object_images/remote_controller01.jpg","1","1","1","1","0","1","0.596391500032041","0.810750200005714","0.551930799963884","1","1","1","1","1","1","1","1","1"
"260017","img/object_images/remote_controller01.jpg","img/object_images/car01.jpg","img/object_images/mail_box01.jpg","1","1","1","1","1","0","0.551930799963884","0.596391500032041","0.636691499967128","1","1","1","1","1","1","1","1","1"
"260017","img/object_images/mail_box01.jpg","img/object_images/remote_controller01.jpg","img/object_images/phone02.jpg","1","1","1","0","1","1","0.636691499967128","0.551930799963884","0.689353099965956","1","1","1","1","1","1","1","1","1"
"260017","img/object_images/phone02.jpg","img/object_images/mail_box01.jpg","img/object_images/keyboard02.jpg","1","1","1","1","0","1","0.689353099965956","0.636691499967128","0.5886518000043","1","1","1","1","1","1","1","1","1"
"260017","img/object_images/keyboard02.jpg","img/object_images/phone02.jpg","img/object_images/knife02.jpg","1","1","1","1","1","0","0.5886518000043","0.689353099965956","0.599393700016662","1","1","1","1","1","1","1","1","1"
"260017","img/object_images/knife02.jpg","img/object_images/keyboard02.jpg","img/object_images/matches02.jpg","1","1","1","0","1","0","0.599393700016662","0.5886518000043","0.60826290003024","1","1","1","1","1","1","1","1","1"
"260017","img/object_images/matches02.jpg","img/object_images/knife02.jpg","img/object_images/backpack01.jpg","1","1","1","0","0","0","0.60826290003024","0.599393700016662","0.604346600011922","1","1","1","1","1","1","1","1","1"
"260017","img/object_images/backpack01.jpg","img/object_images/matches02.jpg","img/object_images/jacket04.jpg","1","1","1","0","0","0","0.604346600011922","0.60826290003024","0.653233500022907","1","1","1","1","1","1","1","1","1"
"260017","img/object_images/jacket04.jpg","img/object_images/backpack01.jpg","img/object_images/basket04.jpg","1","1","1","0","0","1","0.653233500022907","0.604346600011922","0.551535300037358","1","1","1","1","1","1","1","1","1"
"260017","img/object_images/basket04.jpg","img/object_images/jacket04.jpg","img/object_images/shower_head01.jpg","1","1","1","1","0","1","0.551535300037358","0.653233500022907","0.474968200025614","1","1","1","1","1","1","1","1","1"
"260017","img/object_images/shower_head01.jpg","img/object_images/basket04.jpg","img/object_images/paper_cup02.jpg","1","1","1","1","1","1","0.474968200025614","0.551535300037358","0.577995700004976","1","1","1","1","1","1","1","1","1"
"260017","img/object_images/paper_cup02.jpg","img/object_images/shower_head01.jpg",NA,"1","1",NA,"1","1",NA,"0.577995700004976","0.474968200025614",NA,"1","1",NA,"1","1",NA,"1","1",NA
"260017","img/object_images/gift_box05.jpg",NA,"img/object_images/stove01.jpg","0",NA,"1","0",NA,"0","2.05188970000017",NA,"0.802953400008846","1",NA,"1","1",NA,"1","1",NA,"1"
"260017","img/object_images/stove01.jpg","img/object_images/gift_box05.jpg","img/object_images/laptop03.jpg","1","0","1","0","0","1","0.802953400008846","2.05188970000017","0.661515199986752","1","1","1","1","1","1","1","1","1"
"260017","img/object_images/laptop03.jpg","img/object_images/stove01.jpg","img/object_images/hair_dryer01.jpg","1","1","1","1","0","0","0.661515199986752","0.802953400008846","0.671264600008726","1","1","1","1","1","1","1","1","1"
"260017","img/object_images/hair_dryer01.jpg","img/object_images/laptop03.jpg","img/object_images/ball02.jpg","1","1","1","0","1","1","0.671264600008726","0.661515199986752","0.680541899986565","1","1","1","1","1","1","1","1","1"
"260017","img/object_images/ball02.jpg","img/object_images/hair_dryer01.jpg","img/object_images/towels01.jpg","1","1","1","1","0","0","0.680541899986565","0.671264600008726","0.606693000008818","1","1","1","1","1","1","1","1","1"
"260017","img/object_images/towels01.jpg","img/object_images/ball02.jpg","img/object_images/hair_brush02.jpg","1","1","1","0","1","0","0.606693000008818","0.680541899986565","0.797053700021934","1","1","1","1","1","1","1","1","1"
"260017","img/object_images/hair_brush02.jpg","img/object_images/towels01.jpg","img/object_images/laptop01.jpg","1","1","1","0","0","0","0.797053700021934","0.606693000008818","0.743366500013508","1","1","1","1","1","1","1","1","1"
"260017","img/object_images/laptop01.jpg","img/object_images/hair_brush02.jpg","img/object_images/pitcher05.jpg","1","1","1","0","0","0","0.743366500013508","0.797053700021934","0.7564427999896","1","1","1","1","1","1","1","1","1"
"260017","img/object_images/pitcher05.jpg","img/object_images/laptop01.jpg","img/object_images/trash_can03.jpg","1","1","1","0","0","1","0.7564427999896","0.743366500013508","1.0016543000238","1","1","1","1","1","1","1","1","1"
"260017","img/object_images/trash_can03.jpg","img/object_images/pitcher05.jpg","img/object_images/bucket02.jpg","1","1","1","1","0","1","1.0016543000238","0.7564427999896","0.697751700005028","1","1","1","1","1","1","1","1","1"
"260017","img/object_images/bucket02.jpg","img/object_images/trash_can03.jpg","img/object_images/Vest02.jpg","1","1","1","1","1","0","0.697751700005028","1.0016543000238","0.65685890003806","1","1","1","1","1","1","1","1","1"
"260017","img/object_images/Vest02.jpg","img/object_images/bucket02.jpg","img/object_images/chair02.jpg","1","1","1","0","1","1","0.65685890003806","0.697751700005028","0.632871200039517","1","1","1","1","1","1","1","1","1"
"260017","img/object_images/chair02.jpg","img/object_images/Vest02.jpg","img/object_images/chess_piece01.jpg","1","1","1","1","0","0","0.632871200039517","0.65685890003806","0.647821500024293","1","1","1","1","1","1","1","1","1"
"260017","img/object_images/chess_piece01.jpg","img/object_images/chair02.jpg","img/object_images/Lint_Roller02.jpg","1","1","1","0","1","0","0.647821500024293","0.632871200039517","0.623194099985994","1","1","1","1","1","1","1","1","1"
"260017","img/object_images/Lint_Roller02.jpg","img/object_images/chess_piece01.jpg","img/object_images/robe01.jpg","1","1","1","0","0","1","0.623194099985994","0.647821500024293","0.696421500004362","1","1","1","1","1","1","1","1","1"
"260017","img/object_images/robe01.jpg","img/object_images/Lint_Roller02.jpg","img/object_images/microphone03.jpg","1","1","1","1","0","1","0.696421500004362","0.623194099985994","0.619118200032972","1","1","1","1","1","1","1","1","1"
"260017","img/object_images/microphone03.jpg","img/object_images/robe01.jpg","img/object_images/trash_can05.jpg","1","1","1","1","1","1","0.619118200032972","0.696421500004362","0.552906299999449","1","1","1","1","1","1","1","1","1"
"260017","img/object_images/trash_can05.jpg","img/object_images/microphone03.jpg","img/object_images/fan04.jpg","1","1","1","1","1","0","0.552906299999449","0.619118200032972","0.697642600047402","1","1","1","1","1","1","1","1","1"
"260017","img/object_images/fan04.jpg","img/object_images/trash_can05.jpg","img/object_images/accardion01.jpg","1","1","1","0","1","1","0.697642600047402","0.552906299999449","0.756905300018843","1","1","1","1","1","1","1","1","1"
"260017","img/object_images/accardion01.jpg","img/object_images/fan04.jpg","img/object_images/lock01.jpg","1","1","1","1","0","0","0.756905300018843","0.697642600047402","0.654161399987061","1","1","1","1","1","1","1","1","1"
"260017","img/object_images/lock01.jpg","img/object_images/accardion01.jpg","img/object_images/toy05.jpg","1","1","1","0","1","0","0.654161399987061","0.756905300018843","0.683398799970746","1","1","1","1","1","1","1","1","1"
"260017","img/object_images/toy05.jpg","img/object_images/lock01.jpg","img/object_images/surf_board01.jpg","1","1","1","0","0","1","0.683398799970746","0.654161399987061","0.696794499992393","1","1","1","1","1","1","1","1","1"
"260017","img/object_images/surf_board01.jpg","img/object_images/toy05.jpg","img/object_images/vase01.jpg","1","1","1","1","0","0","0.696794499992393","0.683398799970746","0.687890200002585","1","1","1","1","1","1","1","1","1"
"260017","img/object_images/vase01.jpg","img/object_images/surf_board01.jpg","img/object_images/calculator01.jpg","1","1","1","0","1","1","0.687890200002585","0.696794499992393","0.695586699992418","1","1","1","1","1","1","1","1","1"
"260017","img/object_images/calculator01.jpg","img/object_images/vase01.jpg","img/object_images/combs01.jpg","1","1","1","1","0","1","0.695586699992418","0.687890200002585","0.725710699975025","1","1","1","1","1","1","1","1","1"
"260017","img/object_images/combs01.jpg","img/object_images/calculator01.jpg","img/object_images/helmet02.jpg","1","1","1","1","1","0","0.725710699975025","0.695586699992418","0.704550300026312","1","1","1","1","1","1","1","1","1"
"260017","img/object_images/helmet02.jpg","img/object_images/combs01.jpg","img/object_images/umbrella01.jpg","1","1","1","0","1","0","0.704550300026312","0.725710699975025","0.759926099970471","1","1","1","1","1","1","1","1","1"
"260017","img/object_images/umbrella01.jpg","img/object_images/helmet02.jpg","img/object_images/jewel03.jpg","1","1","1","0","0","1","0.759926099970471","0.704550300026312","0.657383700017817","1","1","1","1","1","1","1","1","1"
"260017","img/object_images/jewel03.jpg","img/object_images/umbrella01.jpg","img/object_images/spatula02.jpg","1","1","1","1","0","1","0.657383700017817","0.759926099970471","0.730699700012337","1","1","1","1","1","1","1","1","1"
"260017","img/object_images/spatula02.jpg","img/object_images/jewel03.jpg","img/object_images/shoes08.jpg","1","1","1","1","1","1","0.730699700012337","0.657383700017817","0.789811399998143","1","1","1","1","1","1","1","1","1"
"260017","img/object_images/shoes08.jpg","img/object_images/spatula02.jpg","img/object_images/backpack03.jpg","1","1","1","1","1","1","0.789811399998143","0.730699700012337","0.655354899994563","1","1","1","1","1","1","1","1","1"
"260017","img/object_images/backpack03.jpg","img/object_images/shoes08.jpg",NA,"1","1",NA,"1","1",NA,"0.655354899994563","0.789811399998143",NA,"1","1",NA,"1","1",NA,"1","1",NA
"260017","img/object_images/pitcher09.jpg",NA,"img/object_images/computer_mouse02.jpg","1",NA,"1","1",NA,"0","0.682601100008469",NA,"0.715718600025866","1",NA,"1","1",NA,"1","1",NA,"1"
"260017","img/object_images/computer_mouse02.jpg","img/object_images/pitcher09.jpg","img/object_images/toy01.jpg","1","1","1","0","1","1","0.715718600025866","0.682601100008469","0.563735499978065","1","1","1","1","1","1","1","1","1"
"260017","img/object_images/toy01.jpg","img/object_images/computer_mouse02.jpg","img/object_images/toothbrush01.jpg","1","1","1","1","0","0","0.563735499978065","0.715718600025866","0.780851000046823","1","1","1","1","1","1","1","1","1"
"260017","img/object_images/toothbrush01.jpg","img/object_images/toy01.jpg","img/object_images/fork02.jpg","1","1","1","0","1","0","0.780851000046823","0.563735499978065","0.761607400025241","1","1","1","1","1","1","1","1","1"
"260017","img/object_images/fork02.jpg","img/object_images/toothbrush01.jpg","img/object_images/egg_slicer01.jpg","1","1","1","0","0","1","0.761607400025241","0.780851000046823","0.535250400018413","1","1","1","1","1","1","1","1","1"
"260017","img/object_images/egg_slicer01.jpg","img/object_images/fork02.jpg","img/object_images/book02.jpg","1","1","1","1","0","1","0.535250400018413","0.761607400025241","0.755660800030455","1","1","1","1","1","1","1","1","1"
"260017","img/object_images/book02.jpg","img/object_images/egg_slicer01.jpg","img/object_images/couch01.jpg","1","1","1","1","1","0","0.755660800030455","0.535250400018413","0.76518050004961","1","1","1","1","1","1","1","1","1"
"260017","img/object_images/couch01.jpg","img/object_images/book02.jpg","img/object_images/soap03.jpg","1","1","1","0","1","0","0.76518050004961","0.755660800030455","0.8536172999884","1","1","1","1","1","1","1","1","1"
"260017","img/object_images/soap03.jpg","img/object_images/couch01.jpg","img/object_images/computer_mouse01.jpg","1","1","1","0","0","1","0.8536172999884","0.76518050004961","0.66765730001498","1","1","1","1","1","1","1","1","1"
"260017","img/object_images/computer_mouse01.jpg","img/object_images/soap03.jpg","img/object_images/rock02.jpg","1","1","1","1","0","0","0.66765730001498","0.8536172999884","0.774351899977773","1","1","1","1","1","1","1","1","1"
"260017","img/object_images/rock02.jpg","img/object_images/computer_mouse01.jpg","img/object_images/skate_board01.jpg","1","1","1","0","1","0","0.774351899977773","0.66765730001498","0.604235300037544","1","1","1","1","1","1","1","1","1"
"260017","img/object_images/skate_board01.jpg","img/object_images/rock02.jpg","img/object_images/shoes12.jpg","1","1","1","0","0","1","0.604235300037544","0.774351899977773","0.752792300016154","1","1","1","1","1","1","1","1","1"
"260017","img/object_images/shoes12.jpg","img/object_images/skate_board01.jpg","img/object_images/clip04.jpg","1","1","1","1","0","1","0.752792300016154","0.604235300037544","0.686067399976309","1","1","1","1","1","1","1","1","1"
"260017","img/object_images/clip04.jpg","img/object_images/shoes12.jpg","img/object_images/airfryer02.jpg","1","1","1","1","1","1","0.686067399976309","0.752792300016154","0.769823500013445","1","1","1","1","1","1","1","1","1"
"260017","img/object_images/airfryer02.jpg","img/object_images/clip04.jpg","img/object_images/pen01.jpg","1","1","1","1","1","0","0.769823500013445","0.686067399976309","1.74836879997747","1","1","1","1","1","1","1","1","1"
"260017","img/object_images/pen01.jpg","img/object_images/airfryer02.jpg","img/object_images/bag_pipes01.jpg","1","1","1","0","1","1","1.74836879997747","0.769823500013445","0.759458000015002","1","1","1","1","1","1","1","1","1"
"260017","img/object_images/bag_pipes01.jpg","img/object_images/pen01.jpg","img/object_images/chair06.jpg","1","1","1","1","0","0","0.759458000015002","1.74836879997747","0.766256199975032","1","1","1","1","1","1","1","1","1"
"260017","img/object_images/chair06.jpg","img/object_images/bag_pipes01.jpg","img/object_images/hair_brush01.jpg","1","1","1","0","1","1","0.766256199975032","0.759458000015002","0.687734400038607","1","1","1","1","1","1","1","1","1"
"260017","img/object_images/hair_brush01.jpg","img/object_images/chair06.jpg","img/object_images/chain01.jpg","1","1","1","1","0","0","0.687734400038607","0.766256199975032","0.602550300012808","1","1","1","1","1","1","1","1","1"
"260017","img/object_images/chain01.jpg","img/object_images/hair_brush01.jpg","img/object_images/Violin01.jpg","1","1","1","0","1","0","0.602550300012808","0.687734400038607","0.680687999993097","1","1","1","1","1","1","1","1","1"
"260017","img/object_images/Violin01.jpg","img/object_images/chain01.jpg","img/object_images/mail_box02.jpg","1","1","1","0","0","1","0.680687999993097","0.602550300012808","0.647787099995185","1","1","1","1","1","1","1","1","1"
"260017","img/object_images/mail_box02.jpg","img/object_images/Violin01.jpg","img/object_images/floss02.jpg","1","1","1","1","0","1","0.647787099995185","0.680687999993097","0.711764000006951","1","1","1","1","1","1","1","1","1"
"260017","img/object_images/floss02.jpg","img/object_images/mail_box02.jpg","img/object_images/bell03.jpg","1","1","1","1","1","0","0.711764000006951","0.647787099995185","0.590428500028793","1","1","1","1","1","1","1","1","1"
"260017","img/object_images/bell03.jpg","img/object_images/floss02.jpg","img/object_images/drone01.jpg","1","1","1","0","1","1","0.590428500028793","0.711764000006951","0.631869099976029","1","1","1","1","1","1","1","1","1"
"260017","img/object_images/drone01.jpg","img/object_images/bell03.jpg","img/object_images/box03.jpg","1","1","1","1","0","0","0.631869099976029","0.590428500028793","0.919894199992996","1","1","1","1","1","1","1","1","1"
"260017","img/object_images/box03.jpg","img/object_images/drone01.jpg","img/object_images/blender01.jpg","1","1","1","0","1","0","0.919894199992996","0.631869099976029","0.816652000008617","1","1","1","1","1","1","1","1","1"
"260017","img/object_images/blender01.jpg","img/object_images/box03.jpg","img/object_images/tripod01.jpg","1","1","1","0","0","1","0.816652000008617","0.919894199992996","0.712395500042476","1","1","1","1","1","1","1","1","1"
"260017","img/object_images/tripod01.jpg","img/object_images/blender01.jpg","img/object_images/scarf01.jpg","1","1","1","1","0","1","0.712395500042476","0.816652000008617","0.760886100004427","1","1","1","1","1","1","1","1","1"
"260017","img/object_images/scarf01.jpg","img/object_images/tripod01.jpg","img/object_images/Trowel01.jpg","1","1","1","1","1","0","0.760886100004427","0.712395500042476","0.641276000009384","1","1","1","1","1","1","1","1","1"
"260017","img/object_images/Trowel01.jpg","img/object_images/scarf01.jpg","img/object_images/video_game03.jpg","1","1","1","0","1","1","0.641276000009384","0.760886100004427","0.731315299984999","1","1","1","1","1","1","1","1","1"
"260017","img/object_images/video_game03.jpg","img/object_images/Trowel01.jpg","img/object_images/tool06.jpg","1","1","1","1","0","0","0.731315299984999","0.641276000009384","0.659315500000957","1","1","1","1","1","1","1","1","1"
"260017","img/object_images/tool06.jpg","img/object_images/video_game03.jpg",NA,"1","1",NA,"0","1",NA,"0.659315500000957","0.731315299984999",NA,"1","1",NA,"1","1",NA,"1","1",NA
"260017","img/object_images/note_book01.jpg",NA,"img/object_images/clip03.jpg","0",NA,"1","0",NA,"0","1.38955369999167",NA,"0.67379540001275","1",NA,"1","1",NA,"1","1",NA,"1"
"260017","img/object_images/clip03.jpg","img/object_images/note_book01.jpg","img/object_images/pen03.jpg","1","0","1","0","0","0","0.67379540001275","1.38955369999167","0.634518299950287","1","1","1","1","1","1","1","1","1"
"260017","img/object_images/pen03.jpg","img/object_images/clip03.jpg","img/object_images/lid01.jpg","1","1","1","0","0","1","0.634518299950287","0.67379540001275","0.570432999986224","1","1","1","1","1","1","1","1","1"
"260017","img/object_images/lid01.jpg","img/object_images/pen03.jpg","img/object_images/paint_brush04.jpg","1","1","1","1","0","0","0.570432999986224","0.634518299950287","0.587707800033968","1","1","1","1","1","1","1","1","1"
"260017","img/object_images/paint_brush04.jpg","img/object_images/lid01.jpg","img/object_images/clock02.jpg","1","1","1","0","1","0","0.587707800033968","0.570432999986224","0.792816900007892","1","1","1","1","1","1","1","1","1"
"260017","img/object_images/clock02.jpg","img/object_images/paint_brush04.jpg","img/object_images/hammer03.jpg","1","1","1","0","0","1","0.792816900007892","0.587707800033968","0.642388399981428","1","1","1","1","1","1","1","1","1"
"260017","img/object_images/hammer03.jpg","img/object_images/clock02.jpg","img/object_images/microscope01.jpg","1","1","1","1","0","0","0.642388399981428","0.792816900007892","0.813414599979296","1","1","1","1","1","1","1","1","1"
"260017","img/object_images/microscope01.jpg","img/object_images/hammer03.jpg","img/object_images/floppy_disk03.jpg","1","1","1","0","1","1","0.813414599979296","0.642388399981428","0.639305700024124","1","1","1","1","1","1","1","1","1"
"260017","img/object_images/floppy_disk03.jpg","img/object_images/microscope01.jpg","img/object_images/knit05.jpg","1","1","1","1","0","1","0.639305700024124","0.813414599979296","0.671869999961928","1","1","1","1","1","1","1","1","1"
"260017","img/object_images/knit05.jpg","img/object_images/floppy_disk03.jpg","img/object_images/retainer01.jpg","1","1","1","1","1","0","0.671869999961928","0.639305700024124","0.674582900013775","1","1","1","1","1","1","1","1","1"
"260017","img/object_images/retainer01.jpg","img/object_images/knit05.jpg","img/object_images/bottle01.jpg","1","1","1","0","1","0","0.674582900013775","0.671869999961928","0.95568660000572","1","1","1","1","1","1","1","1","1"
"260017","img/object_images/bottle01.jpg","img/object_images/retainer01.jpg","img/object_images/cellphone01.jpg","1","1","1","0","0","1","0.95568660000572","0.674582900013775","0.755107799952384","1","1","1","1","1","1","1","1","1"
"260017","img/object_images/cellphone01.jpg","img/object_images/bottle01.jpg","img/object_images/Thermometer01.jpg","1","1","1","1","0","0","0.755107799952384","0.95568660000572","0.722679099999368","1","1","1","1","1","1","1","1","1"
"260017","img/object_images/Thermometer01.jpg","img/object_images/cellphone01.jpg","img/object_images/Oven01.jpg","1","1","1","0","1","1","0.722679099999368","0.755107799952384","0.808790199982468","1","1","1","1","1","1","1","1","1"
"260017","img/object_images/Oven01.jpg","img/object_images/Thermometer01.jpg","img/object_images/crutches02.jpg","1","1","1","1","0","0","0.808790199982468","0.722679099999368","0.833846200024709","1","1","1","1","1","1","1","1","1"
"260017","img/object_images/crutches02.jpg","img/object_images/Oven01.jpg","img/object_images/usb02.jpg","1","1","1","0","1","0","0.833846200024709","0.808790199982468","0.749216100026388","1","1","1","1","1","1","1","1","1"
"260017","img/object_images/usb02.jpg","img/object_images/crutches02.jpg","img/object_images/tennis_racket02.jpg","1","1","1","0","0","1","0.749216100026388","0.833846200024709","0.710631699999794","1","1","1","1","1","1","1","1","1"
"260017","img/object_images/tennis_racket02.jpg","img/object_images/usb02.jpg","img/object_images/chess_piece02.jpg","1","1","1","1","0","1","0.710631699999794","0.749216100026388","0.591667000029702","1","1","1","1","1","1","1","1","1"
"260017","img/object_images/chess_piece02.jpg","img/object_images/tennis_racket02.jpg","img/object_images/Staples01.jpg","1","1","1","1","1","1","0.591667000029702","0.710631699999794","0.611715100007132","1","1","1","1","1","1","1","1","1"
"260017","img/object_images/Staples01.jpg","img/object_images/chess_piece02.jpg","img/object_images/compass01.jpg","1","1","1","1","1","1","0.611715100007132","0.591667000029702","0.644372400012799","1","1","1","1","1","1","1","1","1"
"260017","img/object_images/compass01.jpg","img/object_images/Staples01.jpg","img/object_images/pillows01.jpg","1","1","1","1","1","1","0.644372400012799","0.611715100007132","0.630888400017284","1","1","1","1","1","1","1","1","1"
"260017","img/object_images/pillows01.jpg","img/object_images/compass01.jpg","img/object_images/chair05.jpg","1","1","1","1","1","0","0.630888400017284","0.644372400012799","0.700701399997342","1","1","1","1","1","1","1","1","1"
"260017","img/object_images/chair05.jpg","img/object_images/pillows01.jpg","img/object_images/book03.jpg","1","1","1","0","1","1","0.700701399997342","0.630888400017284","0.840888600039762","1","1","1","1","1","1","1","1","1"
"260017","img/object_images/book03.jpg","img/object_images/chair05.jpg","img/object_images/floppy_disk02.jpg","1","1","1","1","0","0","0.840888600039762","0.700701399997342","0.67882119998103","1","1","1","1","1","1","1","1","1"
"260017","img/object_images/floppy_disk02.jpg","img/object_images/book03.jpg","img/object_images/pitcher01.jpg","1","1","1","0","1","0","0.67882119998103","0.840888600039762","0.602103499986697","1","1","1","1","1","1","1","1","1"
"260017","img/object_images/pitcher01.jpg","img/object_images/floppy_disk02.jpg","img/object_images/knife04.jpg","1","1","1","0","0","1","0.602103499986697","0.67882119998103","0.678998699993826","1","1","1","1","1","1","1","1","1"
"260017","img/object_images/knife04.jpg","img/object_images/pitcher01.jpg","img/object_images/motorcycle01.jpg","1","1","1","1","0","1","0.678998699993826","0.602103499986697","0.65730269998312","1","1","1","1","1","1","1","1","1"
"260017","img/object_images/motorcycle01.jpg","img/object_images/knife04.jpg","img/object_images/ear_bud01.jpg","1","1","1","1","1","1","0.65730269998312","0.678998699993826","0.692300299997441","1","1","1","1","1","1","1","1","1"
"260017","img/object_images/ear_bud01.jpg","img/object_images/motorcycle01.jpg","img/object_images/wire02.jpg","1","1","1","1","1","1","0.692300299997441","0.65730269998312","0.615303500031587","1","1","1","1","1","1","1","1","1"
"260017","img/object_images/wire02.jpg","img/object_images/ear_bud01.jpg","img/object_images/bell02.jpg","1","1","1","1","1","0","0.615303500031587","0.692300299997441","0.732083400012925","1","1","1","1","1","1","1","1","1"
"260017","img/object_images/bell02.jpg","img/object_images/wire02.jpg","img/object_images/tv02.jpg","1","1","1","0","1","0","0.732083400012925","0.615303500031587","0.8096641000011","1","1","1","1","1","1","1","1","1"
"260017","img/object_images/tv02.jpg","img/object_images/bell02.jpg",NA,"1","1",NA,"0","0",NA,"0.8096641000011","0.732083400012925",NA,"1","1",NA,"1","1",NA,"1","1",NA
"260017","img/object_images/belt03.jpg",NA,"img/object_images/ToolBag01.jpg","0",NA,"0","0",NA,"0",NA,NA,"1.80719399999361","0",NA,"1","0",NA,"1","0",NA,"1"
"260017","img/object_images/ToolBag01.jpg","img/object_images/belt03.jpg","img/object_images/lock03.jpg","0","0","1","0","0","1","1.80719399999361",NA,"0.451334799989127","1","0","1","1","0","1","1","0","1"
"260017","img/object_images/lock03.jpg","img/object_images/ToolBag01.jpg","img/object_images/phone04.jpg","1","0","1","1","0","1","0.451334799989127","1.80719399999361","0.543084200005978","1","1","1","1","1","1","1","1","1"
"260017","img/object_images/phone04.jpg","img/object_images/lock03.jpg","img/object_images/piano03.jpg","1","1","1","1","1","0","0.543084200005978","0.451334799989127","0.534951200010255","1","1","1","1","1","1","1","1","1"
"260017","img/object_images/piano03.jpg","img/object_images/phone04.jpg","img/object_images/Safe01.jpg","1","1","1","0","1","1","0.534951200010255","0.543084200005978","0.63394969998626","1","1","1","1","1","1","1","1","1"
"260017","img/object_images/Safe01.jpg","img/object_images/piano03.jpg","img/object_images/dice01.jpg","1","1","1","1","0","0","0.63394969998626","0.534951200010255","0.790013699966948","1","1","1","1","1","1","1","1","1"
"260017","img/object_images/dice01.jpg","img/object_images/Safe01.jpg","img/object_images/pitcher07.jpg","1","1","1","0","1","1","0.790013699966948","0.63394969998626","0.684665600012522","1","1","1","1","1","1","1","1","1"
"260017","img/object_images/pitcher07.jpg","img/object_images/dice01.jpg","img/object_images/frame01.jpg","1","1","1","1","0","1","0.684665600012522","0.790013699966948","0.630588500003796","1","1","1","1","1","1","1","1","1"
"260017","img/object_images/frame01.jpg","img/object_images/pitcher07.jpg","img/object_images/yoga_mat01.jpg","1","1","1","1","1","0","0.630588500003796","0.684665600012522","0.797620100027416","1","1","1","1","1","1","1","1","1"
"260017","img/object_images/yoga_mat01.jpg","img/object_images/frame01.jpg","img/object_images/Eyeliner01.jpg","1","1","1","0","1","1","0.797620100027416","0.630588500003796","0.545921400014777","1","1","1","1","1","1","1","1","1"
"260017","img/object_images/Eyeliner01.jpg","img/object_images/yoga_mat01.jpg","img/object_images/helmet03.jpg","1","1","1","1","0","1","0.545921400014777","0.797620100027416","0.757332000008319","1","1","1","1","1","1","1","1","1"
"260017","img/object_images/helmet03.jpg","img/object_images/Eyeliner01.jpg","img/object_images/water_gun01.jpg","1","1","1","1","1","1","0.757332000008319","0.545921400014777","0.811896900006104","1","1","1","1","1","1","1","1","1"
"260017","img/object_images/water_gun01.jpg","img/object_images/helmet03.jpg","img/object_images/egg_basket01.jpg","1","1","1","1","1","1","0.811896900006104","0.757332000008319","0.732471900002565","1","1","1","1","1","1","1","1","1"
"260017","img/object_images/egg_basket01.jpg","img/object_images/water_gun01.jpg","img/object_images/nut_cracker01.jpg","1","1","1","1","1","1","0.732471900002565","0.811896900006104","0.806686700030696","1","1","1","1","1","1","1","1","1"
"260017","img/object_images/nut_cracker01.jpg","img/object_images/egg_basket01.jpg","img/object_images/bookmark01.jpg","1","1","1","1","1","0","0.806686700030696","0.732471900002565","0.805618399986997","1","1","1","1","1","1","1","1","1"
"260017","img/object_images/bookmark01.jpg","img/object_images/nut_cracker01.jpg","img/object_images/fan01.jpg","1","1","1","0","1","0","0.805618399986997","0.806686700030696","0.690916699997615","1","1","1","1","1","1","1","1","1"
"260017","img/object_images/fan01.jpg","img/object_images/bookmark01.jpg","img/object_images/joystick03.jpg","1","1","1","0","0","1","0.690916699997615","0.805618399986997","0.691407500009518","1","1","1","1","1","1","1","1","1"
"260017","img/object_images/joystick03.jpg","img/object_images/fan01.jpg","img/object_images/bottle06.jpg","1","1","1","1","0","0","0.691407500009518","0.690916699997615","0.592366400000174","1","1","1","1","1","1","1","1","1"
"260017","img/object_images/bottle06.jpg","img/object_images/joystick03.jpg","img/object_images/tennis_racket01.jpg","1","1","1","0","1","1","0.592366400000174","0.691407500009518","0.638458299974445","1","1","1","1","1","1","1","1","1"
"260017","img/object_images/tennis_racket01.jpg","img/object_images/bottle06.jpg","img/object_images/Shoes05.jpg","1","1","1","1","0","0","0.638458299974445","0.592366400000174","0.679599199967925","1","1","1","1","1","1","1","1","1"
"260017","img/object_images/Shoes05.jpg","img/object_images/tennis_racket01.jpg","img/object_images/jewel02.jpg","1","1","1","0","1","0","0.679599199967925","0.638458299974445","0.702416899963282","1","1","1","1","1","1","1","1","1"
"260017","img/object_images/jewel02.jpg","img/object_images/Shoes05.jpg","img/object_images/bucket01.jpg","1","1","1","0","0","1","0.702416899963282","0.679599199967925","0.644764599972405","1","1","1","1","1","1","1","1","1"
"260017","img/object_images/bucket01.jpg","img/object_images/jewel02.jpg","img/object_images/origami01.jpg","1","1","1","1","0","1","0.644764599972405","0.702416899963282","0.573208600049838","1","1","1","1","1","1","1","1","1"
"260017","img/object_images/origami01.jpg","img/object_images/bucket01.jpg","img/object_images/shovel01.jpg","1","1","1","1","1","0","0.573208600049838","0.644764599972405","0.680754000029992","1","1","1","1","1","1","1","1","1"
"260017","img/object_images/shovel01.jpg","img/object_images/origami01.jpg","img/object_images/trumpet01.jpg","1","1","1","0","1","0","0.680754000029992","0.573208600049838","0.658389199990779","1","1","1","1","1","1","1","1","1"
"260017","img/object_images/trumpet01.jpg","img/object_images/shovel01.jpg","img/object_images/note_book02.jpg","1","1","1","0","0","0","0.658389199990779","0.680754000029992","0.676558899984229","1","1","1","1","1","1","1","1","1"
"260017","img/object_images/note_book02.jpg","img/object_images/trumpet01.jpg","img/object_images/badminton01.jpg","1","1","1","0","0","1","0.676558899984229","0.658389199990779","0.911220700014383","1","1","1","1","1","1","1","1","1"
"260017","img/object_images/badminton01.jpg","img/object_images/note_book02.jpg","img/object_images/scale02.jpg","1","1","1","1","0","0","0.911220700014383","0.676558899984229","0.725753100006841","1","1","1","1","1","1","1","1","1"
"260017","img/object_images/scale02.jpg","img/object_images/badminton01.jpg","img/object_images/headset02.jpg","1","1","1","0","1","0","0.725753100006841","0.911220700014383","0.726440999947954","1","1","1","1","1","1","1","1","1"
"260017","img/object_images/headset02.jpg","img/object_images/scale02.jpg","img/object_images/usb03.jpg","1","1","1","0","0","0","0.726440999947954","0.725753100006841","0.79934070003219","1","1","1","1","1","1","1","1","1"
"260017","img/object_images/usb03.jpg","img/object_images/headset02.jpg","img/object_images/TreeSlice01.jpg","1","1","1","0","0","1","0.79934070003219","0.726440999947954","0.70987060002517","1","1","1","1","1","1","1","1","1"
"260017","img/object_images/TreeSlice01.jpg","img/object_images/usb03.jpg",NA,"1","1",NA,"1","0",NA,"0.70987060002517","0.79934070003219",NA,"1","1",NA,"1","1",NA,"1","1",NA
"260017","img/object_images/wagon_cart03.jpg",NA,"img/object_images/tool19.jpg","1",NA,"1","1",NA,"1","0.940758700016886",NA,"0.796141400001943","1",NA,"1","1",NA,"1","1",NA,"1"
"260017","img/object_images/tool19.jpg","img/object_images/wagon_cart03.jpg","img/object_images/dog_leash01.jpg","1","1","1","1","1","0","0.796141400001943","0.940758700016886","0.824842899979558","1","1","1","1","1","1","1","1","1"
"260017","img/object_images/dog_leash01.jpg","img/object_images/tool19.jpg","img/object_images/chair03.jpg","1","1","1","0","1","0","0.824842899979558","0.796141400001943","0.646593899989966","1","1","1","1","1","1","1","1","1"
"260017","img/object_images/chair03.jpg","img/object_images/dog_leash01.jpg","img/object_images/purse04.jpg","1","1","1","0","0","1","0.646593899989966","0.824842899979558","0.607544400030747","1","1","1","1","1","1","1","1","1"
"260017","img/object_images/purse04.jpg","img/object_images/chair03.jpg","img/object_images/WoodBox01.jpg","1","1","1","1","0","0","0.607544400030747","0.646593899989966","0.651910899963696","1","1","1","1","1","1","1","1","1"
"260017","img/object_images/WoodBox01.jpg","img/object_images/purse04.jpg","img/object_images/tie02.jpg","1","1","1","0","1","0","0.651910899963696","0.607544400030747","0.577029499982018","1","1","1","1","1","1","1","1","1"
"260017","img/object_images/tie02.jpg","img/object_images/WoodBox01.jpg","img/object_images/cellphone03.jpg","1","1","1","0","0","0","0.577029499982018","0.651910899963696","0.580088799993973","1","1","1","1","1","1","1","1","1"
"260017","img/object_images/cellphone03.jpg","img/object_images/tie02.jpg","img/object_images/pen05.jpg","1","1","1","0","0","0","0.580088799993973","0.577029499982018","0.876763799984474","1","1","1","1","1","1","1","1","1"
"260017","img/object_images/pen05.jpg","img/object_images/cellphone03.jpg","img/object_images/bean_bag02.jpg","1","1","1","0","0","1","0.876763799984474","0.580088799993973","0.741862500028219","1","1","1","1","1","1","1","1","1"
"260017","img/object_images/bean_bag02.jpg","img/object_images/pen05.jpg","img/object_images/coloring_pencil02.jpg","1","1","1","1","0","0","0.741862500028219","0.876763799984474","0.682970100024249","1","1","1","1","1","1","1","1","1"
"260017","img/object_images/coloring_pencil02.jpg","img/object_images/bean_bag02.jpg","img/object_images/boat_toy10.jpg","1","1","1","0","1","0","0.682970100024249","0.741862500028219","0.676213000027929","1","1","1","1","1","1","1","1","1"
"260017","img/object_images/boat_toy10.jpg","img/object_images/coloring_pencil02.jpg","img/object_images/toaster01.jpg","1","1","1","0","0","1","0.676213000027929","0.682970100024249","0.69457330001751","1","1","1","1","1","1","1","1","1"
"260017","img/object_images/toaster01.jpg","img/object_images/boat_toy10.jpg","img/object_images/knit01.jpg","1","1","1","1","0","0","0.69457330001751","0.676213000027929","0.661341500002891","1","1","1","1","1","1","1","1","1"
"260017","img/object_images/knit01.jpg","img/object_images/toaster01.jpg","img/object_images/flask01.jpg","1","1","1","0","1","0","0.661341500002891","0.69457330001751","0.590502300008666","1","1","1","1","1","1","1","1","1"
"260017","img/object_images/flask01.jpg","img/object_images/knit01.jpg","img/object_images/boat02.jpg","1","1","1","0","0","1","0.590502300008666","0.661341500002891","0.596883799997158","1","1","1","1","1","1","1","1","1"
"260017","img/object_images/boat02.jpg","img/object_images/flask01.jpg","img/object_images/fan02.jpg","1","1","1","1","0","0","0.596883799997158","0.590502300008666","0.617313899972942","1","1","1","1","1","1","1","1","1"
"260017","img/object_images/fan02.jpg","img/object_images/boat02.jpg","img/object_images/bottle09.jpg","1","1","1","0","1","0","0.617313899972942","0.596883799997158","0.798110599978827","1","1","1","1","1","1","1","1","1"
"260017","img/object_images/bottle09.jpg","img/object_images/fan02.jpg","img/object_images/piggy_bank01.jpg","1","1","1","0","0","1","0.798110599978827","0.617313899972942","0.738425199990161","1","1","1","1","1","1","1","1","1"
"260017","img/object_images/piggy_bank01.jpg","img/object_images/bottle09.jpg","img/object_images/audio_port01.jpg","1","1","1","1","0","1","0.738425199990161","0.798110599978827","0.957250199979171","1","1","1","1","1","1","1","1","1"
"260017","img/object_images/audio_port01.jpg","img/object_images/piggy_bank01.jpg","img/object_images/hot_air_balloon02.jpg","1","1","1","1","1","0","0.957250199979171","0.738425199990161","0.739602600049693","1","1","1","1","1","1","1","1","1"
"260017","img/object_images/hot_air_balloon02.jpg","img/object_images/audio_port01.jpg","img/object_images/camera_lens01.jpg","1","1","1","0","1","1","0.739602600049693","0.957250199979171","0.515791699988768","1","1","1","1","1","1","1","1","1"
"260017","img/object_images/camera_lens01.jpg","img/object_images/hot_air_balloon02.jpg","img/object_images/helmet04.jpg","1","1","1","1","0","1","0.515791699988768","0.739602600049693","0.645572000008542","1","1","1","1","1","1","1","1","1"
"260017","img/object_images/helmet04.jpg","img/object_images/camera_lens01.jpg","img/object_images/hat06.jpg","1","1","1","1","1","0","0.645572000008542","0.515791699988768","0.684742900019046","1","1","1","1","1","1","1","1","1"
"260017","img/object_images/hat06.jpg","img/object_images/helmet04.jpg","img/object_images/water_scooter01.jpg","1","1","1","0","1","1","0.684742900019046","0.645572000008542","0.613928999984637","1","1","1","1","1","1","1","1","1"
"260017","img/object_images/water_scooter01.jpg","img/object_images/hat06.jpg","img/object_images/scoreboard01.jpg","1","1","1","1","0","1","0.613928999984637","0.684742900019046","0.721370799990837","1","1","1","1","1","1","1","1","1"
"260017","img/object_images/scoreboard01.jpg","img/object_images/water_scooter01.jpg","img/object_images/bottle02.jpg","1","1","1","1","1","1","0.721370799990837","0.613928999984637","0.598925600002985","1","1","1","1","1","1","1","1","1"
"260017","img/object_images/bottle02.jpg","img/object_images/scoreboard01.jpg","img/object_images/perfume02.jpg","1","1","1","1","1","0","0.598925600002985","0.721370799990837","0.667113899951801","1","1","1","1","1","1","1","1","1"
"260017","img/object_images/perfume02.jpg","img/object_images/bottle02.jpg","img/object_images/toilet_paper_dispenser01.jpg","1","1","1","0","1","1","0.667113899951801","0.598925600002985","0.675444699998479","1","1","1","1","1","1","1","1","1"
"260017","img/object_images/toilet_paper_dispenser01.jpg","img/object_images/perfume02.jpg","img/object_images/shoes07.jpg","1","1","1","1","0","0","0.675444699998479","0.667113899951801","0.737134299997706","1","1","1","1","1","1","1","1","1"
"260017","img/object_images/shoes07.jpg","img/object_images/toilet_paper_dispenser01.jpg","img/object_images/bottle10.jpg","1","1","1","0","1","1","0.737134299997706","0.675444699998479","0.58714759995928","1","1","1","1","1","1","1","1","1"
"260017","img/object_images/bottle10.jpg","img/object_images/shoes07.jpg","img/object_images/bicycle01.jpg","1","1","1","1","0","1","0.58714759995928","0.737134299997706","0.621093900001142","1","1","1","1","1","1","1","1","1"
"260017","img/object_images/bicycle01.jpg","img/object_images/bottle10.jpg",NA,"1","1",NA,"1","1",NA,"0.621093900001142","0.58714759995928",NA,"1","1",NA,"1","1",NA,"1","1",NA
"260017","img/object_images/Vacuum01.jpg",NA,"img/object_images/frisbee01.jpg","1",NA,"1","0",NA,"1","0.774404100026004",NA,"0.699741400021594","1",NA,"1","1",NA,"1","1",NA,"1"
"260017","img/object_images/frisbee01.jpg","img/object_images/Vacuum01.jpg","img/object_images/towel02.jpg","1","1","1","1","0","1","0.699741400021594","0.774404100026004","0.511169200006407","1","1","1","1","1","1","1","1","1"
"260017","img/object_images/towel02.jpg","img/object_images/frisbee01.jpg","img/object_images/Tin01.jpg","1","1","1","1","1","1","0.511169200006407","0.699741400021594","0.582876799977385","1","1","1","1","1","1","1","1","1"
"260017","img/object_images/Tin01.jpg","img/object_images/towel02.jpg","img/object_images/Ring02.jpg","1","1","1","1","1","0","0.582876799977385","0.511169200006407","0.55109010002343","1","1","1","1","1","1","1","1","1"
"260017","img/object_images/Ring02.jpg","img/object_images/Tin01.jpg","img/object_images/gauze01.jpg","1","1","1","0","1","0","0.55109010002343","0.582876799977385","0.538432200031821","1","1","1","1","1","1","1","1","1"
"260017","img/object_images/gauze01.jpg","img/object_images/Ring02.jpg","img/object_images/judge_gavel01.jpg","1","1","1","0","0","1","0.538432200031821","0.55109010002343","0.637484200007748","1","1","1","1","1","1","1","1","1"
"260017","img/object_images/judge_gavel01.jpg","img/object_images/gauze01.jpg","img/object_images/ornament01.jpg","1","1","1","1","0","1","0.637484200007748","0.538432200031821","0.58370499999728","1","1","1","1","1","1","1","1","1"
"260017","img/object_images/ornament01.jpg","img/object_images/judge_gavel01.jpg","img/object_images/toy03.jpg","1","1","1","1","1","1","0.58370499999728","0.637484200007748","0.459312199964188","1","1","1","1","1","1","1","1","1"
"260017","img/object_images/toy03.jpg","img/object_images/ornament01.jpg","img/object_images/fridge03.jpg","1","1","1","1","1","0","0.459312199964188","0.58370499999728","0.626267099985853","1","1","1","1","1","1","1","1","1"
"260017","img/object_images/fridge03.jpg","img/object_images/toy03.jpg","img/object_images/mirror01.jpg","1","1","1","0","1","1","0.626267099985853","0.459312199964188","0.618996300036088","1","1","1","1","1","1","1","1","1"
"260017","img/object_images/mirror01.jpg","img/object_images/fridge03.jpg","img/object_images/bird_house02.jpg","1","1","1","1","0","1","0.618996300036088","0.626267099985853","0.551217000000179","1","1","1","1","1","1","1","1","1"
"260017","img/object_images/bird_house02.jpg","img/object_images/mirror01.jpg","img/object_images/shovel03.jpg","1","1","1","1","1","1","0.551217000000179","0.618996300036088","0.524662599957082","1","1","1","1","1","1","1","1","1"
"260017","img/object_images/shovel03.jpg","img/object_images/bird_house02.jpg","img/object_images/Stool01.jpg","1","1","1","1","1","0","0.524662599957082","0.551217000000179","0.708619699988049","1","1","1","1","1","1","1","1","1"
"260017","img/object_images/Stool01.jpg","img/object_images/shovel03.jpg","img/object_images/stapler.jpg","1","1","1","0","1","1","0.708619699988049","0.524662599957082","0.664296699978877","1","1","1","1","1","1","1","1","1"
"260017","img/object_images/stapler.jpg","img/object_images/Stool01.jpg","img/object_images/toy04.jpg","1","1","1","1","0","0","0.664296699978877","0.708619699988049","0.830118799989577","1","1","1","1","1","1","1","1","1"
"260017","img/object_images/toy04.jpg","img/object_images/stapler.jpg","img/object_images/acoustic_capo01.jpg","1","1","1","0","1","1","0.830118799989577","0.664296699978877","0.566462100017816","1","1","1","1","1","1","1","1","1"
"260017","img/object_images/acoustic_capo01.jpg","img/object_images/toy04.jpg","img/object_images/crown02.jpg","1","1","1","1","0","1","0.566462100017816","0.830118799989577","0.583041400008369","1","1","1","1","1","1","1","1","1"
"260017","img/object_images/crown02.jpg","img/object_images/acoustic_capo01.jpg","img/object_images/video_game07.jpg","1","1","1","1","1","1","0.583041400008369","0.566462100017816","0.619581699953414","1","1","1","1","1","1","1","1","1"
"260017","img/object_images/video_game07.jpg","img/object_images/crown02.jpg","img/object_images/MetalWire01.jpg","1","1","1","1","1","0","0.619581699953414","0.583041400008369","0.551536000042688","1","1","1","1","1","1","1","1","1"
"260017","img/object_images/MetalWire01.jpg","img/object_images/video_game07.jpg","img/object_images/tool09.jpg","1","1","1","0","1","1","0.551536000042688","0.619581699953414","0.557859199994709","1","1","1","1","1","1","1","1","1"
"260017","img/object_images/tool09.jpg","img/object_images/MetalWire01.jpg","img/object_images/bow01.jpg","1","1","1","1","0","1","0.557859199994709","0.551536000042688","0.816475500003435","1","1","1","1","1","1","1","1","1"
"260017","img/object_images/bow01.jpg","img/object_images/tool09.jpg","img/object_images/pot01 (1).jpg","1","1","1","1","1","0","0.816475500003435","0.557859199994709","0.594003200007137","1","1","1","1","1","1","1","1","1"
"260017","img/object_images/pot01 (1).jpg","img/object_images/bow01.jpg","img/object_images/helmet01.jpg","1","1","1","0","1","0","0.594003200007137","0.816475500003435","0.646656700002495","1","1","1","1","1","1","1","1","1"
"260017","img/object_images/helmet01.jpg","img/object_images/pot01 (1).jpg","img/object_images/bottle05.jpg","1","1","1","0","0","0","0.646656700002495","0.594003200007137","0.619435899949167","1","1","1","1","1","1","1","1","1"
"260017","img/object_images/bottle05.jpg","img/object_images/helmet01.jpg","img/object_images/sink01.jpg","1","1","1","0","0","0","0.619435899949167","0.646656700002495","0.542943500040565","1","1","1","1","1","1","1","1","1"
"260017","img/object_images/sink01.jpg","img/object_images/bottle05.jpg","img/object_images/tool02.jpg","1","1","1","0","0","1","0.542943500040565","0.619435899949167","0.61231769999722","1","1","1","1","1","1","1","1","1"
"260017","img/object_images/tool02.jpg","img/object_images/sink01.jpg","img/object_images/dart01.jpg","1","1","1","1","0","0","0.61231769999722","0.542943500040565","0.882949799997732","1","1","1","1","1","1","1","1","1"
"260017","img/object_images/dart01.jpg","img/object_images/tool02.jpg","img/object_images/watch01.jpg","1","1","0","0","1","0","0.882949799997732","0.61231769999722","0.725072400004137","1","1","1","1","1","1","1","1","1"
"260017","img/object_images/watch01.jpg","img/object_images/dart01.jpg","img/object_images/outlet01.jpg","0","1","1","0","0","0","0.725072400004137","0.882949799997732","0.687143000017386","1","1","1","1","1","1","1","1","1"
"260017","img/object_images/outlet01.jpg","img/object_images/watch01.jpg","img/object_images/jewel04.jpg","1","0","1","0","0","0","0.687143000017386","0.725072400004137","0.642895800003316","1","1","1","1","1","1","1","1","1"
"260017","img/object_images/jewel04.jpg","img/object_images/outlet01.jpg","img/object_images/guitar02.jpg","1","1","1","0","0","0","0.642895800003316","0.687143000017386","1.01348760002293","1","1","1","1","1","1","1","1","1"
"260017","img/object_images/guitar02.jpg","img/object_images/jewel04.jpg",NA,"1","1",NA,"0","0",NA,"1.01348760002293","0.642895800003316",NA,"1","1",NA,"1","1",NA,"1","1",NA
"260017","img/object_images/ladle02.jpg",NA,"img/object_images/car04.jpg","1",NA,"0","0",NA,"0","0.744383900018875",NA,"0.867451199970674","1",NA,"1","1",NA,"1","1",NA,"1"
"260017","img/object_images/car04.jpg","img/object_images/ladle02.jpg","img/object_images/fan05.jpg","0","1","1","0","0","0","0.867451199970674","0.744383900018875","0.818531400000211","1","1","1","1","1","1","1","1","1"
"260017","img/object_images/fan05.jpg","img/object_images/car04.jpg","img/object_images/tool11.jpg","1","0","1","0","0","1","0.818531400000211","0.867451199970674","0.602224000031129","1","1","1","1","1","1","1","1","1"
"260017","img/object_images/tool11.jpg","img/object_images/fan05.jpg","img/object_images/ribbon01.jpg","1","1","1","1","0","0","0.602224000031129","0.818531400000211","0.800833600049373","1","1","1","1","1","1","1","1","1"
"260017","img/object_images/ribbon01.jpg","img/object_images/tool11.jpg","img/object_images/belt01.jpg","1","1","1","0","1","0","0.800833600049373","0.602224000031129","0.666003199992701","1","1","1","1","1","1","1","1","1"
"260017","img/object_images/belt01.jpg","img/object_images/ribbon01.jpg","img/object_images/cards01.jpg","1","1","1","0","0","0","0.666003199992701","0.800833600049373","0.78140199999325","1","1","1","1","1","1","1","1","1"
"260017","img/object_images/cards01.jpg","img/object_images/belt01.jpg","img/object_images/binoculars03.jpg","1","1","1","0","0","1","0.78140199999325","0.666003199992701","0.604654000024311","1","1","1","1","1","1","1","1","1"
"260017","img/object_images/binoculars03.jpg","img/object_images/cards01.jpg","img/object_images/shoes10.jpg","1","1","1","1","0","0","0.604654000024311","0.78140199999325","0.796604199975263","1","1","1","1","1","1","1","1","1"
"260017","img/object_images/shoes10.jpg","img/object_images/binoculars03.jpg","img/object_images/mask01.jpg","1","1","1","0","1","0","0.796604199975263","0.604654000024311","0.601861400005873","1","1","1","1","1","1","1","1","1"
"260017","img/object_images/mask01.jpg","img/object_images/shoes10.jpg","img/object_images/rock03.jpg","1","1","1","0","0","0","0.601861400005873","0.796604199975263","0.586526900005993","1","1","1","1","1","1","1","1","1"
"260017","img/object_images/rock03.jpg","img/object_images/mask01.jpg","img/object_images/MeasuringCup01.jpg","1","1","1","0","0","1","0.586526900005993","0.601861400005873","0.629602400003932","1","1","1","1","1","1","1","1","1"
"260017","img/object_images/MeasuringCup01.jpg","img/object_images/rock03.jpg","img/object_images/lemon_squeezer02.jpg","1","1","1","1","0","1","0.629602400003932","0.586526900005993","0.602266999951098","1","1","1","1","1","1","1","1","1"
"260017","img/object_images/lemon_squeezer02.jpg","img/object_images/MeasuringCup01.jpg","img/object_images/dress03.jpg","1","1","1","1","1","1","0.602266999951098","0.629602400003932","0.474173500027973","1","1","1","1","1","1","1","1","1"
"260017","img/object_images/dress03.jpg","img/object_images/lemon_squeezer02.jpg","img/object_images/jewelry07.jpg","1","1","1","1","1","1","0.474173500027973","0.602266999951098","0.678748000005726","1","1","1","1","1","1","1","1","1"
"260017","img/object_images/jewelry07.jpg","img/object_images/dress03.jpg","img/object_images/shower_head03.jpg","1","1","1","1","1","1","0.678748000005726","0.474173500027973","0.786670200002845","1","1","1","1","1","1","1","1","1"
"260017","img/object_images/shower_head03.jpg","img/object_images/jewelry07.jpg","img/object_images/tv01.jpg","1","1","1","1","1","0","0.786670200002845","0.678748000005726","0.750073200033512","1","1","1","1","1","1","1","1","1"
"260017","img/object_images/tv01.jpg","img/object_images/shower_head03.jpg","img/object_images/screwdriver01.jpg","1","1","1","0","1","0","0.750073200033512","0.786670200002845","0.665509800019208","1","1","1","1","1","1","1","1","1"
"260017","img/object_images/screwdriver01.jpg","img/object_images/tv01.jpg","img/object_images/WitchHat02.jpg","1","1","1","0","0","1","0.665509800019208","0.750073200033512","0.820705500023905","1","1","1","1","1","1","1","1","1"
"260017","img/object_images/WitchHat02.jpg","img/object_images/screwdriver01.jpg","img/object_images/yarn02.jpg","1","1","1","1","0","0","0.820705500023905","0.665509800019208","0.665609199961182","1","1","1","1","1","1","1","1","1"
"260017","img/object_images/yarn02.jpg","img/object_images/WitchHat02.jpg","img/object_images/car03.jpg","1","1","1","0","1","0","0.665609199961182","0.820705500023905","0.53089930000715","1","1","1","1","1","1","1","1","1"
"260017","img/object_images/car03.jpg","img/object_images/yarn02.jpg","img/object_images/hair_brush05.jpg","1","1","1","0","0","1","0.53089930000715","0.665609199961182","0.623381000012159","1","1","1","1","1","1","1","1","1"
"260017","img/object_images/hair_brush05.jpg","img/object_images/car03.jpg","img/object_images/ice_tray03.jpg","1","1","1","1","0","1","0.623381000012159","0.53089930000715","0.824392099981196","1","1","1","1","1","1","1","1","1"
"260017","img/object_images/ice_tray03.jpg","img/object_images/hair_brush05.jpg","img/object_images/razor01.jpg","1","1","1","1","1","0","0.824392099981196","0.623381000012159","0.808699299988803","1","1","1","1","1","1","1","1","1"
"260017","img/object_images/razor01.jpg","img/object_images/ice_tray03.jpg","img/object_images/cutting_board01.jpg","1","1","1","0","1","1","0.808699299988803","0.824392099981196","0.694515299983323","1","1","1","1","1","1","1","1","1"
"260017","img/object_images/cutting_board01.jpg","img/object_images/razor01.jpg","img/object_images/slinky_toy01.jpg","1","1","1","1","0","1","0.694515299983323","0.808699299988803","0.727928799984511","1","1","1","1","1","1","1","1","1"
"260017","img/object_images/slinky_toy01.jpg","img/object_images/cutting_board01.jpg","img/object_images/toaster02.jpg","1","1","1","1","1","1","0.727928799984511","0.694515299983323","0.647218199970666","1","1","1","1","1","1","1","1","1"
"260017","img/object_images/toaster02.jpg","img/object_images/slinky_toy01.jpg","img/object_images/bag06.jpg","1","1","1","1","1","1","0.647218199970666","0.727928799984511","1.14460200001486","1","1","1","1","1","1","1","1","1"
"260017","img/object_images/bag06.jpg","img/object_images/toaster02.jpg","img/object_images/satellite01.jpg","1","1","1","1","1","0","1.14460200001486","0.647218199970666","0.829391699982807","1","1","1","1","1","1","1","1","1"
"260017","img/object_images/satellite01.jpg","img/object_images/bag06.jpg","img/object_images/key02.jpg","1","1","1","0","1","1","0.829391699982807","1.14460200001486","0.686900600034278","1","1","1","1","1","1","1","1","1"
"260017","img/object_images/key02.jpg","img/object_images/satellite01.jpg","img/object_images/chair04.jpg","1","1","1","1","0","1","0.686900600034278","0.829391699982807","0.612077399971895","1","1","1","1","1","1","1","1","1"
"260017","img/object_images/chair04.jpg","img/object_images/key02.jpg","img/object_images/jewel01.jpg","1","1","1","1","1","0","0.612077399971895","0.686900600034278","0.674180100031663","1","1","1","1","1","1","1","1","1"
"260017","img/object_images/jewel01.jpg","img/object_images/chair04.jpg",NA,"1","1",NA,"0","1",NA,"0.674180100031663","0.612077399971895",NA,"1","1",NA,"1","1",NA,"1","1",NA
"260017","img/object_images/Pottery01.jpg",NA,"img/object_images/ring03.jpg","1",NA,"1","0",NA,"1","0.736248000001069",NA,"0.604171199956909","1",NA,"1","1",NA,"1","1",NA,"1"
"260017","img/object_images/ring03.jpg","img/object_images/Pottery01.jpg","img/object_images/cup03.jpg","1","1","1","1","0","1","0.604171199956909","0.736248000001069","0.576637500023935","1","1","1","1","1","1","1","1","1"
"260017","img/object_images/cup03.jpg","img/object_images/ring03.jpg","img/object_images/gift_box04.jpg","1","1","1","1","1","0","0.576637500023935","0.604171199956909","0.903377800015733","1","1","1","1","1","1","1","1","1"
"260017","img/object_images/gift_box04.jpg","img/object_images/cup03.jpg","img/object_images/hole_puncher01.jpg","1","1","1","0","1","1","0.903377800015733","0.576637500023935","0.741520599985961","1","1","1","1","1","1","1","1","1"
"260017","img/object_images/hole_puncher01.jpg","img/object_images/gift_box04.jpg","img/object_images/tray01.jpg","1","1","1","1","0","1","0.741520599985961","0.903377800015733","0.858710200001951","1","1","1","1","1","1","1","1","1"
"260017","img/object_images/tray01.jpg","img/object_images/hole_puncher01.jpg","img/object_images/purse01.jpg","1","1","1","1","1","1","0.858710200001951","0.741520599985961","0.532780100009404","1","1","1","1","1","1","1","1","1"
"260017","img/object_images/purse01.jpg","img/object_images/tray01.jpg","img/object_images/glasses07.jpg","1","1","1","1","1","1","0.532780100009404","0.858710200001951","0.597155099967495","1","1","1","1","1","1","1","1","1"
"260017","img/object_images/glasses07.jpg","img/object_images/purse01.jpg","img/object_images/Kitchen_Towel.jpg","1","1","1","1","1","0","0.597155099967495","0.532780100009404","0.656130500021391","1","1","1","1","1","1","1","1","1"
"260017","img/object_images/Kitchen_Towel.jpg","img/object_images/glasses07.jpg","img/object_images/pan01.jpg","1","1","1","0","1","1","0.656130500021391","0.597155099967495","0.684769099985715","1","1","1","1","1","1","1","1","1"
"260017","img/object_images/pan01.jpg","img/object_images/Kitchen_Towel.jpg","img/object_images/blanket01.jpg","1","1","1","1","0","1","0.684769099985715","0.656130500021391","0.620998499973211","1","1","1","1","1","1","1","1","1"
"260017","img/object_images/blanket01.jpg","img/object_images/pan01.jpg","img/object_images/TrashCan02.jpg","1","1","1","1","1","1","0.620998499973211","0.684769099985715","0.680374199990183","1","1","1","1","1","1","1","1","1"
"260017","img/object_images/TrashCan02.jpg","img/object_images/blanket01.jpg","img/object_images/cellphone02.jpg","1","1","1","1","1","1","0.680374199990183","0.620998499973211","0.480306399986148","1","1","1","1","1","1","1","1","1"
"260017","img/object_images/cellphone02.jpg","img/object_images/TrashCan02.jpg","img/object_images/Traffic Sign 01.jpg","1","1","1","1","1","0","0.480306399986148","0.680374199990183","0.782757200009655","1","1","1","1","1","1","1","1","1"
"260017","img/object_images/Traffic Sign 01.jpg","img/object_images/cellphone02.jpg","img/object_images/exfoliater_brush01.jpg","1","1","1","0","1","0","0.782757200009655","0.480306399986148","0.67964570003096","1","1","1","1","1","1","1","1","1"
"260017","img/object_images/exfoliater_brush01.jpg","img/object_images/Traffic Sign 01.jpg","img/object_images/lighter01.jpg","1","1","1","0","0","1","0.67964570003096","0.782757200009655","0.588930600031745","1","1","1","1","1","1","1","1","1"
"260017","img/object_images/lighter01.jpg","img/object_images/exfoliater_brush01.jpg","img/object_images/yo_yo01.jpg","1","1","0","1","0","0","0.588930600031745","0.67964570003096","2.04314299998805","1","1","1","1","1","1","1","1","1"
"260017","img/object_images/yo_yo01.jpg","img/object_images/lighter01.jpg","img/object_images/tool07.jpg","0","1","1","0","1","0","2.04314299998805","0.588930600031745","0.819394599995576","1","1","1","1","1","1","1","1","1"
"260017","img/object_images/tool07.jpg","img/object_images/yo_yo01.jpg","img/object_images/fire_extinguisher01.jpg","1","0","1","0","0","0","0.819394599995576","2.04314299998805","0.584362299996428","1","1","1","1","1","1","1","1","1"
"260017","img/object_images/fire_extinguisher01.jpg","img/object_images/tool07.jpg","img/object_images/Sprayer01.jpg","1","1","1","0","0","0","0.584362299996428","0.819394599995576","0.671844800002873","1","1","1","1","1","1","1","1","1"
"260017","img/object_images/Sprayer01.jpg","img/object_images/fire_extinguisher01.jpg","img/object_images/glasses06.jpg","1","1","1","0","0","1","0.671844800002873","0.584362299996428","0.667627300019376","1","1","1","1","1","1","1","1","1"
"260017","img/object_images/glasses06.jpg","img/object_images/Sprayer01.jpg","img/object_images/speaker01.jpg","1","1","1","1","0","1","0.667627300019376","0.671844800002873","0.910674399987329","1","1","1","1","1","1","1","1","1"
"260017","img/object_images/speaker01.jpg","img/object_images/glasses06.jpg","img/object_images/tool08.jpg","1","1","1","1","1","0","0.910674399987329","0.667627300019376","0.625394599977881","1","1","1","1","1","1","1","1","1"
"260017","img/object_images/tool08.jpg","img/object_images/speaker01.jpg","img/object_images/handcuffs01.jpg","1","1","1","0","1","0","0.625394599977881","0.910674399987329","0.701679799996782","1","1","1","1","1","1","1","1","1"
"260017","img/object_images/handcuffs01.jpg","img/object_images/tool08.jpg","img/object_images/basket02.jpg","1","1","1","0","0","0","0.701679799996782","0.625394599977881","0.739563899987843","1","1","1","1","1","1","1","1","1"
"260017","img/object_images/basket02.jpg","img/object_images/handcuffs01.jpg","img/object_images/bicycle_lock01.jpg","1","1","1","0","0","0","0.739563899987843","0.701679799996782","0.588555399968755","1","1","1","1","1","1","1","1","1"
"260017","img/object_images/bicycle_lock01.jpg","img/object_images/basket02.jpg","img/object_images/book01.jpg","1","1","1","0","0","1","0.588555399968755","0.739563899987843","0.646440799988341","1","1","1","1","1","1","1","1","1"
"260017","img/object_images/book01.jpg","img/object_images/bicycle_lock01.jpg","img/object_images/jewelry09.jpg","1","1","1","1","0","1","0.646440799988341","0.588555399968755","0.660430799995083","1","1","1","1","1","1","1","1","1"
"260017","img/object_images/jewelry09.jpg","img/object_images/book01.jpg","img/object_images/faucet01.jpg","1","1","0","1","1","0","0.660430799995083","0.646440799988341","0.822828800010029","1","1","1","1","1","1","1","1","1"
"260017","img/object_images/faucet01.jpg","img/object_images/jewelry09.jpg","img/object_images/projector01.jpg","0","1","0","0","1","0","0.822828800010029","0.660430799995083","0.863377600035165","1","1","1","1","1","1","1","1","1"
"260017","img/object_images/projector01.jpg","img/object_images/faucet01.jpg","img/object_images/colander01.jpg","0","0","1","0","0","0","0.863377600035165","0.822828800010029","0.650668899994344","1","1","1","1","1","1","1","1","1"
"260017","img/object_images/colander01.jpg","img/object_images/projector01.jpg","img/object_images/hair_clips01.jpg","1","0","1","0","0","1","0.650668899994344","0.863377600035165","0.52321779995691","1","1","1","1","1","1","1","1","1"
"260017","img/object_images/hair_clips01.jpg","img/object_images/colander01.jpg",NA,"1","1",NA,"1","0",NA,"0.52321779995691","0.650668899994344",NA,"1","1",NA,"1","1",NA,"1","1",NA
