"participant_id","object","surpAcc","memory_surp_responses","memory_surp_rt","keep_surp_memory_trial_based_on_rt","surp_block_num","exclude_block","number_of_surp_resp_items_used","num_blocks_excluded"
"260030","img/object_images/hair_brush02.jpg","1","s","1.613869599998",1,1,0,2,0
"260030","img/object_images/scarf01.jpg","1","s","1.44948340009432",1,1,0,2,0
"260030","img/object_images/flashlight03.jpg","0","k","4.57925359997898",1,1,0,2,0
"260030","img/object_images/dress03.jpg","1","s","1.48523109999951",1,1,0,2,0
"260030","img/object_images/bottle05.jpg","1","s","1.94489239994437",1,1,0,2,0
"260030","img/object_images/knit05.jpg","1","s","1.07574010000098",1,1,0,2,0
"260030","img/object_images/ornament01.jpg","1","s","2.35533149994444",1,1,0,2,0
"260030","img/object_images/Thermometer01.jpg","1","k","1.04640029999427",1,1,0,2,0
"260030","img/object_images/MetalWire01.jpg","1","k","1.11161490005907",1,1,0,2,0
"260030","img/object_images/perfume02.jpg","1","k","1.14022079994902",1,1,0,2,0
"260030","img/object_images/accardion01.jpg","1","k","2.16127649997361",1,1,0,2,0
"260030","img/object_images/brief_case02.jpg","0","s","1.29729250003584",1,1,0,2,0
"260030","img/object_images/pen03.jpg","1","s","1.46701269992627",1,1,0,2,0
"260030","img/object_images/microphone03.jpg","1","s","1.90510179998819",1,1,0,2,0
"260030","img/object_images/clip02.jpg","1","s","1.11489590001293",1,1,0,2,0
"260030","img/object_images/Vest02.jpg","0","s","1.14698219997808",1,1,0,2,0
"260030","img/object_images/tv01.jpg","1","s","1.47804509999696",1,1,0,2,0
"260030","img/object_images/video_game02.jpg","1","s","1.11951250000857",1,1,0,2,0
"260030","img/object_images/Lint_Roller02.jpg","1","k","3.57041000004392",1,1,0,2,0
"260030","img/object_images/Traffic Sign 01.jpg","1","s","1.83064279996324",1,1,0,2,0
"260030","img/object_images/sink01.jpg","0","k","1.91359649994411",1,1,0,2,0
"260030","img/object_images/ToolBag01.jpg","1","k","1.9306078000227",1,1,0,2,0
"260030","img/object_images/knife01.jpg","1","k","1.26310199999716",1,1,0,2,0
"260030","img/object_images/key02.jpg","1","s","1.36869989999104",1,1,0,2,0
"260030","img/object_images/cellphone03.jpg","0","k","1.03118109994102",1,1,0,2,0
"260030","img/object_images/mask01.jpg","1","k","2.21607969992328",1,1,0,2,0
"260030","img/object_images/purse04.jpg","1","k","1.14207079994958",1,1,0,2,0
"260030","img/object_images/WoodBox01.jpg","1","k","2.07543700002134",1,1,0,2,0
"260030","img/object_images/pot01.jpg","1","s","0.990132500068285",1,1,0,2,0
"260030","img/object_images/razor01.jpg","1","s","1.94372370000929",1,1,0,2,0
"260030","img/object_images/shower_head01.jpg","1","s","1.35596299997997",1,1,0,2,0
"260030","img/object_images/boat04.jpg","1","k","1.71736070001498",1,1,0,2,0
"260030","img/object_images/toaster01.jpg","1","k","1.45106320001651",1,1,0,2,0
"260030","img/object_images/book03.jpg","1","k","1.05006979999598",1,1,0,2,0
"260030","img/object_images/fan01.jpg","1","k","1.2200219000224",1,1,0,2,0
"260030","img/object_images/broom01.jpg","0","s","2.9384929999942",1,1,0,2,0
"260030","img/object_images/bow_tie01.jpg","1","s","0.784019700018689",1,1,0,2,0
"260030","img/object_images/crown02.jpg","1","k","1.49145019997377",1,1,0,2,0
"260030","img/object_images/ruler02.jpg","0","s","1.62532460002694",1,1,0,2,0
"260030","img/object_images/knife04.jpg","1","s","2.47379079996608",1,1,0,2,0
"260030","img/object_images/pitcher02.jpg","1","k","1.23398620006628",1,1,0,2,0
"260030","img/object_images/vase01.jpg","0","k","1.960706199985",1,1,0,2,0
"260030","img/object_images/bird_house02.jpg","1","s","3.30607469996903",1,1,0,2,0
"260030","img/object_images/jewel04.jpg","0","s","1.59412909997627",1,1,0,2,0
"260030","img/object_images/knife02.jpg","1","k","0.965753199998289",1,1,0,2,0
"260030","img/object_images/guitar02.jpg","1","k","1.08852640003897",1,1,0,2,0
"260030","img/object_images/bow_tie03.jpg","1","k","1.57314860005863",1,1,0,2,0
"260030","img/object_images/matches02.jpg","1","k","3.63902180001605",1,1,0,2,0
"260030","img/object_images/projector01.jpg","0","k","6.11914950003847",1,2,0,2,0
"260030","img/object_images/ironing_table01.jpg","1","s","1.50443079997785",1,2,0,2,0
"260030","img/object_images/crutches02.jpg","0","k","1.86658919998445",1,2,0,2,0
"260030","img/object_images/hammer03.jpg","1","s","1.14994240005035",1,2,0,2,0
"260030","img/object_images/pen01.jpg","1","s","2.78962459997274",1,2,0,2,0
"260030","img/object_images/gift_box02.jpg","1","s","2.03935109998565",1,2,0,2,0
"260030","img/object_images/bath_tub01.jpg","1","k","1.7334167000372",1,2,0,2,0
"260030","img/object_images/pen05.jpg","0","k","1.18861139996443",1,2,0,2,0
"260030","img/object_images/vase02.jpg","1","s","1.29052489995956",1,2,0,2,0
"260030","img/object_images/tool07.jpg","1","s","1.40549479995389",1,2,0,2,0
"260030","img/object_images/trash_can05.jpg","1","k","1.1922677999828",1,2,0,2,0
"260030","img/object_images/curtain02.jpg","0","s","1.6024383000331",1,2,0,2,0
"260030","img/object_images/Witchhat01.jpg","1","s","0.776424099924043",1,2,0,2,0
"260030","img/object_images/hole_puncher01.jpg","1","s","1.50331259996165",1,2,0,2,0
"260030","img/object_images/dice01.jpg","0","k","1.91660879994743",1,2,0,2,0
"260030","img/object_images/tripod01.jpg","1","s","1.5014335999731",1,2,0,2,0
"260030","img/object_images/pitcher01.jpg","0","k","2.09175010002218",1,2,0,2,0
"260030","img/object_images/mail_box02.jpg","1","k","1.5001621999545",1,2,0,2,0
"260030","img/object_images/tool11.jpg","1","s","1.28401129995473",1,2,0,2,0
"260030","img/object_images/glasses03.jpg","0","s","2.90507320000324",1,2,0,2,0
"260030","img/object_images/toothbrush01.jpg","1","k","1.13303150003776",1,2,0,2,0
"260030","img/object_images/ice_tray03.jpg","1","k","1.01201129995752",1,2,0,2,0
"260030","img/object_images/surf_board01.jpg","1","k","1.00322159996722",1,2,0,2,0
"260030","img/object_images/TreeSlice01.jpg","1","k","1.75030570011586",1,2,0,2,0
"260030","img/object_images/ball02.jpg","0","s","4.02968300005887",1,2,0,2,0
"260030","img/object_images/board01.jpg","0","k","1.68620440002996",1,2,0,2,0
"260030","img/object_images/retainer01.jpg","1","s","1.70352189999539",1,2,0,2,0
"260030","img/object_images/ear_bud01.jpg","1","s","0.860562499961816",1,2,0,2,0
"260030","img/object_images/WitchHat02.jpg","1","k","2.35905109997839",1,2,0,2,0
"260030","img/object_images/knit01.jpg","1","s","1.28966019989457",1,2,0,2,0
"260030","img/object_images/robe01.jpg","0","k","3.04286980000325",1,2,0,2,0
"260030","img/object_images/note_book02.jpg","1","k","1.02894819993526",1,2,0,2,0
"260030","img/object_images/hat13.jpg","1","k","1.14653050003108",1,2,0,2,0
"260030","img/object_images/clip04.jpg","0","k","2.22737740003504",1,2,0,2,0
"260030","img/object_images/lemon_squeezer02.jpg","1","s","1.19772920000833",1,2,0,2,0
"260030","img/object_images/helmet01.jpg","1","k","1.52611119998619",1,2,0,2,0
"260030","img/object_images/slinky_toy01.jpg","1","s","0.821442199987359",1,2,0,2,0
"260030","img/object_images/backpack01.jpg","1","s","1.48757029999979",1,2,0,2,0
"260030","img/object_images/pan01.jpg","1","k","0.876153299934231",1,2,0,2,0
"260030","img/object_images/tie02.jpg","0","k","1.51461239997298",1,2,0,2,0
"260030","img/object_images/microscope01.jpg","1","s","1.36135819996707",1,2,0,2,0
"260030","img/object_images/lemon_squeezer01.jpg","1","k","0.850282099912874",1,2,0,2,0
"260030","img/object_images/boat_toy10.jpg","1","s","0.895791499991901",1,2,0,2,0
"260030","img/object_images/soap01.jpg","1","k","1.69293859996833",1,2,0,2,0
"260030","img/object_images/gauze01.jpg","0","k","1.86738269997295",1,2,0,2,0
"260030","img/object_images/airfryer01.jpg","1","s","1.16073060000781",1,2,0,2,0
"260030","img/object_images/acoustic_capo01.jpg","0","s","1.9895159000298",1,2,0,2,0
"260030","img/object_images/wallet02.jpg","1","k","1.20900829997845",1,2,0,2,0
"260030","img/object_images/camera05.jpg","1","k","1.52029180002864",1,3,0,2,0
"260030","img/object_images/Tin01.jpg","1","k","1.82384070008993",1,3,0,2,0
"260030","img/object_images/stereo02.jpg","1","s","1.2665519999573",1,3,0,2,0
"260030","img/object_images/tool02.jpg","0","s","1.29705210006796",1,3,0,2,0
"260030","img/object_images/fan04.jpg","1","s","1.48013530008029",1,3,0,2,0
"260030","img/object_images/bucket02.jpg","0","k","1.20115189999342",1,3,0,2,0
"260030","img/object_images/bottle02.jpg","1","s","1.90975530003197",1,3,0,2,0
"260030","img/object_images/toy08.jpg","0","s","1.27790580003057",1,3,0,2,0
"260030","img/object_images/jewelry01.jpg","1","k","1.0405802000314",1,3,0,2,0
"260030","img/object_images/water_gun01.jpg","1","k","1.31197259994224",1,3,0,2,0
"260030","img/object_images/shovel01.jpg","0","k","1.59332640003413",1,3,0,2,0
"260030","img/object_images/video_game06.jpg","0","k","1.68609360000119",1,3,0,2,0
"260030","img/object_images/blender01.jpg","0","k","1.16632939991541",1,3,0,2,0
"260030","img/object_images/combs01.jpg","1","s","1.06619040004443",1,3,0,2,0
"260030","img/object_images/clock02.jpg","0","k","2.1877802000381",1,3,0,2,0
"260030","img/object_images/bookmark01.jpg","1","s","1.20921500003897",1,3,0,2,0
"260030","img/object_images/lock03.jpg","1","s","1.49062619998585",1,3,0,2,0
"260030","img/object_images/note_book01.jpg","1","s","1.27441359998193",1,3,0,2,0
"260030","img/object_images/book01.jpg","1","s","1.93738449993543",1,3,0,2,0
"260030","img/object_images/candle02.jpg","1","s","1.08908349997364",1,3,0,2,0
"260030","img/object_images/backpack03.jpg","1","k","1.06530859996565",1,3,0,2,0
"260030","img/object_images/basket02.jpg","1","k","2.27184509998187",1,3,0,2,0
"260030","img/object_images/dog_leash01.jpg","0","s","1.11040230002254",1,3,0,2,0
"260030","img/object_images/toy01.jpg","1","k","1.04396869998891",1,3,0,2,0
"260030","img/object_images/yarn02.jpg","1","s","0.877782700001262",1,3,0,2,0
"260030","img/object_images/TrashCan02.jpg","1","k","1.88100850000046",1,3,0,2,0
"260030","img/object_images/MeasuringCup01.jpg","0","k","2.32702470000368",1,3,0,2,0
"260030","img/object_images/bottle12.jpg","1","s","1.57306700001936",1,3,0,2,0
"260030","img/object_images/bag04.jpg","0","s","1.05281250004191",1,3,0,2,0
"260030","img/object_images/floppy_disk02.jpg","1","k","2.9638389000902",1,3,0,2,0
"260030","img/object_images/Candle_Holder01.jpg","1","s","1.01998130010907",1,3,0,2,0
"260030","img/object_images/Ring02.jpg","1","s","0.991407399997115",1,3,0,2,0
"260030","img/object_images/tool08.jpg","1","s","2.43326289998367",1,3,0,2,0
"260030","img/object_images/spatula02.jpg","1","s","1.42825430002995",1,3,0,2,0
"260030","img/object_images/toy_train02.jpg","1","k","2.3450311999768",1,3,0,2,0
"260030","img/object_images/origami01.jpg","1","k","0.931760099949315",1,3,0,2,0
"260030","img/object_images/kite01.jpg","1","k","0.826899399980903",1,3,0,2,0
"260030","img/object_images/toy03.jpg","1","k","1.66711099992972",1,3,0,2,0
"260030","img/object_images/Violin01.jpg","1","s","1.67369690001942",1,3,0,2,0
"260030","img/object_images/computer_mouse01.jpg","1","s","1.59505370003171",1,3,0,2,0
"260030","img/object_images/book02.jpg","1","k","1.96106819994748",1,3,0,2,0
"260030","img/object_images/audio_port01.jpg","0","k","2.35729780001566",1,3,0,2,0
"260030","img/object_images/exfoliater_brush01.jpg","1","k","1.62165109999478",1,3,0,2,0
"260030","img/object_images/sink_filter01 (1).jpg","1","s","0.882640200085007",1,3,0,2,0
"260030","img/object_images/trumpet01.jpg","1","s","1.63428919995204",1,3,0,2,0
"260030","img/object_images/sleeping_bag01.jpg","0","k","0.949948499910533",1,3,0,2,0
"260030","img/object_images/gloves05.jpg","1","s","0.66417270002421",1,3,0,2,0
"260030","img/object_images/hoverboard01.jpg","1","k","3.95751000009477",1,3,0,2,0
"260030","img/object_images/Statue01.jpg","1","s","1.52761850005481",1,4,0,2,0
"260030","img/object_images/lighter01.jpg","0","s","1.01702250004746",1,4,0,2,0
"260030","img/object_images/tool18.jpg","1","k","1.61512229999062",1,4,0,2,0
"260030","img/object_images/hammer01.jpg","1","s","1.77616470004432",1,4,0,2,0
"260030","img/object_images/brief_case01.jpg","1","k","0.848533399985172",1,4,0,2,0
"260030","img/object_images/speaker01.jpg","1","k","0.973862100043334",1,4,0,2,0
"260030","img/object_images/egg_slicer01.jpg","0","s","1.75208709994331",1,4,0,2,0
"260030","img/object_images/Pottery01.jpg","1","k","1.06006420007907",1,4,0,2,0
"260030","img/object_images/Staples01.jpg","1","k","1.21969870000612",1,4,0,2,0
"260030","img/object_images/golf_ball03.jpg","0","k","1.17112029995769",1,4,0,2,0
"260030","img/object_images/bean_bag02.jpg","1","k","1.1613262000028",1,4,0,2,0
"260030","img/object_images/chain01.jpg","1","s","1.11129150004126",1,4,0,2,0
"260030","img/object_images/chess_piece02.jpg","1","k","1.11641979997512",1,4,0,2,0
"260030","img/object_images/yo_yo01.jpg","1","s","1.6674693999812",1,4,0,2,0
"260030","img/object_images/lamp01.jpg","1","s","0.782185100018978",1,4,0,2,0
"260030","img/object_images/couch03.jpg","0","k","1.153952499968",1,4,0,2,0
"260030","img/object_images/Woopie01.jpg","0","s","1.29415039997548",1,4,0,2,0
"260030","img/object_images/bag_pipes01.jpg","1","s","1.13387699995656",1,4,0,2,0
"260030","img/object_images/basket04.jpg","1","k","1.41038770007435",1,4,0,2,0
"260030","img/object_images/colander01.jpg","0","k","0.883533200016245",1,4,0,2,0
"260030","img/object_images/jewel02.jpg","1","s","1.11946029996034",1,4,0,2,0
"260030","img/object_images/video_game07.jpg","0","k","1.67648059991188",1,4,0,2,0
"260030","img/object_images/water_scooter01.jpg","0","s","1.12414650002029",1,4,0,2,0
"260030","img/object_images/container01.jpg","0","s","0.993481200071983",1,4,0,2,0
"260030","img/object_images/cards01.jpg","1","s","1.17120440001599",1,4,0,2,0
"260030","img/object_images/bottle09.jpg","0","k","2.75579610001296",1,4,0,2,0
"260030","img/object_images/knit03.jpg","1","s","1.11920149996877",1,4,0,2,0
"260030","img/object_images/bottle01.jpg","1","k","2.25730910000857",1,4,0,2,0
"260030","img/object_images/flask01.jpg","0","s","1.26100970001426",1,4,0,2,0
"260030","img/object_images/motorcycle01.jpg","0","k","1.92609439999796",1,4,0,2,0
"260030","img/object_images/guitar01.jpg","1","k","1.2301408998901",1,4,0,2,0
"260030","img/object_images/handcuffs01.jpg","1","s","1.8882155000465",1,4,0,2,0
"260030","img/object_images/ball01.jpg","0","s","2.29468010005075",1,4,0,2,0
"260030","img/object_images/chair02.jpg","1","s","1.30344739998691",1,4,0,2,0
"260030","img/object_images/joystick03.jpg","0","s","1.62937320000492",1,4,0,2,0
"260030","img/object_images/chair05.jpg","1","k","2.87054959998932",1,4,0,2,0
"260030","img/object_images/pitcher05.jpg","0","k","2.04430430009961",1,4,0,2,0
"260030","img/object_images/mirror01.jpg","1","s","4.3630994000705",1,4,0,2,0
"260030","img/object_images/piggy_bank01.jpg","0","k","0.921004500007257",1,4,0,2,0
"260030","img/object_images/bow01.jpg","1","s","1.00340380007401",1,4,0,2,0
"260030","img/object_images/jacket04.jpg","1","s","1.08768170000985",1,4,0,2,0
"260030","img/object_images/Trowel01.jpg","1","k","1.78710250009317",1,4,0,2,0
"260030","img/object_images/hair_brush05.jpg","1","s","2.05551820003893",1,4,0,2,0
"260030","img/object_images/bicycle_lock01.jpg","1","s","1.40136950009037",1,4,0,2,0
"260030","img/object_images/Wisk01.jpg","0","s","1.80006279994268",1,4,0,2,0
"260030","img/object_images/hat02.jpg","1","s","1.25964280008338",1,4,0,2,0
"260030","img/object_images/usb03.jpg","1","k","1.15639390004799",1,4,0,2,0
"260030","img/object_images/judge_gavel01.jpg","0","s","0.885140200029127",1,4,0,2,0
"260030","img/object_images/fan05.jpg","0","s","1.62291539995931",1,5,0,2,0
"260030","img/object_images/tennis_racket01.jpg","0","s","1.22614289994817",1,5,0,2,0
"260030","img/object_images/sign02.jpg","0","k","2.06477759999689",1,5,0,2,0
"260030","img/object_images/office_supplies01.jpg","0","s","3.41393500007689",1,5,0,2,0
"260030","img/object_images/dresser03.jpg","1","s","0.979420099989511",1,5,0,2,0
"260030","img/object_images/socks01.jpg","0","s","2.35709609999321",1,5,0,2,0
"260030","img/object_images/razor02.jpg","1","s","1.27151989995036",1,5,0,2,0
"260030","img/object_images/pitcher03.jpg","0","s","1.35304449999239",1,5,0,2,0
"260030","img/object_images/Kitchen_Towel.jpg","1","k","1.32535309996456",1,5,0,2,0
"260030","img/object_images/shoes08.jpg","1","s","1.07498939998914",1,5,0,2,0
"260030","img/object_images/socks02.jpg","0","s","1.72097230004147",1,5,0,2,0
"260030","img/object_images/paint_brush04.jpg","0","k","2.00592799996957",1,5,0,2,0
"260030","img/object_images/lawn_mower01.jpg","0","k","4.28942010004539",1,5,0,2,0
"260030","img/object_images/lock01.jpg","0","k","1.28069000004325",1,5,0,2,0
"260030","img/object_images/pitcher09.jpg","1","k","1.83941749995574",1,5,0,2,0
"260030","img/object_images/helmet05.jpg","1","k","1.52560409996659",1,5,0,2,0
"260030","img/object_images/hammer02.jpg","1","s","0.861350099905394",1,5,0,2,0
"260030","img/object_images/bow_tie02.jpg","1","k","1.0998944999883",1,5,0,2,0
"260030","img/object_images/faucet01.jpg","0","s","1.14826729998458",1,5,0,2,0
"260030","img/object_images/bell03.jpg","0","s","1.73614019993693",1,5,0,2,0
"260030","img/object_images/jewel01.jpg","1","k","0.99681630008854",1,5,0,2,0
"260030","img/object_images/clip03.jpg","1","k","2.08449060004205",1,5,0,2,0
"260030","img/object_images/helmet03.jpg","1","s","2.32272109994665",1,5,0,2,0
"260030","img/object_images/car04.jpg","0","k","0.779469799948856",1,5,0,2,0
"260030","img/object_images/lid01.jpg","1","s","1.16768269997556",1,5,0,2,0
"260030","img/object_images/vga_port 01.jpg","1","k","1.07773860008456",1,5,0,2,0
"260030","img/object_images/laptop01.jpg","1","s","1.38110380002763",1,5,0,2,0
"260030","img/object_images/toy04.jpg","1","k","0.825417799991556",1,5,0,2,0
"260030","img/object_images/shoes10.jpg","1","s","0.66445979999844",1,5,0,2,0
"260030","img/object_images/bottle10.jpg","0","s","1.74419660004787",1,5,0,2,0
"260030","img/object_images/headset02.jpg","1","s","1.8527652999619",1,5,0,2,0
"260030","img/object_images/tool13.jpg","1","s","1.57249140006024",1,5,0,2,0
"260030","img/object_images/grater01.jpg","1","s","1.18344250007067",1,5,0,2,0
"260030","img/object_images/video_game01.jpg","1","s","1.47788010002114",1,5,0,2,0
"260030","img/object_images/coloring_pencil02.jpg","1","s","1.78779450000729",1,5,0,2,0
"260030","img/object_images/Vacuum01.jpg","1","k","2.65481039998122",1,5,0,2,0
"260030","img/object_images/watch01.jpg","1","s","1.20581870002206",1,5,0,2,0
"260030","img/object_images/camera07.jpg","0","s","1.06344759999774",1,5,0,2,0
"260030","img/object_images/phone02.jpg","1","s","2.2413076000521",1,5,0,2,0
"260030","img/object_images/coloring_pencil01.jpg","1","k","1.37245290004648",1,5,0,2,0
"260030","img/object_images/binoculars03.jpg","1","k","2.63241439999547",1,5,0,2,0
"260030","img/object_images/tie01.jpg","1","s","4.26073079998605",1,5,0,2,0
"260030","img/object_images/couch04.jpg","1","s","1.10274240002036",1,5,0,2,0
"260030","img/object_images/lock04.jpg","0","s","1.39463959995192",1,5,0,2,0
"260030","img/object_images/jewelry09.jpg","1","k","1.61822199996095",1,5,0,2,0
"260030","img/object_images/bag06.jpg","0","k","2.53484920004848",1,5,0,2,0
"260030","img/object_images/balloon01.jpg","1","s","0.743100899970159",1,5,0,2,0
"260030","img/object_images/badminton01.jpg","1","s","1.719488899922",1,5,0,2,0
"260030","img/object_images/soap03.jpg","1","s","0.844214700045995",1,6,0,2,0
"260030","img/object_images/toaster02.jpg","0","s","1.1374370000558",1,6,0,2,0
"260030","img/object_images/tool06.jpg","0","k","1.60159570001997",1,6,0,2,0
"260030","img/object_images/fork02.jpg","0","s","1.24749030009843",1,6,0,2,0
"260030","img/object_images/hand_grip_exerciser01.jpg","1","k","1.90862650005147",1,6,0,2,0
"260030","img/object_images/perfume01.jpg","1","k","1.65465799998492",1,6,0,2,0
"260030","img/object_images/rock02.jpg","1","s","1.37633689993527",1,6,0,2,0
"260030","img/object_images/hot_air_balloon02.jpg","1","k","1.00768349994905",1,6,0,2,0
"260030","img/object_images/Sprayer01.jpg","0","k","1.5150663999375",1,6,0,2,0
"260030","img/object_images/jewelry07.jpg","0","s","1.35788899997715",1,6,0,2,0
"260030","img/object_images/purse01.jpg","1","k","1.33613319997676",1,6,0,2,0
"260030","img/object_images/jewel03.jpg","1","s","1.22819880000316",1,6,0,2,0
"260030","img/object_images/tool19.jpg","1","s","1.41449110000394",1,6,0,2,0
"260030","img/object_images/car02.jpg","0","s","0.965638299938291",1,6,0,2,0
"260030","img/object_images/shoes12.jpg","0","s","1.42296279990114",1,6,0,2,0
"260030","img/object_images/paper_cup02.jpg","1","k","1.92555390007328",1,6,0,2,0
"260030","img/object_images/cutting_board01.jpg","0","k","1.10480179998558",1,6,0,2,0
"260030","img/object_images/computer_mouse02.jpg","0","s","1.77701229997911",1,6,0,2,0
"260030","img/object_images/spray_can01.jpg","1","s","1.255500499974",1,6,0,2,0
"260030","img/object_images/remote_controller01.jpg","1","s","1.33804639999289",1,6,0,2,0
"260030","img/object_images/toy05.jpg","1","k","1.10755089996383",1,6,0,2,0
"260030","img/object_images/fridge03.jpg","0","s","1.23216640006285",1,6,0,2,0
"260030","img/object_images/Eyeliner01.jpg","1","k","2.58649380004499",1,6,0,2,0
"260030","img/object_images/umbrella01.jpg","0","s","1.50230569997802",1,6,0,2,0
"260030","img/object_images/paper_cup01.jpg","1","s","1.93502999993507",1,6,0,2,0
"260030","img/object_images/funnel01.jpg","0","s","1.27143259998411",1,6,0,2,0
"260030","img/object_images/chair04.jpg","0","s","0.972048899973743",1,6,0,2,0
"260030","img/object_images/glasses07.jpg","0","k","2.35893900005612",1,6,0,2,0
"260030","img/object_images/piano03.jpg","0","s","1.0813591000624",1,6,0,2,0
"260030","img/object_images/hair_brush01.jpg","1","k","1.21927360002883",1,6,0,2,0
"260030","img/object_images/hair_dryer01.jpg","0","s","1.55364659999032",1,6,0,2,0
"260030","img/object_images/tray01.jpg","1","k","1.55299440003",1,6,0,2,0
"260030","img/object_images/blender02.jpg","1","k","1.74239330005366",1,6,0,2,0
"260030","img/object_images/ribbon01.jpg","1","s","0.737332500051707",1,6,0,2,0
"260030","img/object_images/bucket01.jpg","0","s","0.69149799994193",1,6,0,2,0
"260030","img/object_images/trash_can03.jpg","1","k","1.55213540000841",1,6,0,2,0
"260030","img/object_images/pitcher07.jpg","0","s","1.1377767000813",1,6,0,2,0
"260030","img/object_images/gift_box05.jpg","0","s","2.92748630000278",1,6,0,2,0
"260030","img/object_images/belt01.jpg","1","s","1.1547974999994",1,6,0,2,0
"260030","img/object_images/cup03.jpg","0","s","1.50879290001467",1,6,0,2,0
"260030","img/object_images/scale02.jpg","0","s","1.40619300003164",1,6,0,2,0
"260030","img/object_images/drone02.jpg","0","k","1.56038499996066",1,6,0,2,0
"260030","img/object_images/camera_lens01.jpg","0","s","0.875365999992937",1,6,0,2,0
"260030","img/object_images/shoes07.jpg","1","s","0.8386174000334",1,6,0,2,0
"260030","img/object_images/shower_head03.jpg","1","k","1.10513290006202",1,6,0,2,0
"260030","img/object_images/usb02.jpg","1","k","1.03494609997142",1,6,0,2,0
"260030","img/object_images/ironing_table02.jpg","1","k","1.16293879994191",1,6,0,2,0
"260030","img/object_images/keyboard02.jpg","1","s","1.27603790001012",1,6,0,2,0
"260030","img/object_images/measuring_tape02.jpg","1","s","0.943852999946102",1,7,0,2,0
"260030","img/object_images/outlet01.jpg","0","s","1.31133920000866",1,7,0,2,0
"260030","img/object_images/screwdriver01.jpg","1","k","1.63368510000873",1,7,0,2,0
"260030","img/object_images/bell02.jpg","1","s","1.31663200003095",1,7,0,2,0
"260030","img/object_images/decorative02.jpg","1","s","1.47920810000505",1,7,0,2,0
"260030","img/object_images/tennis_racket02.jpg","1","s","1.25031070003752",1,7,0,2,0
"260030","img/object_images/fork03.jpg","1","s","1.03710599988699",1,7,0,2,0
"260030","img/object_images/jacket03.jpg","1","k","0.854458400048316",1,7,0,2,0
"260030","img/object_images/car03.jpg","1","s","2.55420809995849",1,7,0,2,0
"260030","img/object_images/hair_clips01.jpg","1","s","1.93585170002189",1,7,0,2,0
"260030","img/object_images/cup01.jpg","0","k","1.60222470003646",1,7,0,2,0
"260030","img/object_images/video_game03.jpg","1","s","1.13413149991538",1,7,0,2,0
"260030","img/object_images/pen06.jpg","0","s","1.57472080003936",1,7,0,2,0
"260030","img/object_images/boat02.jpg","0","k","0.634237500024028",1,7,0,2,0
"260030","img/object_images/rock03.jpg","1","s","0.824412100017071",1,7,0,2,0
"260030","img/object_images/wire02.jpg","1","s","2.20524520007893",1,7,0,2,0
"260030","img/object_images/camera03.jpg","1","s","2.62718230008613",1,7,0,2,0
"260030","img/object_images/yoga_mat01.jpg","0","k","1.35401760006789",1,7,0,2,0
"260030","img/object_images/remover01.jpg","1","k","1.56848889996763",1,7,0,2,0
"260030","img/object_images/towels01.jpg","1","s","1.50393739994615",1,7,0,2,0
"260030","img/object_images/cochlear_implant01.jpg","1","s","0.898046999936923",1,7,0,2,0
"260030","img/object_images/ring03.jpg","1","k","1.29711659997702",1,7,0,2,0
"260030","img/object_images/handkerchief01.jpg","1","k","1.33516000001691",1,7,0,2,0
"260030","img/object_images/chair06.jpg","0","k","2.13376599992625",1,7,0,2,0
"260030","img/object_images/stapler.jpg","0","s","0.703388899913989",1,7,0,2,0
"260030","img/object_images/chair03.jpg","0","k","1.70688259997405",1,7,0,2,0
"260030","img/object_images/tv02.jpg","0","s","0.63802939991001",1,7,0,2,0
"260030","img/object_images/box03.jpg","1","s","1.41060089995153",1,7,0,2,0
"260030","img/object_images/compass01.jpg","0","s","3.74494050000794",1,7,0,2,0
"260030","img/object_images/Oven01.jpg","1","k","1.96683330007363",1,7,0,2,0
"260030","img/object_images/stove01.jpg","1","k","2.81922669999767",1,7,0,2,0
"260030","img/object_images/duster01.jpg","1","k","1.82098890002817",1,7,0,2,0
"260030","img/object_images/mail_box01.jpg","0","k","1.40541370003484",1,7,0,2,0
"260030","img/object_images/bicycle01.jpg","0","k","3.28840239997953",1,7,0,2,0
"260030","img/object_images/gloves02.jpg","1","k","1.77350110001862",1,7,0,2,0
"260030","img/object_images/razor03.jpg","0","s","1.73430420004297",1,7,0,2,0
"260030","img/object_images/basketball_hoop02.jpg","1","s","3.53811570000835",1,7,0,2,0
"260030","img/object_images/towel02.jpg","0","s","1.64767410000786",1,7,0,2,0
"260030","img/object_images/Stool01.jpg","0","k","1.09157320007216",1,7,0,2,0
"260030","img/object_images/car01.jpg","0","s","1.15802930004429",1,7,0,2,0
"260030","img/object_images/clipboard01.jpg","0","s","0.693735999986529",1,7,0,2,0
"260030","img/object_images/glasses06.jpg","1","k","1.77533450000919",1,7,0,2,0
"260030","img/object_images/Confetti 01.jpg","1","k","2.85730999999214",1,7,0,2,0
"260030","img/object_images/floss02.jpg","1","s","1.19105909997597",1,7,0,2,0
"260030","img/object_images/frame01.jpg","1","s","1.1891988000134",1,7,0,2,0
"260030","img/object_images/bottle06.jpg","1","s","1.4276454000501",1,7,0,2,0
"260030","img/object_images/fan02.jpg","1","s","1.64749080000911",1,7,0,2,0
"260030","img/object_images/hat09.jpg","1","s","0.780894199968316",1,7,0,2,0
"260030","img/object_images/fire_extinguisher01.jpg","1","k","3.35783369990531",1,8,0,2,0
"260030","img/object_images/dart01.jpg","1","s","2.00635640008841",1,8,0,2,0
"260030","img/object_images/lantern01.jpg","1","k","1.72888539999258",1,8,0,2,0
"260030","img/object_images/cellphone01.jpg","1","k","1.86914700001944",1,8,0,2,0
"260030","img/object_images/egg_basket01.jpg","1","k","1.31659599998966",1,8,0,2,0
"260030","img/object_images/chess_piece01.jpg","1","k","2.07478100003209",1,8,0,2,0
"260030","img/object_images/cellphone02.jpg","0","k","2.25136260001455",1,8,0,2,0
"260030","img/object_images/phone04.jpg","0","s","0.915397399920039",1,8,0,2,0
"260030","img/object_images/pillows01.jpg","0","s","1.08727359992918",1,8,0,2,0
"260030","img/object_images/floss01.jpg","0","s","4.56053979997523",1,8,0,2,0
"260030","img/object_images/scoreboard01.jpg","0","k","2.02930190006737",1,8,0,2,0
"260030","img/object_images/Shoes05.jpg","1","s","1.16420260001905",1,8,0,2,0
"260030","img/object_images/helmet02.jpg","0","s","1.84369350003544",1,8,0,2,0
"260030","img/object_images/chair01.jpg","0","s","1.13353110000025",1,8,0,2,0
"260030","img/object_images/couch01.jpg","1","s","1.84982829994988",1,8,0,2,0
"260030","img/object_images/pan03.jpg","1","s","1.04737939999904",1,8,0,2,0
"260030","img/object_images/wagon_cart03.jpg","0","s","0.877417600015178",1,8,0,2,0
"260030","img/object_images/bottle07.jpg","1","k","0.852034899988212",1,8,0,2,0
"260030","img/object_images/gift_box01.jpg","1","s","1.01554159994703",1,8,0,2,0
"260030","img/object_images/pot01 (1).jpg","1","k","1.85782229993492",1,8,0,2,0
"260030","img/object_images/blanket01.jpg","1","k","1.24124110001139",1,8,0,2,0
"260030","img/object_images/toilet_paper01.jpg","1","k","1.08861069998238",1,8,0,2,0
"260030","img/object_images/nut_cracker01.jpg","1","k","1.27121619996615",1,8,0,2,0
"260030","img/object_images/Screws01.jpg","0","s","1.2190513999667",1,8,0,2,0
"260030","img/object_images/Safe01.jpg","1","s","1.23110050009564",1,8,0,2,0
"260030","img/object_images/laptop03.jpg","1","k","1.57248189998791",1,8,0,2,0
"260030","img/object_images/dust_pan01.jpg","0","s","1.43199650000315",1,8,0,2,0
"260030","img/object_images/satellite01.jpg","1","s","1.07618719991297",1,8,0,2,0
"260030","img/object_images/Recycling01.jpg","1","k","2.10071399994195",1,8,0,2,0
"260030","img/object_images/drone01.jpg","0","s","0.877981400000863",1,8,0,2,0
"260030","img/object_images/helmet04.jpg","0","k","0.870577099965885",1,8,0,2,0
"260030","img/object_images/knit04.jpg","1","s","0.980124699999578",1,8,0,2,0
"260030","img/object_images/skate_board01.jpg","1","s","0.759348399937153",1,8,0,2,0
"260030","img/object_images/shovel03.jpg","1","k","1.13748630008195",1,8,0,2,0
"260030","img/object_images/gift_box04.jpg","1","s","0.902812600019388",1,8,0,2,0
"260030","img/object_images/airfryer02.jpg","0","k","1.25769870006479",1,8,0,2,0
"260030","img/object_images/gift_box03.jpg","0","s","1.27370569994673",1,8,0,2,0
"260030","img/object_images/tool20.jpg","0","s","1.06863470003009",1,8,0,2,0
"260030","img/object_images/tool09.jpg","0","s","1.63682920008432",1,8,0,2,0
"260030","img/object_images/toilet_paper_dispenser01.jpg","0","k","1.76668820006307",1,8,0,2,0
"260030","img/object_images/sponge03.jpg","1","s","1.36143740010448",1,8,0,2,0
"260030","img/object_images/frisbee01.jpg","1","k","1.12923610000871",1,8,0,2,0
"260030","img/object_images/belt03.jpg","0","s","1.29964640003163",1,8,0,2,0
"260030","img/object_images/floppy_disk03.jpg","0","k","1.29424840002321",1,8,0,2,0
"260030","img/object_images/calculator01.jpg","1","k","1.08469409996178",1,8,0,2,0
"260030","img/object_images/dresser04.jpg","0","s","1.07813599996734",1,8,0,2,0
"260030","img/object_images/ladle02.jpg","1","k","1.16657230001874",1,8,0,2,0
"260030","img/object_images/hat06.jpg","1","s","2.46397190005518",1,8,0,2,0
