"participant_id","current_trial_object","pre_trial_object","post_trial_object","current_trial_accuracy","pre_trial_accuracy","post_trial_accuracy","current_trial_congruency","pre_trial_congruency","post_trial_congruency","current_trial_rt","pre_trial_rt","post_trial_rt","current_trial_responded","pre_trial_responded","post_trial_responded","current_trial_legitResponse","pre_trial_legitResponse","post_trial_legitResponse","current_trial_resp_nums","pre_trial_resp_nums","post_trial_resp_nums"
"260015","img/object_images/sleeping_bag01.jpg",NA,"img/object_images/pitcher02.jpg","1",NA,"1","0",NA,"1","0.581845699984115",NA,"0.549982799973805","1",NA,"1","1",NA,"1","1",NA,"1"
"260015","img/object_images/pitcher02.jpg","img/object_images/sleeping_bag01.jpg","img/object_images/vga_port 01.jpg","1","1","1","1","0","0","0.549982799973805","0.581845699984115","0.512069199990947","1","1","1","1","1","1","1","1","1"
"260015","img/object_images/vga_port 01.jpg","img/object_images/pitcher02.jpg","img/object_images/clip02.jpg","1","1","1","0","1","1","0.512069199990947","0.549982799973805","0.672484999988228","1","1","1","1","1","1","1","1","1"
"260015","img/object_images/clip02.jpg","img/object_images/vga_port 01.jpg","img/object_images/balloon01.jpg","1","1","1","1","0","0","0.672484999988228","0.512069199990947","0.703752200002782","1","1","1","1","1","1","1","1","1"
"260015","img/object_images/balloon01.jpg","img/object_images/clip02.jpg","img/object_images/Screws01.jpg","1","1","1","0","1","1","0.703752200002782","0.672484999988228","0.556351700040977","1","1","1","1","1","1","1","1","1"
"260015","img/object_images/Screws01.jpg","img/object_images/balloon01.jpg","img/object_images/dresser04.jpg","1","1","1","1","0","0","0.556351700040977","0.703752200002782","0.65811770001892","1","1","1","1","1","1","1","1","1"
"260015","img/object_images/dresser04.jpg","img/object_images/Screws01.jpg","img/object_images/paper_cup01.jpg","1","1","1","0","1","0","0.65811770001892","0.556351700040977","0.545342899975367","1","1","1","1","1","1","1","1","1"
"260015","img/object_images/paper_cup01.jpg","img/object_images/dresser04.jpg","img/object_images/jewelry01.jpg","1","1","1","0","0","1","0.545342899975367","0.65811770001892","0.548717800003942","1","1","1","1","1","1","1","1","1"
"260015","img/object_images/jewelry01.jpg","img/object_images/paper_cup01.jpg","img/object_images/fork03.jpg","1","1","1","1","0","1","0.548717800003942","0.545342899975367","0.584070699987933","1","1","1","1","1","1","1","1","1"
"260015","img/object_images/fork03.jpg","img/object_images/jewelry01.jpg","img/object_images/bow_tie01.jpg","1","1","1","1","1","0","0.584070699987933","0.548717800003942","0.582801599986851","1","1","1","1","1","1","1","1","1"
"260015","img/object_images/bow_tie01.jpg","img/object_images/fork03.jpg","img/object_images/gift_box02.jpg","1","1","1","0","1","1","0.582801599986851","0.584070699987933","0.568745800002944","1","1","1","1","1","1","1","1","1"
"260015","img/object_images/gift_box02.jpg","img/object_images/bow_tie01.jpg","img/object_images/lawn_mower01.jpg","1","1","1","1","0","1","0.568745800002944","0.582801599986851","0.542927699978463","1","1","1","1","1","1","1","1","1"
"260015","img/object_images/lawn_mower01.jpg","img/object_images/gift_box02.jpg","img/object_images/coloring_pencil01.jpg","1","1","1","1","1","1","0.542927699978463","0.568745800002944","0.612273600010667","1","1","1","1","1","1","1","1","1"
"260015","img/object_images/coloring_pencil01.jpg","img/object_images/lawn_mower01.jpg","img/object_images/lock04.jpg","1","1","1","1","1","1","0.612273600010667","0.542927699978463","0.521186099969782","1","1","1","1","1","1","1","1","1"
"260015","img/object_images/lock04.jpg","img/object_images/coloring_pencil01.jpg","img/object_images/gift_box01.jpg","1","1","1","1","1","1","0.521186099969782","0.612273600010667","0.475415099994279","1","1","1","1","1","1","1","1","1"
"260015","img/object_images/gift_box01.jpg","img/object_images/lock04.jpg","img/object_images/hammer01.jpg","1","1","1","1","1","0","0.475415099994279","0.521186099969782","0.557418200012762","1","1","1","1","1","1","1","1","1"
"260015","img/object_images/hammer01.jpg","img/object_images/gift_box01.jpg","img/object_images/bath_tub01.jpg","1","1","1","0","1","0","0.557418200012762","0.475415099994279","0.728805400023703","1","1","1","1","1","1","1","1","1"
"260015","img/object_images/bath_tub01.jpg","img/object_images/hammer01.jpg","img/object_images/jacket03.jpg","1","1","1","0","0","0","0.728805400023703","0.557418200012762","0.702830799971707","1","1","1","1","1","1","1","1","1"
"260015","img/object_images/jacket03.jpg","img/object_images/bath_tub01.jpg","img/object_images/wallet02.jpg","1","1","1","0","0","1","0.702830799971707","0.728805400023703","0.575590099964757","1","1","1","1","1","1","1","1","1"
"260015","img/object_images/wallet02.jpg","img/object_images/jacket03.jpg","img/object_images/bow_tie02.jpg","1","1","1","1","0","0","0.575590099964757","0.702830799971707","1.83380019996548","1","1","1","1","1","1","1","1","1"
"260015","img/object_images/bow_tie02.jpg","img/object_images/wallet02.jpg","img/object_images/camera07.jpg","1","1","1","0","1","1","1.83380019996548","0.575590099964757","0.666888599982485","1","1","1","1","1","1","1","1","1"
"260015","img/object_images/camera07.jpg","img/object_images/bow_tie02.jpg","img/object_images/Witchhat01.jpg","1","1","1","1","0","1","0.666888599982485","1.83380019996548","0.5897699999623","1","1","1","1","1","1","1","1","1"
"260015","img/object_images/Witchhat01.jpg","img/object_images/camera07.jpg","img/object_images/gift_box03.jpg","1","1","1","1","1","0","0.5897699999623","0.666888599982485","0.577982899965718","1","1","1","1","1","1","1","1","1"
"260015","img/object_images/gift_box03.jpg","img/object_images/Witchhat01.jpg","img/object_images/ironing_table01.jpg","1","1","1","0","1","0","0.577982899965718","0.5897699999623","0.542774200032","1","1","1","1","1","1","1","1","1"
"260015","img/object_images/ironing_table01.jpg","img/object_images/gift_box03.jpg","img/object_images/couch03.jpg","1","1","1","0","0","0","0.542774200032","0.577982899965718","0.573421099979896","1","1","1","1","1","1","1","1","1"
"260015","img/object_images/couch03.jpg","img/object_images/ironing_table01.jpg","img/object_images/grater01.jpg","1","1","1","0","0","1","0.573421099979896","0.542774200032","1.12580059998436","1","1","1","1","1","1","1","1","1"
"260015","img/object_images/grater01.jpg","img/object_images/couch03.jpg","img/object_images/socks02.jpg","1","1","1","1","0","0","1.12580059998436","0.573421099979896","0.726067500014324","1","1","1","1","1","1","1","1","1"
"260015","img/object_images/socks02.jpg","img/object_images/grater01.jpg","img/object_images/measuring_tape02.jpg","1","1","1","0","1","1","0.726067500014324","1.12580059998436","0.777053099998739","1","1","1","1","1","1","1","1","1"
"260015","img/object_images/measuring_tape02.jpg","img/object_images/socks02.jpg","img/object_images/funnel01.jpg","1","1","1","1","0","0","0.777053099998739","0.726067500014324","0.625288399984129","1","1","1","1","1","1","1","1","1"
"260015","img/object_images/funnel01.jpg","img/object_images/measuring_tape02.jpg","img/object_images/handkerchief01.jpg","1","1","1","0","1","0","0.625288399984129","0.777053099998739","0.522957300010603","1","1","1","1","1","1","1","1","1"
"260015","img/object_images/handkerchief01.jpg","img/object_images/funnel01.jpg","img/object_images/golf_ball03.jpg","1","1","1","0","0","1","0.522957300010603","0.625288399984129","1.02915610000491","1","1","1","1","1","1","1","1","1"
"260015","img/object_images/golf_ball03.jpg","img/object_images/handkerchief01.jpg",NA,"1","1",NA,"1","0",NA,"1.02915610000491","0.522957300010603",NA,"1","1",NA,"1","1",NA,"1","1",NA
"260015","img/object_images/crown02.jpg",NA,"img/object_images/jewel04.jpg","1",NA,"1","1",NA,"0","0.447032999945804",NA,"0.556296300026588","1",NA,"1","1",NA,"1","1",NA,"1"
"260015","img/object_images/jewel04.jpg","img/object_images/crown02.jpg","img/object_images/acoustic_capo01.jpg","1","1","1","0","1","1","0.556296300026588","0.447032999945804","0.501029899984132","1","1","1","1","1","1","1","1","1"
"260015","img/object_images/acoustic_capo01.jpg","img/object_images/jewel04.jpg","img/object_images/watch01.jpg","1","1","1","1","0","0","0.501029899984132","0.556296300026588","0.472961799998302","1","1","1","1","1","1","1","1","1"
"260015","img/object_images/watch01.jpg","img/object_images/acoustic_capo01.jpg","img/object_images/fridge03.jpg","1","1","1","0","1","0","0.472961799998302","0.501029899984132","0.530347399995662","1","1","1","1","1","1","1","1","1"
"260015","img/object_images/fridge03.jpg","img/object_images/watch01.jpg","img/object_images/gauze01.jpg","1","1","1","0","0","0","0.530347399995662","0.472961799998302","0.471440099994652","1","1","1","1","1","1","1","1","1"
"260015","img/object_images/gauze01.jpg","img/object_images/fridge03.jpg","img/object_images/towel02.jpg","1","1","1","0","0","1","0.471440099994652","0.530347399995662","0.52339019998908","1","1","1","1","1","1","1","1","1"
"260015","img/object_images/towel02.jpg","img/object_images/gauze01.jpg","img/object_images/Stool01.jpg","1","1","1","1","0","0","0.52339019998908","0.471440099994652","0.451913299970329","1","1","1","1","1","1","1","1","1"
"260015","img/object_images/Stool01.jpg","img/object_images/towel02.jpg","img/object_images/video_game07.jpg","1","1","1","0","1","1","0.451913299970329","0.52339019998908","0.397486500034574","1","1","1","1","1","1","1","1","1"
"260015","img/object_images/video_game07.jpg","img/object_images/Stool01.jpg","img/object_images/dart01.jpg","1","1","1","1","0","0","0.397486500034574","0.451913299970329","0.412630199978594","1","1","1","1","1","1","1","1","1"
"260015","img/object_images/dart01.jpg","img/object_images/video_game07.jpg","img/object_images/outlet01.jpg","1","1","1","0","1","0","0.412630199978594","0.397486500034574","0.376071699953172","1","1","1","1","1","1","1","1","1"
"260015","img/object_images/outlet01.jpg","img/object_images/dart01.jpg","img/object_images/MetalWire01.jpg","1","1","1","0","0","0","0.376071699953172","0.412630199978594","0.559747799998149","1","1","1","1","1","1","1","1","1"
"260015","img/object_images/MetalWire01.jpg","img/object_images/outlet01.jpg","img/object_images/Ring02.jpg","1","1","1","0","0","0","0.559747799998149","0.376071699953172","0.357069800025783","1","1","1","1","1","1","1","1","1"
"260015","img/object_images/Ring02.jpg","img/object_images/MetalWire01.jpg","img/object_images/sink01.jpg","1","1","1","0","0","0","0.357069800025783","0.559747799998149","0.458464099967387","1","1","1","1","1","1","1","1","1"
"260015","img/object_images/sink01.jpg","img/object_images/Ring02.jpg","img/object_images/toy04.jpg","1","1","1","0","0","0","0.458464099967387","0.357069800025783","0.511688500002492","1","1","1","1","1","1","1","1","1"
"260015","img/object_images/toy04.jpg","img/object_images/sink01.jpg","img/object_images/bottle05.jpg","1","1","1","0","0","0","0.511688500002492","0.458464099967387","0.563293399987742","1","1","1","1","1","1","1","1","1"
"260015","img/object_images/bottle05.jpg","img/object_images/toy04.jpg","img/object_images/bow01.jpg","1","1","1","0","0","1","0.563293399987742","0.511688500002492","0.552048199984711","1","1","1","1","1","1","1","1","1"
"260015","img/object_images/bow01.jpg","img/object_images/bottle05.jpg","img/object_images/shovel03.jpg","1","1","1","1","0","1","0.552048199984711","0.563293399987742","0.482452899974305","1","1","1","1","1","1","1","1","1"
"260015","img/object_images/shovel03.jpg","img/object_images/bow01.jpg","img/object_images/stapler.jpg","1","1","1","1","1","1","0.482452899974305","0.552048199984711","0.384520099963993","1","1","1","1","1","1","1","1","1"
"260015","img/object_images/stapler.jpg","img/object_images/shovel03.jpg","img/object_images/bird_house02.jpg","1","1","1","1","1","1","0.384520099963993","0.482452899974305","0.442859200004023","1","1","1","1","1","1","1","1","1"
"260015","img/object_images/bird_house02.jpg","img/object_images/stapler.jpg","img/object_images/Vacuum01.jpg","1","1","1","1","1","0","0.442859200004023","0.384520099963993","0.39896520000184","1","1","1","1","1","1","1","1","1"
"260015","img/object_images/Vacuum01.jpg","img/object_images/bird_house02.jpg","img/object_images/Tin01.jpg","1","1","1","0","1","1","0.39896520000184","0.442859200004023","0.428216999978758","1","1","1","1","1","1","1","1","1"
"260015","img/object_images/Tin01.jpg","img/object_images/Vacuum01.jpg","img/object_images/tool02.jpg","1","1","1","1","0","1","0.428216999978758","0.39896520000184","0.431176899990533","1","1","1","1","1","1","1","1","1"
"260015","img/object_images/tool02.jpg","img/object_images/Tin01.jpg","img/object_images/frisbee01.jpg","1","1","1","1","1","1","0.431176899990533","0.428216999978758","0.466530199977569","1","1","1","1","1","1","1","1","1"
"260015","img/object_images/frisbee01.jpg","img/object_images/tool02.jpg","img/object_images/ornament01.jpg","1","1","1","1","1","1","0.466530199977569","0.431176899990533","0.338059699977748","1","1","1","1","1","1","1","1","1"
"260015","img/object_images/ornament01.jpg","img/object_images/frisbee01.jpg","img/object_images/mirror01.jpg","1","1","1","1","1","1","0.338059699977748","0.466530199977569","0.417817800014745","1","1","1","1","1","1","1","1","1"
"260015","img/object_images/mirror01.jpg","img/object_images/ornament01.jpg","img/object_images/judge_gavel01.jpg","1","1","1","1","1","1","0.417817800014745","0.338059699977748","0.418818900012411","1","1","1","1","1","1","1","1","1"
"260015","img/object_images/judge_gavel01.jpg","img/object_images/mirror01.jpg","img/object_images/guitar02.jpg","1","1","0","1","1","0","0.418818900012411","0.417817800014745","0.44273810001323","1","1","1","1","1","1","1","1","1"
"260015","img/object_images/guitar02.jpg","img/object_images/judge_gavel01.jpg","img/object_images/pot01 (1).jpg","0","1","1","0","1","0","0.44273810001323","0.418818900012411","0.606635600037407","1","1","1","1","1","1","1","1","1"
"260015","img/object_images/pot01 (1).jpg","img/object_images/guitar02.jpg","img/object_images/helmet01.jpg","1","0","1","0","0","0","0.606635600037407","0.44273810001323","0.461481600010302","1","1","1","1","1","1","1","1","1"
"260015","img/object_images/helmet01.jpg","img/object_images/pot01 (1).jpg","img/object_images/toy03.jpg","1","1","1","0","0","1","0.461481600010302","0.606635600037407","0.525512699969113","1","1","1","1","1","1","1","1","1"
"260015","img/object_images/toy03.jpg","img/object_images/helmet01.jpg","img/object_images/tool09.jpg","1","1","1","1","0","1","0.525512699969113","0.461481600010302","0.446107600000687","1","1","1","1","1","1","1","1","1"
"260015","img/object_images/tool09.jpg","img/object_images/toy03.jpg",NA,"1","1",NA,"1","1",NA,"0.446107600000687","0.525512699969113",NA,"1","1",NA,"1","1",NA,"1","1",NA
"260015","img/object_images/video_game03.jpg",NA,"img/object_images/toothbrush01.jpg","1",NA,"1","1",NA,"0","0.35666480002692",NA,"0.348097299982328","1",NA,"1","1",NA,"1","1",NA,"1"
"260015","img/object_images/toothbrush01.jpg","img/object_images/video_game03.jpg","img/object_images/computer_mouse01.jpg","1","1","1","0","1","1","0.348097299982328","0.35666480002692","0.447455800021999","1","1","1","1","1","1","1","1","1"
"260015","img/object_images/computer_mouse01.jpg","img/object_images/toothbrush01.jpg","img/object_images/pen01.jpg","1","1","1","1","0","0","0.447455800021999","0.348097299982328","0.404223399993498","1","1","1","1","1","1","1","1","1"
"260015","img/object_images/pen01.jpg","img/object_images/computer_mouse01.jpg","img/object_images/Violin01.jpg","1","1","1","0","1","0","0.404223399993498","0.447455800021999","0.44897879997734","1","1","1","1","1","1","1","1","1"
"260015","img/object_images/Violin01.jpg","img/object_images/pen01.jpg","img/object_images/skate_board01.jpg","1","1","1","0","0","0","0.44897879997734","0.404223399993498","0.474886899988633","1","1","1","1","1","1","1","1","1"
"260015","img/object_images/skate_board01.jpg","img/object_images/Violin01.jpg","img/object_images/tool06.jpg","1","1","1","0","0","0","0.474886899988633","0.44897879997734","0.360585800022818","1","1","1","1","1","1","1","1","1"
"260015","img/object_images/tool06.jpg","img/object_images/skate_board01.jpg","img/object_images/chair06.jpg","1","1","1","0","0","0","0.360585800022818","0.474886899988633","0.321238400007132","1","1","1","1","1","1","1","1","1"
"260015","img/object_images/chair06.jpg","img/object_images/tool06.jpg","img/object_images/shoes12.jpg","1","1","1","0","0","1","0.321238400007132","0.360585800022818","0.445457699999679","1","1","1","1","1","1","1","1","1"
"260015","img/object_images/shoes12.jpg","img/object_images/chair06.jpg","img/object_images/blender01.jpg","1","1","1","1","0","0","0.445457699999679","0.321238400007132","0.348803800006863","1","1","1","1","1","1","1","1","1"
"260015","img/object_images/blender01.jpg","img/object_images/shoes12.jpg","img/object_images/mail_box02.jpg","1","1","1","0","1","1","0.348803800006863","0.445457699999679","0.316939199983608","1","1","1","1","1","1","1","1","1"
"260015","img/object_images/mail_box02.jpg","img/object_images/blender01.jpg","img/object_images/couch01.jpg","1","1","1","1","0","0","0.316939199983608","0.348803800006863","0.38888029998634","1","1","1","1","1","1","1","1","1"
"260015","img/object_images/couch01.jpg","img/object_images/mail_box02.jpg","img/object_images/Trowel01.jpg","1","1","1","0","1","0","0.38888029998634","0.316939199983608","0.439927100029308","1","1","1","1","1","1","1","1","1"
"260015","img/object_images/Trowel01.jpg","img/object_images/couch01.jpg","img/object_images/scarf01.jpg","1","1","1","0","0","1","0.439927100029308","0.38888029998634","0.427712600037921","1","1","1","1","1","1","1","1","1"
"260015","img/object_images/scarf01.jpg","img/object_images/Trowel01.jpg","img/object_images/floss02.jpg","1","1","1","1","0","1","0.427712600037921","0.439927100029308","0.346953700005542","1","1","1","1","1","1","1","1","1"
"260015","img/object_images/floss02.jpg","img/object_images/scarf01.jpg","img/object_images/pitcher09.jpg","1","1","1","1","1","1","0.346953700005542","0.427712600037921","0.362439399992582","1","1","1","1","1","1","1","1","1"
"260015","img/object_images/pitcher09.jpg","img/object_images/floss02.jpg","img/object_images/toy01.jpg","1","1","1","1","1","1","0.362439399992582","0.346953700005542","0.661695800023153","1","1","1","1","1","1","1","1","1"
"260015","img/object_images/toy01.jpg","img/object_images/pitcher09.jpg","img/object_images/clip04.jpg","1","1","1","1","1","1","0.661695800023153","0.362439399992582","0.45758869999554","1","1","1","1","1","1","1","1","1"
"260015","img/object_images/clip04.jpg","img/object_images/toy01.jpg","img/object_images/soap03.jpg","1","1","0","1","1","0","0.45758869999554","0.661695800023153","0.415516100008972","1","1","1","1","1","1","1","1","1"
"260015","img/object_images/soap03.jpg","img/object_images/clip04.jpg","img/object_images/chain01.jpg","0","1","1","0","1","0","0.415516100008972","0.45758869999554","0.499262000026647","1","1","1","1","1","1","1","1","1"
"260015","img/object_images/chain01.jpg","img/object_images/soap03.jpg","img/object_images/computer_mouse02.jpg","1","0","1","0","0","0","0.499262000026647","0.415516100008972","0.443777499953285","1","1","1","1","1","1","1","1","1"
"260015","img/object_images/computer_mouse02.jpg","img/object_images/chain01.jpg","img/object_images/airfryer02.jpg","1","1","1","0","0","1","0.443777499953285","0.499262000026647","0.392044999985956","1","1","1","1","1","1","1","1","1"
"260015","img/object_images/airfryer02.jpg","img/object_images/computer_mouse02.jpg","img/object_images/bell03.jpg","1","1","1","1","0","0","0.392044999985956","0.443777499953285","0.565023900009692","1","1","1","1","1","1","1","1","1"
"260015","img/object_images/bell03.jpg","img/object_images/airfryer02.jpg","img/object_images/egg_slicer01.jpg","1","1","1","0","1","1","0.565023900009692","0.392044999985956","0.445767600031104","1","1","1","1","1","1","1","1","1"
"260015","img/object_images/egg_slicer01.jpg","img/object_images/bell03.jpg","img/object_images/tripod01.jpg","1","1","1","1","0","1","0.445767600031104","0.565023900009692","0.49091920000501","1","1","1","1","1","1","1","1","1"
"260015","img/object_images/tripod01.jpg","img/object_images/egg_slicer01.jpg","img/object_images/book02.jpg","1","1","1","1","1","1","0.49091920000501","0.445767600031104","0.47088859998621","1","1","1","1","1","1","1","1","1"
"260015","img/object_images/book02.jpg","img/object_images/tripod01.jpg","img/object_images/fork02.jpg","1","1","1","1","1","0","0.47088859998621","0.49091920000501","0.533814299968071","1","1","1","1","1","1","1","1","1"
"260015","img/object_images/fork02.jpg","img/object_images/book02.jpg","img/object_images/bag_pipes01.jpg","1","1","1","0","1","1","0.533814299968071","0.47088859998621","0.383366800029762","1","1","1","1","1","1","1","1","1"
"260015","img/object_images/bag_pipes01.jpg","img/object_images/fork02.jpg","img/object_images/hair_brush01.jpg","1","1","1","1","0","1","0.383366800029762","0.533814299968071","0.55057979997946","1","1","1","1","1","1","1","1","1"
"260015","img/object_images/hair_brush01.jpg","img/object_images/bag_pipes01.jpg","img/object_images/box03.jpg","1","1","1","1","1","0","0.55057979997946","0.383366800029762","0.501178699953016","1","1","1","1","1","1","1","1","1"
"260015","img/object_images/box03.jpg","img/object_images/hair_brush01.jpg","img/object_images/drone01.jpg","1","1","1","0","1","1","0.501178699953016","0.55057979997946","0.492058400006499","1","1","1","1","1","1","1","1","1"
"260015","img/object_images/drone01.jpg","img/object_images/box03.jpg","img/object_images/rock02.jpg","1","1","1","1","0","0","0.492058400006499","0.501178699953016","0.438817199959885","1","1","1","1","1","1","1","1","1"
"260015","img/object_images/rock02.jpg","img/object_images/drone01.jpg",NA,"1","1",NA,"0","1",NA,"0.438817199959885","0.492058400006499",NA,"1","1",NA,"1","1",NA,"1","1",NA
"260015","img/object_images/purse01.jpg",NA,"img/object_images/book01.jpg","0",NA,"1","1",NA,"1","0.420220600033645",NA,"0.542536999972071","1",NA,"1","1",NA,"1","1",NA,"1"
"260015","img/object_images/book01.jpg","img/object_images/purse01.jpg","img/object_images/Pottery01.jpg","1","0","1","1","1","0","0.542536999972071","0.420220600033645","0.49038599996129","1","1","1","1","1","1","1","1","1"
"260015","img/object_images/Pottery01.jpg","img/object_images/book01.jpg","img/object_images/tool08.jpg","1","1","0","0","1","0","0.49038599996129","0.542536999972071","0.449377399985678","1","1","1","1","1","1","1","1","1"
"260015","img/object_images/tool08.jpg","img/object_images/Pottery01.jpg","img/object_images/gift_box04.jpg","0","1","1","0","0","0","0.449377399985678","0.49038599996129","0.49014409998199","1","1","1","1","1","1","1","1","1"
"260015","img/object_images/gift_box04.jpg","img/object_images/tool08.jpg","img/object_images/yo_yo01.jpg","1","0","1","0","0","0","0.49014409998199","0.449377399985678","0.476884000003338","1","1","1","1","1","1","1","1","1"
"260015","img/object_images/yo_yo01.jpg","img/object_images/gift_box04.jpg","img/object_images/colander01.jpg","1","1","1","0","0","0","0.476884000003338","0.49014409998199","0.449215500033461","1","1","1","1","1","1","1","1","1"
"260015","img/object_images/colander01.jpg","img/object_images/yo_yo01.jpg","img/object_images/Sprayer01.jpg","1","1","1","0","0","0","0.449215500033461","0.476884000003338","0.530294800002594","1","1","1","1","1","1","1","1","1"
"260015","img/object_images/Sprayer01.jpg","img/object_images/colander01.jpg","img/object_images/glasses06.jpg","1","1","1","0","0","1","0.530294800002594","0.449215500033461","0.490126899967436","1","1","1","1","1","1","1","1","1"
"260015","img/object_images/glasses06.jpg","img/object_images/Sprayer01.jpg","img/object_images/bicycle_lock01.jpg","1","1","1","1","0","0","0.490126899967436","0.530294800002594","0.422916500014253","1","1","1","1","1","1","1","1","1"
"260015","img/object_images/bicycle_lock01.jpg","img/object_images/glasses06.jpg","img/object_images/speaker01.jpg","1","1","1","0","1","1","0.422916500014253","0.490126899967436","0.406963500019629","1","1","1","1","1","1","1","1","1"
"260015","img/object_images/speaker01.jpg","img/object_images/bicycle_lock01.jpg","img/object_images/handcuffs01.jpg","1","1","1","1","0","0","0.406963500019629","0.422916500014253","0.503725300019141","1","1","1","1","1","1","1","1","1"
"260015","img/object_images/handcuffs01.jpg","img/object_images/speaker01.jpg","img/object_images/projector01.jpg","1","1","1","0","1","0","0.503725300019141","0.406963500019629","0.529954400029965","1","1","1","1","1","1","1","1","1"
"260015","img/object_images/projector01.jpg","img/object_images/handcuffs01.jpg","img/object_images/exfoliater_brush01.jpg","1","1","1","0","0","0","0.529954400029965","0.503725300019141","0.538344400003552","1","1","1","1","1","1","1","1","1"
"260015","img/object_images/exfoliater_brush01.jpg","img/object_images/projector01.jpg","img/object_images/faucet01.jpg","1","1","1","0","0","0","0.538344400003552","0.529954400029965","0.477927699976135","1","1","1","1","1","1","1","1","1"
"260015","img/object_images/faucet01.jpg","img/object_images/exfoliater_brush01.jpg","img/object_images/Kitchen_Towel.jpg","1","1","1","0","0","0","0.477927699976135","0.538344400003552","0.490840599988587","1","1","1","1","1","1","1","1","1"
"260015","img/object_images/Kitchen_Towel.jpg","img/object_images/faucet01.jpg","img/object_images/fire_extinguisher01.jpg","1","1","1","0","0","0","0.490840599988587","0.477927699976135","0.596153199963737","1","1","1","1","1","1","1","1","1"
"260015","img/object_images/fire_extinguisher01.jpg","img/object_images/Kitchen_Towel.jpg","img/object_images/cellphone02.jpg","1","1","1","0","0","1","0.596153199963737","0.490840599988587","0.478464000043459","1","1","1","1","1","1","1","1","1"
"260015","img/object_images/cellphone02.jpg","img/object_images/fire_extinguisher01.jpg","img/object_images/tray01.jpg","1","1","1","1","0","1","0.478464000043459","0.596153199963737","0.423736399970949","1","1","1","1","1","1","1","1","1"
"260015","img/object_images/tray01.jpg","img/object_images/cellphone02.jpg","img/object_images/basket02.jpg","1","1","1","1","1","0","0.423736399970949","0.478464000043459","0.463434499979485","1","1","1","1","1","1","1","1","1"
"260015","img/object_images/basket02.jpg","img/object_images/tray01.jpg","img/object_images/ring03.jpg","1","1","1","0","1","1","0.463434499979485","0.423736399970949","0.553072599985171","1","1","1","1","1","1","1","1","1"
"260015","img/object_images/ring03.jpg","img/object_images/basket02.jpg","img/object_images/hole_puncher01.jpg","1","1","1","1","0","1","0.553072599985171","0.463434499979485","0.884338999981992","1","1","1","1","1","1","1","1","1"
"260015","img/object_images/hole_puncher01.jpg","img/object_images/ring03.jpg","img/object_images/tool07.jpg","1","1","1","1","1","0","0.884338999981992","0.553072599985171","0.549842699954752","1","1","1","1","1","1","1","1","1"
"260015","img/object_images/tool07.jpg","img/object_images/hole_puncher01.jpg","img/object_images/jewelry09.jpg","1","1","1","0","1","1","0.549842699954752","0.884338999981992","0.443654500006232","1","1","1","1","1","1","1","1","1"
"260015","img/object_images/jewelry09.jpg","img/object_images/tool07.jpg","img/object_images/TrashCan02.jpg","1","1","1","1","0","1","0.443654500006232","0.549842699954752","0.451388799992856","1","1","1","1","1","1","1","1","1"
"260015","img/object_images/TrashCan02.jpg","img/object_images/jewelry09.jpg","img/object_images/Traffic Sign 01.jpg","1","1","1","1","1","0","0.451388799992856","0.443654500006232","0.535395799961407","1","1","1","1","1","1","1","1","1"
"260015","img/object_images/Traffic Sign 01.jpg","img/object_images/TrashCan02.jpg","img/object_images/blanket01.jpg","1","1","1","0","1","1","0.535395799961407","0.451388799992856","0.373435899964534","1","1","1","1","1","1","1","1","1"
"260015","img/object_images/blanket01.jpg","img/object_images/Traffic Sign 01.jpg","img/object_images/lighter01.jpg","1","1","1","1","0","1","0.373435899964534","0.535395799961407","0.449204400007147","1","1","1","1","1","1","1","1","1"
"260015","img/object_images/lighter01.jpg","img/object_images/blanket01.jpg","img/object_images/hair_clips01.jpg","1","1","1","1","1","1","0.449204400007147","0.373435899964534","0.573308400053065","1","1","1","1","1","1","1","1","1"
"260015","img/object_images/hair_clips01.jpg","img/object_images/lighter01.jpg","img/object_images/glasses07.jpg","1","1","1","1","1","1","0.573308400053065","0.449204400007147","0.412596800015308","1","1","1","1","1","1","1","1","1"
"260015","img/object_images/glasses07.jpg","img/object_images/hair_clips01.jpg","img/object_images/pan01.jpg","1","1","1","1","1","1","0.412596800015308","0.573308400053065","0.443664700025693","1","1","1","1","1","1","1","1","1"
"260015","img/object_images/pan01.jpg","img/object_images/glasses07.jpg","img/object_images/cup03.jpg","1","1","1","1","1","1","0.443664700025693","0.412596800015308","0.455023799964692","1","1","1","1","1","1","1","1","1"
"260015","img/object_images/cup03.jpg","img/object_images/pan01.jpg",NA,"1","1",NA,"1","1",NA,"0.455023799964692","0.443664700025693",NA,"1","1",NA,"1","1",NA,"1","1",NA
"260015","img/object_images/tennis_racket02.jpg",NA,"img/object_images/Staples01.jpg","1",NA,"1","1",NA,"1","0.41707879997557",NA,"0.451729999971576","1",NA,"1","1",NA,"1","1",NA,"1"
"260015","img/object_images/Staples01.jpg","img/object_images/tennis_racket02.jpg","img/object_images/clock02.jpg","1","1","0","1","1","0","0.451729999971576","0.41707879997557","0.502492200001143","1","1","1","1","1","1","1","1","1"
"260015","img/object_images/clock02.jpg","img/object_images/Staples01.jpg","img/object_images/clip03.jpg","0","1","1","0","1","0","0.502492200001143","0.451729999971576","0.513888599991333","1","1","1","1","1","1","1","1","1"
"260015","img/object_images/clip03.jpg","img/object_images/clock02.jpg","img/object_images/chess_piece02.jpg","1","0","1","0","0","1","0.513888599991333","0.502492200001143","0.494137899950147","1","1","1","1","1","1","1","1","1"
"260015","img/object_images/chess_piece02.jpg","img/object_images/clip03.jpg","img/object_images/Oven01.jpg","1","1","1","1","0","1","0.494137899950147","0.513888599991333","0.500514700019266","1","1","1","1","1","1","1","1","1"
"260015","img/object_images/Oven01.jpg","img/object_images/chess_piece02.jpg","img/object_images/knit05.jpg","1","1","1","1","1","1","0.500514700019266","0.494137899950147","0.449689799977932","1","1","1","1","1","1","1","1","1"
"260015","img/object_images/knit05.jpg","img/object_images/Oven01.jpg","img/object_images/microscope01.jpg","1","1","1","1","1","0","0.449689799977932","0.500514700019266","0.523968999972567","1","1","1","1","1","1","1","1","1"
"260015","img/object_images/microscope01.jpg","img/object_images/knit05.jpg","img/object_images/floppy_disk03.jpg","1","1","1","0","1","1","0.523968999972567","0.449689799977932","0.41198269999586","1","1","1","1","1","1","1","1","1"
"260015","img/object_images/floppy_disk03.jpg","img/object_images/microscope01.jpg","img/object_images/book03.jpg","1","1","1","1","0","1","0.41198269999586","0.523968999972567","0.489326199982315","1","1","1","1","1","1","1","1","1"
"260015","img/object_images/book03.jpg","img/object_images/floppy_disk03.jpg","img/object_images/compass01.jpg","1","1","1","1","1","1","0.489326199982315","0.41198269999586","0.419726199994329","1","1","1","1","1","1","1","1","1"
"260015","img/object_images/compass01.jpg","img/object_images/book03.jpg","img/object_images/bottle01.jpg","1","1","1","1","1","0","0.419726199994329","0.489326199982315","0.479273299977649","1","1","1","1","1","1","1","1","1"
"260015","img/object_images/bottle01.jpg","img/object_images/compass01.jpg","img/object_images/paint_brush04.jpg","1","1","1","0","1","0","0.479273299977649","0.419726199994329","0.570429100014735","1","1","1","1","1","1","1","1","1"
"260015","img/object_images/paint_brush04.jpg","img/object_images/bottle01.jpg","img/object_images/tv02.jpg","1","1","0","0","0","0","0.570429100014735","0.479273299977649","0.392917099990882","1","1","1","1","1","1","1","1","1"
"260015","img/object_images/tv02.jpg","img/object_images/paint_brush04.jpg","img/object_images/Thermometer01.jpg","0","1","1","0","0","0","0.392917099990882","0.570429100014735","0.497941999987233","1","1","1","1","1","1","1","1","1"
"260015","img/object_images/Thermometer01.jpg","img/object_images/tv02.jpg","img/object_images/bell02.jpg","1","0","1","0","0","0","0.497941999987233","0.392917099990882","0.49659380002413","1","1","1","1","1","1","1","1","1"
"260015","img/object_images/bell02.jpg","img/object_images/Thermometer01.jpg","img/object_images/chair05.jpg","1","1","1","0","0","0","0.49659380002413","0.497941999987233","0.50992069998756","1","1","1","1","1","1","1","1","1"
"260015","img/object_images/chair05.jpg","img/object_images/bell02.jpg","img/object_images/cellphone01.jpg","1","1","1","0","0","1","0.50992069998756","0.49659380002413","0.484973100014031","1","1","1","1","1","1","1","1","1"
"260015","img/object_images/cellphone01.jpg","img/object_images/chair05.jpg","img/object_images/knife04.jpg","1","1","1","1","0","1","0.484973100014031","0.50992069998756","0.468158299976494","1","1","1","1","1","1","1","1","1"
"260015","img/object_images/knife04.jpg","img/object_images/cellphone01.jpg","img/object_images/ear_bud01.jpg","1","1","1","1","1","1","0.468158299976494","0.484973100014031","0.435405600001104","1","1","1","1","1","1","1","1","1"
"260015","img/object_images/ear_bud01.jpg","img/object_images/knife04.jpg","img/object_images/pillows01.jpg","1","1","1","1","1","1","0.435405600001104","0.468158299976494","0.423685999994632","1","1","1","1","1","1","1","1","1"
"260015","img/object_images/pillows01.jpg","img/object_images/ear_bud01.jpg","img/object_images/hammer03.jpg","1","1","0","1","1","1","0.423685999994632","0.435405600001104",NA,"1","1","0","1","1","0","1","1","0"
"260015","img/object_images/hammer03.jpg","img/object_images/pillows01.jpg","img/object_images/wire02.jpg","0","1","1","1","1","1",NA,"0.423685999994632","0.563627600029577","0","1","1","0","1","1","0","1","1"
"260015","img/object_images/wire02.jpg","img/object_images/hammer03.jpg","img/object_images/retainer01.jpg","1","0","1","1","1","0","0.563627600029577",NA,"0.5915471999906","1","0","1","1","0","1","1","0","1"
"260015","img/object_images/retainer01.jpg","img/object_images/wire02.jpg","img/object_images/motorcycle01.jpg","1","1","1","0","1","1","0.5915471999906","0.563627600029577","0.498048299981747","1","1","1","1","1","1","1","1","1"
"260015","img/object_images/motorcycle01.jpg","img/object_images/retainer01.jpg","img/object_images/crutches02.jpg","1","1","1","1","0","0","0.498048299981747","0.5915471999906","0.555371299968101","1","1","1","1","1","1","1","1","1"
"260015","img/object_images/crutches02.jpg","img/object_images/motorcycle01.jpg","img/object_images/usb02.jpg","1","1","1","0","1","0","0.555371299968101","0.498048299981747","0.398010900011286","1","1","1","1","1","1","1","1","1"
"260015","img/object_images/usb02.jpg","img/object_images/crutches02.jpg","img/object_images/pen03.jpg","1","1","1","0","0","0","0.398010900011286","0.555371299968101","0.53058110002894","1","1","1","1","1","1","1","1","1"
"260015","img/object_images/pen03.jpg","img/object_images/usb02.jpg","img/object_images/lid01.jpg","1","1","1","0","0","1","0.53058110002894","0.398010900011286","0.447036399971694","1","1","1","1","1","1","1","1","1"
"260015","img/object_images/lid01.jpg","img/object_images/pen03.jpg","img/object_images/floppy_disk02.jpg","1","1","1","1","0","0","0.447036399971694","0.53058110002894","0.482885400007945","1","1","1","1","1","1","1","1","1"
"260015","img/object_images/floppy_disk02.jpg","img/object_images/lid01.jpg","img/object_images/pitcher01.jpg","1","1","1","0","1","0","0.482885400007945","0.447036399971694","0.508754800015595","1","1","1","1","1","1","1","1","1"
"260015","img/object_images/pitcher01.jpg","img/object_images/floppy_disk02.jpg","img/object_images/note_book01.jpg","1","1","1","0","0","0","0.508754800015595","0.482885400007945","0.478655299986713","1","1","1","1","1","1","1","1","1"
"260015","img/object_images/note_book01.jpg","img/object_images/pitcher01.jpg",NA,"1","1",NA,"0","0",NA,"0.478655299986713","0.508754800015595",NA,"1","1",NA,"1","1",NA,"1","1",NA
"260015","img/object_images/cards01.jpg",NA,"img/object_images/lemon_squeezer02.jpg","1",NA,"1","0",NA,"1","0.386940199998207",NA,"0.538273200043477","1",NA,"1","1",NA,"1","1",NA,"1"
"260015","img/object_images/lemon_squeezer02.jpg","img/object_images/cards01.jpg","img/object_images/satellite01.jpg","1","1","0","1","0","0","0.538273200043477","0.386940199998207","0.364405299944338","1","1","1","1","1","1","1","1","1"
"260015","img/object_images/satellite01.jpg","img/object_images/lemon_squeezer02.jpg","img/object_images/chair04.jpg","0","1","1","0","1","1","0.364405299944338","0.538273200043477","0.561593399965204","1","1","1","1","1","1","1","1","1"
"260015","img/object_images/chair04.jpg","img/object_images/satellite01.jpg","img/object_images/MeasuringCup01.jpg","1","0","1","1","0","1","0.561593399965204","0.364405299944338","0.435292600013781","1","1","1","1","1","1","1","1","1"
"260015","img/object_images/MeasuringCup01.jpg","img/object_images/chair04.jpg","img/object_images/hair_brush05.jpg","1","1","1","1","1","1","0.435292600013781","0.561593399965204","0.431484500004444","1","1","1","1","1","1","1","1","1"
"260015","img/object_images/hair_brush05.jpg","img/object_images/MeasuringCup01.jpg","img/object_images/yarn02.jpg","1","1","1","1","1","0","0.431484500004444","0.435292600013781","0.475344599981327","1","1","1","1","1","1","1","1","1"
"260015","img/object_images/yarn02.jpg","img/object_images/hair_brush05.jpg","img/object_images/ribbon01.jpg","1","1","1","0","1","0","0.475344599981327","0.431484500004444","0.584970800031442","1","1","1","1","1","1","1","1","1"
"260015","img/object_images/ribbon01.jpg","img/object_images/yarn02.jpg","img/object_images/tool11.jpg","1","1","1","0","0","1","0.584970800031442","0.475344599981327","0.437773399986327","1","1","1","1","1","1","1","1","1"
"260015","img/object_images/tool11.jpg","img/object_images/ribbon01.jpg","img/object_images/fan05.jpg","1","1","1","1","0","0","0.437773399986327","0.584970800031442","0.542056299978867","1","1","1","1","1","1","1","1","1"
"260015","img/object_images/fan05.jpg","img/object_images/tool11.jpg","img/object_images/WitchHat02.jpg","1","1","1","0","1","1","0.542056299978867","0.437773399986327","0.378976400010288","1","1","1","1","1","1","1","1","1"
"260015","img/object_images/WitchHat02.jpg","img/object_images/fan05.jpg","img/object_images/mask01.jpg","1","1","1","1","0","0","0.378976400010288","0.542056299978867","0.455125099979341","1","1","1","1","1","1","1","1","1"
"260015","img/object_images/mask01.jpg","img/object_images/WitchHat02.jpg","img/object_images/shoes10.jpg","1","1","1","0","1","0","0.455125099979341","0.378976400010288","0.657195399980992","1","1","1","1","1","1","1","1","1"
"260015","img/object_images/shoes10.jpg","img/object_images/mask01.jpg","img/object_images/belt01.jpg","1","1","1","0","0","0","0.657195399980992","0.455125099979341","0.600823900022078","1","1","1","1","1","1","1","1","1"
"260015","img/object_images/belt01.jpg","img/object_images/shoes10.jpg","img/object_images/binoculars03.jpg","1","1","1","0","0","1","0.600823900022078","0.657195399980992","0.390270499978215","1","1","1","1","1","1","1","1","1"
"260015","img/object_images/binoculars03.jpg","img/object_images/belt01.jpg","img/object_images/shower_head03.jpg","1","1","1","1","0","1","0.390270499978215","0.600823900022078","0.523150600027293","1","1","1","1","1","1","1","1","1"
"260015","img/object_images/shower_head03.jpg","img/object_images/binoculars03.jpg","img/object_images/jewelry07.jpg","1","1","1","1","1","1","0.523150600027293","0.390270499978215","0.422816000005696","1","1","1","1","1","1","1","1","1"
"260015","img/object_images/jewelry07.jpg","img/object_images/shower_head03.jpg","img/object_images/rock03.jpg","1","1","1","1","1","0","0.422816000005696","0.523150600027293","0.510063700028695","1","1","1","1","1","1","1","1","1"
"260015","img/object_images/rock03.jpg","img/object_images/jewelry07.jpg","img/object_images/tv01.jpg","1","1","1","0","1","0","0.510063700028695","0.422816000005696","0.430862899986096","1","1","1","1","1","1","1","1","1"
"260015","img/object_images/tv01.jpg","img/object_images/rock03.jpg","img/object_images/toaster02.jpg","1","1","1","0","0","1","0.430862899986096","0.510063700028695","0.405752099992242","1","1","1","1","1","1","1","1","1"
"260015","img/object_images/toaster02.jpg","img/object_images/tv01.jpg","img/object_images/bag06.jpg","1","1","1","1","0","1","0.405752099992242","0.430862899986096","0.458196700026747","1","1","1","1","1","1","1","1","1"
"260015","img/object_images/bag06.jpg","img/object_images/toaster02.jpg","img/object_images/cutting_board01.jpg","1","1","1","1","1","1","0.458196700026747","0.405752099992242","0.502974900009576","1","1","1","1","1","1","1","1","1"
"260015","img/object_images/cutting_board01.jpg","img/object_images/bag06.jpg","img/object_images/ladle02.jpg","1","1","1","1","1","0","0.502974900009576","0.458196700026747","0.534041100007016","1","1","1","1","1","1","1","1","1"
"260015","img/object_images/ladle02.jpg","img/object_images/cutting_board01.jpg","img/object_images/razor01.jpg","1","1","1","0","1","0","0.534041100007016","0.502974900009576","0.426568099996075","1","1","1","1","1","1","1","1","1"
"260015","img/object_images/razor01.jpg","img/object_images/ladle02.jpg","img/object_images/screwdriver01.jpg","1","1","1","0","0","0","0.426568099996075","0.534041100007016","0.447381100035272","1","1","1","1","1","1","1","1","1"
"260015","img/object_images/screwdriver01.jpg","img/object_images/razor01.jpg","img/object_images/dress03.jpg","1","1","1","0","0","1","0.447381100035272","0.426568099996075","0.501342600036878","1","1","1","1","1","1","1","1","1"
"260015","img/object_images/dress03.jpg","img/object_images/screwdriver01.jpg","img/object_images/jewel01.jpg","1","1","1","1","0","0","0.501342600036878","0.447381100035272","0.493560899980366","1","1","1","1","1","1","1","1","1"
"260015","img/object_images/jewel01.jpg","img/object_images/dress03.jpg","img/object_images/car03.jpg","1","1","1","0","1","0","0.493560899980366","0.501342600036878","0.518044999975245","1","1","1","1","1","1","1","1","1"
"260015","img/object_images/car03.jpg","img/object_images/jewel01.jpg","img/object_images/car04.jpg","1","1","1","0","0","0","0.518044999975245","0.493560899980366","0.646673000010196","1","1","1","1","1","1","1","1","1"
"260015","img/object_images/car04.jpg","img/object_images/car03.jpg","img/object_images/slinky_toy01.jpg","1","1","1","0","0","1","0.646673000010196","0.518044999975245","0.515016700024717","1","1","1","1","1","1","1","1","1"
"260015","img/object_images/slinky_toy01.jpg","img/object_images/car04.jpg","img/object_images/key02.jpg","1","1","1","1","0","1","0.515016700024717","0.646673000010196","0.470547800010536","1","1","1","1","1","1","1","1","1"
"260015","img/object_images/key02.jpg","img/object_images/slinky_toy01.jpg","img/object_images/ice_tray03.jpg","1","1","1","1","1","1","0.470547800010536","0.515016700024717","0.40647769998759","1","1","1","1","1","1","1","1","1"
"260015","img/object_images/ice_tray03.jpg","img/object_images/key02.jpg",NA,"1","1",NA,"1","1",NA,"0.40647769998759","0.470547800010536",NA,"1","1",NA,"1","1",NA,"1","1",NA
"260015","img/object_images/decorative02.jpg",NA,"img/object_images/couch04.jpg","1",NA,"1","0",NA,"1","0.485898200015072",NA,"0.399545699998271","1",NA,"1","1",NA,"1","1",NA,"1"
"260015","img/object_images/couch04.jpg","img/object_images/decorative02.jpg","img/object_images/airfryer01.jpg","1","1","1","1","0","0","0.399545699998271","0.485898200015072","0.289086100005079","1","1","1","1","1","1","1","1","1"
"260015","img/object_images/airfryer01.jpg","img/object_images/couch04.jpg","img/object_images/basketball_hoop02.jpg","1","1","1","0","1","0","0.289086100005079","0.399545699998271","0.462579899991397","1","1","1","1","1","1","1","1","1"
"260015","img/object_images/basketball_hoop02.jpg","img/object_images/airfryer01.jpg","img/object_images/brief_case02.jpg","1","1","1","0","0","1","0.462579899991397","0.289086100005079","0.38617269997485","1","1","1","1","1","1","1","1","1"
"260015","img/object_images/brief_case02.jpg","img/object_images/basketball_hoop02.jpg","img/object_images/hat02.jpg","1","1","1","1","0","0","0.38617269997485","0.462579899991397","0.443278899998404","1","1","1","1","1","1","1","1","1"
"260015","img/object_images/hat02.jpg","img/object_images/brief_case02.jpg","img/object_images/Woopie01.jpg","1","1","1","0","1","1","0.443278899998404","0.38617269997485","0.417473400011659","1","1","1","1","1","1","1","1","1"
"260015","img/object_images/Woopie01.jpg","img/object_images/hat02.jpg","img/object_images/bottle12.jpg","1","1","1","1","0","1","0.417473400011659","0.443278899998404","0.399986899981741","1","1","1","1","1","1","1","1","1"
"260015","img/object_images/bottle12.jpg","img/object_images/Woopie01.jpg","img/object_images/helmet05.jpg","1","1","1","1","1","1","0.399986899981741","0.417473400011659","0.379611500015017","1","1","1","1","1","1","1","1","1"
"260015","img/object_images/helmet05.jpg","img/object_images/bottle12.jpg","img/object_images/guitar01.jpg","1","1","1","1","1","1","0.379611500015017","0.399986899981741","0.362464700010605","1","1","1","1","1","1","1","1","1"
"260015","img/object_images/guitar01.jpg","img/object_images/helmet05.jpg","img/object_images/pitcher03.jpg","1","1","1","1","1","1","0.362464700010605","0.379611500015017","0.34156739996979","1","1","1","1","1","1","1","1","1"
"260015","img/object_images/pitcher03.jpg","img/object_images/guitar01.jpg","img/object_images/lamp01.jpg","1","1","1","1","1","1","0.34156739996979","0.362464700010605","0.529873499996029","1","1","1","1","1","1","1","1","1"
"260015","img/object_images/lamp01.jpg","img/object_images/pitcher03.jpg","img/object_images/drone02.jpg","1","1","1","1","1","0","0.529873499996029","0.34156739996979","0.465233099996112","1","1","1","1","1","1","1","1","1"
"260015","img/object_images/drone02.jpg","img/object_images/lamp01.jpg","img/object_images/toy_train02.jpg","1","1","1","0","1","1","0.465233099996112","0.529873499996029","0.399496700032614","1","1","1","1","1","1","1","1","1"
"260015","img/object_images/toy_train02.jpg","img/object_images/drone02.jpg","img/object_images/toilet_paper01.jpg","1","1","1","1","0","1","0.399496700032614","0.465233099996112","0.49423209996894","1","1","1","1","1","1","1","1","1"
"260015","img/object_images/toilet_paper01.jpg","img/object_images/toy_train02.jpg","img/object_images/lantern01.jpg","1","1","1","1","1","1","0.49423209996894","0.399496700032614","0.342422599962447","1","1","1","1","1","1","1","1","1"
"260015","img/object_images/lantern01.jpg","img/object_images/toilet_paper01.jpg","img/object_images/video_game06.jpg","1","1","1","1","1","0","0.342422599962447","0.49423209996894","0.519668499997351","1","1","1","1","1","1","1","1","1"
"260015","img/object_images/video_game06.jpg","img/object_images/lantern01.jpg","img/object_images/broom01.jpg","1","1","1","0","1","1","0.519668499997351","0.342422599962447","0.51002139999764","1","1","1","1","1","1","1","1","1"
"260015","img/object_images/broom01.jpg","img/object_images/video_game06.jpg","img/object_images/car02.jpg","1","1","1","1","0","0","0.51002139999764","0.519668499997351","0.424841000000015","1","1","1","1","1","1","1","1","1"
"260015","img/object_images/car02.jpg","img/object_images/broom01.jpg","img/object_images/container01.jpg","1","1","1","0","1","0","0.424841000000015","0.51002139999764","0.650221799965948","1","1","1","1","1","1","1","1","1"
"260015","img/object_images/container01.jpg","img/object_images/car02.jpg","img/object_images/pot01.jpg","1","1","1","0","0","0","0.650221799965948","0.424841000000015","0.536055699980352","1","1","1","1","1","1","1","1","1"
"260015","img/object_images/pot01.jpg","img/object_images/container01.jpg","img/object_images/cochlear_implant01.jpg","1","1","1","0","0","0","0.536055699980352","0.650221799965948","0.43399639998097","1","1","1","1","1","1","1","1","1"
"260015","img/object_images/cochlear_implant01.jpg","img/object_images/pot01.jpg","img/object_images/ironing_table02.jpg","1","1","1","0","0","0","0.43399639998097","0.536055699980352","0.556094600004144","1","1","1","1","1","1","1","1","1"
"260015","img/object_images/ironing_table02.jpg","img/object_images/cochlear_implant01.jpg","img/object_images/ball01.jpg","1","1","1","0","0","1","0.556094600004144","0.43399639998097","0.355181999970227","1","1","1","1","1","1","1","1","1"
"260015","img/object_images/ball01.jpg","img/object_images/ironing_table02.jpg","img/object_images/gloves05.jpg","1","1","1","1","0","1","0.355181999970227","0.556094600004144","0.381157299969345","1","1","1","1","1","1","1","1","1"
"260015","img/object_images/gloves05.jpg","img/object_images/ball01.jpg","img/object_images/Recycling01.jpg","1","1","1","1","1","1","0.381157299969345","0.355181999970227","0.47182499995688","1","1","1","1","1","1","1","1","1"
"260015","img/object_images/Recycling01.jpg","img/object_images/gloves05.jpg","img/object_images/chair01.jpg","1","1","1","1","1","0","0.47182499995688","0.381157299969345","0.459636099985801","1","1","1","1","1","1","1","1","1"
"260015","img/object_images/chair01.jpg","img/object_images/Recycling01.jpg","img/object_images/razor03.jpg","1","1","0","0","1","0","0.459636099985801","0.47182499995688","0.414328799990471","1","1","1","1","1","1","1","1","2"
"260015","img/object_images/razor03.jpg","img/object_images/chair01.jpg","img/object_images/tie01.jpg","0","1","1","0","0","0","0.414328799990471","0.459636099985801","0.54900939995423","1","1","1","1","1","1","2","1","1"
"260015","img/object_images/tie01.jpg","img/object_images/razor03.jpg","img/object_images/soap01.jpg","1","0","1","0","0","0","0.54900939995423","0.414328799990471","0.478341399983037","1","1","1","1","1","1","1","2","1"
"260015","img/object_images/soap01.jpg","img/object_images/tie01.jpg","img/object_images/brief_case01.jpg","1","1","1","0","0","0","0.478341399983037","0.54900939995423","0.466672300011851","1","1","1","1","1","1","1","1","1"
"260015","img/object_images/brief_case01.jpg","img/object_images/soap01.jpg","img/object_images/Wisk01.jpg","1","1","1","0","0","1","0.466672300011851","0.478341399983037","0.59725409996463","1","1","1","1","1","1","1","1","1"
"260015","img/object_images/Wisk01.jpg","img/object_images/brief_case01.jpg",NA,"1","1",NA,"1","0",NA,"0.59725409996463","0.466672300011851",NA,"1","1",NA,"1","1",NA,"1","1",NA
"260015","img/object_images/ruler02.jpg",NA,"img/object_images/clipboard01.jpg","1",NA,"1","1",NA,"1","0.384296799951699",NA,"0.376093700004276","1",NA,"1","1",NA,"1","1",NA,"1"
"260015","img/object_images/clipboard01.jpg","img/object_images/ruler02.jpg","img/object_images/pan03.jpg","1","1","1","1","1","1","0.376093700004276","0.384296799951699","0.374151600000914","1","1","1","1","1","1","1","1","1"
"260015","img/object_images/pan03.jpg","img/object_images/clipboard01.jpg","img/object_images/lemon_squeezer01.jpg","1","1","1","1","1","1","0.374151600000914","0.376093700004276","0.468480899988208","1","1","1","1","1","1","1","1","1"
"260015","img/object_images/lemon_squeezer01.jpg","img/object_images/pan03.jpg","img/object_images/candle02.jpg","1","1","1","1","1","0","0.468480899988208","0.374151600000914","0.44967339996947","1","1","1","1","1","1","1","1","1"
"260015","img/object_images/candle02.jpg","img/object_images/lemon_squeezer01.jpg","img/object_images/tool20.jpg","1","1","1","0","1","0","0.44967339996947","0.468480899988208","0.454256700002588","1","1","1","1","1","1","1","1","1"
"260015","img/object_images/tool20.jpg","img/object_images/candle02.jpg","img/object_images/bow_tie03.jpg","1","1","1","0","0","1","0.454256700002588","0.44967339996947","0.448148499999661","1","1","1","1","1","1","1","1","1"
"260015","img/object_images/bow_tie03.jpg","img/object_images/tool20.jpg","img/object_images/sink_filter01 (1).jpg","1","1","1","1","0","0","0.448148499999661","0.454256700002588","0.483092599955853","1","1","1","1","1","1","1","1","1"
"260015","img/object_images/sink_filter01 (1).jpg","img/object_images/bow_tie03.jpg","img/object_images/vase02.jpg","1","1","1","0","1","1","0.483092599955853","0.448148499999661","0.45606300001964","1","1","1","1","1","1","1","1","1"
"260015","img/object_images/vase02.jpg","img/object_images/sink_filter01 (1).jpg","img/object_images/camera05.jpg","1","1","1","1","0","0","0.45606300001964","0.483092599955853","0.462902200000826","1","1","1","1","1","1","1","1","1"
"260015","img/object_images/camera05.jpg","img/object_images/vase02.jpg","img/object_images/cup01.jpg","1","1","1","0","1","0","0.462902200000826","0.45606300001964","0.527645499969367","1","1","1","1","1","1","1","1","1"
"260015","img/object_images/cup01.jpg","img/object_images/camera05.jpg","img/object_images/hat13.jpg","1","1","1","0","0","1","0.527645499969367","0.462902200000826","0.367527899972629","1","1","1","1","1","1","1","1","1"
"260015","img/object_images/hat13.jpg","img/object_images/cup01.jpg","img/object_images/duster01.jpg","1","1","1","1","0","0","0.367527899972629","0.527645499969367","0.460815300000831","1","1","1","1","1","1","1","1","1"
"260015","img/object_images/duster01.jpg","img/object_images/hat13.jpg","img/object_images/knife01.jpg","1","1","1","0","1","1","0.460815300000831","0.367527899972629","0.400216499983799","1","1","1","1","1","1","1","1","1"
"260015","img/object_images/knife01.jpg","img/object_images/duster01.jpg","img/object_images/pen06.jpg","1","1","1","1","0","0","0.400216499983799","0.460815300000831","0.707490200002212","1","1","1","1","1","1","1","1","1"
"260015","img/object_images/pen06.jpg","img/object_images/knife01.jpg","img/object_images/glasses03.jpg","1","1","1","0","1","0","0.707490200002212","0.400216499983799","0.485174400033429","1","1","1","1","1","1","1","1","1"
"260015","img/object_images/glasses03.jpg","img/object_images/pen06.jpg","img/object_images/hat09.jpg","1","1","1","0","0","0","0.485174400033429","0.707490200002212","0.468655300035607","1","1","1","1","1","1","1","1","1"
"260015","img/object_images/hat09.jpg","img/object_images/glasses03.jpg","img/object_images/sign02.jpg","1","1","1","0","0","0","0.468655300035607","0.485174400033429","0.300250799977221","1","1","1","1","1","1","1","1","1"
"260015","img/object_images/sign02.jpg","img/object_images/hat09.jpg","img/object_images/bag04.jpg","1","1","0","0","0","0","0.300250799977221","0.468655300035607","0.314193299971521","1","1","1","1","1","1","1","1","1"
"260015","img/object_images/bag04.jpg","img/object_images/sign02.jpg","img/object_images/office_supplies01.jpg","0","1","1","0","0","1","0.314193299971521","0.300250799977221","0.520596100017428","1","1","1","1","1","1","1","1","1"
"260015","img/object_images/office_supplies01.jpg","img/object_images/bag04.jpg","img/object_images/hammer02.jpg","1","0","1","1","0","0","0.520596100017428","0.314193299971521","0.430760800023563","1","1","1","1","1","1","1","1","1"
"260015","img/object_images/hammer02.jpg","img/object_images/office_supplies01.jpg","img/object_images/Confetti 01.jpg","1","1","1","0","1","0","0.430760800023563","0.520596100017428","0.492371900007129","1","1","1","1","1","1","1","1","1"
"260015","img/object_images/Confetti 01.jpg","img/object_images/hammer02.jpg","img/object_images/spray_can01.jpg","1","1","1","0","0","0","0.492371900007129","0.430760800023563","0.549555399978999","1","1","1","1","1","1","1","1","1"
"260015","img/object_images/spray_can01.jpg","img/object_images/Confetti 01.jpg","img/object_images/board01.jpg","1","1","1","0","0","1","0.549555399978999","0.492371900007129","0.356308699992951","1","1","1","1","1","1","1","1","1"
"260015","img/object_images/board01.jpg","img/object_images/spray_can01.jpg","img/object_images/razor02.jpg","1","1","1","1","0","1","0.356308699992951","0.549555399978999","0.43167010002071","1","1","1","1","1","1","1","1","1"
"260015","img/object_images/razor02.jpg","img/object_images/board01.jpg","img/object_images/Candle_Holder01.jpg","1","1","0","1","1","0","0.43167010002071","0.356308699992951","0.386007499997504","1","1","1","1","1","1","1","1","1"
"260015","img/object_images/Candle_Holder01.jpg","img/object_images/razor02.jpg","img/object_images/socks01.jpg","0","1","1","0","1","1","0.386007499997504","0.43167010002071","0.449479800008703","1","1","1","1","1","1","1","1","1"
"260015","img/object_images/socks01.jpg","img/object_images/Candle_Holder01.jpg","img/object_images/dust_pan01.jpg","1","0","1","1","0","1","0.449479800008703","0.386007499997504","0.453062599990517","1","1","1","1","1","1","1","1","1"
"260015","img/object_images/dust_pan01.jpg","img/object_images/socks01.jpg","img/object_images/tool13.jpg","1","1","1","1","1","1","0.453062599990517","0.449479800008703","0.515785900002811","1","1","1","1","1","1","1","1","1"
"260015","img/object_images/tool13.jpg","img/object_images/dust_pan01.jpg","img/object_images/perfume01.jpg","1","1","1","1","1","0","0.515785900002811","0.453062599990517","0.807353699987289","1","1","1","1","1","1","1","1","1"
"260015","img/object_images/perfume01.jpg","img/object_images/tool13.jpg","img/object_images/video_game02.jpg","1","1","1","0","1","1","0.807353699987289","0.515785900002811","0.530595500022173","1","1","1","1","1","1","1","1","1"
"260015","img/object_images/video_game02.jpg","img/object_images/perfume01.jpg","img/object_images/floss01.jpg","1","1","1","1","0","1","0.530595500022173","0.807353699987289","0.404234600020572","1","1","1","1","1","1","1","1","1"
"260015","img/object_images/floss01.jpg","img/object_images/video_game02.jpg",NA,"1","1",NA,"1","1",NA,"0.404234600020572","0.530595500022173",NA,"1","1",NA,"1","1",NA,"1","1",NA
"260015","img/object_images/joystick03.jpg",NA,"img/object_images/note_book02.jpg","1",NA,"0","1",NA,"0","0.412868599989451",NA,"0.441086200007703","1",NA,"1","1",NA,"1","1",NA,"1"
"260015","img/object_images/note_book02.jpg","img/object_images/joystick03.jpg","img/object_images/water_gun01.jpg","0","1","1","0","1","1","0.441086200007703","0.412868599989451","0.458462500013411","1","1","1","1","1","1","1","1","1"
"260015","img/object_images/water_gun01.jpg","img/object_images/note_book02.jpg","img/object_images/helmet03.jpg","1","0","1","1","0","1","0.458462500013411","0.441086200007703","0.515837299986742","1","1","1","1","1","1","1","1","1"
"260015","img/object_images/helmet03.jpg","img/object_images/water_gun01.jpg","img/object_images/fan01.jpg","1","1","1","1","1","0","0.515837299986742","0.458462500013411","0.558300100034103","1","1","1","1","1","1","1","1","1"
"260015","img/object_images/fan01.jpg","img/object_images/helmet03.jpg","img/object_images/pitcher07.jpg","1","1","1","0","1","1","0.558300100034103","0.515837299986742","0.487735999980941","1","1","1","1","1","1","1","1","1"
"260015","img/object_images/pitcher07.jpg","img/object_images/fan01.jpg","img/object_images/lock03.jpg","1","1","1","1","0","1","0.487735999980941","0.558300100034103","0.428793500002939","1","1","1","1","1","1","1","1","1"
"260015","img/object_images/lock03.jpg","img/object_images/pitcher07.jpg","img/object_images/Eyeliner01.jpg","1","1","1","1","1","1","0.428793500002939","0.487735999980941","0.374058499990497","1","1","1","1","1","1","1","1","1"
"260015","img/object_images/Eyeliner01.jpg","img/object_images/lock03.jpg","img/object_images/tennis_racket01.jpg","1","1","1","1","1","1","0.374058499990497","0.428793500002939","0.368658200022765","1","1","1","1","1","1","1","1","1"
"260015","img/object_images/tennis_racket01.jpg","img/object_images/Eyeliner01.jpg","img/object_images/trumpet01.jpg","1","1","1","1","1","0","0.368658200022765","0.374058499990497","0.520214000018314","1","1","1","1","1","1","1","1","1"
"260015","img/object_images/trumpet01.jpg","img/object_images/tennis_racket01.jpg","img/object_images/ToolBag01.jpg","1","1","1","0","1","0","0.520214000018314","0.368658200022765","0.482629799982533","1","1","1","1","1","1","1","1","1"
"260015","img/object_images/ToolBag01.jpg","img/object_images/trumpet01.jpg","img/object_images/badminton01.jpg","1","1","1","0","0","1","0.482629799982533","0.520214000018314","0.398982500017155","1","1","1","1","1","1","1","1","1"
"260015","img/object_images/badminton01.jpg","img/object_images/ToolBag01.jpg","img/object_images/Safe01.jpg","1","1","1","1","0","1","0.398982500017155","0.482629799982533","0.378686900017783","1","1","1","1","1","1","1","1","1"
"260015","img/object_images/Safe01.jpg","img/object_images/badminton01.jpg","img/object_images/origami01.jpg","1","1","1","1","1","1","0.378686900017783","0.398982500017155","0.372543399978895","1","1","1","1","1","1","1","1","1"
"260015","img/object_images/origami01.jpg","img/object_images/Safe01.jpg","img/object_images/piano03.jpg","1","1","1","1","1","0","0.372543399978895","0.378686900017783","0.570534900005441","1","1","1","1","1","1","1","1","1"
"260015","img/object_images/piano03.jpg","img/object_images/origami01.jpg","img/object_images/bucket01.jpg","1","1","1","0","1","1","0.570534900005441","0.372543399978895","0.49316940002609","1","1","1","1","1","1","1","1","1"
"260015","img/object_images/bucket01.jpg","img/object_images/piano03.jpg","img/object_images/shovel01.jpg","1","1","1","1","0","0","0.49316940002609","0.570534900005441","0.432099399971776","1","1","1","1","1","1","1","1","1"
"260015","img/object_images/shovel01.jpg","img/object_images/bucket01.jpg","img/object_images/bookmark01.jpg","1","1","1","0","1","0","0.432099399971776","0.49316940002609","0.471985100011807","1","1","1","1","1","1","1","1","1"
"260015","img/object_images/bookmark01.jpg","img/object_images/shovel01.jpg","img/object_images/frame01.jpg","1","1","1","0","0","1","0.471985100011807","0.432099399971776","0.454586500010919","1","1","1","1","1","1","1","1","1"
"260015","img/object_images/frame01.jpg","img/object_images/bookmark01.jpg","img/object_images/belt03.jpg","1","1","1","1","0","0","0.454586500010919","0.471985100011807","0.399855500028934","1","1","1","1","1","1","1","1","1"
"260015","img/object_images/belt03.jpg","img/object_images/frame01.jpg","img/object_images/dice01.jpg","1","1","1","0","1","0","0.399855500028934","0.454586500010919","0.426195100008044","1","1","1","1","1","1","1","1","1"
"260015","img/object_images/dice01.jpg","img/object_images/belt03.jpg","img/object_images/Shoes05.jpg","1","1","1","0","0","0","0.426195100008044","0.399855500028934","0.484001600008924","1","1","1","1","1","1","1","1","1"
"260015","img/object_images/Shoes05.jpg","img/object_images/dice01.jpg","img/object_images/headset02.jpg","1","1","0","0","0","0","0.484001600008924","0.426195100008044","0.354857700003777","1","1","1","1","1","1","1","1","1"
"260015","img/object_images/headset02.jpg","img/object_images/Shoes05.jpg","img/object_images/jewel02.jpg","0","1","1","0","0","0","0.354857700003777","0.484001600008924","0.47626989998389","1","1","1","1","1","1","1","1","1"
"260015","img/object_images/jewel02.jpg","img/object_images/headset02.jpg","img/object_images/phone04.jpg","1","0","1","0","0","1","0.47626989998389","0.354857700003777","0.66949439997552","1","1","1","1","1","1","1","1","1"
"260015","img/object_images/phone04.jpg","img/object_images/jewel02.jpg","img/object_images/usb03.jpg","1","1","0","1","0","0","0.66949439997552","0.47626989998389","0.43381869996665","1","1","1","1","1","1","1","1","1"
"260015","img/object_images/usb03.jpg","img/object_images/phone04.jpg","img/object_images/TreeSlice01.jpg","0","1","1","0","1","1","0.43381869996665","0.66949439997552","0.461138999962714","1","1","1","1","1","1","1","1","1"
"260015","img/object_images/TreeSlice01.jpg","img/object_images/usb03.jpg","img/object_images/yoga_mat01.jpg","1","0","1","1","0","0","0.461138999962714","0.43381869996665","0.460765400028322","1","1","1","1","1","1","1","1","1"
"260015","img/object_images/yoga_mat01.jpg","img/object_images/TreeSlice01.jpg","img/object_images/egg_basket01.jpg","1","1","1","0","1","1","0.460765400028322","0.461138999962714","0.41862900002161","1","1","1","1","1","1","1","1","1"
"260015","img/object_images/egg_basket01.jpg","img/object_images/yoga_mat01.jpg","img/object_images/scale02.jpg","1","1","1","1","0","0","0.41862900002161","0.460765400028322","0.399585300008766","1","1","1","1","1","1","1","1","1"
"260015","img/object_images/scale02.jpg","img/object_images/egg_basket01.jpg","img/object_images/bottle06.jpg","1","1","0","0","1","0","0.399585300008766","0.41862900002161","0.396918899961747","1","1","1","1","1","1","1","1","1"
"260015","img/object_images/bottle06.jpg","img/object_images/scale02.jpg","img/object_images/nut_cracker01.jpg","0","1","1","0","0","1","0.396918899961747","0.399585300008766","0.488287699990906","1","1","1","1","1","1","1","1","1"
"260015","img/object_images/nut_cracker01.jpg","img/object_images/bottle06.jpg",NA,"1","0",NA,"1","0",NA,"0.488287699990906","0.396918899961747",NA,"1","1",NA,"1","1",NA,"1","1",NA
"260015","img/object_images/stove01.jpg",NA,"img/object_images/laptop03.jpg","1",NA,"1","0",NA,"1","0.478681499953382",NA,"0.483092100010253","1",NA,"1","1",NA,"1","1",NA,"1"
"260015","img/object_images/laptop03.jpg","img/object_images/stove01.jpg","img/object_images/helmet02.jpg","1","1","0","1","0","0","0.483092100010253","0.478681499953382","0.391519299999345","1","1","1","1","1","1","1","1","1"
"260015","img/object_images/helmet02.jpg","img/object_images/laptop03.jpg","img/object_images/hair_dryer01.jpg","0","1","1","0","1","0","0.391519299999345","0.483092100010253","0.476585600001272","1","1","1","1","1","1","1","1","1"
"260015","img/object_images/hair_dryer01.jpg","img/object_images/helmet02.jpg","img/object_images/Vest02.jpg","1","0","1","0","0","0","0.476585600001272","0.391519299999345","0.549151799990796","1","1","1","1","1","1","1","1","1"
"260015","img/object_images/Vest02.jpg","img/object_images/hair_dryer01.jpg","img/object_images/microphone03.jpg","1","1","1","0","0","1","0.549151799990796","0.476585600001272","0.396453200024553","1","1","1","1","1","1","1","1","1"
"260015","img/object_images/microphone03.jpg","img/object_images/Vest02.jpg","img/object_images/shoes08.jpg","1","1","1","1","0","1","0.396453200024553","0.549151799990796","0.437729500001296","1","1","1","1","1","1","1","1","1"
"260015","img/object_images/shoes08.jpg","img/object_images/microphone03.jpg","img/object_images/trash_can03.jpg","1","1","1","1","1","1","0.437729500001296","0.396453200024553","0.413814500032458","1","1","1","1","1","1","1","1","1"
"260015","img/object_images/trash_can03.jpg","img/object_images/shoes08.jpg","img/object_images/backpack03.jpg","1","1","1","1","1","1","0.413814500032458","0.437729500001296","0.383514600049239","1","1","1","1","1","1","1","1","1"
"260015","img/object_images/backpack03.jpg","img/object_images/trash_can03.jpg","img/object_images/spatula02.jpg","1","1","1","1","1","1","0.383514600049239","0.413814500032458","0.432235999964178","1","1","1","1","1","1","1","1","1"
"260015","img/object_images/spatula02.jpg","img/object_images/backpack03.jpg","img/object_images/combs01.jpg","1","1","1","1","1","1","0.432235999964178","0.383514600049239","0.473418099980336","1","1","1","1","1","1","1","1","1"
"260015","img/object_images/combs01.jpg","img/object_images/spatula02.jpg","img/object_images/ball02.jpg","1","1","1","1","1","1","0.473418099980336","0.432235999964178","0.456886100000702","1","1","1","1","1","1","1","1","1"
"260015","img/object_images/ball02.jpg","img/object_images/combs01.jpg","img/object_images/chess_piece01.jpg","1","1","1","1","1","0","0.456886100000702","0.473418099980336","0.56318990001455","1","1","1","1","1","1","1","1","1"
"260015","img/object_images/chess_piece01.jpg","img/object_images/ball02.jpg","img/object_images/umbrella01.jpg","1","1","1","0","1","0","0.56318990001455","0.456886100000702","0.377730900014285","1","1","1","1","1","1","1","1","1"
"260015","img/object_images/umbrella01.jpg","img/object_images/chess_piece01.jpg","img/object_images/gift_box05.jpg","1","1","1","0","0","0","0.377730900014285","0.56318990001455","0.427855100017041","1","1","1","1","1","1","1","1","1"
"260015","img/object_images/gift_box05.jpg","img/object_images/umbrella01.jpg","img/object_images/accardion01.jpg","1","1","1","0","0","1","0.427855100017041","0.377730900014285","0.455885700008366","1","1","1","1","1","1","1","1","1"
"260015","img/object_images/accardion01.jpg","img/object_images/gift_box05.jpg","img/object_images/jewel03.jpg","1","1","1","1","0","1","0.455885700008366","0.427855100017041","0.418277200020384","1","1","1","1","1","1","1","1","1"
"260015","img/object_images/jewel03.jpg","img/object_images/accardion01.jpg","img/object_images/lock01.jpg","1","1","1","1","1","0","0.418277200020384","0.455885700008366","0.496158200025093","1","1","1","1","1","1","1","1","1"
"260015","img/object_images/lock01.jpg","img/object_images/jewel03.jpg","img/object_images/bucket02.jpg","1","1","1","0","1","1","0.496158200025093","0.418277200020384","0.449254099978134","1","1","1","1","1","1","1","1","1"
"260015","img/object_images/bucket02.jpg","img/object_images/lock01.jpg","img/object_images/Lint_Roller02.jpg","1","1","1","1","0","0","0.449254099978134","0.496158200025093","0.561600999964867","1","1","1","1","1","1","1","1","1"
"260015","img/object_images/Lint_Roller02.jpg","img/object_images/bucket02.jpg","img/object_images/fan04.jpg","1","1","1","0","1","0","0.561600999964867","0.449254099978134","0.759762500005309","1","1","1","1","1","1","1","1","1"
"260015","img/object_images/fan04.jpg","img/object_images/Lint_Roller02.jpg","img/object_images/chair02.jpg","1","1","1","0","0","1","0.759762500005309","0.561600999964867","0.621802099980414","1","1","1","1","1","1","1","1","1"
"260015","img/object_images/chair02.jpg","img/object_images/fan04.jpg","img/object_images/towels01.jpg","1","1","1","1","0","0","0.621802099980414","0.759762500005309","0.473839899990708","1","1","1","1","1","1","1","1","1"
"260015","img/object_images/towels01.jpg","img/object_images/chair02.jpg","img/object_images/hair_brush02.jpg","1","1","1","0","1","0","0.473839899990708","0.621802099980414","1.29305139998905","1","1","1","1","1","1","1","1","1"
"260015","img/object_images/hair_brush02.jpg","img/object_images/towels01.jpg","img/object_images/surf_board01.jpg","1","1","1","0","0","1","1.29305139998905","0.473839899990708","0.493150299997069","1","1","1","1","1","1","1","1","1"
"260015","img/object_images/surf_board01.jpg","img/object_images/hair_brush02.jpg","img/object_images/robe01.jpg","1","1","1","1","0","1","0.493150299997069","1.29305139998905","0.479874100012239","1","1","1","1","1","1","1","1","1"
"260015","img/object_images/robe01.jpg","img/object_images/surf_board01.jpg","img/object_images/calculator01.jpg","1","1","1","1","1","1","0.479874100012239","0.493150299997069","0.458844700013287","1","1","1","1","1","1","1","1","1"
"260015","img/object_images/calculator01.jpg","img/object_images/robe01.jpg","img/object_images/vase01.jpg","1","1","0","1","1","0","0.458844700013287","0.479874100012239","0.502237999986392","1","1","1","1","1","1","1","1","1"
"260015","img/object_images/vase01.jpg","img/object_images/calculator01.jpg","img/object_images/laptop01.jpg","0","1","1","0","1","0","0.502237999986392","0.458844700013287","0.555667800013907","1","1","1","1","1","1","1","1","1"
"260015","img/object_images/laptop01.jpg","img/object_images/vase01.jpg","img/object_images/trash_can05.jpg","1","0","1","0","0","1","0.555667800013907","0.502237999986392","0.451683999970555","1","1","1","1","1","1","1","1","1"
"260015","img/object_images/trash_can05.jpg","img/object_images/laptop01.jpg","img/object_images/pitcher05.jpg","1","1","1","1","0","0","0.451683999970555","0.555667800013907","0.452064300014172","1","1","1","1","1","1","1","1","1"
"260015","img/object_images/pitcher05.jpg","img/object_images/trash_can05.jpg","img/object_images/toy05.jpg","1","1","1","0","1","0","0.452064300014172","0.451683999970555","0.522422699956223","1","1","1","1","1","1","1","1","1"
"260015","img/object_images/toy05.jpg","img/object_images/pitcher05.jpg",NA,"1","1",NA,"0","0",NA,"0.522422699956223","0.452064300014172",NA,"1","1",NA,"1","1",NA,"1","1",NA
"260015","img/object_images/boat02.jpg",NA,"img/object_images/coloring_pencil02.jpg","1",NA,"1","1",NA,"0","0.507142199960072",NA,"0.560223699954804","1",NA,"1","1",NA,"1","1",NA,"1"
"260015","img/object_images/coloring_pencil02.jpg","img/object_images/boat02.jpg","img/object_images/shoes07.jpg","1","1","1","0","1","0","0.560223699954804","0.507142199960072","0.447906200017314","1","1","1","1","1","1","1","1","1"
"260015","img/object_images/shoes07.jpg","img/object_images/coloring_pencil02.jpg","img/object_images/bottle02.jpg","1","1","1","0","0","1","0.447906200017314","0.560223699954804","0.478096799983177","1","1","1","1","1","1","1","1","1"
"260015","img/object_images/bottle02.jpg","img/object_images/shoes07.jpg","img/object_images/cellphone03.jpg","1","1","1","1","0","0","0.478096799983177","0.447906200017314","0.483751300023869","1","1","1","1","1","1","1","1","1"
"260015","img/object_images/cellphone03.jpg","img/object_images/bottle02.jpg","img/object_images/wagon_cart03.jpg","1","1","1","0","1","1","0.483751300023869","0.478096799983177","0.463143799977843","1","1","1","1","1","1","1","1","1"
"260015","img/object_images/wagon_cart03.jpg","img/object_images/cellphone03.jpg","img/object_images/toilet_paper_dispenser01.jpg","1","1","1","1","0","1","0.463143799977843","0.483751300023869","0.50195890001487","1","1","1","1","1","1","1","1","1"
"260015","img/object_images/toilet_paper_dispenser01.jpg","img/object_images/wagon_cart03.jpg","img/object_images/scoreboard01.jpg","1","1","1","1","1","1","0.50195890001487","0.463143799977843","0.392800000030547","1","1","1","1","1","1","1","1","1"
"260015","img/object_images/scoreboard01.jpg","img/object_images/toilet_paper_dispenser01.jpg","img/object_images/helmet04.jpg","1","1","1","1","1","1","0.392800000030547","0.50195890001487","0.531535899965093","1","1","1","1","1","1","1","1","1"
"260015","img/object_images/helmet04.jpg","img/object_images/scoreboard01.jpg","img/object_images/pen05.jpg","1","1","1","1","1","0","0.531535899965093","0.392800000030547","0.480749999987893","1","1","1","1","1","1","1","1","1"
"260015","img/object_images/pen05.jpg","img/object_images/helmet04.jpg","img/object_images/WoodBox01.jpg","1","1","1","0","1","0","0.480749999987893","0.531535899965093","0.478893199993763","1","1","1","1","1","1","1","1","1"
"260015","img/object_images/WoodBox01.jpg","img/object_images/pen05.jpg","img/object_images/tie02.jpg","1","1","1","0","0","0","0.478893199993763","0.480749999987893","0.505372300045565","1","1","1","1","1","1","1","1","1"
"260015","img/object_images/tie02.jpg","img/object_images/WoodBox01.jpg","img/object_images/dog_leash01.jpg","1","1","1","0","0","0","0.505372300045565","0.478893199993763","0.658701699983794","1","1","1","1","1","1","1","1","1"
"260015","img/object_images/dog_leash01.jpg","img/object_images/tie02.jpg","img/object_images/tool19.jpg","1","1","1","0","0","1","0.658701699983794","0.505372300045565","0.437058300012723","1","1","1","1","1","1","1","1","1"
"260015","img/object_images/tool19.jpg","img/object_images/dog_leash01.jpg","img/object_images/knit01.jpg","1","1","1","1","0","0","0.437058300012723","0.658701699983794","0.537232699978631","1","1","1","1","1","1","1","1","1"
"260015","img/object_images/knit01.jpg","img/object_images/tool19.jpg","img/object_images/bicycle01.jpg","1","1","1","0","1","1","0.537232699978631","0.437058300012723","0.46062929998152","1","1","1","1","1","1","1","1","1"
"260015","img/object_images/bicycle01.jpg","img/object_images/knit01.jpg","img/object_images/boat_toy10.jpg","1","1","1","1","0","0","0.46062929998152","0.537232699978631","0.511574500007555","1","1","1","1","1","1","1","1","1"
"260015","img/object_images/boat_toy10.jpg","img/object_images/bicycle01.jpg","img/object_images/purse04.jpg","1","1","1","0","1","1","0.511574500007555","0.46062929998152","0.532054600014817","1","1","1","1","1","1","1","1","1"
"260015","img/object_images/purse04.jpg","img/object_images/boat_toy10.jpg","img/object_images/bean_bag02.jpg","1","1","1","1","0","1","0.532054600014817","0.511574500007555","0.398362100007944","1","1","1","1","1","1","1","1","1"
"260015","img/object_images/bean_bag02.jpg","img/object_images/purse04.jpg","img/object_images/fan02.jpg","1","1","1","1","1","0","0.398362100007944","0.532054600014817","0.493323100032285","1","1","1","1","1","1","1","1","1"
"260015","img/object_images/fan02.jpg","img/object_images/bean_bag02.jpg","img/object_images/camera_lens01.jpg","1","1","1","0","1","1","0.493323100032285","0.398362100007944","0.427428499970119","1","1","1","1","1","1","1","1","1"
"260015","img/object_images/camera_lens01.jpg","img/object_images/fan02.jpg","img/object_images/bottle10.jpg","1","1","1","1","0","1","0.427428499970119","0.493323100032285","0.421271599945612","1","1","1","1","1","1","1","1","1"
"260015","img/object_images/bottle10.jpg","img/object_images/camera_lens01.jpg","img/object_images/water_scooter01.jpg","1","1","1","1","1","1","0.421271599945612","0.427428499970119","0.501270700013265","1","1","1","1","1","1","1","1","1"
"260015","img/object_images/water_scooter01.jpg","img/object_images/bottle10.jpg","img/object_images/audio_port01.jpg","1","1","1","1","1","1","0.501270700013265","0.421271599945612","0.520991099998355","1","1","1","1","1","1","1","1","1"
"260015","img/object_images/audio_port01.jpg","img/object_images/water_scooter01.jpg","img/object_images/perfume02.jpg","1","1","0","1","1","0","0.520991099998355","0.501270700013265","0.417305400012992","1","1","1","1","1","1","1","1","1"
"260015","img/object_images/perfume02.jpg","img/object_images/audio_port01.jpg","img/object_images/toaster01.jpg","0","1","1","0","1","1","0.417305400012992","0.520991099998355","0.445274199999403","1","1","1","1","1","1","1","1","1"
"260015","img/object_images/toaster01.jpg","img/object_images/perfume02.jpg","img/object_images/flask01.jpg","1","0","1","1","0","0","0.445274199999403","0.417305400012992","0.497157600009814","1","1","1","1","1","1","1","1","1"
"260015","img/object_images/flask01.jpg","img/object_images/toaster01.jpg","img/object_images/chair03.jpg","1","1","1","0","1","0","0.497157600009814","0.445274199999403","0.489287700038403","1","1","1","1","1","1","1","1","1"
"260015","img/object_images/chair03.jpg","img/object_images/flask01.jpg","img/object_images/hat06.jpg","1","1","1","0","0","0","0.489287700038403","0.497157600009814","0.505701899994165","1","1","1","1","1","1","1","1","1"
"260015","img/object_images/hat06.jpg","img/object_images/chair03.jpg","img/object_images/piggy_bank01.jpg","1","1","1","0","0","1","0.505701899994165","0.489287700038403","0.509232499985956","1","1","1","1","1","1","1","1","1"
"260015","img/object_images/piggy_bank01.jpg","img/object_images/hat06.jpg","img/object_images/hot_air_balloon02.jpg","1","1","1","1","0","0","0.509232499985956","0.505701899994165","0.445911599963438","1","1","1","1","1","1","1","1","1"
"260015","img/object_images/hot_air_balloon02.jpg","img/object_images/piggy_bank01.jpg","img/object_images/bottle09.jpg","1","1","1","0","1","0","0.445911599963438","0.509232499985956","0.43585999996867","1","1","1","1","1","1","1","1","1"
"260015","img/object_images/bottle09.jpg","img/object_images/hot_air_balloon02.jpg",NA,"1","1",NA,"0","0",NA,"0.43585999996867","0.445911599963438",NA,"1","1",NA,"1","1",NA,"1","1",NA
"260015","img/object_images/Statue01.jpg",NA,"img/object_images/knit03.jpg","1",NA,"1","1",NA,"1","0.418634400004521",NA,"0.406004399992526","1",NA,"1","1",NA,"1","1",NA,"1"
"260015","img/object_images/knit03.jpg","img/object_images/Statue01.jpg","img/object_images/keyboard02.jpg","1","1","1","1","1","1","0.406004399992526","0.418634400004521","0.471757099963725","1","1","1","1","1","1","1","1","1"
"260015","img/object_images/keyboard02.jpg","img/object_images/knit03.jpg","img/object_images/jacket04.jpg","1","1","0","1","1","0","0.471757099963725","0.406004399992526","0.399883499951102","1","1","1","1","1","1","1","1","1"
"260015","img/object_images/jacket04.jpg","img/object_images/keyboard02.jpg","img/object_images/hand_grip_exerciser01.jpg","0","1","1","0","1","0","0.399883499951102","0.471757099963725","0.543898499978241","1","1","1","1","1","1","1","1","1"
"260015","img/object_images/hand_grip_exerciser01.jpg","img/object_images/jacket04.jpg","img/object_images/backpack01.jpg","1","0","1","0","0","0","0.543898499978241","0.399883499951102","0.554012799984775","1","1","1","1","1","1","1","1","1"
"260015","img/object_images/backpack01.jpg","img/object_images/hand_grip_exerciser01.jpg","img/object_images/car01.jpg","1","1","1","0","0","1","0.554012799984775","0.543898499978241","0.432829299999867","1","1","1","1","1","1","1","1","1"
"260015","img/object_images/car01.jpg","img/object_images/backpack01.jpg","img/object_images/mail_box01.jpg","1","1","1","1","0","0","0.432829299999867","0.554012799984775","0.394954600022174","1","1","1","1","1","1","1","1","1"
"260015","img/object_images/mail_box01.jpg","img/object_images/car01.jpg","img/object_images/matches02.jpg","1","1","1","0","1","0","0.394954600022174","0.432829299999867","0.521200200018939","1","1","1","1","1","1","1","1","1"
"260015","img/object_images/matches02.jpg","img/object_images/mail_box01.jpg","img/object_images/kite01.jpg","1","1","1","0","0","1","0.521200200018939","0.394954600022174","0.409220899979118","1","1","1","1","1","1","1","1","1"
"260015","img/object_images/kite01.jpg","img/object_images/matches02.jpg","img/object_images/sponge03.jpg","1","1","1","1","0","1","0.409220899979118","0.521200200018939","0.368605899973772","1","1","1","1","1","1","1","1","1"
"260015","img/object_images/sponge03.jpg","img/object_images/kite01.jpg","img/object_images/hoverboard01.jpg","1","1","0","1","1","0","0.368605899973772","0.409220899979118","0.3976132000098","1","1","1","1","1","1","1","1","1"
"260015","img/object_images/hoverboard01.jpg","img/object_images/sponge03.jpg","img/object_images/knit04.jpg","0","1","1","0","1","1","0.3976132000098","0.368605899973772","0.465177799982484","1","1","1","1","1","1","1","1","1"
"260015","img/object_images/knit04.jpg","img/object_images/hoverboard01.jpg","img/object_images/dresser03.jpg","1","0","1","1","0","0","0.465177799982484","0.3976132000098","0.505897300026845","1","1","1","1","1","1","1","1","1"
"260015","img/object_images/dresser03.jpg","img/object_images/knit04.jpg","img/object_images/knife02.jpg","1","1","1","0","1","0","0.505897300026845","0.465177799982484","0.481307700043544","1","1","1","1","1","1","1","1","1"
"260015","img/object_images/knife02.jpg","img/object_images/dresser03.jpg","img/object_images/phone02.jpg","1","1","1","0","0","1","0.481307700043544","0.505897300026845","0.497286199999508","1","1","1","1","1","1","1","1","1"
"260015","img/object_images/phone02.jpg","img/object_images/knife02.jpg","img/object_images/stereo02.jpg","1","1","1","1","0","0","0.497286199999508","0.481307700043544","0.449922700005118","1","1","1","1","1","1","1","1","1"
"260015","img/object_images/stereo02.jpg","img/object_images/phone02.jpg","img/object_images/paper_cup02.jpg","1","1","1","0","1","1","0.449922700005118","0.497286199999508","0.488234299991746","1","1","1","1","1","1","1","1","1"
"260015","img/object_images/paper_cup02.jpg","img/object_images/stereo02.jpg","img/object_images/curtain02.jpg","1","1","1","1","0","0","0.488234299991746","0.449922700005118","0.498155799985398","1","1","1","1","1","1","1","1","1"
"260015","img/object_images/curtain02.jpg","img/object_images/paper_cup02.jpg","img/object_images/tool18.jpg","1","1","1","0","1","0","0.498155799985398","0.488234299991746","0.428214400017168","1","1","1","1","1","1","1","1","1"
"260015","img/object_images/tool18.jpg","img/object_images/curtain02.jpg","img/object_images/gloves02.jpg","1","1","1","0","0","0","0.428214400017168","0.498155799985398","0.694911800033879","1","1","1","1","1","1","1","1","1"
"260015","img/object_images/gloves02.jpg","img/object_images/tool18.jpg","img/object_images/shower_head01.jpg","1","1","1","0","0","1","0.694911800033879","0.428214400017168","0.393669399956707","1","1","1","1","1","1","1","1","1"
"260015","img/object_images/shower_head01.jpg","img/object_images/gloves02.jpg","img/object_images/blender02.jpg","1","1","1","1","0","1","0.393669399956707","0.694911800033879","0.46864189999178","1","1","1","1","1","1","1","1","1"
"260015","img/object_images/blender02.jpg","img/object_images/shower_head01.jpg","img/object_images/video_game01.jpg","1","1","1","1","1","1","0.46864189999178","0.393669399956707","0.423563099990133","1","1","1","1","1","1","1","1","1"
"260015","img/object_images/video_game01.jpg","img/object_images/blender02.jpg","img/object_images/bottle07.jpg","1","1","1","1","1","1","0.423563099990133","0.46864189999178","0.402567199955229","1","1","1","1","1","1","1","1","1"
"260015","img/object_images/bottle07.jpg","img/object_images/video_game01.jpg","img/object_images/boat04.jpg","1","1","1","1","1","0","0.402567199955229","0.423563099990133","0.495763699989766","1","1","1","1","1","1","1","1","1"
"260015","img/object_images/boat04.jpg","img/object_images/bottle07.jpg","img/object_images/flashlight03.jpg","1","1","1","0","1","0","0.495763699989766","0.402567199955229","0.469722700014245","1","1","1","1","1","1","1","1","1"
"260015","img/object_images/flashlight03.jpg","img/object_images/boat04.jpg","img/object_images/remote_controller01.jpg","1","1","1","0","0","1","0.469722700014245","0.495763699989766","0.430231400008779","1","1","1","1","1","1","1","1","1"
"260015","img/object_images/remote_controller01.jpg","img/object_images/flashlight03.jpg","img/object_images/toy08.jpg","1","1","1","1","0","0","0.430231400008779","0.469722700014245","0.484868000028655","1","1","1","1","1","1","1","1","1"
"260015","img/object_images/toy08.jpg","img/object_images/remote_controller01.jpg","img/object_images/camera03.jpg","1","1","1","0","1","0","0.484868000028655","0.430231400008779","0.529923099966254","1","1","1","1","1","1","1","1","1"
"260015","img/object_images/camera03.jpg","img/object_images/toy08.jpg","img/object_images/basket04.jpg","1","1","1","0","0","1","0.529923099966254","0.484868000028655","0.621277899947017","1","1","1","1","1","1","1","1","1"
"260015","img/object_images/basket04.jpg","img/object_images/camera03.jpg","img/object_images/remover01.jpg","1","1","1","1","0","1","0.621277899947017","0.529923099966254","0.48387510003522","1","1","1","1","1","1","1","1","1"
"260015","img/object_images/remover01.jpg","img/object_images/basket04.jpg",NA,"1","1",NA,"1","1",NA,"0.48387510003522","0.621277899947017",NA,"1","1",NA,"1","1",NA,"1","1",NA
