"participant_id","current_trial_object","pre_trial_object","post_trial_object","current_trial_accuracy","pre_trial_accuracy","post_trial_accuracy","current_trial_congruency","pre_trial_congruency","post_trial_congruency","current_trial_rt","pre_trial_rt","post_trial_rt","current_trial_responded","pre_trial_responded","post_trial_responded","current_trial_legitResponse","pre_trial_legitResponse","post_trial_legitResponse","current_trial_resp_nums","pre_trial_resp_nums","post_trial_resp_nums"
"260028","img/object_images/soap01.jpg",NA,"img/object_images/video_game06.jpg","0",NA,"1","0",NA,"0","0.422822900000028",NA,"0.546563499956392","1",NA,"1","1",NA,"1","2",NA,"1"
"260028","img/object_images/video_game06.jpg","img/object_images/soap01.jpg","img/object_images/drone02.jpg","1","0","1","0","0","0","0.546563499956392","0.422822900000028","0.471464399946854","1","1","1","1","1","1","1","2","1"
"260028","img/object_images/drone02.jpg","img/object_images/video_game06.jpg","img/object_images/brief_case01.jpg","1","1","1","0","0","0","0.471464399946854","0.546563499956392","0.460932500078343","1","1","1","1","1","1","1","1","1"
"260028","img/object_images/brief_case01.jpg","img/object_images/drone02.jpg","img/object_images/toilet_paper01.jpg","1","1","1","0","0","1","0.460932500078343","0.471464399946854","0.413124999962747","1","1","1","1","1","1","1","1","1"
"260028","img/object_images/toilet_paper01.jpg","img/object_images/brief_case01.jpg","img/object_images/toy_train02.jpg","1","1","1","1","0","1","0.413124999962747","0.460932500078343","0.445115800015628","1","1","1","1","1","1","1","1","1"
"260028","img/object_images/toy_train02.jpg","img/object_images/toilet_paper01.jpg","img/object_images/Woopie01.jpg","1","1","1","1","1","1","0.445115800015628","0.413124999962747","0.401109699974768","1","1","1","1","1","1","1","1","1"
"260028","img/object_images/Woopie01.jpg","img/object_images/toy_train02.jpg","img/object_images/helmet05.jpg","1","1","1","1","1","1","0.401109699974768","0.445115800015628","0.351543599972501","1","1","1","1","1","1","1","1","1"
"260028","img/object_images/helmet05.jpg","img/object_images/Woopie01.jpg","img/object_images/tie01.jpg","1","1","1","1","1","0","0.351543599972501","0.401109699974768","0.472662199987099","1","1","1","1","1","1","1","1","1"
"260028","img/object_images/tie01.jpg","img/object_images/helmet05.jpg","img/object_images/car02.jpg","1","1","0","0","1","0","0.472662199987099","0.351543599972501","0.440850699902512","1","1","1","1","1","1","1","1","1"
"260028","img/object_images/car02.jpg","img/object_images/tie01.jpg","img/object_images/basketball_hoop02.jpg","0","1","1","0","0","0","0.440850699902512","0.472662199987099","0.551708300015889","1","1","1","1","1","1","1","1","1"
"260028","img/object_images/basketball_hoop02.jpg","img/object_images/car02.jpg","img/object_images/broom01.jpg","1","0","1","0","0","1","0.551708300015889","0.440850699902512","0.432188599952497","1","1","1","1","1","1","1","1","1"
"260028","img/object_images/broom01.jpg","img/object_images/basketball_hoop02.jpg","img/object_images/cochlear_implant01.jpg","1","1","1","1","0","0","0.432188599952497","0.551708300015889","0.521552399965003","1","1","1","1","1","1","1","1","1"
"260028","img/object_images/cochlear_implant01.jpg","img/object_images/broom01.jpg","img/object_images/bottle12.jpg","1","1","1","0","1","1","0.521552399965003","0.432188599952497","0.494643999962136","1","1","1","1","1","1","1","1","1"
"260028","img/object_images/bottle12.jpg","img/object_images/cochlear_implant01.jpg","img/object_images/decorative02.jpg","1","1","1","1","0","0","0.494643999962136","0.521552399965003","0.416007400024682","1","1","1","1","1","1","1","1","1"
"260028","img/object_images/decorative02.jpg","img/object_images/bottle12.jpg","img/object_images/ironing_table02.jpg","1","1","1","0","1","0","0.416007400024682","0.494643999962136","0.484869200037792","1","1","1","1","1","1","1","1","1"
"260028","img/object_images/ironing_table02.jpg","img/object_images/decorative02.jpg","img/object_images/chair01.jpg","1","1","1","0","0","0","0.484869200037792","0.416007400024682","0.462126799975522","1","1","1","1","1","1","1","1","1"
"260028","img/object_images/chair01.jpg","img/object_images/ironing_table02.jpg","img/object_images/razor03.jpg","1","1","1","0","0","0","0.462126799975522","0.484869200037792","0.465613099979237","1","1","1","1","1","1","1","1","1"
"260028","img/object_images/razor03.jpg","img/object_images/chair01.jpg","img/object_images/ball01.jpg","1","1","1","0","0","1","0.465613099979237","0.462126799975522","0.453544199932367","1","1","1","1","1","1","1","1","1"
"260028","img/object_images/ball01.jpg","img/object_images/razor03.jpg","img/object_images/container01.jpg","1","1","1","1","0","0","0.453544199932367","0.465613099979237","0.455859599984251","1","1","1","1","1","1","1","1","1"
"260028","img/object_images/container01.jpg","img/object_images/ball01.jpg","img/object_images/pitcher03.jpg","1","1","1","0","1","1","0.455859599984251","0.453544199932367","0.336367400013842","1","1","1","1","1","1","1","1","1"
"260028","img/object_images/pitcher03.jpg","img/object_images/container01.jpg","img/object_images/lantern01.jpg","1","1","1","1","0","1","0.336367400013842","0.455859599984251","0.445661899982952","1","1","1","1","1","1","1","1","1"
"260028","img/object_images/lantern01.jpg","img/object_images/pitcher03.jpg","img/object_images/lamp01.jpg","1","1","1","1","1","1","0.445661899982952","0.336367400013842","0.405108800041489","1","1","1","1","1","1","1","1","1"
"260028","img/object_images/lamp01.jpg","img/object_images/lantern01.jpg","img/object_images/couch04.jpg","1","1","1","1","1","1","0.405108800041489","0.445661899982952","0.440173399983905","1","1","1","1","1","1","1","1","1"
"260028","img/object_images/couch04.jpg","img/object_images/lamp01.jpg","img/object_images/gloves05.jpg","1","1","1","1","1","1","0.440173399983905","0.405108800041489","0.406618000008166","1","1","1","1","1","1","1","1","1"
"260028","img/object_images/gloves05.jpg","img/object_images/couch04.jpg","img/object_images/Recycling01.jpg","1","1","1","1","1","1","0.406618000008166","0.440173399983905","0.471168599906377","1","1","1","1","1","1","1","1","1"
"260028","img/object_images/Recycling01.jpg","img/object_images/gloves05.jpg","img/object_images/airfryer01.jpg","1","1","1","1","1","0","0.471168599906377","0.406618000008166","0.56898929993622","1","1","1","1","1","1","1","1","1"
"260028","img/object_images/airfryer01.jpg","img/object_images/Recycling01.jpg","img/object_images/Wisk01.jpg","1","1","1","0","1","1","0.56898929993622","0.471168599906377","0.431749000097625","1","1","1","1","1","1","1","1","1"
"260028","img/object_images/Wisk01.jpg","img/object_images/airfryer01.jpg","img/object_images/pot01.jpg","1","1","1","1","0","0","0.431749000097625","0.56898929993622","0.497809499967843","1","1","1","1","1","1","1","1","1"
"260028","img/object_images/pot01.jpg","img/object_images/Wisk01.jpg","img/object_images/brief_case02.jpg","1","1","1","0","1","1","0.497809499967843","0.431749000097625","0.454966599936597","1","1","1","1","1","1","1","1","1"
"260028","img/object_images/brief_case02.jpg","img/object_images/pot01.jpg","img/object_images/guitar01.jpg","1","1","1","1","0","1","0.454966599936597","0.497809499967843","0.407036400050856","1","1","1","1","1","1","1","1","1"
"260028","img/object_images/guitar01.jpg","img/object_images/brief_case02.jpg","img/object_images/hat02.jpg","1","1","1","1","1","0","0.407036400050856","0.454966599936597","0.583479500026442","1","1","1","1","1","1","1","1","1"
"260028","img/object_images/hat02.jpg","img/object_images/guitar01.jpg",NA,"1","1",NA,"0","1",NA,"0.583479500026442","0.407036400050856",NA,"1","1",NA,"1","1",NA,"1","1",NA
"260028","img/object_images/tool09.jpg",NA,"img/object_images/Tin01.jpg","1",NA,"1","1",NA,"1","0.561509400024079",NA,"0.384052600013092","1",NA,"1","1",NA,"1","1",NA,"1"
"260028","img/object_images/Tin01.jpg","img/object_images/tool09.jpg","img/object_images/sink01.jpg","1","1","1","1","1","0","0.384052600013092","0.561509400024079","0.39171570003964","1","1","1","1","1","1","1","1","1"
"260028","img/object_images/sink01.jpg","img/object_images/Tin01.jpg","img/object_images/video_game07.jpg","1","1","1","0","1","1","0.39171570003964","0.384052600013092","0.362234500003979","1","1","1","1","1","1","1","1","1"
"260028","img/object_images/video_game07.jpg","img/object_images/sink01.jpg","img/object_images/MetalWire01.jpg","1","1","1","1","0","0","0.362234500003979","0.39171570003964","0.410840899916366","1","1","1","1","1","1","1","1","1"
"260028","img/object_images/MetalWire01.jpg","img/object_images/video_game07.jpg","img/object_images/Ring02.jpg","1","1","1","0","1","0","0.410840899916366","0.362234500003979","0.390577999991365","1","1","1","1","1","1","1","1","1"
"260028","img/object_images/Ring02.jpg","img/object_images/MetalWire01.jpg","img/object_images/mirror01.jpg","1","1","1","0","0","1","0.390577999991365","0.410840899916366","0.350379099952988","1","1","1","1","1","1","1","1","1"
"260028","img/object_images/mirror01.jpg","img/object_images/Ring02.jpg","img/object_images/bow01.jpg","1","1","1","1","0","1","0.350379099952988","0.390577999991365","0.380360499955714","1","1","1","1","1","1","1","1","1"
"260028","img/object_images/bow01.jpg","img/object_images/mirror01.jpg","img/object_images/ornament01.jpg","1","1","1","1","1","1","0.380360499955714","0.350379099952988","0.286475499975495","1","1","1","1","1","1","1","1","1"
"260028","img/object_images/ornament01.jpg","img/object_images/bow01.jpg","img/object_images/pot01 (1).jpg","1","1","1","1","1","0","0.286475499975495","0.380360499955714","0.427329100086354","1","1","1","1","1","1","1","1","1"
"260028","img/object_images/pot01 (1).jpg","img/object_images/ornament01.jpg","img/object_images/dart01.jpg","1","1","0","0","1","0","0.427329100086354","0.286475499975495","0.447206599987112","1","1","1","1","1","1","1","1","1"
"260028","img/object_images/dart01.jpg","img/object_images/pot01 (1).jpg","img/object_images/acoustic_capo01.jpg","0","1","1","0","0","1","0.447206599987112","0.427329100086354","0.424809799995273","1","1","1","1","1","1","1","1","1"
"260028","img/object_images/acoustic_capo01.jpg","img/object_images/dart01.jpg","img/object_images/helmet01.jpg","1","0","1","1","0","0","0.424809799995273","0.447206599987112","0.395242400001734","1","1","1","1","1","1","1","1","1"
"260028","img/object_images/helmet01.jpg","img/object_images/acoustic_capo01.jpg","img/object_images/outlet01.jpg","1","1","0","0","1","0","0.395242400001734","0.424809799995273","0.426369699998759","1","1","1","1","1","1","1","1","1"
"260028","img/object_images/outlet01.jpg","img/object_images/helmet01.jpg","img/object_images/watch01.jpg","0","1","1","0","0","0","0.426369699998759","0.395242400001734","0.52165790006984","1","1","1","1","1","1","1","1","1"
"260028","img/object_images/watch01.jpg","img/object_images/outlet01.jpg","img/object_images/gauze01.jpg","1","0","0","0","0","0","0.52165790006984","0.426369699998759","0.432716400013305","1","1","1","1","1","1","1","1","1"
"260028","img/object_images/gauze01.jpg","img/object_images/watch01.jpg","img/object_images/towel02.jpg","0","1","1","0","0","1","0.432716400013305","0.52165790006984","0.446457999991253","1","1","1","1","1","1","1","1","1"
"260028","img/object_images/towel02.jpg","img/object_images/gauze01.jpg","img/object_images/frisbee01.jpg","1","0","1","1","0","1","0.446457999991253","0.432716400013305","0.392164599965326","1","1","1","1","1","1","1","1","1"
"260028","img/object_images/frisbee01.jpg","img/object_images/towel02.jpg","img/object_images/crown02.jpg","1","1","1","1","1","1","0.392164599965326","0.446457999991253","0.381842399947345","1","1","1","1","1","1","1","1","1"
"260028","img/object_images/crown02.jpg","img/object_images/frisbee01.jpg","img/object_images/jewel04.jpg","1","1","1","1","1","0","0.381842399947345","0.392164599965326","0.454113600077108","1","1","1","1","1","1","1","1","1"
"260028","img/object_images/jewel04.jpg","img/object_images/crown02.jpg","img/object_images/guitar02.jpg","1","1","1","0","1","0","0.454113600077108","0.381842399947345","0.424271499970928","1","1","1","1","1","1","1","1","1"
"260028","img/object_images/guitar02.jpg","img/object_images/jewel04.jpg","img/object_images/bird_house02.jpg","1","1","1","0","0","1","0.424271499970928","0.454113600077108","0.404256299952976","1","1","1","1","1","1","1","1","1"
"260028","img/object_images/bird_house02.jpg","img/object_images/guitar02.jpg","img/object_images/Stool01.jpg","1","1","1","1","0","0","0.404256299952976","0.424271499970928","0.487913599936292","1","1","1","1","1","1","1","1","1"
"260028","img/object_images/Stool01.jpg","img/object_images/bird_house02.jpg","img/object_images/bottle05.jpg","1","1","1","0","1","0","0.487913599936292","0.404256299952976","0.442172099952586","1","1","1","1","1","1","1","1","1"
"260028","img/object_images/bottle05.jpg","img/object_images/Stool01.jpg","img/object_images/Vacuum01.jpg","1","1","0","0","0","0","0.442172099952586","0.487913599936292","0.468047500005923","1","1","1","1","1","1","1","1","1"
"260028","img/object_images/Vacuum01.jpg","img/object_images/bottle05.jpg","img/object_images/tool02.jpg","0","1","1","0","0","1","0.468047500005923","0.442172099952586","0.367389300023206","1","1","1","1","1","1","1","1","1"
"260028","img/object_images/tool02.jpg","img/object_images/Vacuum01.jpg","img/object_images/toy04.jpg","1","0","1","1","0","0","0.367389300023206","0.468047500005923","0.415563400019892","1","1","1","1","1","1","1","1","1"
"260028","img/object_images/toy04.jpg","img/object_images/tool02.jpg","img/object_images/toy03.jpg","1","1","1","0","1","1","0.415563400019892","0.367389300023206","0.360620100051165","1","1","1","1","1","1","1","1","1"
"260028","img/object_images/toy03.jpg","img/object_images/toy04.jpg","img/object_images/shovel03.jpg","1","1","1","1","0","1","0.360620100051165","0.415563400019892","0.290935200056992","1","1","1","1","1","1","1","1","1"
"260028","img/object_images/shovel03.jpg","img/object_images/toy03.jpg","img/object_images/stapler.jpg","1","1","1","1","1","1","0.290935200056992","0.360620100051165","0.355855099973269","1","1","1","1","1","1","1","1","1"
"260028","img/object_images/stapler.jpg","img/object_images/shovel03.jpg","img/object_images/fridge03.jpg","1","1","0","1","1","0","0.355855099973269","0.290935200056992","0.446599200018682","1","1","1","1","1","1","1","1","1"
"260028","img/object_images/fridge03.jpg","img/object_images/stapler.jpg","img/object_images/judge_gavel01.jpg","0","1","1","0","1","1","0.446599200018682","0.355855099973269","0.438418800011277","1","1","1","1","1","1","1","1","1"
"260028","img/object_images/judge_gavel01.jpg","img/object_images/fridge03.jpg",NA,"1","0",NA,"1","0",NA,"0.438418800011277","0.446599200018682",NA,"1","1",NA,"1","1",NA,"1","1",NA
"260028","img/object_images/hammer03.jpg",NA,"img/object_images/knife04.jpg","0",NA,"0","1",NA,"1",NA,NA,NA,"0",NA,"0","0",NA,"0","0",NA,"0"
"260028","img/object_images/knife04.jpg","img/object_images/hammer03.jpg","img/object_images/knit05.jpg","0","0","0","1","1","1",NA,NA,NA,"0","0","0","0","0","0","0","0","0"
"260028","img/object_images/knit05.jpg","img/object_images/knife04.jpg","img/object_images/tv02.jpg","0","0","0","1","1","0",NA,NA,NA,"0","0","0","0","0","0","0","0","0"
"260028","img/object_images/tv02.jpg","img/object_images/knit05.jpg","img/object_images/pen03.jpg","0","0","0","0","1","0",NA,NA,NA,"0","0","0","0","0","0","0","0","0"
"260028","img/object_images/pen03.jpg","img/object_images/tv02.jpg","img/object_images/crutches02.jpg","0","0","1","0","0","0",NA,NA,"0.43527370004449","0","0","1","0","0","1","0","0","1"
"260028","img/object_images/crutches02.jpg","img/object_images/pen03.jpg","img/object_images/note_book01.jpg","1","0","0","0","0","0","0.43527370004449",NA,NA,"1","0","0","1","0","0","1","0","0"
"260028","img/object_images/note_book01.jpg","img/object_images/crutches02.jpg","img/object_images/Oven01.jpg","0","1","0","0","0","1",NA,"0.43527370004449",NA,"0","1","0","0","1","0","0","1","0"
"260028","img/object_images/Oven01.jpg","img/object_images/note_book01.jpg","img/object_images/clock02.jpg","0","0","1","1","0","0",NA,NA,"0.529845400014892","0","0","1","0","0","1","0","0","1"
"260028","img/object_images/clock02.jpg","img/object_images/Oven01.jpg","img/object_images/pitcher01.jpg","1","0","0","0","1","0","0.529845400014892",NA,NA,"1","0","0","1","0","0","1","0","0"
"260028","img/object_images/pitcher01.jpg","img/object_images/clock02.jpg","img/object_images/bell02.jpg","0","1","1","0","0","0",NA,"0.529845400014892","0.462216000072658","0","1","1","0","1","1","0","1","1"
"260028","img/object_images/bell02.jpg","img/object_images/pitcher01.jpg","img/object_images/retainer01.jpg","1","0","1","0","0","0","0.462216000072658",NA,"0.541522199986503","1","0","1","1","0","1","1","0","1"
"260028","img/object_images/retainer01.jpg","img/object_images/bell02.jpg","img/object_images/tennis_racket02.jpg","1","1","0","0","0","1","0.541522199986503","0.462216000072658",NA,"1","1","0","1","1","0","1","1","0"
"260028","img/object_images/tennis_racket02.jpg","img/object_images/retainer01.jpg","img/object_images/paint_brush04.jpg","0","1","0","1","0","0",NA,"0.541522199986503",NA,"0","1","0","0","1","0","0","1","0"
"260028","img/object_images/paint_brush04.jpg","img/object_images/tennis_racket02.jpg","img/object_images/Staples01.jpg","0","0","1","0","1","1",NA,NA,"0.313663300010376","0","0","1","0","0","1","0","0","1"
"260028","img/object_images/Staples01.jpg","img/object_images/paint_brush04.jpg","img/object_images/pillows01.jpg","1","0","0","1","0","1","0.313663300010376",NA,NA,"1","0","0","1","0","0","1","0","0"
"260028","img/object_images/pillows01.jpg","img/object_images/Staples01.jpg","img/object_images/clip03.jpg","0","1","0","1","1","0",NA,"0.313663300010376","0.454188200063072","0","1","1","0","1","1","0","1","1"
"260028","img/object_images/clip03.jpg","img/object_images/pillows01.jpg","img/object_images/motorcycle01.jpg","0","0","1","0","1","1","0.454188200063072",NA,"0.529655699967407","1","0","1","1","0","1","1","0","1"
"260028","img/object_images/motorcycle01.jpg","img/object_images/clip03.jpg","img/object_images/book03.jpg","1","0","1","1","0","1","0.529655699967407","0.454188200063072","0.433242400060408","1","1","1","1","1","1","1","1","1"
"260028","img/object_images/book03.jpg","img/object_images/motorcycle01.jpg","img/object_images/bottle01.jpg","1","1","1","1","1","0","0.433242400060408","0.529655699967407","0.431036399910226","1","1","1","1","1","1","1","1","1"
"260028","img/object_images/bottle01.jpg","img/object_images/book03.jpg","img/object_images/chess_piece02.jpg","1","1","0","0","1","1","0.431036399910226","0.433242400060408",NA,"1","1","0","1","1","0","1","1","0"
"260028","img/object_images/chess_piece02.jpg","img/object_images/bottle01.jpg","img/object_images/ear_bud01.jpg","0","1","1","1","0","1",NA,"0.431036399910226","0.304453199962154","0","1","1","0","1","1","0","1","1"
"260028","img/object_images/ear_bud01.jpg","img/object_images/chess_piece02.jpg","img/object_images/Thermometer01.jpg","1","0","0","1","1","0","0.304453199962154",NA,NA,"1","0","0","1","0","0","1","0","0"
"260028","img/object_images/Thermometer01.jpg","img/object_images/ear_bud01.jpg","img/object_images/floppy_disk02.jpg","0","1","1","0","1","0",NA,"0.304453199962154","0.434295299928635","0","1","1","0","1","1","0","1","1"
"260028","img/object_images/floppy_disk02.jpg","img/object_images/Thermometer01.jpg","img/object_images/floppy_disk03.jpg","1","0","1","0","0","1","0.434295299928635",NA,"0.356085199979134","1","0","1","1","0","1","1","0","1"
"260028","img/object_images/floppy_disk03.jpg","img/object_images/floppy_disk02.jpg","img/object_images/wire02.jpg","1","1","1","1","0","1","0.356085199979134","0.434295299928635","0.43783270008862","1","1","1","1","1","1","1","1","1"
"260028","img/object_images/wire02.jpg","img/object_images/floppy_disk03.jpg","img/object_images/cellphone01.jpg","1","1","0","1","1","1","0.43783270008862","0.356085199979134",NA,"1","1","0","1","1","0","1","1","0"
"260028","img/object_images/cellphone01.jpg","img/object_images/wire02.jpg","img/object_images/usb02.jpg","0","1","0","1","1","0",NA,"0.43783270008862",NA,"0","1","0","0","1","0","0","1","0"
"260028","img/object_images/usb02.jpg","img/object_images/cellphone01.jpg","img/object_images/lid01.jpg","0","0","1","0","1","1",NA,NA,"0.269778599962592","0","0","1","0","0","1","0","0","1"
"260028","img/object_images/lid01.jpg","img/object_images/usb02.jpg","img/object_images/chair05.jpg","1","0","0","1","0","0","0.269778599962592",NA,NA,"1","0","0","1","0","0","1","0","0"
"260028","img/object_images/chair05.jpg","img/object_images/lid01.jpg","img/object_images/compass01.jpg","0","1","1","0","1","1",NA,"0.269778599962592","0.401211100048386","0","1","1","0","1","1","0","1","1"
"260028","img/object_images/compass01.jpg","img/object_images/chair05.jpg","img/object_images/microscope01.jpg","1","0","1","1","0","0","0.401211100048386",NA,"0.490980100003071","1","0","1","1","0","1","1","0","1"
"260028","img/object_images/microscope01.jpg","img/object_images/compass01.jpg",NA,"1","1",NA,"0","1",NA,"0.490980100003071","0.401211100048386",NA,"1","1",NA,"1","1",NA,"1","1",NA
"260028","img/object_images/tool06.jpg",NA,"img/object_images/couch01.jpg","0",NA,"0","0",NA,"0",NA,NA,NA,"0",NA,"0","0",NA,"0","0",NA,"0"
"260028","img/object_images/couch01.jpg","img/object_images/tool06.jpg","img/object_images/chain01.jpg","0","0","1","0","0","0",NA,NA,"0.440552299958654","0","0","1","0","0","1","0","0","1"
"260028","img/object_images/chain01.jpg","img/object_images/couch01.jpg","img/object_images/clip04.jpg","1","0","0","0","0","1","0.440552299958654",NA,NA,"1","0","0","1","0","0","1","0","0"
"260028","img/object_images/clip04.jpg","img/object_images/chain01.jpg","img/object_images/video_game03.jpg","0","1","0","1","0","1",NA,"0.440552299958654",NA,"0","1","0","0","1","0","0","1","0"
"260028","img/object_images/video_game03.jpg","img/object_images/clip04.jpg","img/object_images/floss02.jpg","0","0","0","1","1","1",NA,NA,NA,"0","0","0","0","0","0","0","0","0"
"260028","img/object_images/floss02.jpg","img/object_images/video_game03.jpg","img/object_images/scarf01.jpg","0","0","1","1","1","1",NA,NA,"0.423066599993035","0","0","1","0","0","1","0","0","1"
"260028","img/object_images/scarf01.jpg","img/object_images/floss02.jpg","img/object_images/Trowel01.jpg","1","0","0","1","1","0","0.423066599993035",NA,NA,"1","0","0","1","0","0","1","0","0"
"260028","img/object_images/Trowel01.jpg","img/object_images/scarf01.jpg","img/object_images/box03.jpg","0","1","0","0","1","0",NA,"0.423066599993035",NA,"0","1","0","0","1","0","0","1","0"
"260028","img/object_images/box03.jpg","img/object_images/Trowel01.jpg","img/object_images/toy01.jpg","0","0","1","0","0","1",NA,NA,"0.34429379994981","0","0","1","0","0","1","0","0","1"
"260028","img/object_images/toy01.jpg","img/object_images/box03.jpg","img/object_images/toothbrush01.jpg","1","0","0","1","0","0","0.34429379994981",NA,NA,"1","0","0","1","0","0","1","0","0"
"260028","img/object_images/toothbrush01.jpg","img/object_images/toy01.jpg","img/object_images/tripod01.jpg","0","1","0","0","1","1",NA,"0.34429379994981",NA,"0","1","0","0","1","0","0","1","0"
"260028","img/object_images/tripod01.jpg","img/object_images/toothbrush01.jpg","img/object_images/bag_pipes01.jpg","0","0","0","1","0","1",NA,NA,NA,"0","0","0","0","0","0","0","0","0"
"260028","img/object_images/bag_pipes01.jpg","img/object_images/tripod01.jpg","img/object_images/blender01.jpg","0","0","0","1","1","0",NA,NA,NA,"0","0","0","0","0","0","0","0","0"
"260028","img/object_images/blender01.jpg","img/object_images/bag_pipes01.jpg","img/object_images/egg_slicer01.jpg","0","0","1","0","1","1",NA,NA,"0.467992100049742","0","0","1","0","0","1","0","0","1"
"260028","img/object_images/egg_slicer01.jpg","img/object_images/blender01.jpg","img/object_images/book02.jpg","1","0","0","1","0","1","0.467992100049742",NA,NA,"1","0","0","1","0","0","1","0","0"
"260028","img/object_images/book02.jpg","img/object_images/egg_slicer01.jpg","img/object_images/pen01.jpg","0","1","0","1","1","0",NA,"0.467992100049742",NA,"0","1","0","0","1","0","0","1","0"
"260028","img/object_images/pen01.jpg","img/object_images/book02.jpg","img/object_images/fork02.jpg","0","0","1","0","1","0",NA,NA,"0.455876199994236","0","0","1","0","0","1","0","0","1"
"260028","img/object_images/fork02.jpg","img/object_images/pen01.jpg","img/object_images/computer_mouse01.jpg","1","0","1","0","0","1","0.455876199994236",NA,"0.337666800012812","1","0","1","1","0","1","1","0","1"
"260028","img/object_images/computer_mouse01.jpg","img/object_images/fork02.jpg","img/object_images/mail_box02.jpg","1","1","1","1","0","1","0.337666800012812","0.455876199994236","0.439113400061615","1","1","1","1","1","1","1","1","1"
"260028","img/object_images/mail_box02.jpg","img/object_images/computer_mouse01.jpg","img/object_images/skate_board01.jpg","1","1","1","1","1","0","0.439113400061615","0.337666800012812","0.607163100037724","1","1","1","1","1","1","1","1","1"
"260028","img/object_images/skate_board01.jpg","img/object_images/mail_box02.jpg","img/object_images/airfryer02.jpg","1","1","0","0","1","1","0.607163100037724","0.439113400061615",NA,"1","1","0","1","1","0","1","1","0"
"260028","img/object_images/airfryer02.jpg","img/object_images/skate_board01.jpg","img/object_images/shoes12.jpg","0","1","1","1","0","1",NA,"0.607163100037724","0.493986600078642","0","1","1","0","1","1","0","1","1"
"260028","img/object_images/shoes12.jpg","img/object_images/airfryer02.jpg","img/object_images/rock02.jpg","1","0","0","1","1","0","0.493986600078642",NA,NA,"1","0","0","1","0","0","1","0","0"
"260028","img/object_images/rock02.jpg","img/object_images/shoes12.jpg","img/object_images/bell03.jpg","0","1","1","0","1","0",NA,"0.493986600078642","0.53879749996122","0","1","1","0","1","1","0","1","1"
"260028","img/object_images/bell03.jpg","img/object_images/rock02.jpg","img/object_images/Violin01.jpg","1","0","1","0","0","0","0.53879749996122",NA,"0.480453599942848","1","0","1","1","0","1","1","0","1"
"260028","img/object_images/Violin01.jpg","img/object_images/bell03.jpg","img/object_images/drone01.jpg","1","1","1","0","0","1","0.480453599942848","0.53879749996122","0.433649800019339","1","1","1","1","1","1","1","1","1"
"260028","img/object_images/drone01.jpg","img/object_images/Violin01.jpg","img/object_images/computer_mouse02.jpg","1","1","1","1","0","0","0.433649800019339","0.480453599942848","0.424955899943598","1","1","1","1","1","1","1","1","1"
"260028","img/object_images/computer_mouse02.jpg","img/object_images/drone01.jpg","img/object_images/soap03.jpg","1","1","0","0","1","0","0.424955899943598","0.433649800019339",NA,"1","1","0","1","1","0","1","1","0"
"260028","img/object_images/soap03.jpg","img/object_images/computer_mouse02.jpg","img/object_images/chair06.jpg","0","1","1","0","0","0",NA,"0.424955899943598","0.407237800071016","0","1","1","0","1","1","0","1","1"
"260028","img/object_images/chair06.jpg","img/object_images/soap03.jpg","img/object_images/hair_brush01.jpg","1","0","0","0","0","1","0.407237800071016",NA,NA,"1","0","0","1","0","0","1","0","0"
"260028","img/object_images/hair_brush01.jpg","img/object_images/chair06.jpg","img/object_images/pitcher09.jpg","0","1","1","1","0","1",NA,"0.407237800071016","0.365118599962443","0","1","1","0","1","1","0","1","1"
"260028","img/object_images/pitcher09.jpg","img/object_images/hair_brush01.jpg",NA,"1","0",NA,"1","1",NA,"0.365118599962443",NA,NA,"1","0",NA,"1","0",NA,"1","0",NA
"260028","img/object_images/backpack01.jpg",NA,"img/object_images/dresser03.jpg","0",NA,"0","0",NA,"0",NA,NA,NA,"0",NA,"0","0",NA,"0","0",NA,"0"
"260028","img/object_images/dresser03.jpg","img/object_images/backpack01.jpg","img/object_images/toy08.jpg","0","0","1","0","0","0",NA,NA,"0.477505599963479","0","0","1","0","0","1","0","0","1"
"260028","img/object_images/toy08.jpg","img/object_images/dresser03.jpg","img/object_images/keyboard02.jpg","1","0","1","0","0","1","0.477505599963479",NA,"0.328655599965714","1","0","1","1","0","1","1","0","1"
"260028","img/object_images/keyboard02.jpg","img/object_images/toy08.jpg","img/object_images/knit03.jpg","1","1","1","1","0","1","0.328655599965714","0.477505599963479","0.384376500034705","1","1","1","1","1","1","1","1","1"
"260028","img/object_images/knit03.jpg","img/object_images/keyboard02.jpg","img/object_images/kite01.jpg","1","1","0","1","1","1","0.384376500034705","0.328655599965714",NA,"1","1","0","1","1","0","1","1","0"
"260028","img/object_images/kite01.jpg","img/object_images/knit03.jpg","img/object_images/paper_cup02.jpg","0","1","0","1","1","1",NA,"0.384376500034705",NA,"0","1","0","0","1","0","0","1","0"
"260028","img/object_images/paper_cup02.jpg","img/object_images/kite01.jpg","img/object_images/hoverboard01.jpg","0","0","1","1","1","0",NA,NA,"0.358363299979828","0","0","1","0","0","1","0","0","1"
"260028","img/object_images/hoverboard01.jpg","img/object_images/paper_cup02.jpg","img/object_images/camera03.jpg","1","0","0","0","1","0","0.358363299979828",NA,NA,"1","0","0","1","0","0","1","0","0"
"260028","img/object_images/camera03.jpg","img/object_images/hoverboard01.jpg","img/object_images/tool18.jpg","0","1","1","0","0","0",NA,"0.358363299979828","0.390225499984808","0","1","1","0","1","1","0","1","1"
"260028","img/object_images/tool18.jpg","img/object_images/camera03.jpg","img/object_images/phone02.jpg","1","0","0","0","0","1","0.390225499984808",NA,NA,"1","0","0","1","0","0","1","0","0"
"260028","img/object_images/phone02.jpg","img/object_images/tool18.jpg","img/object_images/boat04.jpg","0","1","1","1","0","0",NA,"0.390225499984808","0.4763541999273","0","1","1","0","1","1","0","1","1"
"260028","img/object_images/boat04.jpg","img/object_images/phone02.jpg","img/object_images/jacket04.jpg","1","0","1","0","1","0","0.4763541999273",NA,"0.375260000000708","1","0","1","1","0","1","1","0","1"
"260028","img/object_images/jacket04.jpg","img/object_images/boat04.jpg","img/object_images/bottle07.jpg","1","1","1","0","0","1","0.375260000000708","0.4763541999273","0.392192900064401","1","1","1","1","1","1","1","1","1"
"260028","img/object_images/bottle07.jpg","img/object_images/jacket04.jpg","img/object_images/remover01.jpg","1","1","0","1","0","1","0.392192900064401","0.375260000000708",NA,"1","1","0","1","1","0","1","1","0"
"260028","img/object_images/remover01.jpg","img/object_images/bottle07.jpg","img/object_images/basket04.jpg","0","1","0","1","1","1",NA,"0.392192900064401",NA,"0","1","0","0","1","0","0","1","0"
"260028","img/object_images/basket04.jpg","img/object_images/remover01.jpg","img/object_images/sponge03.jpg","0","0","1","1","1","1",NA,NA,"0.405953600071371","0","0","1","0","0","1","0","0","1"
"260028","img/object_images/sponge03.jpg","img/object_images/basket04.jpg","img/object_images/knit04.jpg","1","0","0","1","1","1","0.405953600071371",NA,NA,"1","0","0","1","0","0","1","0","0"
"260028","img/object_images/knit04.jpg","img/object_images/sponge03.jpg","img/object_images/knife02.jpg","0","1","0","1","1","0",NA,"0.405953600071371",NA,"0","1","0","0","1","0","0","1","0"
"260028","img/object_images/knife02.jpg","img/object_images/knit04.jpg","img/object_images/Statue01.jpg","0","0","0","0","1","1",NA,NA,NA,"0","0","0","0","0","0","0","0","0"
"260028","img/object_images/Statue01.jpg","img/object_images/knife02.jpg","img/object_images/hand_grip_exerciser01.jpg","0","0","0","1","0","0",NA,NA,"0.319538899930194","0","0","1","0","0","1","0","0","1"
"260028","img/object_images/hand_grip_exerciser01.jpg","img/object_images/Statue01.jpg","img/object_images/video_game01.jpg","0","0","1","0","1","1","0.319538899930194",NA,"0.613647300051525","1","0","1","1","0","1","1","0","1"
"260028","img/object_images/video_game01.jpg","img/object_images/hand_grip_exerciser01.jpg","img/object_images/matches02.jpg","1","0","1","1","0","0","0.613647300051525","0.319538899930194","0.405986899975687","1","1","1","1","1","1","1","1","1"
"260028","img/object_images/matches02.jpg","img/object_images/video_game01.jpg","img/object_images/remote_controller01.jpg","1","1","1","0","1","1","0.405986899975687","0.613647300051525","0.401656999951228","1","1","1","1","1","1","1","1","1"
"260028","img/object_images/remote_controller01.jpg","img/object_images/matches02.jpg","img/object_images/shower_head01.jpg","1","1","1","1","0","1","0.401656999951228","0.405986899975687","0.363754600053653","1","1","1","1","1","1","1","1","1"
"260028","img/object_images/shower_head01.jpg","img/object_images/remote_controller01.jpg","img/object_images/curtain02.jpg","1","1","1","1","1","0","0.363754600053653","0.401656999951228","0.423519299947657","1","1","1","1","1","1","1","1","1"
"260028","img/object_images/curtain02.jpg","img/object_images/shower_head01.jpg","img/object_images/flashlight03.jpg","1","1","1","0","1","0","0.423519299947657","0.363754600053653","0.448446700000204","1","1","1","1","1","1","1","1","1"
"260028","img/object_images/flashlight03.jpg","img/object_images/curtain02.jpg","img/object_images/stereo02.jpg","1","1","0","0","0","0","0.448446700000204","0.423519299947657","0.33671309996862","1","1","1","1","1","1","1","1","1"
"260028","img/object_images/stereo02.jpg","img/object_images/flashlight03.jpg","img/object_images/car01.jpg","0","1","1","0","0","1","0.33671309996862","0.448446700000204","0.376918300054967","1","1","1","1","1","1","1","1","1"
"260028","img/object_images/car01.jpg","img/object_images/stereo02.jpg","img/object_images/mail_box01.jpg","1","0","0","1","0","0","0.376918300054967","0.33671309996862",NA,"1","1","0","1","1","0","1","1","0"
"260028","img/object_images/mail_box01.jpg","img/object_images/car01.jpg","img/object_images/blender02.jpg","0","1","0","0","1","1",NA,"0.376918300054967",NA,"0","1","0","0","1","0","0","1","0"
"260028","img/object_images/blender02.jpg","img/object_images/mail_box01.jpg","img/object_images/gloves02.jpg","0","0","0","1","0","0",NA,NA,NA,"0","0","0","0","0","0","0","0","0"
"260028","img/object_images/gloves02.jpg","img/object_images/blender02.jpg",NA,"0","0",NA,"0","1",NA,NA,NA,NA,"0","0",NA,"0","0",NA,"0","0",NA
"260028","img/object_images/jacket03.jpg",NA,"img/object_images/bow_tie01.jpg","0",NA,"0","0",NA,"0",NA,NA,NA,"0",NA,"0","0",NA,"0","0",NA,"0"
"260028","img/object_images/bow_tie01.jpg","img/object_images/jacket03.jpg","img/object_images/pitcher02.jpg","0","0","1","0","0","1",NA,NA,"0.477731200051494","0","0","1","0","0","1","0","0","1"
"260028","img/object_images/pitcher02.jpg","img/object_images/bow_tie01.jpg","img/object_images/gift_box03.jpg","1","0","1","1","0","0","0.477731200051494",NA,"0.445253600017168","1","0","1","1","0","1","1","0","1"
"260028","img/object_images/gift_box03.jpg","img/object_images/pitcher02.jpg","img/object_images/Witchhat01.jpg","1","1","0","0","1","1","0.445253600017168","0.477731200051494",NA,"1","1","0","1","1","0","1","1","0"
"260028","img/object_images/Witchhat01.jpg","img/object_images/gift_box03.jpg","img/object_images/couch03.jpg","0","1","1","1","0","0",NA,"0.445253600017168","0.507578600081615","0","1","1","0","1","1","0","1","1"
"260028","img/object_images/couch03.jpg","img/object_images/Witchhat01.jpg","img/object_images/bow_tie02.jpg","1","0","1","0","1","0","0.507578600081615",NA,"0.414864299935289","1","0","1","1","0","1","1","0","1"
"260028","img/object_images/bow_tie02.jpg","img/object_images/couch03.jpg","img/object_images/camera07.jpg","1","1","0","0","0","1","0.414864299935289","0.507578600081615",NA,"1","1","0","1","1","0","1","1","0"
"260028","img/object_images/camera07.jpg","img/object_images/bow_tie02.jpg","img/object_images/hammer01.jpg","0","1","0","1","0","0",NA,"0.414864299935289",NA,"0","1","0","0","1","0","0","1","0"
"260028","img/object_images/hammer01.jpg","img/object_images/camera07.jpg","img/object_images/socks02.jpg","0","0","1","0","1","0",NA,NA,"0.489158699987456","0","0","1","0","0","1","0","0","1"
"260028","img/object_images/socks02.jpg","img/object_images/hammer01.jpg","img/object_images/measuring_tape02.jpg","1","0","1","0","0","1","0.489158699987456",NA,"0.446772299939767","1","0","1","1","0","1","1","0","1"
"260028","img/object_images/measuring_tape02.jpg","img/object_images/socks02.jpg","img/object_images/golf_ball03.jpg","1","1","0","1","0","1","0.446772299939767","0.489158699987456",NA,"1","1","0","1","1","0","1","1","0"
"260028","img/object_images/golf_ball03.jpg","img/object_images/measuring_tape02.jpg","img/object_images/bath_tub01.jpg","0","1","0","1","1","0",NA,"0.446772299939767",NA,"0","1","0","0","1","0","0","1","0"
"260028","img/object_images/bath_tub01.jpg","img/object_images/golf_ball03.jpg","img/object_images/gift_box02.jpg","0","0","1","0","1","1",NA,NA,"0.486706899944693","0","0","1","0","0","1","0","0","1"
"260028","img/object_images/gift_box02.jpg","img/object_images/bath_tub01.jpg","img/object_images/fork03.jpg","1","0","0","1","0","1","0.486706899944693",NA,NA,"1","0","0","1","0","0","1","0","0"
"260028","img/object_images/fork03.jpg","img/object_images/gift_box02.jpg","img/object_images/clip02.jpg","0","1","1","1","1","1",NA,"0.486706899944693","0.479816599981859","0","1","1","0","1","1","0","1","1"
"260028","img/object_images/clip02.jpg","img/object_images/fork03.jpg","img/object_images/funnel01.jpg","1","0","0","1","1","0","0.479816599981859",NA,NA,"1","0","0","1","0","0","1","0","0"
"260028","img/object_images/funnel01.jpg","img/object_images/clip02.jpg","img/object_images/paper_cup01.jpg","0","1","1","0","1","0",NA,"0.479816599981859","0.489843699964695","0","1","1","0","1","1","0","1","1"
"260028","img/object_images/paper_cup01.jpg","img/object_images/funnel01.jpg","img/object_images/handkerchief01.jpg","1","0","0","0","0","0","0.489843699964695",NA,NA,"1","0","0","1","0","0","1","0","0"
"260028","img/object_images/handkerchief01.jpg","img/object_images/paper_cup01.jpg","img/object_images/sleeping_bag01.jpg","0","1","0","0","0","0",NA,"0.489843699964695",NA,"0","1","0","0","1","0","0","1","0"
"260028","img/object_images/sleeping_bag01.jpg","img/object_images/handkerchief01.jpg","img/object_images/gift_box01.jpg","0","0","0","0","0","1",NA,NA,NA,"0","0","0","0","0","0","0","0","0"
"260028","img/object_images/gift_box01.jpg","img/object_images/sleeping_bag01.jpg","img/object_images/lock04.jpg","0","0","0","1","0","1",NA,NA,NA,"0","0","0","0","0","0","0","0","0"
"260028","img/object_images/lock04.jpg","img/object_images/gift_box01.jpg","img/object_images/ironing_table01.jpg","0","0","1","1","1","0",NA,NA,"0.446593899978325","0","0","1","0","0","1","0","0","1"
"260028","img/object_images/ironing_table01.jpg","img/object_images/lock04.jpg","img/object_images/wallet02.jpg","1","0","1","0","1","1","0.446593899978325",NA,"0.421516000060365","1","0","1","1","0","1","1","0","1"
"260028","img/object_images/wallet02.jpg","img/object_images/ironing_table01.jpg","img/object_images/coloring_pencil01.jpg","1","1","1","1","0","1","0.421516000060365","0.446593899978325","0.371822800021619","1","1","1","1","1","1","1","1","1"
"260028","img/object_images/coloring_pencil01.jpg","img/object_images/wallet02.jpg","img/object_images/grater01.jpg","1","1","1","1","1","1","0.371822800021619","0.421516000060365","0.396609599934891","1","1","1","1","1","1","1","1","1"
"260028","img/object_images/grater01.jpg","img/object_images/coloring_pencil01.jpg","img/object_images/jewelry01.jpg","1","1","0","1","1","1","0.396609599934891","0.371822800021619",NA,"1","1","0","1","1","0","1","1","0"
"260028","img/object_images/jewelry01.jpg","img/object_images/grater01.jpg","img/object_images/Screws01.jpg","0","1","0","1","1","1",NA,"0.396609599934891",NA,"0","1","0","0","1","0","0","1","0"
"260028","img/object_images/Screws01.jpg","img/object_images/jewelry01.jpg","img/object_images/vga_port 01.jpg","0","0","0","1","1","0",NA,NA,"0.351020900066942","0","0","1","0","0","1","0","0","1"
"260028","img/object_images/vga_port 01.jpg","img/object_images/Screws01.jpg","img/object_images/lawn_mower01.jpg","0","0","1","0","1","1","0.351020900066942",NA,"0.478725899942219","1","0","1","1","0","1","1","0","1"
"260028","img/object_images/lawn_mower01.jpg","img/object_images/vga_port 01.jpg","img/object_images/dresser04.jpg","1","0","0","1","0","0","0.478725899942219","0.351020900066942",NA,"1","1","0","1","1","0","1","1","0"
"260028","img/object_images/dresser04.jpg","img/object_images/lawn_mower01.jpg","img/object_images/balloon01.jpg","0","1","0","0","1","0",NA,"0.478725899942219",NA,"0","1","0","0","1","0","0","1","0"
"260028","img/object_images/balloon01.jpg","img/object_images/dresser04.jpg",NA,"0","0",NA,"0","0",NA,NA,NA,NA,"0","0",NA,"0","0",NA,"0","0",NA
"260028","img/object_images/toy05.jpg",NA,"img/object_images/chair02.jpg","1",NA,"1","0",NA,"1","0.698565699975006",NA,"0.452651700004935","1",NA,"1","1",NA,"1","1",NA,"1"
"260028","img/object_images/chair02.jpg","img/object_images/toy05.jpg","img/object_images/Vest02.jpg","1","1","1","1","0","0","0.452651700004935","0.698565699975006","0.66306920000352","1","1","1","1","1","1","1","1","1"
"260028","img/object_images/Vest02.jpg","img/object_images/chair02.jpg","img/object_images/Lint_Roller02.jpg","1","1","0","0","1","0","0.66306920000352","0.452651700004935",NA,"1","1","0","1","1","0","1","1","0"
"260028","img/object_images/Lint_Roller02.jpg","img/object_images/Vest02.jpg","img/object_images/microphone03.jpg","0","1","0","0","0","1",NA,"0.66306920000352",NA,"0","1","0","0","1","0","0","1","0"
"260028","img/object_images/microphone03.jpg","img/object_images/Lint_Roller02.jpg","img/object_images/combs01.jpg","0","0","0","1","0","1",NA,NA,NA,"0","0","0","0","0","0","0","0","0"
"260028","img/object_images/combs01.jpg","img/object_images/microphone03.jpg","img/object_images/calculator01.jpg","0","0","1","1","1","1",NA,NA,"0.389845600002445","0","0","1","0","0","1","0","0","1"
"260028","img/object_images/calculator01.jpg","img/object_images/combs01.jpg","img/object_images/umbrella01.jpg","1","0","1","1","1","0","0.389845600002445",NA,"0.49350310000591","1","0","1","1","0","1","1","0","1"
"260028","img/object_images/umbrella01.jpg","img/object_images/calculator01.jpg","img/object_images/laptop03.jpg","1","1","1","0","1","1","0.49350310000591","0.389845600002445","0.399980899994262","1","1","1","1","1","1","1","1","1"
"260028","img/object_images/laptop03.jpg","img/object_images/umbrella01.jpg","img/object_images/backpack03.jpg","1","1","0","1","0","1","0.399980899994262","0.49350310000591",NA,"1","1","0","1","1","0","1","1","0"
"260028","img/object_images/backpack03.jpg","img/object_images/laptop03.jpg","img/object_images/fan04.jpg","0","1","0","1","1","0",NA,"0.399980899994262",NA,"0","1","0","0","1","0","0","1","0"
"260028","img/object_images/fan04.jpg","img/object_images/backpack03.jpg","img/object_images/robe01.jpg","0","0","1","0","1","1",NA,NA,"0.420454300008714","0","0","1","0","0","1","0","0","1"
"260028","img/object_images/robe01.jpg","img/object_images/fan04.jpg","img/object_images/chess_piece01.jpg","1","0","0","1","0","0","0.420454300008714",NA,NA,"1","0","0","1","0","0","1","0","0"
"260028","img/object_images/chess_piece01.jpg","img/object_images/robe01.jpg","img/object_images/hair_dryer01.jpg","0","1","0","0","1","0",NA,"0.420454300008714","0.32145050005056","0","1","1","0","1","1","0","1","1"
"260028","img/object_images/hair_dryer01.jpg","img/object_images/chess_piece01.jpg","img/object_images/shoes08.jpg","0","0","1","0","0","1","0.32145050005056",NA,"0.410386199946515","1","0","1","1","0","1","1","0","1"
"260028","img/object_images/shoes08.jpg","img/object_images/hair_dryer01.jpg","img/object_images/surf_board01.jpg","1","0","0","1","0","1","0.410386199946515","0.32145050005056",NA,"1","1","0","1","1","0","1","1","0"
"260028","img/object_images/surf_board01.jpg","img/object_images/shoes08.jpg","img/object_images/vase01.jpg","0","1","1","1","1","0",NA,"0.410386199946515","0.444667900097556","0","1","1","0","1","1","0","1","1"
"260028","img/object_images/vase01.jpg","img/object_images/surf_board01.jpg","img/object_images/bucket02.jpg","1","0","0","0","1","1","0.444667900097556",NA,NA,"1","0","0","1","0","0","1","0","0"
"260028","img/object_images/bucket02.jpg","img/object_images/vase01.jpg","img/object_images/helmet02.jpg","0","1","1","1","0","0",NA,"0.444667900097556","0.457536000059918","0","1","1","0","1","1","0","1","1"
"260028","img/object_images/helmet02.jpg","img/object_images/bucket02.jpg","img/object_images/laptop01.jpg","1","0","0","0","1","0","0.457536000059918",NA,NA,"1","0","0","1","0","0","1","0","0"
"260028","img/object_images/laptop01.jpg","img/object_images/helmet02.jpg","img/object_images/spatula02.jpg","0","1","0","0","0","1",NA,"0.457536000059918",NA,"0","1","0","0","1","0","0","1","0"
"260028","img/object_images/spatula02.jpg","img/object_images/laptop01.jpg","img/object_images/gift_box05.jpg","0","0","1","1","0","0",NA,NA,"0.363886899896897","0","0","1","0","0","1","0","0","1"
"260028","img/object_images/gift_box05.jpg","img/object_images/spatula02.jpg","img/object_images/lock01.jpg","1","0","1","0","1","0","0.363886899896897",NA,"0.430058900034055","1","0","1","1","0","1","1","0","1"
"260028","img/object_images/lock01.jpg","img/object_images/gift_box05.jpg","img/object_images/towels01.jpg","1","1","0","0","0","0","0.430058900034055","0.363886899896897",NA,"1","1","0","1","1","0","1","1","0"
"260028","img/object_images/towels01.jpg","img/object_images/lock01.jpg","img/object_images/jewel03.jpg","0","1","1","0","0","1",NA,"0.430058900034055","0.584528999985196","0","1","1","0","1","1","0","1","1"
"260028","img/object_images/jewel03.jpg","img/object_images/towels01.jpg","img/object_images/accardion01.jpg","1","0","0","1","0","1","0.584528999985196",NA,NA,"1","0","0","1","0","0","1","0","0"
"260028","img/object_images/accardion01.jpg","img/object_images/jewel03.jpg","img/object_images/hair_brush02.jpg","0","1","1","1","1","0",NA,"0.584528999985196","0.445558800012805","0","1","1","0","1","1","0","1","1"
"260028","img/object_images/hair_brush02.jpg","img/object_images/accardion01.jpg","img/object_images/pitcher05.jpg","1","0","0","0","1","0","0.445558800012805",NA,NA,"1","0","0","1","0","0","1","0","0"
"260028","img/object_images/pitcher05.jpg","img/object_images/hair_brush02.jpg","img/object_images/trash_can03.jpg","0","1","1","0","0","1",NA,"0.445558800012805","0.419595299987122","0","1","1","0","1","1","0","1","1"
"260028","img/object_images/trash_can03.jpg","img/object_images/pitcher05.jpg","img/object_images/trash_can05.jpg","1","0","1","1","0","1","0.419595299987122",NA,"0.412477100035176","1","0","1","1","0","1","1","0","1"
"260028","img/object_images/trash_can05.jpg","img/object_images/trash_can03.jpg","img/object_images/stove01.jpg","1","1","0","1","1","0","0.412477100035176","0.419595299987122",NA,"1","1","0","1","1","0","1","1","0"
"260028","img/object_images/stove01.jpg","img/object_images/trash_can05.jpg","img/object_images/ball02.jpg","0","1","0","0","1","1",NA,"0.412477100035176",NA,"0","1","0","0","1","0","0","1","0"
"260028","img/object_images/ball02.jpg","img/object_images/stove01.jpg",NA,"0","0",NA,"1","0",NA,NA,NA,NA,"0","0",NA,"0","0",NA,"0","0",NA
"260028","img/object_images/scoreboard01.jpg",NA,"img/object_images/shoes07.jpg","0",NA,"0","1",NA,"0",NA,NA,NA,"0",NA,"0","0",NA,"0","0",NA,"0"
"260028","img/object_images/shoes07.jpg","img/object_images/scoreboard01.jpg","img/object_images/bottle10.jpg","0","0","0","0","1","1",NA,NA,NA,"0","0","0","0","0","0","0","0","0"
"260028","img/object_images/bottle10.jpg","img/object_images/shoes07.jpg","img/object_images/WoodBox01.jpg","0","0","1","1","0","0",NA,NA,"0.409270999953151","0","0","1","0","0","1","0","0","1"
"260028","img/object_images/WoodBox01.jpg","img/object_images/bottle10.jpg","img/object_images/hot_air_balloon02.jpg","1","0","0","0","1","0","0.409270999953151",NA,NA,"1","0","0","1","0","0","1","0","0"
"260028","img/object_images/hot_air_balloon02.jpg","img/object_images/WoodBox01.jpg","img/object_images/bottle09.jpg","0","1","1","0","0","0",NA,"0.409270999953151","0.501057900022715","0","1","1","0","1","1","0","1","1"
"260028","img/object_images/bottle09.jpg","img/object_images/hot_air_balloon02.jpg","img/object_images/boat_toy10.jpg","1","0","1","0","0","0","0.501057900022715",NA,"0.475415499997325","1","0","1","1","0","1","1","0","1"
"260028","img/object_images/boat_toy10.jpg","img/object_images/bottle09.jpg","img/object_images/perfume02.jpg","1","1","0","0","0","0","0.475415499997325","0.501057900022715",NA,"1","1","0","1","1","0","1","1","0"
"260028","img/object_images/perfume02.jpg","img/object_images/boat_toy10.jpg","img/object_images/chair03.jpg","0","1","0","0","0","0",NA,"0.475415499997325",NA,"0","1","0","0","1","0","0","1","0"
"260028","img/object_images/chair03.jpg","img/object_images/perfume02.jpg","img/object_images/toaster01.jpg","0","0","0","0","0","1",NA,NA,NA,"0","0","0","0","0","0","0","0","0"
"260028","img/object_images/toaster01.jpg","img/object_images/chair03.jpg","img/object_images/toilet_paper_dispenser01.jpg","0","0","1","1","0","1",NA,NA,"0.551020300015807","0","0","1","0","0","1","0","0","1"
"260028","img/object_images/toilet_paper_dispenser01.jpg","img/object_images/toaster01.jpg","img/object_images/hat06.jpg","1","0","0","1","1","0","0.551020300015807",NA,NA,"1","0","0","1","0","0","1","0","0"
"260028","img/object_images/hat06.jpg","img/object_images/toilet_paper_dispenser01.jpg","img/object_images/audio_port01.jpg","0","1","1","0","1","1",NA,"0.551020300015807","0.45364670001436","0","1","1","0","1","1","0","1","1"
"260028","img/object_images/audio_port01.jpg","img/object_images/hat06.jpg","img/object_images/purse04.jpg","1","0","1","1","0","1","0.45364670001436",NA,"0.392260799999349","1","0","1","1","0","1","1","0","1"
"260028","img/object_images/purse04.jpg","img/object_images/audio_port01.jpg","img/object_images/bicycle01.jpg","1","1","0","1","1","1","0.392260799999349","0.45364670001436",NA,"1","1","0","1","1","0","1","1","0"
"260028","img/object_images/bicycle01.jpg","img/object_images/purse04.jpg","img/object_images/water_scooter01.jpg","0","1","0","1","1","1",NA,"0.392260799999349",NA,"0","1","0","0","1","0","0","1","0"
"260028","img/object_images/water_scooter01.jpg","img/object_images/bicycle01.jpg","img/object_images/piggy_bank01.jpg","0","0","1","1","1","1",NA,NA,"0.412085899966769","0","0","1","0","0","1","0","0","1"
"260028","img/object_images/piggy_bank01.jpg","img/object_images/water_scooter01.jpg","img/object_images/cellphone03.jpg","1","0","0","1","1","0","0.412085899966769",NA,NA,"1","0","0","1","0","0","1","0","0"
"260028","img/object_images/cellphone03.jpg","img/object_images/piggy_bank01.jpg","img/object_images/camera_lens01.jpg","0","1","1","0","1","1",NA,"0.412085899966769","0.363836800097488","0","1","1","0","1","1","0","1","1"
"260028","img/object_images/camera_lens01.jpg","img/object_images/cellphone03.jpg","img/object_images/knit01.jpg","1","0","0","1","0","0","0.363836800097488",NA,NA,"1","0","0","1","0","0","1","0","0"
"260028","img/object_images/knit01.jpg","img/object_images/camera_lens01.jpg","img/object_images/coloring_pencil02.jpg","0","1","1","0","1","0",NA,"0.363836800097488","0.530950500047766","0","1","1","0","1","1","0","1","1"
"260028","img/object_images/coloring_pencil02.jpg","img/object_images/knit01.jpg","img/object_images/wagon_cart03.jpg","1","0","0","0","0","1","0.530950500047766",NA,NA,"1","0","0","1","0","0","1","0","0"
"260028","img/object_images/wagon_cart03.jpg","img/object_images/coloring_pencil02.jpg","img/object_images/helmet04.jpg","0","1","1","1","0","1",NA,"0.530950500047766","0.407474800013006","0","1","1","0","1","1","0","1","1"
"260028","img/object_images/helmet04.jpg","img/object_images/wagon_cart03.jpg","img/object_images/tie02.jpg","1","0","0","1","1","0","0.407474800013006",NA,NA,"1","0","0","1","0","0","1","0","0"
"260028","img/object_images/tie02.jpg","img/object_images/helmet04.jpg","img/object_images/tool19.jpg","0","1","1","0","1","1",NA,"0.407474800013006","0.489663300104439","0","1","1","0","1","1","0","1","1"
"260028","img/object_images/tool19.jpg","img/object_images/tie02.jpg","img/object_images/bottle02.jpg","1","0","0","1","0","1","0.489663300104439",NA,NA,"1","0","0","1","0","0","1","0","0"
"260028","img/object_images/bottle02.jpg","img/object_images/tool19.jpg","img/object_images/pen05.jpg","0","1","0","1","1","0",NA,"0.489663300104439",NA,"0","1","0","0","1","0","0","1","0"
"260028","img/object_images/pen05.jpg","img/object_images/bottle02.jpg","img/object_images/fan02.jpg","0","0","1","0","1","0",NA,NA,"0.555191799998283","0","0","1","0","0","1","0","0","1"
"260028","img/object_images/fan02.jpg","img/object_images/pen05.jpg","img/object_images/dog_leash01.jpg","1","0","1","0","0","0","0.555191799998283",NA,"0.500370900030248","1","0","1","1","0","1","1","0","1"
"260028","img/object_images/dog_leash01.jpg","img/object_images/fan02.jpg","img/object_images/bean_bag02.jpg","1","1","0","0","0","1","0.500370900030248","0.555191799998283",NA,"1","1","0","1","1","0","1","1","0"
"260028","img/object_images/bean_bag02.jpg","img/object_images/dog_leash01.jpg","img/object_images/flask01.jpg","0","1","1","1","0","0",NA,"0.500370900030248","0.475251300027594","0","1","1","0","1","1","0","1","1"
"260028","img/object_images/flask01.jpg","img/object_images/bean_bag02.jpg","img/object_images/boat02.jpg","1","0","1","0","1","1","0.475251300027594",NA,"0.40614119998645","1","0","1","1","0","1","1","0","1"
"260028","img/object_images/boat02.jpg","img/object_images/flask01.jpg",NA,"1","1",NA,"1","0",NA,"0.40614119998645","0.475251300027594",NA,"1","1",NA,"1","1",NA,"1","1",NA
"260028","img/object_images/pen06.jpg",NA,"img/object_images/hat13.jpg","1",NA,"1","0",NA,"1","0.488157100044191",NA,"0.369803400011733","1",NA,"1","1",NA,"1","1",NA,"1"
"260028","img/object_images/hat13.jpg","img/object_images/pen06.jpg","img/object_images/Candle_Holder01.jpg","1","1","1","1","0","0","0.369803400011733","0.488157100044191","0.388731500017457","1","1","1","1","1","1","1","1","1"
"260028","img/object_images/Candle_Holder01.jpg","img/object_images/hat13.jpg","img/object_images/cup01.jpg","1","1","1","0","1","0","0.388731500017457","0.369803400011733","0.518432299955748","1","1","1","1","1","1","1","1","1"
"260028","img/object_images/cup01.jpg","img/object_images/Candle_Holder01.jpg","img/object_images/tool13.jpg","1","1","1","0","0","1","0.518432299955748","0.388731500017457","0.379789600032382","1","1","1","1","1","1","1","1","1"
"260028","img/object_images/tool13.jpg","img/object_images/cup01.jpg","img/object_images/vase02.jpg","1","1","1","1","0","1","0.379789600032382","0.518432299955748","0.393746900022961","1","1","1","1","1","1","1","1","1"
"260028","img/object_images/vase02.jpg","img/object_images/tool13.jpg","img/object_images/bow_tie03.jpg","1","1","1","1","1","1","0.393746900022961","0.379789600032382","0.409097999916412","1","1","1","1","1","1","1","1","1"
"260028","img/object_images/bow_tie03.jpg","img/object_images/vase02.jpg","img/object_images/ruler02.jpg","1","1","1","1","1","1","0.409097999916412","0.393746900022961","0.422583300038241","1","1","1","1","1","1","1","1","1"
"260028","img/object_images/ruler02.jpg","img/object_images/bow_tie03.jpg","img/object_images/clipboard01.jpg","1","1","1","1","1","1","0.422583300038241","0.409097999916412","0.462066300096922","1","1","1","1","1","1","1","1","1"
"260028","img/object_images/clipboard01.jpg","img/object_images/ruler02.jpg","img/object_images/dust_pan01.jpg","1","1","1","1","1","1","0.462066300096922","0.422583300038241","0.406102500041015","1","1","1","1","1","1","1","1","1"
"260028","img/object_images/dust_pan01.jpg","img/object_images/clipboard01.jpg","img/object_images/bag04.jpg","1","1","1","1","1","0","0.406102500041015","0.462066300096922","0.468541400041431","1","1","1","1","1","1","1","1","1"
"260028","img/object_images/bag04.jpg","img/object_images/dust_pan01.jpg","img/object_images/hat09.jpg","1","1","1","0","1","0","0.468541400041431","0.406102500041015","0.559510099934414","1","1","1","1","1","1","1","1","1"
"260028","img/object_images/hat09.jpg","img/object_images/bag04.jpg","img/object_images/floss01.jpg","1","1","1","0","0","1","0.559510099934414","0.468541400041431","0.353697799961083","1","1","1","1","1","1","1","1","1"
"260028","img/object_images/floss01.jpg","img/object_images/hat09.jpg","img/object_images/knife01.jpg","1","1","1","1","0","1","0.353697799961083","0.559510099934414","0.36387839994859","1","1","1","1","1","1","1","1","1"
"260028","img/object_images/knife01.jpg","img/object_images/floss01.jpg","img/object_images/lemon_squeezer01.jpg","1","1","1","1","1","1","0.36387839994859","0.353697799961083","0.419649700052105","1","1","1","1","1","1","1","1","1"
"260028","img/object_images/lemon_squeezer01.jpg","img/object_images/knife01.jpg","img/object_images/Confetti 01.jpg","1","1","1","1","1","0","0.419649700052105","0.36387839994859","0.475129999918863","1","1","1","1","1","1","1","1","1"
"260028","img/object_images/Confetti 01.jpg","img/object_images/lemon_squeezer01.jpg","img/object_images/sink_filter01 (1).jpg","1","1","1","0","1","0","0.475129999918863","0.419649700052105","0.451917099999264","1","1","1","1","1","1","1","1","1"
"260028","img/object_images/sink_filter01 (1).jpg","img/object_images/Confetti 01.jpg","img/object_images/glasses03.jpg","1","1","1","0","0","0","0.451917099999264","0.475129999918863","0.451234699925408","1","1","1","1","1","1","1","1","1"
"260028","img/object_images/glasses03.jpg","img/object_images/sink_filter01 (1).jpg","img/object_images/tool20.jpg","1","1","1","0","0","0","0.451234699925408","0.451917099999264","0.439049000036903","1","1","1","1","1","1","1","1","1"
"260028","img/object_images/tool20.jpg","img/object_images/glasses03.jpg","img/object_images/duster01.jpg","1","1","1","0","0","0","0.439049000036903","0.451234699925408","0.396980399964377","1","1","1","1","1","1","1","1","1"
"260028","img/object_images/duster01.jpg","img/object_images/tool20.jpg","img/object_images/office_supplies01.jpg","1","1","1","0","0","1","0.396980399964377","0.439049000036903","0.4275115999626","1","1","1","1","1","1","1","1","1"
"260028","img/object_images/office_supplies01.jpg","img/object_images/duster01.jpg","img/object_images/board01.jpg","1","1","1","1","0","1","0.4275115999626","0.396980399964377","0.363069899962284","1","1","1","1","1","1","1","1","1"
"260028","img/object_images/board01.jpg","img/object_images/office_supplies01.jpg","img/object_images/socks01.jpg","1","1","1","1","1","1","0.363069899962284","0.4275115999626","0.350261899991892","1","1","1","1","1","1","1","1","1"
"260028","img/object_images/socks01.jpg","img/object_images/board01.jpg","img/object_images/sign02.jpg","1","1","1","1","1","0","0.350261899991892","0.363069899962284","0.46681010001339","1","1","1","1","1","1","1","1","1"
"260028","img/object_images/sign02.jpg","img/object_images/socks01.jpg","img/object_images/hammer02.jpg","1","1","1","0","1","0","0.46681010001339","0.350261899991892","0.578395299962722","1","1","1","1","1","1","1","1","1"
"260028","img/object_images/hammer02.jpg","img/object_images/sign02.jpg","img/object_images/pan03.jpg","1","1","1","0","0","1","0.578395299962722","0.46681010001339","0.383552699931897","1","1","1","1","1","1","1","1","1"
"260028","img/object_images/pan03.jpg","img/object_images/hammer02.jpg","img/object_images/camera05.jpg","1","1","1","1","0","0","0.383552699931897","0.578395299962722","0.607062499970198","1","1","1","1","1","1","1","1","1"
"260028","img/object_images/camera05.jpg","img/object_images/pan03.jpg","img/object_images/video_game02.jpg","1","1","1","0","1","1","0.607062499970198","0.383552699931897","0.458816400030628","1","1","1","1","1","1","1","1","1"
"260028","img/object_images/video_game02.jpg","img/object_images/camera05.jpg","img/object_images/razor02.jpg","1","1","1","1","0","1","0.458816400030628","0.607062499970198","0.440252600004897","1","1","1","1","1","1","1","1","1"
"260028","img/object_images/razor02.jpg","img/object_images/video_game02.jpg","img/object_images/candle02.jpg","1","1","1","1","1","0","0.440252600004897","0.458816400030628","0.522349999984726","1","1","1","1","1","1","1","1","1"
"260028","img/object_images/candle02.jpg","img/object_images/razor02.jpg","img/object_images/spray_can01.jpg","1","1","1","0","1","0","0.522349999984726","0.440252600004897","0.432147999992594","1","1","1","1","1","1","1","1","1"
"260028","img/object_images/spray_can01.jpg","img/object_images/candle02.jpg","img/object_images/perfume01.jpg","1","1","1","0","0","0","0.432147999992594","0.522349999984726","0.432668099994771","1","1","1","1","1","1","1","1","1"
"260028","img/object_images/perfume01.jpg","img/object_images/spray_can01.jpg",NA,"1","1",NA,"0","0",NA,"0.432668099994771","0.432147999992594",NA,"1","1",NA,"1","1",NA,"1","1",NA
"260028","img/object_images/piano03.jpg",NA,"img/object_images/phone04.jpg","1",NA,"1","0",NA,"1","0.483590200077742",NA,"0.389827899984084","1",NA,"1","1",NA,"1","1",NA,"1"
"260028","img/object_images/phone04.jpg","img/object_images/piano03.jpg","img/object_images/egg_basket01.jpg","1","1","1","1","0","1","0.389827899984084","0.483590200077742","0.529822599957697","1","1","1","1","1","1","1","1","1"
"260028","img/object_images/egg_basket01.jpg","img/object_images/phone04.jpg","img/object_images/joystick03.jpg","1","1","1","1","1","1","0.529822599957697","0.389827899984084","0.408263000077568","1","1","1","1","1","1","1","1","1"
"260028","img/object_images/joystick03.jpg","img/object_images/egg_basket01.jpg","img/object_images/trumpet01.jpg","1","1","1","1","1","0","0.408263000077568","0.529822599957697","0.402982700034045","1","1","1","1","1","1","1","1","1"
"260028","img/object_images/trumpet01.jpg","img/object_images/joystick03.jpg","img/object_images/lock03.jpg","1","1","1","0","1","1","0.402982700034045","0.408263000077568","0.349698200006969","1","1","1","1","1","1","1","1","1"
"260028","img/object_images/lock03.jpg","img/object_images/trumpet01.jpg","img/object_images/note_book02.jpg","1","1","0","1","0","0","0.349698200006969","0.402982700034045","0.336761899990961","1","1","1","1","1","1","1","1","1"
"260028","img/object_images/note_book02.jpg","img/object_images/lock03.jpg","img/object_images/pitcher07.jpg","0","1","1","0","1","1","0.336761899990961","0.349698200006969","0.349874299950898","1","1","1","1","1","1","1","1","1"
"260028","img/object_images/pitcher07.jpg","img/object_images/note_book02.jpg","img/object_images/water_gun01.jpg","1","0","1","1","0","1","0.349874299950898","0.336761899990961","0.377004900015891","1","1","1","1","1","1","1","1","1"
"260028","img/object_images/water_gun01.jpg","img/object_images/pitcher07.jpg","img/object_images/nut_cracker01.jpg","1","1","1","1","1","1","0.377004900015891","0.349874299950898","0.361629700055346","1","1","1","1","1","1","1","1","1"
"260028","img/object_images/nut_cracker01.jpg","img/object_images/water_gun01.jpg","img/object_images/Shoes05.jpg","1","1","1","1","1","0","0.361629700055346","0.377004900015891","0.484592600027099","1","1","1","1","1","1","1","1","1"
"260028","img/object_images/Shoes05.jpg","img/object_images/nut_cracker01.jpg","img/object_images/fan01.jpg","1","1","0","0","1","0","0.484592600027099","0.361629700055346","0.447966899955645","1","1","1","1","1","1","1","1","1"
"260028","img/object_images/fan01.jpg","img/object_images/Shoes05.jpg","img/object_images/scale02.jpg","0","1","1","0","0","0","0.447966899955645","0.484592600027099","0.469252399983816","1","1","1","1","1","1","1","1","1"
"260028","img/object_images/scale02.jpg","img/object_images/fan01.jpg","img/object_images/helmet03.jpg","1","0","1","0","0","1","0.469252399983816","0.447966899955645","0.45683070004452","1","1","1","1","1","1","1","1","1"
"260028","img/object_images/helmet03.jpg","img/object_images/scale02.jpg","img/object_images/bucket01.jpg","1","1","1","1","0","1","0.45683070004452","0.469252399983816","0.53880029998254","1","1","1","1","1","1","1","1","1"
"260028","img/object_images/bucket01.jpg","img/object_images/helmet03.jpg","img/object_images/Eyeliner01.jpg","1","1","1","1","1","1","0.53880029998254","0.45683070004452","0.40023020002991","1","1","1","1","1","1","1","1","1"
"260028","img/object_images/Eyeliner01.jpg","img/object_images/bucket01.jpg","img/object_images/shovel01.jpg","1","1","1","1","1","0","0.40023020002991","0.53880029998254","0.39109869999811","1","1","1","1","1","1","1","1","1"
"260028","img/object_images/shovel01.jpg","img/object_images/Eyeliner01.jpg","img/object_images/Safe01.jpg","1","1","1","0","1","1","0.39109869999811","0.40023020002991","0.386749199940823","1","1","1","1","1","1","1","1","1"
"260028","img/object_images/Safe01.jpg","img/object_images/shovel01.jpg","img/object_images/bookmark01.jpg","1","1","1","1","0","0","0.386749199940823","0.39109869999811","0.537611400010064","1","1","1","1","1","1","1","1","1"
"260028","img/object_images/bookmark01.jpg","img/object_images/Safe01.jpg","img/object_images/dice01.jpg","1","1","1","0","1","0","0.537611400010064","0.386749199940823","0.663277700077742","1","1","1","1","1","1","1","1","1"
"260028","img/object_images/dice01.jpg","img/object_images/bookmark01.jpg","img/object_images/TreeSlice01.jpg","1","1","1","0","0","1","0.663277700077742","0.537611400010064","0.451298699947074","1","1","1","1","1","1","1","1","1"
"260028","img/object_images/TreeSlice01.jpg","img/object_images/dice01.jpg","img/object_images/origami01.jpg","1","1","1","1","0","1","0.451298699947074","0.663277700077742","0.322117400006391","1","1","1","1","1","1","1","1","1"
"260028","img/object_images/origami01.jpg","img/object_images/TreeSlice01.jpg","img/object_images/usb03.jpg","1","1","1","1","1","0","0.322117400006391","0.451298699947074","0.410185399930924","1","1","1","1","1","1","1","1","1"
"260028","img/object_images/usb03.jpg","img/object_images/origami01.jpg","img/object_images/headset02.jpg","1","1","1","0","1","0","0.410185399930924","0.322117400006391","0.515400700038299","1","1","1","1","1","1","1","1","1"
"260028","img/object_images/headset02.jpg","img/object_images/usb03.jpg","img/object_images/jewel02.jpg","1","1","1","0","0","0","0.515400700038299","0.410185399930924","0.506870599929243","1","1","1","1","1","1","1","1","1"
"260028","img/object_images/jewel02.jpg","img/object_images/headset02.jpg","img/object_images/bottle06.jpg","1","1","1","0","0","0","0.506870599929243","0.515400700038299","0.470965799991973","1","1","1","1","1","1","1","1","1"
"260028","img/object_images/bottle06.jpg","img/object_images/jewel02.jpg","img/object_images/tennis_racket01.jpg","1","1","1","0","0","1","0.470965799991973","0.506870599929243","0.393726999987848","1","1","1","1","1","1","1","1","1"
"260028","img/object_images/tennis_racket01.jpg","img/object_images/bottle06.jpg","img/object_images/ToolBag01.jpg","1","1","1","1","0","0","0.393726999987848","0.470965799991973","0.418838599929586","1","1","1","1","1","1","1","1","1"
"260028","img/object_images/ToolBag01.jpg","img/object_images/tennis_racket01.jpg","img/object_images/frame01.jpg","1","1","1","0","1","1","0.418838599929586","0.393726999987848","0.403894999995828","1","1","1","1","1","1","1","1","1"
"260028","img/object_images/frame01.jpg","img/object_images/ToolBag01.jpg","img/object_images/badminton01.jpg","1","1","1","1","0","1","0.403894999995828","0.418838599929586","0.467419399996288","1","1","1","1","1","1","1","1","1"
"260028","img/object_images/badminton01.jpg","img/object_images/frame01.jpg","img/object_images/yoga_mat01.jpg","1","1","1","1","1","0","0.467419399996288","0.403894999995828","0.482867799932137","1","1","1","1","1","1","1","1","1"
"260028","img/object_images/yoga_mat01.jpg","img/object_images/badminton01.jpg","img/object_images/belt03.jpg","1","1","1","0","1","0","0.482867799932137","0.467419399996288","0.437345599988475","1","1","1","1","1","1","1","1","1"
"260028","img/object_images/belt03.jpg","img/object_images/yoga_mat01.jpg",NA,"1","1",NA,"0","0",NA,"0.437345599988475","0.482867799932137",NA,"1","1",NA,"1","1",NA,"1","1",NA
"260028","img/object_images/mask01.jpg",NA,"img/object_images/razor01.jpg","1",NA,"1","0",NA,"0","0.557435299968347",NA,"0.4012725999346","1",NA,"1","1",NA,"1","1",NA,"1"
"260028","img/object_images/razor01.jpg","img/object_images/mask01.jpg","img/object_images/bag06.jpg","1","1","1","0","0","1","0.4012725999346","0.557435299968347","0.386669100029394","1","1","1","1","1","1","1","1","1"
"260028","img/object_images/bag06.jpg","img/object_images/razor01.jpg","img/object_images/jewel01.jpg","1","1","1","1","0","0","0.386669100029394","0.4012725999346","0.451383200008422","1","1","1","1","1","1","1","1","1"
"260028","img/object_images/jewel01.jpg","img/object_images/bag06.jpg","img/object_images/shoes10.jpg","1","1","1","0","1","0","0.451383200008422","0.386669100029394","0.447203399962746","1","1","1","1","1","1","1","1","1"
"260028","img/object_images/shoes10.jpg","img/object_images/jewel01.jpg","img/object_images/screwdriver01.jpg","1","1","1","0","0","0","0.447203399962746","0.451383200008422","0.429603500058874","1","1","1","1","1","1","1","1","1"
"260028","img/object_images/screwdriver01.jpg","img/object_images/shoes10.jpg","img/object_images/chair04.jpg","1","1","1","0","0","1","0.429603500058874","0.447203399962746","0.411436500027776","1","1","1","1","1","1","1","1","1"
"260028","img/object_images/chair04.jpg","img/object_images/screwdriver01.jpg","img/object_images/ribbon01.jpg","1","1","1","1","0","0","0.411436500027776","0.429603500058874","0.452805599896237","1","1","1","1","1","1","1","1","1"
"260028","img/object_images/ribbon01.jpg","img/object_images/chair04.jpg","img/object_images/key02.jpg","1","1","1","0","1","1","0.452805599896237","0.411436500027776","0.428547899937257","1","1","1","1","1","1","1","1","1"
"260028","img/object_images/key02.jpg","img/object_images/ribbon01.jpg","img/object_images/satellite01.jpg","1","1","1","1","0","0","0.428547899937257","0.452805599896237","0.670653900015168","1","1","1","1","1","1","1","1","1"
"260028","img/object_images/satellite01.jpg","img/object_images/key02.jpg","img/object_images/ice_tray03.jpg","1","1","1","0","1","1","0.670653900015168","0.428547899937257","0.355844099889509","1","1","1","1","1","1","1","1","1"
"260028","img/object_images/ice_tray03.jpg","img/object_images/satellite01.jpg","img/object_images/toaster02.jpg","1","1","1","1","0","1","0.355844099889509","0.670653900015168","0.337501700036228","1","1","1","1","1","1","1","1","1"
"260028","img/object_images/toaster02.jpg","img/object_images/ice_tray03.jpg","img/object_images/rock03.jpg","1","1","1","1","1","0","0.337501700036228","0.355844099889509","0.479109699954279","1","1","1","1","1","1","1","1","1"
"260028","img/object_images/rock03.jpg","img/object_images/toaster02.jpg","img/object_images/tv01.jpg","1","1","0","0","1","0","0.479109699954279","0.337501700036228","0.403242900036275","1","1","1","1","1","1","1","1","1"
"260028","img/object_images/tv01.jpg","img/object_images/rock03.jpg","img/object_images/fan05.jpg","0","1","1","0","0","0","0.403242900036275","0.479109699954279","0.513404500088654","1","1","1","1","1","1","1","1","1"
"260028","img/object_images/fan05.jpg","img/object_images/tv01.jpg","img/object_images/shower_head03.jpg","1","0","1","0","0","1","0.513404500088654","0.403242900036275","0.411394800059497","1","1","1","1","1","1","1","1","1"
"260028","img/object_images/shower_head03.jpg","img/object_images/fan05.jpg","img/object_images/cutting_board01.jpg","1","1","1","1","0","1","0.411394800059497","0.513404500088654","0.371555399964564","1","1","1","1","1","1","1","1","1"
"260028","img/object_images/cutting_board01.jpg","img/object_images/shower_head03.jpg","img/object_images/dress03.jpg","1","1","1","1","1","1","0.371555399964564","0.411394800059497","0.403695599990897","1","1","1","1","1","1","1","1","1"
"260028","img/object_images/dress03.jpg","img/object_images/cutting_board01.jpg","img/object_images/car04.jpg","1","1","1","1","1","0","0.403695599990897","0.371555399964564","0.400747300009243","1","1","1","1","1","1","1","1","1"
"260028","img/object_images/car04.jpg","img/object_images/dress03.jpg","img/object_images/ladle02.jpg","1","1","1","0","1","0","0.400747300009243","0.403695599990897","0.454270199988969","1","1","1","1","1","1","1","1","1"
"260028","img/object_images/ladle02.jpg","img/object_images/car04.jpg","img/object_images/MeasuringCup01.jpg","1","1","1","0","0","1","0.454270199988969","0.400747300009243","0.341213000006974","1","1","1","1","1","1","1","1","1"
"260028","img/object_images/MeasuringCup01.jpg","img/object_images/ladle02.jpg","img/object_images/binoculars03.jpg","1","1","1","1","0","1","0.341213000006974","0.454270199988969","0.36047850002069","1","1","1","1","1","1","1","1","1"
"260028","img/object_images/binoculars03.jpg","img/object_images/MeasuringCup01.jpg","img/object_images/belt01.jpg","1","1","1","1","1","0","0.36047850002069","0.341213000006974","0.566512199933641","1","1","1","1","1","1","1","1","1"
"260028","img/object_images/belt01.jpg","img/object_images/binoculars03.jpg","img/object_images/cards01.jpg","1","1","1","0","1","0","0.566512199933641","0.36047850002069","0.473845700034872","1","1","1","1","1","1","1","1","1"
"260028","img/object_images/cards01.jpg","img/object_images/belt01.jpg","img/object_images/jewelry07.jpg","1","1","1","0","0","1","0.473845700034872","0.566512199933641","0.359311299980618","1","1","1","1","1","1","1","1","1"
"260028","img/object_images/jewelry07.jpg","img/object_images/cards01.jpg","img/object_images/yarn02.jpg","1","1","0","1","0","0","0.359311299980618","0.473845700034872","0.903162600006908","1","1","1","1","1","1","1","1","1"
"260028","img/object_images/yarn02.jpg","img/object_images/jewelry07.jpg","img/object_images/hair_brush05.jpg","0","1","1","0","1","1","0.903162600006908","0.359311299980618","0.483572300057858","1","1","1","1","1","1","1","1","1"
"260028","img/object_images/hair_brush05.jpg","img/object_images/yarn02.jpg","img/object_images/tool11.jpg","1","0","1","1","0","1","0.483572300057858","0.903162600006908","0.365249800030142","1","1","1","1","1","1","1","1","1"
"260028","img/object_images/tool11.jpg","img/object_images/hair_brush05.jpg","img/object_images/lemon_squeezer02.jpg","1","1","1","1","1","1","0.365249800030142","0.483572300057858","0.403188699972816","1","1","1","1","1","1","1","1","1"
"260028","img/object_images/lemon_squeezer02.jpg","img/object_images/tool11.jpg","img/object_images/slinky_toy01.jpg","1","1","1","1","1","1","0.403188699972816","0.365249800030142","0.37563190003857","1","1","1","1","1","1","1","1","1"
"260028","img/object_images/slinky_toy01.jpg","img/object_images/lemon_squeezer02.jpg","img/object_images/WitchHat02.jpg","1","1","1","1","1","1","0.37563190003857","0.403188699972816","0.423655700054951","1","1","1","1","1","1","1","1","1"
"260028","img/object_images/WitchHat02.jpg","img/object_images/slinky_toy01.jpg","img/object_images/car03.jpg","1","1","0","1","1","0","0.423655700054951","0.37563190003857","0.352699599927291","1","1","1","1","1","1","1","1","1"
"260028","img/object_images/car03.jpg","img/object_images/WitchHat02.jpg",NA,"0","1",NA,"0","1",NA,"0.352699599927291","0.423655700054951",NA,"1","1",NA,"1","1",NA,"1","1",NA
"260028","img/object_images/book01.jpg",NA,"img/object_images/Sprayer01.jpg","1",NA,"1","1",NA,"0","0.385045400005765",NA,"0.498895800090395","1",NA,"1","1",NA,"1","1",NA,"1"
"260028","img/object_images/Sprayer01.jpg","img/object_images/book01.jpg","img/object_images/hole_puncher01.jpg","1","1","1","0","1","1","0.498895800090395","0.385045400005765","0.391410199925303","1","1","1","1","1","1","1","1","1"
"260028","img/object_images/hole_puncher01.jpg","img/object_images/Sprayer01.jpg","img/object_images/TrashCan02.jpg","1","1","1","1","0","1","0.391410199925303","0.498895800090395","0.33829370001331","1","1","1","1","1","1","1","1","1"
"260028","img/object_images/TrashCan02.jpg","img/object_images/hole_puncher01.jpg","img/object_images/cellphone02.jpg","1","1","1","1","1","1","0.33829370001331","0.391410199925303","0.338977399980649","1","1","1","1","1","1","1","1","1"
"260028","img/object_images/cellphone02.jpg","img/object_images/TrashCan02.jpg","img/object_images/glasses06.jpg","1","1","1","1","1","1","0.338977399980649","0.33829370001331","0.355346099939197","1","1","1","1","1","1","1","1","1"
"260028","img/object_images/glasses06.jpg","img/object_images/cellphone02.jpg","img/object_images/colander01.jpg","1","1","1","1","1","0","0.355346099939197","0.338977399980649","0.455666299909353","1","1","1","1","1","1","1","1","1"
"260028","img/object_images/colander01.jpg","img/object_images/glasses06.jpg","img/object_images/hair_clips01.jpg","1","1","1","0","1","1","0.455666299909353","0.355346099939197","0.348979500005953","1","1","1","1","1","1","1","1","1"
"260028","img/object_images/hair_clips01.jpg","img/object_images/colander01.jpg","img/object_images/Traffic Sign 01.jpg","1","1","1","1","0","0","0.348979500005953","0.455666299909353","0.574727199971676","1","1","1","1","1","1","1","1","1"
"260028","img/object_images/Traffic Sign 01.jpg","img/object_images/hair_clips01.jpg","img/object_images/tool07.jpg","1","1","1","0","1","0","0.574727199971676","0.348979500005953","0.347104399930686","1","1","1","1","1","1","1","1","1"
"260028","img/object_images/tool07.jpg","img/object_images/Traffic Sign 01.jpg","img/object_images/faucet01.jpg","1","1","1","0","0","0","0.347104399930686","0.574727199971676","0.510964300017804","1","1","1","1","1","1","1","1","1"
"260028","img/object_images/faucet01.jpg","img/object_images/tool07.jpg","img/object_images/basket02.jpg","1","1","1","0","0","0","0.510964300017804","0.347104399930686","0.622615700005554","1","1","1","1","1","1","1","1","1"
"260028","img/object_images/basket02.jpg","img/object_images/faucet01.jpg","img/object_images/handcuffs01.jpg","1","1","1","0","0","0","0.622615700005554","0.510964300017804","0.465365000069141","1","1","1","1","1","1","1","1","1"
"260028","img/object_images/handcuffs01.jpg","img/object_images/basket02.jpg","img/object_images/fire_extinguisher01.jpg","1","1","1","0","0","0","0.465365000069141","0.622615700005554","0.423487999942154","1","1","1","1","1","1","1","1","1"
"260028","img/object_images/fire_extinguisher01.jpg","img/object_images/handcuffs01.jpg","img/object_images/cup03.jpg","1","1","1","0","0","1","0.423487999942154","0.465365000069141","0.402967600035481","1","1","1","1","1","1","1","1","1"
"260028","img/object_images/cup03.jpg","img/object_images/fire_extinguisher01.jpg","img/object_images/blanket01.jpg","1","1","1","1","0","1","0.402967600035481","0.423487999942154","0.434451900073327","1","1","1","1","1","1","1","1","1"
"260028","img/object_images/blanket01.jpg","img/object_images/cup03.jpg","img/object_images/pan01.jpg","1","1","1","1","1","1","0.434451900073327","0.402967600035481","0.397994099999778","1","1","1","1","1","1","1","1","1"
"260028","img/object_images/pan01.jpg","img/object_images/blanket01.jpg","img/object_images/ring03.jpg","1","1","1","1","1","1","0.397994099999778","0.434451900073327","0.378622699994594","1","1","1","1","1","1","1","1","1"
"260028","img/object_images/ring03.jpg","img/object_images/pan01.jpg","img/object_images/jewelry09.jpg","1","1","1","1","1","1","0.378622699994594","0.397994099999778","0.578977000084706","1","1","1","1","1","1","1","1","1"
"260028","img/object_images/jewelry09.jpg","img/object_images/ring03.jpg","img/object_images/speaker01.jpg","1","1","1","1","1","1","0.578977000084706","0.378622699994594","0.387914100079797","1","1","1","1","1","1","1","1","1"
"260028","img/object_images/speaker01.jpg","img/object_images/jewelry09.jpg","img/object_images/exfoliater_brush01.jpg","1","1","1","1","1","0","0.387914100079797","0.578977000084706","0.374236400006339","1","1","1","1","1","1","1","1","1"
"260028","img/object_images/exfoliater_brush01.jpg","img/object_images/speaker01.jpg","img/object_images/Kitchen_Towel.jpg","1","1","1","0","1","0","0.374236400006339","0.387914100079797","0.496188500081189","1","1","1","1","1","1","1","1","1"
"260028","img/object_images/Kitchen_Towel.jpg","img/object_images/exfoliater_brush01.jpg","img/object_images/purse01.jpg","1","1","1","0","0","1","0.496188500081189","0.374236400006339","0.439562299987301","1","1","1","1","1","1","1","1","1"
"260028","img/object_images/purse01.jpg","img/object_images/Kitchen_Towel.jpg","img/object_images/tool08.jpg","1","1","1","1","0","0","0.439562299987301","0.496188500081189","0.437199900043197","1","1","1","1","1","1","1","1","1"
"260028","img/object_images/tool08.jpg","img/object_images/purse01.jpg","img/object_images/projector01.jpg","1","1","1","0","1","0","0.437199900043197","0.439562299987301","0.581156199914403","1","1","1","1","1","1","1","1","1"
"260028","img/object_images/projector01.jpg","img/object_images/tool08.jpg","img/object_images/bicycle_lock01.jpg","1","1","1","0","0","0","0.581156199914403","0.437199900043197","0.360458699986339","1","1","1","1","1","1","1","1","1"
"260028","img/object_images/bicycle_lock01.jpg","img/object_images/projector01.jpg","img/object_images/tray01.jpg","1","1","1","0","0","1","0.360458699986339","0.581156199914403","0.355447800015099","1","1","1","1","1","1","1","1","1"
"260028","img/object_images/tray01.jpg","img/object_images/bicycle_lock01.jpg","img/object_images/Pottery01.jpg","1","1","1","1","0","0","0.355447800015099","0.360458699986339","0.474594500032254","1","1","1","1","1","1","1","1","1"
"260028","img/object_images/Pottery01.jpg","img/object_images/tray01.jpg","img/object_images/gift_box04.jpg","1","1","1","0","1","0","0.474594500032254","0.355447800015099","0.437643600045703","1","1","1","1","1","1","1","1","1"
"260028","img/object_images/gift_box04.jpg","img/object_images/Pottery01.jpg","img/object_images/glasses07.jpg","1","1","1","0","0","1","0.437643600045703","0.474594500032254","0.411192899919115","1","1","1","1","1","1","1","1","1"
"260028","img/object_images/glasses07.jpg","img/object_images/gift_box04.jpg","img/object_images/yo_yo01.jpg","1","1","1","1","0","0","0.411192899919115","0.437643600045703","0.456171400030144","1","1","1","1","1","1","1","1","1"
"260028","img/object_images/yo_yo01.jpg","img/object_images/glasses07.jpg","img/object_images/lighter01.jpg","1","1","1","0","1","1","0.456171400030144","0.411192899919115","0.365897399955429","1","1","1","1","1","1","1","1","1"
"260028","img/object_images/lighter01.jpg","img/object_images/yo_yo01.jpg",NA,"1","1",NA,"1","0",NA,"0.365897399955429","0.456171400030144",NA,"1","1",NA,"1","1",NA,"1","1",NA
