"participant_id","object","surpAcc","memory_surp_responses","memory_surp_rt","keep_surp_memory_trial_based_on_rt","surp_block_num","exclude_block","number_of_surp_resp_items_used","num_blocks_excluded"
"260052","img/object_images/tv01.jpg","1","s","4.98021790001076",1,1,0,2,0
"260052","img/object_images/purse04.jpg","1","s","3.6989281999995",1,1,0,2,0
"260052","img/object_images/perfume02.jpg","1","k","1.39162960000976",1,1,0,2,0
"260052","img/object_images/flashlight03.jpg","1","k","3.23375760001363",1,1,0,2,0
"260052","img/object_images/knife02.jpg","1","k","1.23275729999295",1,1,0,2,0
"260052","img/object_images/vase01.jpg","1","k","1.66529970000556",1,1,0,2,0
"260052","img/object_images/pitcher02.jpg","1","k","1.58012290000624",1,1,0,2,0
"260052","img/object_images/fan01.jpg","1","s","1.41801949999353",1,1,0,2,0
"260052","img/object_images/Lint_Roller02.jpg","1","k","1.9169389000017",1,1,0,2,0
"260052","img/object_images/crown02.jpg","1","k","2.21909830000368",1,1,0,2,0
"260052","img/object_images/Vest02.jpg","0","s","0.963447999994969",1,1,0,2,0
"260052","img/object_images/book03.jpg","1","k","0.860008999996353",1,1,0,2,0
"260052","img/object_images/bow_tie03.jpg","1","s","1.15271410001151",1,1,0,2,0
"260052","img/object_images/knife04.jpg","1","k","2.1315723000007",1,1,0,2,0
"260052","img/object_images/pen03.jpg","1","s","2.03527819999726",1,1,0,2,0
"260052","img/object_images/hair_brush02.jpg","1","k","1.99093129999528",1,1,0,2,0
"260052","img/object_images/guitar02.jpg","1","k","1.93978770000103",1,1,0,2,0
"260052","img/object_images/ornament01.jpg","1","s","1.11301019998791",1,1,0,2,0
"260052","img/object_images/bow_tie01.jpg","1","k","0.980729900009464",1,1,0,2,0
"260052","img/object_images/WoodBox01.jpg","0","s","1.3267474000022",1,1,0,2,0
"260052","img/object_images/knife01.jpg","1","s","2.08400459999393",1,1,0,2,0
"260052","img/object_images/matches02.jpg","1","s","2.44738260000304",1,1,0,2,0
"260052","img/object_images/shower_head01.jpg","1","s","1.64917770000466",1,1,0,2,0
"260052","img/object_images/video_game02.jpg","1","k","1.33842899999581",1,1,0,2,0
"260052","img/object_images/dress03.jpg","1","s","2.23704110000108",1,1,0,2,0
"260052","img/object_images/razor01.jpg","1","s","1.00050020001072",1,1,0,2,0
"260052","img/object_images/knit05.jpg","1","s","2.4288910000032",1,1,0,2,0
"260052","img/object_images/scarf01.jpg","1","k","1.28280659999291",1,1,0,2,0
"260052","img/object_images/MetalWire01.jpg","1","s","2.08798950001074",1,1,0,2,0
"260052","img/object_images/accardion01.jpg","0","k","2.20052299999224",1,1,0,2,0
"260052","img/object_images/microphone03.jpg","1","k","2.01483349999762",1,1,0,2,0
"260052","img/object_images/bird_house02.jpg","0","s","2.14309310000681",1,1,0,2,0
"260052","img/object_images/brief_case02.jpg","1","k","1.37533239999902",1,1,0,2,0
"260052","img/object_images/clip02.jpg","1","s","1.19354910000402",1,1,0,2,0
"260052","img/object_images/sink01.jpg","1","s","1.02350000001024",1,1,0,2,0
"260052","img/object_images/broom01.jpg","0","k","2.86460689999512",1,1,0,2,0
"260052","img/object_images/ToolBag01.jpg","1","k","4.23050230000808",1,1,0,2,0
"260052","img/object_images/Traffic Sign 01.jpg","1","k","1.27776610000001",1,1,0,2,0
"260052","img/object_images/bottle05.jpg","1","s","1.5776518000057",1,1,0,2,0
"260052","img/object_images/pot01.jpg","1","s","1.69964360000449",1,1,0,2,0
"260052","img/object_images/toaster01.jpg","1","s","2.55578090000199",1,1,0,2,0
"260052","img/object_images/cellphone03.jpg","1","k","1.4073672999948",1,1,0,2,0
"260052","img/object_images/boat04.jpg","1","s","0.852587699992",1,1,0,2,0
"260052","img/object_images/mask01.jpg","1","k","1.57088149999618",1,1,0,2,0
"260052","img/object_images/ruler02.jpg","1","s","2.16730259999167",1,1,0,2,0
"260052","img/object_images/key02.jpg","0","s","2.11435849999543",1,1,0,2,0
"260052","img/object_images/jewel04.jpg","1","s","0.800641599998926",1,1,0,2,0
"260052","img/object_images/Thermometer01.jpg","1","k","1.05946090001089",1,1,0,2,0
"260052","img/object_images/lemon_squeezer02.jpg","1","s","1.19484229999944",1,2,0,2,0
"260052","img/object_images/gauze01.jpg","1","k","2.61166670000239",1,2,0,2,0
"260052","img/object_images/board01.jpg","1","s","1.72626340000716",1,2,0,2,0
"260052","img/object_images/ball02.jpg","0","k","1.09133830000064",1,2,0,2,0
"260052","img/object_images/microscope01.jpg","0","s","1.33377310000651",1,2,0,2,0
"260052","img/object_images/soap01.jpg","1","k","1.10454329999629",1,2,0,2,0
"260052","img/object_images/ice_tray03.jpg","1","s","0.91644180000003",1,2,0,2,0
"260052","img/object_images/tie02.jpg","1","k","0.847642599997926",1,2,0,2,0
"260052","img/object_images/acoustic_capo01.jpg","1","s","2.59208139999828",1,2,0,2,0
"260052","img/object_images/WitchHat02.jpg","1","k","1.13148499999079",1,2,0,2,0
"260052","img/object_images/TreeSlice01.jpg","1","k","1.22846030000073",1,2,0,2,0
"260052","img/object_images/slinky_toy01.jpg","1","s","0.799075399991125",1,2,0,2,0
"260052","img/object_images/pen05.jpg","1","k","1.15140670000983",1,2,0,2,0
"260052","img/object_images/robe01.jpg","1","s","0.995899799992912",1,2,0,2,0
"260052","img/object_images/knit01.jpg","1","k","0.957896499996423",1,2,0,2,0
"260052","img/object_images/ironing_table01.jpg","0","k","1.00003250000009",1,2,0,2,0
"260052","img/object_images/pen01.jpg","0","s","1.18185009999434",1,2,0,2,0
"260052","img/object_images/boat_toy10.jpg","1","s","2.71047040000849",1,2,0,2,0
"260052","img/object_images/backpack01.jpg","1","s","2.69168120001268",1,2,0,2,0
"260052","img/object_images/bath_tub01.jpg","1","k","1.06654600000184",1,2,0,2,0
"260052","img/object_images/mail_box02.jpg","1","k","1.71043249999639",1,2,0,2,0
"260052","img/object_images/note_book02.jpg","0","s","1.48012439999729",1,2,0,2,0
"260052","img/object_images/airfryer01.jpg","1","s","0.914268400010769",1,2,0,2,0
"260052","img/object_images/hammer03.jpg","1","s","1.56631759999436",1,2,0,2,0
"260052","img/object_images/trash_can05.jpg","1","s","0.959472600006848",1,2,0,2,0
"260052","img/object_images/gift_box02.jpg","1","k","1.67761939999764",1,2,0,2,0
"260052","img/object_images/hat13.jpg","0","s","1.00219630000356",1,2,0,2,0
"260052","img/object_images/clip04.jpg","1","s","0.768071600003168",1,2,0,2,0
"260052","img/object_images/tripod01.jpg","1","s","1.74210660000972",1,2,0,2,0
"260052","img/object_images/curtain02.jpg","0","k","1.71769789999234",1,2,0,2,0
"260052","img/object_images/pitcher01.jpg","1","s","1.74234270000306",1,2,0,2,0
"260052","img/object_images/ear_bud01.jpg","1","s","1.12442480000027",1,2,0,2,0
"260052","img/object_images/surf_board01.jpg","1","k","1.78554379999696",1,2,0,2,0
"260052","img/object_images/dice01.jpg","1","k","1.51741159999801",1,2,0,2,0
"260052","img/object_images/retainer01.jpg","0","k","1.55131880000408",1,2,0,2,0
"260052","img/object_images/helmet01.jpg","1","k","2.24686089999159",1,2,0,2,0
"260052","img/object_images/wallet02.jpg","0","k","1.92866780000622",1,2,0,2,0
"260052","img/object_images/crutches02.jpg","1","s","1.43213809998997",1,2,0,2,0
"260052","img/object_images/toothbrush01.jpg","0","k","1.34383709999383",1,2,0,2,0
"260052","img/object_images/vase02.jpg","0","k","1.50456830000621",1,2,0,2,0
"260052","img/object_images/pan01.jpg","1","s","1.22526070001186",1,2,0,2,0
"260052","img/object_images/hole_puncher01.jpg","0","k","2.27077509999799",1,2,0,2,0
"260052","img/object_images/tool07.jpg","0","s","1.63790859999426",1,2,0,2,0
"260052","img/object_images/projector01.jpg","1","k","1.1902509000065",1,2,0,2,0
"260052","img/object_images/tool11.jpg","1","s","1.80849850000232",1,2,0,2,0
"260052","img/object_images/Witchhat01.jpg","0","k","0.958865499997046",1,2,0,2,0
"260052","img/object_images/glasses03.jpg","1","s","1.63271370000439",1,2,0,2,0
"260052","img/object_images/lemon_squeezer01.jpg","1","s","1.52402359999542",1,2,0,2,0
"260052","img/object_images/origami01.jpg","1","s","1.95142519999354",1,3,0,2,0
"260052","img/object_images/TrashCan02.jpg","1","s","1.44659720000345",1,3,0,2,0
"260052","img/object_images/bottle12.jpg","1","s","1.4509115999972",1,3,0,2,0
"260052","img/object_images/stereo02.jpg","1","s","1.63694259998738",1,3,0,2,0
"260052","img/object_images/camera05.jpg","1","s","0.979929099994479",1,3,0,2,0
"260052","img/object_images/bottle02.jpg","0","s","2.49782340000093",1,3,0,2,0
"260052","img/object_images/note_book01.jpg","1","k","1.43491189999622",1,3,0,2,0
"260052","img/object_images/Candle_Holder01.jpg","1","s","1.98475600000529",1,3,0,2,0
"260052","img/object_images/dog_leash01.jpg","1","s","1.86018730000069",1,3,0,2,0
"260052","img/object_images/toy_train02.jpg","1","s","1.62486229999922",1,3,0,2,0
"260052","img/object_images/exfoliater_brush01.jpg","1","s","1.21682220000366",1,3,0,2,0
"260052","img/object_images/basket02.jpg","0","s","1.74916340000345",1,3,0,2,0
"260052","img/object_images/candle02.jpg","1","k","1.64617859999998",1,3,0,2,0
"260052","img/object_images/sink_filter01 (1).jpg","1","k","0.83183189999545",1,3,0,2,0
"260052","img/object_images/water_gun01.jpg","1","k","1.41468159999931",1,3,0,2,0
"260052","img/object_images/spatula02.jpg","0","k","1.90079349999723",1,3,0,2,0
"260052","img/object_images/toy08.jpg","1","s","1.56164610000269",1,3,0,2,0
"260052","img/object_images/backpack03.jpg","1","s","1.98095549999562",1,3,0,2,0
"260052","img/object_images/gloves05.jpg","1","k","3.82497869999497",1,3,0,2,0
"260052","img/object_images/lock03.jpg","1","k","1.72851480000827",1,3,0,2,0
"260052","img/object_images/tool08.jpg","0","s","2.07002650000504",1,3,0,2,0
"260052","img/object_images/Ring02.jpg","0","k","2.84511089998705",1,3,0,2,0
"260052","img/object_images/Violin01.jpg","1","k","1.50859240000136",1,3,0,2,0
"260052","img/object_images/audio_port01.jpg","1","k","2.40992600000754",1,3,0,2,0
"260052","img/object_images/shovel01.jpg","1","k","1.4651739999972",1,3,0,2,0
"260052","img/object_images/jewelry01.jpg","1","k","2.03991599999426",1,3,0,2,0
"260052","img/object_images/book02.jpg","1","s","1.22483490000013",1,3,0,2,0
"260052","img/object_images/MeasuringCup01.jpg","1","s","2.16312420000031",1,3,0,2,0
"260052","img/object_images/fan04.jpg","1","s","0.972019299995736",1,3,0,2,0
"260052","img/object_images/yarn02.jpg","1","k","1.12254820000089",1,3,0,2,0
"260052","img/object_images/book01.jpg","1","s","1.30444310000166",1,3,0,2,0
"260052","img/object_images/toy01.jpg","0","k","0.96788050000032",1,3,0,2,0
"260052","img/object_images/trumpet01.jpg","0","s","1.4436202999932",1,3,0,2,0
"260052","img/object_images/bookmark01.jpg","0","k","1.23306359999697",1,3,0,2,0
"260052","img/object_images/Tin01.jpg","0","k","1.68552820000332",1,3,0,2,0
"260052","img/object_images/combs01.jpg","0","k","3.88556090000202",1,3,0,2,0
"260052","img/object_images/computer_mouse01.jpg","0","k","1.94749890000094",1,3,0,2,0
"260052","img/object_images/blender01.jpg","1","k","1.15893849999702",1,3,0,2,0
"260052","img/object_images/tool02.jpg","1","s","1.08290969999507",1,3,0,2,0
"260052","img/object_images/sleeping_bag01.jpg","0","k","0.995922999994946",1,3,0,2,0
"260052","img/object_images/hoverboard01.jpg","0","k","2.48264200000267",1,3,0,2,0
"260052","img/object_images/clock02.jpg","1","k","0.738593800007948",1,3,0,2,0
"260052","img/object_images/toy03.jpg","0","s","0.91634989999875",1,3,0,2,0
"260052","img/object_images/bucket02.jpg","1","s","0.95226960000582",1,3,0,2,0
"260052","img/object_images/kite01.jpg","1","s","1.31223939999472",1,3,0,2,0
"260052","img/object_images/floppy_disk02.jpg","0","k","1.21708339999896",1,3,0,2,0
"260052","img/object_images/video_game06.jpg","1","k","1.09091569999873",1,3,0,2,0
"260052","img/object_images/bag04.jpg","1","k","3.25812399999995",1,3,0,2,0
"260052","img/object_images/video_game07.jpg","1","s","1.65275839999958",1,4,0,2,0
"260052","img/object_images/chair05.jpg","0","s","1.93313740000303",1,4,0,2,0
"260052","img/object_images/hat02.jpg","1","k","0.928730399988126",1,4,0,2,0
"260052","img/object_images/jacket04.jpg","0","k","1.66569880000316",1,4,0,2,0
"260052","img/object_images/basket04.jpg","1","k","1.21948899999552",1,4,0,2,0
"260052","img/object_images/chess_piece02.jpg","1","k","1.66494689999672",1,4,0,2,0
"260052","img/object_images/Statue01.jpg","1","s","0.842525100000785",1,4,0,2,0
"260052","img/object_images/chain01.jpg","1","k","0.887379499996314",1,4,0,2,0
"260052","img/object_images/hair_brush05.jpg","1","s","1.4359276000032",1,4,0,2,0
"260052","img/object_images/hammer01.jpg","1","k","0.740815400000429",1,4,0,2,0
"260052","img/object_images/colander01.jpg","1","s","0.703557600005297",1,4,0,2,0
"260052","img/object_images/Trowel01.jpg","1","s","0.9241275999957",1,4,0,2,0
"260052","img/object_images/Wisk01.jpg","1","k","1.35750250000274",1,4,0,2,0
"260052","img/object_images/tool18.jpg","0","s","1.15440659999149",1,4,0,2,0
"260052","img/object_images/Staples01.jpg","1","s","0.886063399986597",1,4,0,2,0
"260052","img/object_images/container01.jpg","1","s","1.04654210001172",1,4,0,2,0
"260052","img/object_images/speaker01.jpg","0","s","1.23313269999926",1,4,0,2,0
"260052","img/object_images/jewel02.jpg","0","s","1.90623380000761",1,4,0,2,0
"260052","img/object_images/lighter01.jpg","1","s","2.17868249998719",1,4,0,2,0
"260052","img/object_images/bottle01.jpg","1","s","1.39723249999224",1,4,0,2,0
"260052","img/object_images/ball01.jpg","0","k","2.07460710000305",1,4,0,2,0
"260052","img/object_images/brief_case01.jpg","1","k","1.57319999999891",1,4,0,2,0
"260052","img/object_images/joystick03.jpg","0","k","1.60184609999123",1,4,0,2,0
"260052","img/object_images/bottle09.jpg","1","k","1.52175699999498",1,4,0,2,0
"260052","img/object_images/judge_gavel01.jpg","0","s","2.30099299999711",1,4,0,2,0
"260052","img/object_images/handcuffs01.jpg","0","s","1.51625109999441",1,4,0,2,0
"260052","img/object_images/lamp01.jpg","1","k","1.29098160000285",1,4,0,2,0
"260052","img/object_images/bag_pipes01.jpg","1","s","1.50655789999291",1,4,0,2,0
"260052","img/object_images/guitar01.jpg","1","s","2.37490729999263",1,4,0,2,0
"260052","img/object_images/golf_ball03.jpg","1","k","1.55550329999824",1,4,0,2,0
"260052","img/object_images/usb03.jpg","1","s","0.808648099991842",1,4,0,2,0
"260052","img/object_images/bow01.jpg","1","k","1.02832679999119",1,4,0,2,0
"260052","img/object_images/egg_slicer01.jpg","1","s","1.05457820001175",1,4,0,2,0
"260052","img/object_images/mirror01.jpg","0","k","1.68765119998716",1,4,0,2,0
"260052","img/object_images/yo_yo01.jpg","0","s","1.61623729999701",1,4,0,2,0
"260052","img/object_images/bean_bag02.jpg","0","k","1.61865340000077",1,4,0,2,0
"260052","img/object_images/motorcycle01.jpg","0","s","1.20330330000434",1,4,0,2,0
"260052","img/object_images/couch03.jpg","1","k","1.2978720000101",1,4,0,2,0
"260052","img/object_images/chair02.jpg","1","s","2.55106939999678",1,4,0,2,0
"260052","img/object_images/bicycle_lock01.jpg","1","k","1.11141109999153",1,4,0,2,0
"260052","img/object_images/water_scooter01.jpg","1","s","0.761123699994641",1,4,0,2,0
"260052","img/object_images/pitcher05.jpg","0","k","1.02289639999799",1,4,0,2,0
"260052","img/object_images/piggy_bank01.jpg","1","s","0.738749299998744",1,4,0,2,0
"260052","img/object_images/Pottery01.jpg","1","s","1.3619131000014",1,4,0,2,0
"260052","img/object_images/knit03.jpg","1","k","1.00750260001223",1,4,0,2,0
"260052","img/object_images/Woopie01.jpg","1","k","1.05740989999322",1,4,0,2,0
"260052","img/object_images/flask01.jpg","0","k","0.970961700004409",1,4,0,2,0
"260052","img/object_images/cards01.jpg","1","s","0.778654999987339",1,4,0,2,0
"260052","img/object_images/video_game01.jpg","1","s","1.04184659999737",1,5,0,2,0
"260052","img/object_images/car04.jpg","0","s","1.5318116999988",1,5,0,2,0
"260052","img/object_images/shoes10.jpg","1","k","1.79836309999519",1,5,0,2,0
"260052","img/object_images/paint_brush04.jpg","1","k","1.23717320000287",1,5,0,2,0
"260052","img/object_images/hammer02.jpg","1","k","1.68582029998652",1,5,0,2,0
"260052","img/object_images/Kitchen_Towel.jpg","1","s","2.44905880000442",1,5,0,2,0
"260052","img/object_images/binoculars03.jpg","1","k","0.972711700000218",1,5,0,2,0
"260052","img/object_images/coloring_pencil02.jpg","1","k","0.800160400001914",1,5,0,2,0
"260052","img/object_images/faucet01.jpg","0","k","1.0506696000084",1,5,0,2,0
"260052","img/object_images/lock01.jpg","0","k","0.901018200005638",1,5,0,2,0
"260052","img/object_images/tool13.jpg","1","s","0.706302199992933",1,5,0,2,0
"260052","img/object_images/dresser03.jpg","1","k","0.821922699993593",1,5,0,2,0
"260052","img/object_images/Vacuum01.jpg","1","s","0.847236800007522",1,5,0,2,0
"260052","img/object_images/bottle10.jpg","1","k","1.59078319999389",1,5,0,2,0
"260052","img/object_images/grater01.jpg","1","k","0.926408100000117",1,5,0,2,0
"260052","img/object_images/jewelry09.jpg","1","s","1.74443839999731",1,5,0,2,0
"260052","img/object_images/toy04.jpg","1","s","0.613567899999907",1,5,0,2,0
"260052","img/object_images/razor02.jpg","1","s","0.740346499995212",1,5,0,2,0
"260052","img/object_images/helmet03.jpg","0","s","1.60378450001008",1,5,0,2,0
"260052","img/object_images/lock04.jpg","1","k","1.19145449998905",1,5,0,2,0
"260052","img/object_images/headset02.jpg","1","k","1.99985890000244",1,5,0,2,0
"260052","img/object_images/jewel01.jpg","0","s","1.34259600000223",1,5,0,2,0
"260052","img/object_images/tie01.jpg","1","s","0.998551099997712",1,5,0,2,0
"260052","img/object_images/balloon01.jpg","0","s","0.771883299996261",1,5,0,2,0
"260052","img/object_images/socks02.jpg","1","k","1.21987639999134",1,5,0,2,0
"260052","img/object_images/lawn_mower01.jpg","1","s","0.945083200000226",1,5,0,2,0
"260052","img/object_images/office_supplies01.jpg","1","s","1.37412689998746",1,5,0,2,0
"260052","img/object_images/bow_tie02.jpg","1","s","1.25825179999811",1,5,0,2,0
"260052","img/object_images/phone02.jpg","1","s","0.701493999993545",1,5,0,2,0
"260052","img/object_images/badminton01.jpg","0","k","2.44085579999955",1,5,0,2,0
"260052","img/object_images/sign02.jpg","1","k","1.25828090000141",1,5,0,2,0
"260052","img/object_images/pitcher03.jpg","1","s","1.40098489999946",1,5,0,2,0
"260052","img/object_images/tennis_racket01.jpg","0","k","1.55276069999672",1,5,0,2,0
"260052","img/object_images/coloring_pencil01.jpg","1","k","0.771764799996163",1,5,0,2,0
"260052","img/object_images/vga_port 01.jpg","1","s","0.532333600000129",1,5,0,2,0
"260052","img/object_images/socks01.jpg","1","s","1.06903640000382",1,5,0,2,0
"260052","img/object_images/couch04.jpg","1","k","1.24520849999681",1,5,0,2,0
"260052","img/object_images/fan05.jpg","0","s","1.21840539999539",1,5,0,2,0
"260052","img/object_images/bag06.jpg","1","s","0.68896469999163",1,5,0,2,0
"260052","img/object_images/helmet05.jpg","1","s","0.825025300000561",1,5,0,2,0
"260052","img/object_images/camera07.jpg","1","s","0.710506499992334",1,5,0,2,0
"260052","img/object_images/shoes08.jpg","0","s","1.09451429999899",1,5,0,2,0
"260052","img/object_images/bell03.jpg","1","s","1.44650710000133",1,5,0,2,0
"260052","img/object_images/lid01.jpg","1","k","1.41960680000193",1,5,0,2,0
"260052","img/object_images/pitcher09.jpg","1","s","2.52713950000179",1,5,0,2,0
"260052","img/object_images/watch01.jpg","0","k","0.845363400003407",1,5,0,2,0
"260052","img/object_images/clip03.jpg","1","k","1.01613329999964",1,5,0,2,0
"260052","img/object_images/laptop01.jpg","0","s","0.789459999999963",1,5,0,2,0
"260052","img/object_images/hand_grip_exerciser01.jpg","0","s","2.12502209999366",1,6,0,2,0
"260052","img/object_images/cup03.jpg","0","s","0.781001399998786",1,6,0,2,0
"260052","img/object_images/belt01.jpg","1","s","0.863191099997493",1,6,0,2,0
"260052","img/object_images/computer_mouse02.jpg","0","s","1.04824460000964",1,6,0,2,0
"260052","img/object_images/keyboard02.jpg","1","k","1.414426000003",1,6,0,2,0
"260052","img/object_images/funnel01.jpg","1","k","0.840916999994079",1,6,0,2,0
"260052","img/object_images/toaster02.jpg","0","s","0.917829700003494",1,6,0,2,0
"260052","img/object_images/chair04.jpg","1","s","0.756876999992528",1,6,0,2,0
"260052","img/object_images/soap03.jpg","1","k","1.11269399999583",1,6,0,2,0
"260052","img/object_images/purse01.jpg","0","k","0.740471299999626",1,6,0,2,0
"260052","img/object_images/remote_controller01.jpg","0","k","1.45427360000031",1,6,0,2,0
"260052","img/object_images/gift_box05.jpg","0","s","0.885435999996844",1,6,0,2,0
"260052","img/object_images/hair_brush01.jpg","1","s","1.11630749999313",1,6,0,2,0
"260052","img/object_images/bucket01.jpg","1","k","0.945977199997287",1,6,0,2,0
"260052","img/object_images/Sprayer01.jpg","1","s","1.47425769999973",1,6,0,2,0
"260052","img/object_images/tool19.jpg","0","s","0.736674600004335",1,6,0,2,0
"260052","img/object_images/Eyeliner01.jpg","0","s","1.21084569999948",1,6,0,2,0
"260052","img/object_images/scale02.jpg","1","k","1.42507860000478",1,6,0,2,0
"260052","img/object_images/hot_air_balloon02.jpg","1","k","1.94999069999903",1,6,0,2,0
"260052","img/object_images/paper_cup01.jpg","1","k","1.73420249999617",1,6,0,2,0
"260052","img/object_images/fork02.jpg","0","s","1.35887949999596",1,6,0,2,0
"260052","img/object_images/cutting_board01.jpg","1","s","1.28842759999679",1,6,0,2,0
"260052","img/object_images/jewel03.jpg","1","k","0.86549080000259",1,6,0,2,0
"260052","img/object_images/ribbon01.jpg","1","k","0.970699299999978",1,6,0,2,0
"260052","img/object_images/jewelry07.jpg","1","s","0.899485300004017",1,6,0,2,0
"260052","img/object_images/drone02.jpg","1","s","0.88915229999111",1,6,0,2,0
"260052","img/object_images/usb02.jpg","1","s","0.794727999993484",1,6,0,2,0
"260052","img/object_images/tray01.jpg","1","s","0.898857300009695",1,6,0,2,0
"260052","img/object_images/shoes12.jpg","0","s","0.982161300009466",1,6,0,2,0
"260052","img/object_images/piano03.jpg","1","k","0.961991100004525",1,6,0,2,0
"260052","img/object_images/hair_dryer01.jpg","1","k","0.862326699992991",1,6,0,2,0
"260052","img/object_images/shower_head03.jpg","1","k","1.05095560000336",1,6,0,2,0
"260052","img/object_images/ironing_table02.jpg","1","s","0.960519399988698",1,6,0,2,0
"260052","img/object_images/rock02.jpg","1","k","1.38273200001277",1,6,0,2,0
"260052","img/object_images/glasses07.jpg","0","s","1.56038609999814",1,6,0,2,0
"260052","img/object_images/camera_lens01.jpg","1","s","1.82215170000563",1,6,0,2,0
"260052","img/object_images/trash_can03.jpg","1","k","1.54097680000996",1,6,0,2,0
"260052","img/object_images/fridge03.jpg","1","s","1.18765110000095",1,6,0,2,0
"260052","img/object_images/tool06.jpg","1","k","0.858314400000381",1,6,0,2,0
"260052","img/object_images/shoes07.jpg","1","k","0.549762299997383",1,6,0,2,0
"260052","img/object_images/perfume01.jpg","1","k","0.465134799989755",1,6,0,2,0
"260052","img/object_images/paper_cup02.jpg","1","k","1.15398249999271",1,6,0,2,0
"260052","img/object_images/spray_can01.jpg","1","k","0.869288200003211",1,6,0,2,0
"260052","img/object_images/car02.jpg","1","k","1.12416310000117",1,6,0,2,0
"260052","img/object_images/blender02.jpg","0","k","2.82642760001181",1,6,0,2,0
"260052","img/object_images/toy05.jpg","0","k","1.11455569999816",1,6,0,2,0
"260052","img/object_images/umbrella01.jpg","0","s","2.09466370000155",1,6,0,2,0
"260052","img/object_images/pitcher07.jpg","1","k","1.03400149999652",1,6,0,2,0
"260052","img/object_images/outlet01.jpg","0","k","1.90209790000517",1,7,0,2,0
"260052","img/object_images/gloves02.jpg","0","k","1.15674520000175",1,7,0,2,0
"260052","img/object_images/tennis_racket02.jpg","1","s","1.58956619999663",1,7,0,2,0
"260052","img/object_images/screwdriver01.jpg","1","s","1.07812099999865",1,7,0,2,0
"260052","img/object_images/fork03.jpg","0","s","1.16869249999581",1,7,0,2,0
"260052","img/object_images/mail_box01.jpg","1","k","0.873391799992532",1,7,0,2,0
"260052","img/object_images/glasses06.jpg","1","s","0.951839300003485",1,7,0,2,0
"260052","img/object_images/bottle06.jpg","1","k","0.650138799988781",1,7,0,2,0
"260052","img/object_images/compass01.jpg","0","s","1.12097309999808",1,7,0,2,0
"260052","img/object_images/remover01.jpg","0","k","0.643446500005666",1,7,0,2,0
"260052","img/object_images/yoga_mat01.jpg","1","s","0.79444370001147",1,7,0,2,0
"260052","img/object_images/wire02.jpg","1","s","0.694209399996907",1,7,0,2,0
"260052","img/object_images/fan02.jpg","0","s","0.55736109999998",1,7,0,2,0
"260052","img/object_images/handkerchief01.jpg","1","s","0.941741500006174",1,7,0,2,0
"260052","img/object_images/box03.jpg","0","s","0.832414899996365",1,7,0,2,0
"260052","img/object_images/boat02.jpg","0","k","0.917813699998078",1,7,0,2,0
"260052","img/object_images/Stool01.jpg","1","k","0.892683800004306",1,7,0,2,0
"260052","img/object_images/measuring_tape02.jpg","0","s","0.794509899991681",1,7,0,2,0
"260052","img/object_images/chair03.jpg","1","k","1.14969320000091",1,7,0,2,0
"260052","img/object_images/chair06.jpg","1","k","0.826492899999721",1,7,0,2,0
"260052","img/object_images/stapler.jpg","1","k","1.07418500000495",1,7,0,2,0
"260052","img/object_images/tv02.jpg","1","k","1.40785340000002",1,7,0,2,0
"260052","img/object_images/video_game03.jpg","1","s","1.00685410000733",1,7,0,2,0
"260052","img/object_images/car03.jpg","0","k","1.40941300000122",1,7,0,2,0
"260052","img/object_images/rock03.jpg","0","s","1.82733749999898",1,7,0,2,0
"260052","img/object_images/cup01.jpg","0","s","0.598548900001333",1,7,0,2,0
"260052","img/object_images/towels01.jpg","0","k","2.3264468999987",1,7,0,2,0
"260052","img/object_images/bicycle01.jpg","0","s","1.76867799999309",1,7,0,2,0
"260052","img/object_images/bell02.jpg","1","k","0.936469399995985",1,7,0,2,0
"260052","img/object_images/ring03.jpg","1","s","0.759729999990668",1,7,0,2,0
"260052","img/object_images/car01.jpg","1","s","0.536675600000308",1,7,0,2,0
"260052","img/object_images/basketball_hoop02.jpg","1","s","0.836508599997615",1,7,0,2,0
"260052","img/object_images/duster01.jpg","0","k","0.864624699999695",1,7,0,2,0
"260052","img/object_images/Oven01.jpg","1","s","0.74786089999543",1,7,0,2,0
"260052","img/object_images/jacket03.jpg","1","s","0.762717199992039",1,7,0,2,0
"260052","img/object_images/Confetti 01.jpg","0","k","0.915383300001849",1,7,0,2,0
"260052","img/object_images/towel02.jpg","0","k","0.773629899995285",1,7,0,2,0
"260052","img/object_images/hair_clips01.jpg","1","s","0.665285299997777",1,7,0,2,0
"260052","img/object_images/hat09.jpg","1","k","0.891975200007437",1,7,0,2,0
"260052","img/object_images/camera03.jpg","1","k","1.58226420001301",1,7,0,2,0
"260052","img/object_images/frame01.jpg","0","s","0.969000800003414",1,7,0,2,0
"260052","img/object_images/pen06.jpg","1","s","0.924796999999671",1,7,0,2,0
"260052","img/object_images/razor03.jpg","1","s","0.698406499999692",1,7,0,2,0
"260052","img/object_images/decorative02.jpg","1","s","1.14472849998856",1,7,0,2,0
"260052","img/object_images/clipboard01.jpg","0","s","1.13116560000344",1,7,0,2,0
"260052","img/object_images/stove01.jpg","1","s","1.46232299999974",1,7,0,2,0
"260052","img/object_images/floss02.jpg","0","k","1.12672110000858",1,7,0,2,0
"260052","img/object_images/cochlear_implant01.jpg","1","s","0.990661999996519",1,7,0,2,0
"260052","img/object_images/airfryer02.jpg","0","s","3.90720899999724",1,8,0,2,0
"260052","img/object_images/toilet_paper01.jpg","1","s","1.15895610000007",1,8,0,2,0
"260052","img/object_images/sponge03.jpg","1","s","1.18057650000264",1,8,0,2,0
"260052","img/object_images/chess_piece01.jpg","1","s","0.911936899996363",1,8,0,2,0
"260052","img/object_images/Screws01.jpg","0","s","0.990410300000804",1,8,0,2,0
"260052","img/object_images/pan03.jpg","1","s","1.69414450001204",1,8,0,2,0
"260052","img/object_images/lantern01.jpg","1","s","1.08159659999365",1,8,0,2,0
"260052","img/object_images/calculator01.jpg","0","k","2.07358130000648",1,8,0,2,0
"260052","img/object_images/pot01 (1).jpg","1","k","1.2001040999894",1,8,0,2,0
"260052","img/object_images/Shoes05.jpg","1","s","1.24327360000461",1,8,0,2,0
"260052","img/object_images/bottle07.jpg","1","k","2.25995370000601",1,8,0,2,0
"260052","img/object_images/satellite01.jpg","1","s","1.47147689999838",1,8,0,2,0
"260052","img/object_images/floppy_disk03.jpg","1","k","0.782619299992803",1,8,0,2,0
"260052","img/object_images/dresser04.jpg","1","k","0.805398999989848",1,8,0,2,0
"260052","img/object_images/wagon_cart03.jpg","1","s","1.18738819999271",1,8,0,2,0
"260052","img/object_images/cellphone02.jpg","1","k","1.45935920000193",1,8,0,2,0
"260052","img/object_images/frisbee01.jpg","1","k","0.942719699989539",1,8,0,2,0
"260052","img/object_images/belt03.jpg","1","s","0.794076299993321",1,8,0,2,0
"260052","img/object_images/Safe01.jpg","1","k","0.864042100001825",1,8,0,2,0
"260052","img/object_images/nut_cracker01.jpg","1","k","0.737226299999747",1,8,0,2,0
"260052","img/object_images/laptop03.jpg","1","s","0.910472499992466",1,8,0,2,0
"260052","img/object_images/gift_box01.jpg","1","s","1.43002699999488",1,8,0,2,0
"260052","img/object_images/tool09.jpg","1","s","1.43422850000206",1,8,0,2,0
"260052","img/object_images/helmet04.jpg","1","k","1.90527469999506",1,8,0,2,0
"260052","img/object_images/Recycling01.jpg","1","k","1.18329030000314",1,8,0,2,0
"260052","img/object_images/drone01.jpg","1","k","0.973878400007379",1,8,0,2,0
"260052","img/object_images/floss01.jpg","1","k","0.868961100000888",1,8,0,2,0
"260052","img/object_images/knit04.jpg","1","k","0.807435399998212",1,8,0,2,0
"260052","img/object_images/gift_box03.jpg","1","k","0.970148799999151",1,8,0,2,0
"260052","img/object_images/skate_board01.jpg","0","k","0.734908399987034",1,8,0,2,0
"260052","img/object_images/helmet02.jpg","1","k","1.91419809999934",1,8,0,2,0
"260052","img/object_images/pillows01.jpg","1","s","0.812948999999207",1,8,0,2,0
"260052","img/object_images/egg_basket01.jpg","1","k","2.00146339999628",1,8,0,2,0
"260052","img/object_images/dart01.jpg","1","k","0.857536399998935",1,8,0,2,0
"260052","img/object_images/phone04.jpg","0","s","0.7815605999931",1,8,0,2,0
"260052","img/object_images/cellphone01.jpg","1","k","0.643636499997228",1,8,0,2,0
"260052","img/object_images/gift_box04.jpg","1","k","0.842134000005899",1,8,0,2,0
"260052","img/object_images/blanket01.jpg","1","k","1.50487360000261",1,8,0,2,0
"260052","img/object_images/scoreboard01.jpg","1","k","0.966794599997229",1,8,0,2,0
"260052","img/object_images/fire_extinguisher01.jpg","1","k","0.67074539999885",1,8,0,2,0
"260052","img/object_images/tool20.jpg","0","k","0.609551300003659",1,8,0,2,0
"260052","img/object_images/toilet_paper_dispenser01.jpg","1","k","0.591823800001293",1,8,0,2,0
"260052","img/object_images/hat06.jpg","0","k","0.9120033000072",1,8,0,2,0
"260052","img/object_images/shovel03.jpg","0","s","0.720741099998122",1,8,0,2,0
"260052","img/object_images/ladle02.jpg","1","s","1.04892649999238",1,8,0,2,0
"260052","img/object_images/dust_pan01.jpg","0","s","2.90383759999531",1,8,0,2,0
"260052","img/object_images/couch01.jpg","1","k","1.00337099999888",1,8,0,2,0
"260052","img/object_images/chair01.jpg","1","k","1.91800930000318",1,8,0,2,0
