"participant_id","current_trial_object","pre_trial_object","post_trial_object","current_trial_accuracy","pre_trial_accuracy","post_trial_accuracy","current_trial_congruency","pre_trial_congruency","post_trial_congruency","current_trial_rt","pre_trial_rt","post_trial_rt","current_trial_responded","pre_trial_responded","post_trial_responded","current_trial_legitResponse","pre_trial_legitResponse","post_trial_legitResponse","current_trial_resp_nums","pre_trial_resp_nums","post_trial_resp_nums"
"260039","img/object_images/handkerchief01.jpg",NA,"img/object_images/bow_tie01.jpg","1",NA,"1","0",NA,"0","0.704153300030157",NA,"0.559376600082032","1",NA,"1","1",NA,"1","1",NA,"1"
"260039","img/object_images/bow_tie01.jpg","img/object_images/handkerchief01.jpg","img/object_images/funnel01.jpg","1","1","1","0","0","0","0.559376600082032","0.704153300030157","0.447654100018553","1","1","1","1","1","1","1","1","1"
"260039","img/object_images/funnel01.jpg","img/object_images/bow_tie01.jpg","img/object_images/gift_box02.jpg","1","1","1","0","0","1","0.447654100018553","0.559376600082032","0.35651610000059","1","1","1","1","1","1","1","1","1"
"260039","img/object_images/gift_box02.jpg","img/object_images/funnel01.jpg","img/object_images/golf_ball03.jpg","1","1","1","1","0","1","0.35651610000059","0.447654100018553","0.406680600019172","1","1","1","1","1","1","1","1","1"
"260039","img/object_images/golf_ball03.jpg","img/object_images/gift_box02.jpg","img/object_images/vga_port 01.jpg","1","1","1","1","1","0","0.406680600019172","0.35651610000059","0.527291100006551","1","1","1","1","1","1","1","1","1"
"260039","img/object_images/vga_port 01.jpg","img/object_images/golf_ball03.jpg","img/object_images/Witchhat01.jpg","1","1","1","0","1","1","0.527291100006551","0.406680600019172","0.486967899953015","1","1","1","1","1","1","1","1","1"
"260039","img/object_images/Witchhat01.jpg","img/object_images/vga_port 01.jpg","img/object_images/gift_box03.jpg","1","1","1","1","0","0","0.486967899953015","0.527291100006551","0.492000499973074","1","1","1","1","1","1","1","1","1"
"260039","img/object_images/gift_box03.jpg","img/object_images/Witchhat01.jpg","img/object_images/fork03.jpg","1","1","1","0","1","1","0.492000499973074","0.486967899953015","0.42916200007312","1","1","1","1","1","1","1","1","1"
"260039","img/object_images/fork03.jpg","img/object_images/gift_box03.jpg","img/object_images/measuring_tape02.jpg","1","1","1","1","0","1","0.42916200007312","0.492000499973074","0.409143600030802","1","1","1","1","1","1","1","1","1"
"260039","img/object_images/measuring_tape02.jpg","img/object_images/fork03.jpg","img/object_images/couch03.jpg","1","1","0","1","1","0","0.409143600030802","0.42916200007312","0.379055300028995","1","1","1","1","1","1","1","1","2"
"260039","img/object_images/couch03.jpg","img/object_images/measuring_tape02.jpg","img/object_images/coloring_pencil01.jpg","0","1","1","0","1","1","0.379055300028995","0.409143600030802","0.692372099962085","1","1","1","1","1","1","2","1","1"
"260039","img/object_images/coloring_pencil01.jpg","img/object_images/couch03.jpg","img/object_images/clip02.jpg","1","0","1","1","0","1","0.692372099962085","0.379055300028995","0.496643299935386","1","1","1","1","1","1","1","2","1"
"260039","img/object_images/clip02.jpg","img/object_images/coloring_pencil01.jpg","img/object_images/paper_cup01.jpg","1","1","1","1","1","0","0.496643299935386","0.692372099962085","0.513297299970873","1","1","1","1","1","1","1","1","1"
"260039","img/object_images/paper_cup01.jpg","img/object_images/clip02.jpg","img/object_images/jacket03.jpg","1","1","1","0","1","0","0.513297299970873","0.496643299935386","0.470496699912474","1","1","1","1","1","1","1","1","1"
"260039","img/object_images/jacket03.jpg","img/object_images/paper_cup01.jpg","img/object_images/bow_tie02.jpg","1","1","1","0","0","0","0.470496699912474","0.513297299970873","0.473785200039856","1","1","1","1","1","1","1","1","1"
"260039","img/object_images/bow_tie02.jpg","img/object_images/jacket03.jpg","img/object_images/grater01.jpg","1","1","1","0","0","1","0.473785200039856","0.470496699912474","0.445861999993213","1","1","1","1","1","1","1","1","1"
"260039","img/object_images/grater01.jpg","img/object_images/bow_tie02.jpg","img/object_images/socks02.jpg","1","1","1","1","0","0","0.445861999993213","0.473785200039856","0.430133000016212","1","1","1","1","1","1","1","1","1"
"260039","img/object_images/socks02.jpg","img/object_images/grater01.jpg","img/object_images/gift_box01.jpg","1","1","1","0","1","1","0.430133000016212","0.445861999993213","1.33941170002799","1","1","1","1","1","1","1","1","1"
"260039","img/object_images/gift_box01.jpg","img/object_images/socks02.jpg","img/object_images/jewelry01.jpg","1","1","1","1","0","1","1.33941170002799","0.430133000016212","0.574416100047529","1","1","1","1","1","1","1","1","1"
"260039","img/object_images/jewelry01.jpg","img/object_images/gift_box01.jpg","img/object_images/Screws01.jpg","1","1","1","1","1","1","0.574416100047529","1.33941170002799","0.56517099996563","1","1","1","1","1","1","1","1","1"
"260039","img/object_images/Screws01.jpg","img/object_images/jewelry01.jpg","img/object_images/dresser04.jpg","1","1","1","1","1","0","0.56517099996563","0.574416100047529","0.596446400042623","1","1","1","1","1","1","1","1","1"
"260039","img/object_images/dresser04.jpg","img/object_images/Screws01.jpg","img/object_images/bath_tub01.jpg","1","1","1","0","1","0","0.596446400042623","0.56517099996563","0.462413800065406","1","1","1","1","1","1","1","1","1"
"260039","img/object_images/bath_tub01.jpg","img/object_images/dresser04.jpg","img/object_images/balloon01.jpg","1","1","1","0","0","0","0.462413800065406","0.596446400042623","0.51004229998216","1","1","1","1","1","1","1","1","1"
"260039","img/object_images/balloon01.jpg","img/object_images/bath_tub01.jpg","img/object_images/hammer01.jpg","1","1","1","0","0","0","0.51004229998216","0.462413800065406","0.52807809994556","1","1","1","1","1","1","1","1","1"
"260039","img/object_images/hammer01.jpg","img/object_images/balloon01.jpg","img/object_images/ironing_table01.jpg","1","1","0","0","0","0","0.52807809994556","0.51004229998216","0.555033299955539","1","1","1","1","1","1","1","1","2"
"260039","img/object_images/ironing_table01.jpg","img/object_images/hammer01.jpg","img/object_images/wallet02.jpg","0","1","1","0","0","1","0.555033299955539","0.52807809994556","1.13160860002972","1","1","1","1","1","1","2","1","1"
"260039","img/object_images/wallet02.jpg","img/object_images/ironing_table01.jpg","img/object_images/pitcher02.jpg","1","0","1","1","0","1","1.13160860002972","0.555033299955539","0.537413400015794","1","1","1","1","1","1","1","2","1"
"260039","img/object_images/pitcher02.jpg","img/object_images/wallet02.jpg","img/object_images/lawn_mower01.jpg","1","1","1","1","1","1","0.537413400015794","1.13160860002972","0.607892600004561","1","1","1","1","1","1","1","1","1"
"260039","img/object_images/lawn_mower01.jpg","img/object_images/pitcher02.jpg","img/object_images/sleeping_bag01.jpg","1","1","1","1","1","0","0.607892600004561","0.537413400015794","0.559958699974231","1","1","1","1","1","1","1","1","1"
"260039","img/object_images/sleeping_bag01.jpg","img/object_images/lawn_mower01.jpg","img/object_images/camera07.jpg","1","1","1","0","1","1","0.559958699974231","0.607892600004561","0.541220200015232","1","1","1","1","1","1","1","1","1"
"260039","img/object_images/camera07.jpg","img/object_images/sleeping_bag01.jpg","img/object_images/lock04.jpg","1","1","1","1","0","1","0.541220200015232","0.559958699974231","0.551249700016342","1","1","1","1","1","1","1","1","1"
"260039","img/object_images/lock04.jpg","img/object_images/camera07.jpg",NA,"1","1",NA,"1","1",NA,"0.551249700016342","0.541220200015232",NA,"1","1",NA,"1","1",NA,"1","1",NA
"260039","img/object_images/tool07.jpg",NA,"img/object_images/colander01.jpg","1",NA,"1","0",NA,"0","0.725915500079282",NA,"0.665816799970344","1",NA,"1","1",NA,"1","1",NA,"1"
"260039","img/object_images/colander01.jpg","img/object_images/tool07.jpg","img/object_images/gift_box04.jpg","1","1","1","0","0","0","0.665816799970344","0.725915500079282","0.436815200024284","1","1","1","1","1","1","1","1","1"
"260039","img/object_images/gift_box04.jpg","img/object_images/colander01.jpg","img/object_images/projector01.jpg","1","1","1","0","0","0","0.436815200024284","0.665816799970344","0.842150800046511","1","1","1","1","1","1","1","1","1"
"260039","img/object_images/projector01.jpg","img/object_images/gift_box04.jpg","img/object_images/basket02.jpg","1","1","1","0","0","0","0.842150800046511","0.436815200024284","0.528157600085251","1","1","1","1","1","1","1","1","1"
"260039","img/object_images/basket02.jpg","img/object_images/projector01.jpg","img/object_images/purse01.jpg","1","1","1","0","0","1","0.528157600085251","0.842150800046511","0.4780190999154","1","1","1","1","1","1","1","1","1"
"260039","img/object_images/purse01.jpg","img/object_images/basket02.jpg","img/object_images/cup03.jpg","1","1","1","1","0","1","0.4780190999154","0.528157600085251","0.450610099942423","1","1","1","1","1","1","1","1","1"
"260039","img/object_images/cup03.jpg","img/object_images/purse01.jpg","img/object_images/tray01.jpg","1","1","1","1","1","1","0.450610099942423","0.4780190999154","0.632756200036965","1","1","1","1","1","1","1","1","1"
"260039","img/object_images/tray01.jpg","img/object_images/cup03.jpg","img/object_images/speaker01.jpg","1","1","1","1","1","1","0.632756200036965","0.450610099942423","0.522940899943933","1","1","1","1","1","1","1","1","1"
"260039","img/object_images/speaker01.jpg","img/object_images/tray01.jpg","img/object_images/bicycle_lock01.jpg","1","1","1","1","1","0","0.522940899943933","0.632756200036965","0.517182699986733","1","1","1","1","1","1","1","1","1"
"260039","img/object_images/bicycle_lock01.jpg","img/object_images/speaker01.jpg","img/object_images/glasses06.jpg","1","1","1","0","1","1","0.517182699986733","0.522940899943933","0.628980300039984","1","1","1","1","1","1","1","1","1"
"260039","img/object_images/glasses06.jpg","img/object_images/bicycle_lock01.jpg","img/object_images/Pottery01.jpg","1","1","1","1","0","0","0.628980300039984","0.517182699986733","0.560863199993037","1","1","1","1","1","1","1","1","1"
"260039","img/object_images/Pottery01.jpg","img/object_images/glasses06.jpg","img/object_images/cellphone02.jpg","1","1","1","0","1","1","0.560863199993037","0.628980300039984","0.459553099935874","1","1","1","1","1","1","1","1","1"
"260039","img/object_images/cellphone02.jpg","img/object_images/Pottery01.jpg","img/object_images/pan01.jpg","1","1","1","1","0","1","0.459553099935874","0.560863199993037","0.498433999950066","1","1","1","1","1","1","1","1","1"
"260039","img/object_images/pan01.jpg","img/object_images/cellphone02.jpg","img/object_images/yo_yo01.jpg","1","1","1","1","1","0","0.498433999950066","0.459553099935874","0.57910030009225","1","1","1","1","1","1","1","1","1"
"260039","img/object_images/yo_yo01.jpg","img/object_images/pan01.jpg","img/object_images/book01.jpg","1","1","1","0","1","1","0.57910030009225","0.498433999950066","0.507461600005627","1","1","1","1","1","1","1","1","1"
"260039","img/object_images/book01.jpg","img/object_images/yo_yo01.jpg","img/object_images/hair_clips01.jpg","1","1","1","1","0","1","0.507461600005627","0.57910030009225","0.46546059998218","1","1","1","1","1","1","1","1","1"
"260039","img/object_images/hair_clips01.jpg","img/object_images/book01.jpg","img/object_images/faucet01.jpg","1","1","1","1","1","0","0.46546059998218","0.507461600005627","0.874948300071992","1","1","1","1","1","1","1","1","1"
"260039","img/object_images/faucet01.jpg","img/object_images/hair_clips01.jpg","img/object_images/jewelry09.jpg","1","1","1","0","1","1","0.874948300071992","0.46546059998218","0.583905800012872","1","1","1","1","1","1","1","1","1"
"260039","img/object_images/jewelry09.jpg","img/object_images/faucet01.jpg","img/object_images/tool08.jpg","1","1","1","1","0","0","0.583905800012872","0.874948300071992","0.513061300036497","1","1","1","1","1","1","1","1","1"
"260039","img/object_images/tool08.jpg","img/object_images/jewelry09.jpg","img/object_images/ring03.jpg","1","1","1","0","1","1","0.513061300036497","0.583905800012872","0.566689300001599","1","1","1","1","1","1","1","1","1"
"260039","img/object_images/ring03.jpg","img/object_images/tool08.jpg","img/object_images/TrashCan02.jpg","1","1","1","1","0","1","0.566689300001599","0.513061300036497","0.404481899924576","1","1","1","1","1","1","1","1","1"
"260039","img/object_images/TrashCan02.jpg","img/object_images/ring03.jpg","img/object_images/hole_puncher01.jpg","1","1","1","1","1","1","0.404481899924576","0.566689300001599","0.525533900014125","1","1","1","1","1","1","1","1","1"
"260039","img/object_images/hole_puncher01.jpg","img/object_images/TrashCan02.jpg","img/object_images/Traffic Sign 01.jpg","1","1","1","1","1","0","0.525533900014125","0.404481899924576","0.583763899980113","1","1","1","1","1","1","1","1","1"
"260039","img/object_images/Traffic Sign 01.jpg","img/object_images/hole_puncher01.jpg","img/object_images/Kitchen_Towel.jpg","1","1","1","0","1","0","0.583763899980113","0.525533900014125","0.828056500060484","1","1","1","1","1","1","1","1","1"
"260039","img/object_images/Kitchen_Towel.jpg","img/object_images/Traffic Sign 01.jpg","img/object_images/blanket01.jpg","1","1","1","0","0","1","0.828056500060484","0.583763899980113","0.850785700022243","1","1","1","1","1","1","1","1","1"
"260039","img/object_images/blanket01.jpg","img/object_images/Kitchen_Towel.jpg","img/object_images/Sprayer01.jpg","1","1","1","1","0","0","0.850785700022243","0.828056500060484","0.419420399935916","1","1","1","1","1","1","1","1","1"
"260039","img/object_images/Sprayer01.jpg","img/object_images/blanket01.jpg","img/object_images/glasses07.jpg","1","1","1","0","1","1","0.419420399935916","0.850785700022243","0.633586799958721","1","1","1","1","1","1","1","1","1"
"260039","img/object_images/glasses07.jpg","img/object_images/Sprayer01.jpg","img/object_images/exfoliater_brush01.jpg","1","1","1","1","0","0","0.633586799958721","0.419420399935916","0.441949200001545","1","1","1","1","1","1","1","1","1"
"260039","img/object_images/exfoliater_brush01.jpg","img/object_images/glasses07.jpg","img/object_images/fire_extinguisher01.jpg","1","1","1","0","1","0","0.441949200001545","0.633586799958721","0.444243700010702","1","1","1","1","1","1","1","1","1"
"260039","img/object_images/fire_extinguisher01.jpg","img/object_images/exfoliater_brush01.jpg","img/object_images/lighter01.jpg","1","1","1","0","0","1","0.444243700010702","0.441949200001545","0.359628299949691","1","1","1","1","1","1","1","1","1"
"260039","img/object_images/lighter01.jpg","img/object_images/fire_extinguisher01.jpg","img/object_images/handcuffs01.jpg","1","1","1","1","0","0","0.359628299949691","0.444243700010702","0.459284199983813","1","1","1","1","1","1","1","1","1"
"260039","img/object_images/handcuffs01.jpg","img/object_images/lighter01.jpg",NA,"1","1",NA,"0","1",NA,"0.459284199983813","0.359628299949691",NA,"1","1",NA,"1","1",NA,"1","1",NA
"260039","img/object_images/car04.jpg",NA,"img/object_images/MeasuringCup01.jpg","1",NA,"1","0",NA,"1","0.541726500028744",NA,"0.41608220001217","1",NA,"1","1",NA,"1","1",NA,"1"
"260039","img/object_images/MeasuringCup01.jpg","img/object_images/car04.jpg","img/object_images/mask01.jpg","1","1","1","1","0","0","0.41608220001217","0.541726500028744","0.441244499990717","1","1","1","1","1","1","1","1","1"
"260039","img/object_images/mask01.jpg","img/object_images/MeasuringCup01.jpg","img/object_images/shower_head03.jpg","1","1","1","0","1","1","0.441244499990717","0.41608220001217","0.428887400077656","1","1","1","1","1","1","1","1","1"
"260039","img/object_images/shower_head03.jpg","img/object_images/mask01.jpg","img/object_images/jewel01.jpg","1","1","0","1","0","0","0.428887400077656","0.441244499990717","0.291617900016718","1","1","1","1","1","1","1","1","2"
"260039","img/object_images/jewel01.jpg","img/object_images/shower_head03.jpg","img/object_images/belt01.jpg","0","1","1","0","1","0","0.291617900016718","0.428887400077656","0.84934479999356","1","1","1","1","1","1","2","1","1"
"260039","img/object_images/belt01.jpg","img/object_images/jewel01.jpg","img/object_images/binoculars03.jpg","1","0","1","0","0","1","0.84934479999356","0.291617900016718","0.581957699963823","1","1","1","1","1","1","1","2","1"
"260039","img/object_images/binoculars03.jpg","img/object_images/belt01.jpg","img/object_images/cutting_board01.jpg","1","1","1","1","0","1","0.581957699963823","0.84934479999356","0.407706999918446","1","1","1","1","1","1","1","1","1"
"260039","img/object_images/cutting_board01.jpg","img/object_images/binoculars03.jpg","img/object_images/yarn02.jpg","1","1","1","1","1","0","0.407706999918446","0.581957699963823","0.648213499924168","1","1","1","1","1","1","1","1","1"
"260039","img/object_images/yarn02.jpg","img/object_images/cutting_board01.jpg","img/object_images/ribbon01.jpg","1","1","1","0","1","0","0.648213499924168","0.407706999918446","0.497287400066853","1","1","1","1","1","1","1","1","1"
"260039","img/object_images/ribbon01.jpg","img/object_images/yarn02.jpg","img/object_images/bag06.jpg","1","1","1","0","0","1","0.497287400066853","0.648213499924168","0.455850399914198","1","1","1","1","1","1","1","1","1"
"260039","img/object_images/bag06.jpg","img/object_images/ribbon01.jpg","img/object_images/rock03.jpg","1","1","1","1","0","0","0.455850399914198","0.497287400066853","0.515395700000226","1","1","1","1","1","1","1","1","1"
"260039","img/object_images/rock03.jpg","img/object_images/bag06.jpg","img/object_images/tool11.jpg","1","1","1","0","1","1","0.515395700000226","0.455850399914198","0.340393400052562","1","1","1","1","1","1","1","1","1"
"260039","img/object_images/tool11.jpg","img/object_images/rock03.jpg","img/object_images/tv01.jpg","1","1","0","1","0","0","0.340393400052562","0.515395700000226","0.746250299969688","1","1","1","1","1","1","1","1","1"
"260039","img/object_images/tv01.jpg","img/object_images/tool11.jpg","img/object_images/toaster02.jpg","0","1","1","0","1","1","0.746250299969688","0.340393400052562","0.463908499921672","1","1","1","1","1","1","1","1","1"
"260039","img/object_images/toaster02.jpg","img/object_images/tv01.jpg","img/object_images/key02.jpg","1","0","1","1","0","1","0.463908499921672","0.746250299969688","0.55914359993767","1","1","1","1","1","1","1","1","1"
"260039","img/object_images/key02.jpg","img/object_images/toaster02.jpg","img/object_images/jewelry07.jpg","1","1","1","1","1","1","0.55914359993767","0.463908499921672","0.459547400008887","1","1","1","1","1","1","1","1","1"
"260039","img/object_images/jewelry07.jpg","img/object_images/key02.jpg","img/object_images/fan05.jpg","1","1","1","1","1","0","0.459547400008887","0.55914359993767","0.787487800000235","1","1","1","1","1","1","1","1","1"
"260039","img/object_images/fan05.jpg","img/object_images/jewelry07.jpg","img/object_images/chair04.jpg","1","1","1","0","1","1","0.787487800000235","0.459547400008887","0.600922700017691","1","1","1","1","1","1","1","1","1"
"260039","img/object_images/chair04.jpg","img/object_images/fan05.jpg","img/object_images/ice_tray03.jpg","1","1","1","1","0","1","0.600922700017691","0.787487800000235","0.538963800063357","1","1","1","1","1","1","1","1","1"
"260039","img/object_images/ice_tray03.jpg","img/object_images/chair04.jpg","img/object_images/screwdriver01.jpg","1","1","1","1","1","0","0.538963800063357","0.600922700017691","0.572641999926418","1","1","1","1","1","1","1","1","1"
"260039","img/object_images/screwdriver01.jpg","img/object_images/ice_tray03.jpg","img/object_images/car03.jpg","1","1","1","0","1","0","0.572641999926418","0.538963800063357","0.490208399947733","1","1","1","1","1","1","1","1","1"
"260039","img/object_images/car03.jpg","img/object_images/screwdriver01.jpg","img/object_images/dress03.jpg","1","1","1","0","0","1","0.490208399947733","0.572641999926418","0.551416600006633","1","1","1","1","1","1","1","1","1"
"260039","img/object_images/dress03.jpg","img/object_images/car03.jpg","img/object_images/slinky_toy01.jpg","1","1","1","1","0","1","0.551416600006633","0.490208399947733","0.511512800003402","1","1","1","1","1","1","1","1","1"
"260039","img/object_images/slinky_toy01.jpg","img/object_images/dress03.jpg","img/object_images/cards01.jpg","1","1","1","1","1","0","0.511512800003402","0.551416600006633","0.629123600083403","1","1","1","1","1","1","1","1","1"
"260039","img/object_images/cards01.jpg","img/object_images/slinky_toy01.jpg","img/object_images/shoes10.jpg","1","1","1","0","1","0","0.629123600083403","0.511512800003402","0.493827800033614","1","1","1","1","1","1","1","1","1"
"260039","img/object_images/shoes10.jpg","img/object_images/cards01.jpg","img/object_images/lemon_squeezer02.jpg","1","1","1","0","0","1","0.493827800033614","0.629123600083403","0.466291700024158","1","1","1","1","1","1","1","1","1"
"260039","img/object_images/lemon_squeezer02.jpg","img/object_images/shoes10.jpg","img/object_images/satellite01.jpg","1","1","1","1","0","0","0.466291700024158","0.493827800033614","0.451045099995099","1","1","1","1","1","1","1","1","1"
"260039","img/object_images/satellite01.jpg","img/object_images/lemon_squeezer02.jpg","img/object_images/ladle02.jpg","1","1","1","0","1","0","0.451045099995099","0.466291700024158","0.410194299998693","1","1","1","1","1","1","1","1","1"
"260039","img/object_images/ladle02.jpg","img/object_images/satellite01.jpg","img/object_images/razor01.jpg","1","1","1","0","0","0","0.410194299998693","0.451045099995099","0.471230400027707","1","1","1","1","1","1","1","1","1"
"260039","img/object_images/razor01.jpg","img/object_images/ladle02.jpg","img/object_images/hair_brush05.jpg","1","1","1","0","0","1","0.471230400027707","0.410194299998693","0.390418499941006","1","1","1","1","1","1","1","1","1"
"260039","img/object_images/hair_brush05.jpg","img/object_images/razor01.jpg","img/object_images/WitchHat02.jpg","1","1","0","1","0","1","0.390418499941006","0.471230400027707","0.301880499930121","1","1","1","1","1","1","1","1","2"
"260039","img/object_images/WitchHat02.jpg","img/object_images/hair_brush05.jpg",NA,"0","1",NA,"1","1",NA,"0.301880499930121","0.390418499941006",NA,"1","1",NA,"1","1",NA,"2","1",NA
"260039","img/object_images/knife04.jpg",NA,"img/object_images/tennis_racket02.jpg","1",NA,"1","1",NA,"1","0.98009650001768",NA,"0.641418099985458","1",NA,"1","1",NA,"1","1",NA,"1"
"260039","img/object_images/tennis_racket02.jpg","img/object_images/knife04.jpg","img/object_images/retainer01.jpg","1","1","1","1","1","0","0.641418099985458","0.98009650001768","0.530920199933462","1","1","1","1","1","1","1","1","1"
"260039","img/object_images/retainer01.jpg","img/object_images/tennis_racket02.jpg","img/object_images/usb02.jpg","1","1","1","0","1","0","0.530920199933462","0.641418099985458","0.493717100005597","1","1","1","1","1","1","1","1","1"
"260039","img/object_images/usb02.jpg","img/object_images/retainer01.jpg","img/object_images/pillows01.jpg","1","1","1","0","0","1","0.493717100005597","0.530920199933462","0.47507000004407","1","1","1","1","1","1","1","1","1"
"260039","img/object_images/pillows01.jpg","img/object_images/usb02.jpg","img/object_images/Oven01.jpg","1","1","1","1","0","1","0.47507000004407","0.493717100005597","0.360975899966434","1","1","1","1","1","1","1","1","1"
"260039","img/object_images/Oven01.jpg","img/object_images/pillows01.jpg","img/object_images/wire02.jpg","1","1","1","1","1","1","0.360975899966434","0.47507000004407","0.508719700039364","1","1","1","1","1","1","1","1","1"
"260039","img/object_images/wire02.jpg","img/object_images/Oven01.jpg","img/object_images/crutches02.jpg","1","1","1","1","1","0","0.508719700039364","0.360975899966434","0.471785500063561","1","1","1","1","1","1","1","1","1"
"260039","img/object_images/crutches02.jpg","img/object_images/wire02.jpg","img/object_images/Thermometer01.jpg","1","1","1","0","1","0","0.471785500063561","0.508719700039364","0.524191799922846","1","1","1","1","1","1","1","1","1"
"260039","img/object_images/Thermometer01.jpg","img/object_images/crutches02.jpg","img/object_images/clock02.jpg","1","1","1","0","0","0","0.524191799922846","0.471785500063561","0.514477799995802","1","1","1","1","1","1","1","1","1"
"260039","img/object_images/clock02.jpg","img/object_images/Thermometer01.jpg","img/object_images/lid01.jpg","1","1","1","0","0","1","0.514477799995802","0.524191799922846","0.506471099914052","1","1","1","1","1","1","1","1","1"
"260039","img/object_images/lid01.jpg","img/object_images/clock02.jpg","img/object_images/clip03.jpg","1","1","1","1","0","0","0.506471099914052","0.514477799995802","0.659348599961959","1","1","1","1","1","1","1","1","1"
"260039","img/object_images/clip03.jpg","img/object_images/lid01.jpg","img/object_images/paint_brush04.jpg","1","1","1","0","1","0","0.659348599961959","0.506471099914052","0.508453199989162","1","1","1","1","1","1","1","1","1"
"260039","img/object_images/paint_brush04.jpg","img/object_images/clip03.jpg","img/object_images/hammer03.jpg","1","1","1","0","0","1","0.508453199989162","0.659348599961959","0.468659100006334","1","1","1","1","1","1","1","1","1"
"260039","img/object_images/hammer03.jpg","img/object_images/paint_brush04.jpg","img/object_images/chess_piece02.jpg","1","1","1","1","0","1","0.468659100006334","0.508453199989162","0.490854199975729","1","1","1","1","1","1","1","1","1"
"260039","img/object_images/chess_piece02.jpg","img/object_images/hammer03.jpg","img/object_images/book03.jpg","1","1","1","1","1","1","0.490854199975729","0.468659100006334","0.54196870001033","1","1","1","1","1","1","1","1","1"
"260039","img/object_images/book03.jpg","img/object_images/chess_piece02.jpg","img/object_images/bottle01.jpg","1","1","1","1","1","0","0.54196870001033","0.490854199975729","0.479158400092274","1","1","1","1","1","1","1","1","1"
"260039","img/object_images/bottle01.jpg","img/object_images/book03.jpg","img/object_images/motorcycle01.jpg","1","1","1","0","1","1","0.479158400092274","0.54196870001033","0.476367700030096","1","1","1","1","1","1","1","1","1"
"260039","img/object_images/motorcycle01.jpg","img/object_images/bottle01.jpg","img/object_images/note_book01.jpg","1","1","1","1","0","0","0.476367700030096","0.479158400092274","0.509108800091781","1","1","1","1","1","1","1","1","1"
"260039","img/object_images/note_book01.jpg","img/object_images/motorcycle01.jpg","img/object_images/knit05.jpg","1","1","1","0","1","1","0.509108800091781","0.476367700030096","0.498769299942069","1","1","1","1","1","1","1","1","1"
"260039","img/object_images/knit05.jpg","img/object_images/note_book01.jpg","img/object_images/ear_bud01.jpg","1","1","1","1","0","1","0.498769299942069","0.509108800091781","0.510261099901982","1","1","1","1","1","1","1","1","1"
"260039","img/object_images/ear_bud01.jpg","img/object_images/knit05.jpg","img/object_images/microscope01.jpg","1","1","1","1","1","0","0.510261099901982","0.498769299942069","0.409509299905039","1","1","1","1","1","1","1","1","1"
"260039","img/object_images/microscope01.jpg","img/object_images/ear_bud01.jpg","img/object_images/cellphone01.jpg","1","1","1","0","1","1","0.409509299905039","0.510261099901982","0.514541500015184","1","1","1","1","1","1","1","1","1"
"260039","img/object_images/cellphone01.jpg","img/object_images/microscope01.jpg","img/object_images/pitcher01.jpg","1","1","1","1","0","0","0.514541500015184","0.409509299905039","0.471893299953081","1","1","1","1","1","1","1","1","1"
"260039","img/object_images/pitcher01.jpg","img/object_images/cellphone01.jpg","img/object_images/bell02.jpg","1","1","1","0","1","0","0.471893299953081","0.514541500015184","0.52378059993498","1","1","1","1","1","1","1","1","1"
"260039","img/object_images/bell02.jpg","img/object_images/pitcher01.jpg","img/object_images/floppy_disk03.jpg","1","1","1","0","0","1","0.52378059993498","0.471893299953081","0.412782200030051","1","1","1","1","1","1","1","1","1"
"260039","img/object_images/floppy_disk03.jpg","img/object_images/bell02.jpg","img/object_images/floppy_disk02.jpg","1","1","1","1","0","0","0.412782200030051","0.52378059993498","0.494395399931818","1","1","1","1","1","1","1","1","1"
"260039","img/object_images/floppy_disk02.jpg","img/object_images/floppy_disk03.jpg","img/object_images/compass01.jpg","1","1","1","0","1","1","0.494395399931818","0.412782200030051","0.506346400012262","1","1","1","1","1","1","1","1","1"
"260039","img/object_images/compass01.jpg","img/object_images/floppy_disk02.jpg","img/object_images/chair05.jpg","1","1","1","1","0","0","0.506346400012262","0.494395399931818","0.888576900004409","1","1","1","1","1","1","1","1","1"
"260039","img/object_images/chair05.jpg","img/object_images/compass01.jpg","img/object_images/Staples01.jpg","1","1","1","0","1","1","0.888576900004409","0.506346400012262","0.415097399963997","1","1","1","1","1","1","1","1","1"
"260039","img/object_images/Staples01.jpg","img/object_images/chair05.jpg","img/object_images/tv02.jpg","1","1","1","1","0","0","0.415097399963997","0.888576900004409","0.464372499962337","1","1","1","1","1","1","1","1","1"
"260039","img/object_images/tv02.jpg","img/object_images/Staples01.jpg","img/object_images/pen03.jpg","1","1","1","0","1","0","0.464372499962337","0.415097399963997","0.43945440009702","1","1","1","1","1","1","1","1","1"
"260039","img/object_images/pen03.jpg","img/object_images/tv02.jpg",NA,"1","1",NA,"0","0",NA,"0.43945440009702","0.464372499962337",NA,"1","1",NA,"1","1",NA,"1","1",NA
"260039","img/object_images/toy04.jpg",NA,"img/object_images/toy03.jpg","1",NA,"1","0",NA,"1","0.80619489995297",NA,"0.680832999991253","1",NA,"1","1",NA,"1","1",NA,"1"
"260039","img/object_images/toy03.jpg","img/object_images/toy04.jpg","img/object_images/bird_house02.jpg","1","1","1","1","0","1","0.680832999991253","0.80619489995297","0.525479099946097","1","1","1","1","1","1","1","1","1"
"260039","img/object_images/bird_house02.jpg","img/object_images/toy03.jpg","img/object_images/helmet01.jpg","1","1","1","1","1","0","0.525479099946097","0.680832999991253","0.533842299948446","1","1","1","1","1","1","1","1","1"
"260039","img/object_images/helmet01.jpg","img/object_images/bird_house02.jpg","img/object_images/watch01.jpg","1","1","1","0","1","0","0.533842299948446","0.525479099946097","0.51570929994341","1","1","1","1","1","1","1","1","1"
"260039","img/object_images/watch01.jpg","img/object_images/helmet01.jpg","img/object_images/pot01 (1).jpg","1","1","1","0","0","0","0.51570929994341","0.533842299948446","0.557132299989462","1","1","1","1","1","1","1","1","1"
"260039","img/object_images/pot01 (1).jpg","img/object_images/watch01.jpg","img/object_images/ornament01.jpg","1","1","1","0","0","1","0.557132299989462","0.51570929994341","0.526370499981567","1","1","1","1","1","1","1","1","1"
"260039","img/object_images/ornament01.jpg","img/object_images/pot01 (1).jpg","img/object_images/jewel04.jpg","1","1","1","1","0","0","0.526370499981567","0.557132299989462","0.518969299970195","1","1","1","1","1","1","1","1","1"
"260039","img/object_images/jewel04.jpg","img/object_images/ornament01.jpg","img/object_images/frisbee01.jpg","1","1","1","0","1","1","0.518969299970195","0.526370499981567","0.469715000013821","1","1","1","1","1","1","1","1","1"
"260039","img/object_images/frisbee01.jpg","img/object_images/jewel04.jpg","img/object_images/bow01.jpg","1","1","1","1","0","1","0.469715000013821","0.518969299970195","1.21274079999421","1","1","1","1","1","1","1","1","1"
"260039","img/object_images/bow01.jpg","img/object_images/frisbee01.jpg","img/object_images/video_game07.jpg","1","1","1","1","1","1","1.21274079999421","0.469715000013821","0.557232600054704","1","1","1","1","1","1","1","1","1"
"260039","img/object_images/video_game07.jpg","img/object_images/bow01.jpg","img/object_images/fridge03.jpg","1","1","1","1","1","0","0.557232600054704","1.21274079999421","1.30803399998695","1","1","1","1","1","1","1","1","1"
"260039","img/object_images/fridge03.jpg","img/object_images/video_game07.jpg","img/object_images/shovel03.jpg","1","1","1","0","1","1","1.30803399998695","0.557232600054704","0.459215000038967","1","1","1","1","1","1","1","1","1"
"260039","img/object_images/shovel03.jpg","img/object_images/fridge03.jpg","img/object_images/outlet01.jpg","1","1","1","1","0","0","0.459215000038967","1.30803399998695","0.746321999933571","1","1","1","1","1","1","1","1","1"
"260039","img/object_images/outlet01.jpg","img/object_images/shovel03.jpg","img/object_images/sink01.jpg","1","1","1","0","1","0","0.746321999933571","0.459215000038967","0.533060999936424","1","1","1","1","1","1","1","1","1"
"260039","img/object_images/sink01.jpg","img/object_images/outlet01.jpg","img/object_images/judge_gavel01.jpg","1","1","1","0","0","1","0.533060999936424","0.746321999933571","0.443733599968255","1","1","1","1","1","1","1","1","1"
"260039","img/object_images/judge_gavel01.jpg","img/object_images/sink01.jpg","img/object_images/acoustic_capo01.jpg","1","1","1","1","0","1","0.443733599968255","0.533060999936424","0.509261299972422","1","1","1","1","1","1","1","1","1"
"260039","img/object_images/acoustic_capo01.jpg","img/object_images/judge_gavel01.jpg","img/object_images/tool09.jpg","1","1","1","1","1","1","0.509261299972422","0.443733599968255","0.583877200027928","1","1","1","1","1","1","1","1","1"
"260039","img/object_images/tool09.jpg","img/object_images/acoustic_capo01.jpg","img/object_images/towel02.jpg","1","1","0","1","1","1","0.583877200027928","0.509261299972422","0.307469999883324","1","1","1","1","1","1","1","1","2"
"260039","img/object_images/towel02.jpg","img/object_images/tool09.jpg","img/object_images/dart01.jpg","0","1","1","1","1","0","0.307469999883324","0.583877200027928","0.443612299975939","1","1","1","1","1","1","2","1","1"
"260039","img/object_images/dart01.jpg","img/object_images/towel02.jpg","img/object_images/Vacuum01.jpg","1","0","1","0","1","0","0.443612299975939","0.307469999883324","0.387127599911764","1","1","1","1","1","1","1","2","1"
"260039","img/object_images/Vacuum01.jpg","img/object_images/dart01.jpg","img/object_images/Tin01.jpg","1","1","1","0","0","1","0.387127599911764","0.443612299975939","0.39306030003354","1","1","1","1","1","1","1","1","1"
"260039","img/object_images/Tin01.jpg","img/object_images/Vacuum01.jpg","img/object_images/gauze01.jpg","1","1","1","1","0","0","0.39306030003354","0.387127599911764","0.406340899993666","1","1","1","1","1","1","1","1","1"
"260039","img/object_images/gauze01.jpg","img/object_images/Tin01.jpg","img/object_images/guitar02.jpg","1","1","1","0","1","0","0.406340899993666","0.39306030003354","0.452381500042975","1","1","1","1","1","1","1","1","1"
"260039","img/object_images/guitar02.jpg","img/object_images/gauze01.jpg","img/object_images/mirror01.jpg","1","1","1","0","0","1","0.452381500042975","0.406340899993666","0.51387059991248","1","1","1","1","1","1","1","1","1"
"260039","img/object_images/mirror01.jpg","img/object_images/guitar02.jpg","img/object_images/MetalWire01.jpg","1","1","1","1","0","0","0.51387059991248","0.452381500042975","0.560525899985805","1","1","1","1","1","1","1","1","1"
"260039","img/object_images/MetalWire01.jpg","img/object_images/mirror01.jpg","img/object_images/Stool01.jpg","1","1","1","0","1","0","0.560525899985805","0.51387059991248","0.746531100012362","1","1","1","1","1","1","1","1","1"
"260039","img/object_images/Stool01.jpg","img/object_images/MetalWire01.jpg","img/object_images/bottle05.jpg","1","1","1","0","0","0","0.746531100012362","0.560525899985805","1.03578430006746","1","1","1","1","1","1","1","1","1"
"260039","img/object_images/bottle05.jpg","img/object_images/Stool01.jpg","img/object_images/crown02.jpg","1","1","1","0","0","1","1.03578430006746","0.746531100012362","0.478505800012499","1","1","1","1","1","1","1","1","1"
"260039","img/object_images/crown02.jpg","img/object_images/bottle05.jpg","img/object_images/stapler.jpg","1","1","1","1","0","1","0.478505800012499","1.03578430006746","0.472920499974862","1","1","1","1","1","1","1","1","1"
"260039","img/object_images/stapler.jpg","img/object_images/crown02.jpg","img/object_images/tool02.jpg","1","1","1","1","1","1","0.472920499974862","0.478505800012499","0.465908600017428","1","1","1","1","1","1","1","1","1"
"260039","img/object_images/tool02.jpg","img/object_images/stapler.jpg","img/object_images/Ring02.jpg","1","1","1","1","1","0","0.465908600017428","0.472920499974862","0.498698899988085","1","1","1","1","1","1","1","1","1"
"260039","img/object_images/Ring02.jpg","img/object_images/tool02.jpg",NA,"1","1",NA,"0","1",NA,"0.498698899988085","0.465908600017428",NA,"1","1",NA,"1","1",NA,"1","1",NA
"260039","img/object_images/floss01.jpg",NA,"img/object_images/hammer02.jpg","1",NA,"1","1",NA,"0","0.575357499998063",NA,"0.556536099989899","1",NA,"1","1",NA,"1","1",NA,"1"
"260039","img/object_images/hammer02.jpg","img/object_images/floss01.jpg","img/object_images/bag04.jpg","1","1","1","0","1","0","0.556536099989899","0.575357499998063","0.532818399951793","1","1","1","1","1","1","1","1","1"
"260039","img/object_images/bag04.jpg","img/object_images/hammer02.jpg","img/object_images/duster01.jpg","1","1","1","0","0","0","0.532818399951793","0.556536099989899","0.430568999960087","1","1","1","1","1","1","1","1","1"
"260039","img/object_images/duster01.jpg","img/object_images/bag04.jpg","img/object_images/hat09.jpg","1","1","1","0","0","0","0.430568999960087","0.532818399951793","0.561450300039724","1","1","1","1","1","1","1","1","1"
"260039","img/object_images/hat09.jpg","img/object_images/duster01.jpg","img/object_images/spray_can01.jpg","1","1","0","0","0","0","0.561450300039724","0.430568999960087","0.413514500018209","1","1","1","1","1","1","1","1","2"
"260039","img/object_images/spray_can01.jpg","img/object_images/hat09.jpg","img/object_images/cup01.jpg","0","1","1","0","0","0","0.413514500018209","0.561450300039724","0.464742199983448","1","1","1","1","1","1","2","1","1"
"260039","img/object_images/cup01.jpg","img/object_images/spray_can01.jpg","img/object_images/camera05.jpg","1","0","1","0","0","0","0.464742199983448","0.413514500018209","0.381509199971333","1","1","1","1","1","1","1","2","1"
"260039","img/object_images/camera05.jpg","img/object_images/cup01.jpg","img/object_images/bow_tie03.jpg","1","1","1","0","0","1","0.381509199971333","0.464742199983448","0.387950900010765","1","1","1","1","1","1","1","1","1"
"260039","img/object_images/bow_tie03.jpg","img/object_images/camera05.jpg","img/object_images/knife01.jpg","1","1","1","1","0","1","0.387950900010765","0.381509199971333","0.442831699969247","1","1","1","1","1","1","1","1","1"
"260039","img/object_images/knife01.jpg","img/object_images/bow_tie03.jpg","img/object_images/vase02.jpg","1","1","1","1","1","1","0.442831699969247","0.387950900010765","0.77696179994382","1","1","1","1","1","1","1","1","1"
"260039","img/object_images/vase02.jpg","img/object_images/knife01.jpg","img/object_images/office_supplies01.jpg","1","1","1","1","1","1","0.77696179994382","0.442831699969247","0.470698100049049","1","1","1","1","1","1","1","1","1"
"260039","img/object_images/office_supplies01.jpg","img/object_images/vase02.jpg","img/object_images/pan03.jpg","1","1","1","1","1","1","0.470698100049049","0.77696179994382","0.457058200030588","1","1","1","1","1","1","1","1","1"
"260039","img/object_images/pan03.jpg","img/object_images/office_supplies01.jpg","img/object_images/glasses03.jpg","1","1","1","1","1","0","0.457058200030588","0.470698100049049","0.468671299982816","1","1","1","1","1","1","1","1","1"
"260039","img/object_images/glasses03.jpg","img/object_images/pan03.jpg","img/object_images/lemon_squeezer01.jpg","1","1","1","0","1","1","0.468671299982816","0.457058200030588","0.396022100001574","1","1","1","1","1","1","1","1","1"
"260039","img/object_images/lemon_squeezer01.jpg","img/object_images/glasses03.jpg","img/object_images/sink_filter01 (1).jpg","1","1","1","1","0","0","0.396022100001574","0.468671299982816","0.446999200037681","1","1","1","1","1","1","1","1","1"
"260039","img/object_images/sink_filter01 (1).jpg","img/object_images/lemon_squeezer01.jpg","img/object_images/razor02.jpg","1","1","1","0","1","1","0.446999200037681","0.396022100001574","0.433578700060025","1","1","1","1","1","1","1","1","1"
"260039","img/object_images/razor02.jpg","img/object_images/sink_filter01 (1).jpg","img/object_images/Confetti 01.jpg","1","1","1","1","0","0","0.433578700060025","0.446999200037681","0.562137500033714","1","1","1","1","1","1","1","1","1"
"260039","img/object_images/Confetti 01.jpg","img/object_images/razor02.jpg","img/object_images/sign02.jpg","1","1","1","0","1","0","0.562137500033714","0.433578700060025","0.461494800052606","1","1","1","1","1","1","1","1","1"
"260039","img/object_images/sign02.jpg","img/object_images/Confetti 01.jpg","img/object_images/candle02.jpg","1","1","1","0","0","0","0.461494800052606","0.562137500033714","0.746194000006653","1","1","1","1","1","1","1","1","1"
"260039","img/object_images/candle02.jpg","img/object_images/sign02.jpg","img/object_images/clipboard01.jpg","1","1","1","0","0","1","0.746194000006653","0.461494800052606","0.430745900026523","1","1","1","1","1","1","1","1","1"
"260039","img/object_images/clipboard01.jpg","img/object_images/candle02.jpg","img/object_images/dust_pan01.jpg","1","1","1","1","0","1","0.430745900026523","0.746194000006653","0.500713599962182","1","1","1","1","1","1","1","1","1"
"260039","img/object_images/dust_pan01.jpg","img/object_images/clipboard01.jpg","img/object_images/perfume01.jpg","1","1","1","1","1","0","0.500713599962182","0.430745900026523","0.612803199910559","1","1","1","1","1","1","1","1","1"
"260039","img/object_images/perfume01.jpg","img/object_images/dust_pan01.jpg","img/object_images/hat13.jpg","1","1","1","0","1","1","0.612803199910559","0.500713599962182","0.701178100076504","1","1","1","1","1","1","1","1","1"
"260039","img/object_images/hat13.jpg","img/object_images/perfume01.jpg","img/object_images/socks01.jpg","1","1","1","1","0","1","0.701178100076504","0.612803199910559","0.44700919999741","1","1","1","1","1","1","1","1","1"
"260039","img/object_images/socks01.jpg","img/object_images/hat13.jpg","img/object_images/board01.jpg","1","1","1","1","1","1","0.44700919999741","0.701178100076504","0.654182599973865","1","1","1","1","1","1","1","1","1"
"260039","img/object_images/board01.jpg","img/object_images/socks01.jpg","img/object_images/video_game02.jpg","1","1","1","1","1","1","0.654182599973865","0.44700919999741","0.542882699985057","1","1","1","1","1","1","1","1","1"
"260039","img/object_images/video_game02.jpg","img/object_images/board01.jpg","img/object_images/tool20.jpg","1","1","1","1","1","0","0.542882699985057","0.654182599973865","0.420296000083908","1","1","1","1","1","1","1","1","1"
"260039","img/object_images/tool20.jpg","img/object_images/video_game02.jpg","img/object_images/tool13.jpg","1","1","1","0","1","1","0.420296000083908","0.542882699985057","0.601441300008446","1","1","1","1","1","1","1","1","1"
"260039","img/object_images/tool13.jpg","img/object_images/tool20.jpg","img/object_images/pen06.jpg","1","1","1","1","0","0","0.601441300008446","0.420296000083908","0.449808400007896","1","1","1","1","1","1","1","1","1"
"260039","img/object_images/pen06.jpg","img/object_images/tool13.jpg","img/object_images/ruler02.jpg","1","1","1","0","1","1","0.449808400007896","0.601441300008446","0.480002399999648","1","1","1","1","1","1","1","1","1"
"260039","img/object_images/ruler02.jpg","img/object_images/pen06.jpg","img/object_images/Candle_Holder01.jpg","1","1","1","1","0","0","0.480002399999648","0.449808400007896","0.395128800068051","1","1","1","1","1","1","1","1","1"
"260039","img/object_images/Candle_Holder01.jpg","img/object_images/ruler02.jpg",NA,"1","1",NA,"0","1",NA,"0.395128800068051","0.480002399999648",NA,"1","1",NA,"1","1",NA,"1","1",NA
"260039","img/object_images/jewel03.jpg",NA,"img/object_images/bucket02.jpg","1",NA,"1","1",NA,"1","0.91618030006066",NA,"0.535781999933533","1",NA,"1","1",NA,"1","1",NA,"1"
"260039","img/object_images/bucket02.jpg","img/object_images/jewel03.jpg","img/object_images/chess_piece01.jpg","1","1","0","1","1","0","0.535781999933533","0.91618030006066","0.33519539993722","1","1","1","1","1","1","1","1","1"
"260039","img/object_images/chess_piece01.jpg","img/object_images/bucket02.jpg","img/object_images/accardion01.jpg","0","1","1","0","1","1","0.33519539993722","0.535781999933533","0.411866200040095","1","1","1","1","1","1","1","1","1"
"260039","img/object_images/accardion01.jpg","img/object_images/chess_piece01.jpg","img/object_images/combs01.jpg","1","0","1","1","0","1","0.411866200040095","0.33519539993722","0.464709499967285","1","1","1","1","1","1","1","1","1"
"260039","img/object_images/combs01.jpg","img/object_images/accardion01.jpg","img/object_images/Lint_Roller02.jpg","1","1","1","1","1","0","0.464709499967285","0.411866200040095","0.384083600016311","1","1","1","1","1","1","1","1","1"
"260039","img/object_images/Lint_Roller02.jpg","img/object_images/combs01.jpg","img/object_images/towels01.jpg","1","1","1","0","1","0","0.384083600016311","0.464709499967285","0.37229379999917","1","1","1","1","1","1","1","1","1"
"260039","img/object_images/towels01.jpg","img/object_images/Lint_Roller02.jpg","img/object_images/robe01.jpg","1","1","0","0","0","1","0.37229379999917","0.384083600016311","0.373174399952404","1","1","1","1","1","1","1","1","2"
"260039","img/object_images/robe01.jpg","img/object_images/towels01.jpg","img/object_images/vase01.jpg","0","1","1","1","0","0","0.373174399952404","0.37229379999917","1.14365700003691","1","1","1","1","1","1","2","1","1"
"260039","img/object_images/vase01.jpg","img/object_images/robe01.jpg","img/object_images/calculator01.jpg","1","0","1","0","1","1","1.14365700003691","0.373174399952404","0.48635290004313","1","1","1","1","1","1","1","2","1"
"260039","img/object_images/calculator01.jpg","img/object_images/vase01.jpg","img/object_images/hair_dryer01.jpg","1","1","1","1","0","0","0.48635290004313","1.14365700003691","0.503043200005777","1","1","1","1","1","1","1","1","1"
"260039","img/object_images/hair_dryer01.jpg","img/object_images/calculator01.jpg","img/object_images/pitcher05.jpg","1","1","1","0","1","0","0.503043200005777","0.48635290004313","0.534383999998681","1","1","1","1","1","1","1","1","1"
"260039","img/object_images/pitcher05.jpg","img/object_images/hair_dryer01.jpg","img/object_images/spatula02.jpg","1","1","1","0","0","1","0.534383999998681","0.503043200005777","0.536683400045149","1","1","1","1","1","1","1","1","1"
"260039","img/object_images/spatula02.jpg","img/object_images/pitcher05.jpg","img/object_images/ball02.jpg","1","1","1","1","0","1","0.536683400045149","0.534383999998681","0.386017900076695","1","1","1","1","1","1","1","1","1"
"260039","img/object_images/ball02.jpg","img/object_images/spatula02.jpg","img/object_images/lock01.jpg","1","1","1","1","1","0","0.386017900076695","0.536683400045149","0.496167399920523","1","1","1","1","1","1","1","1","1"
"260039","img/object_images/lock01.jpg","img/object_images/ball02.jpg","img/object_images/stove01.jpg","1","1","0","0","1","0","0.496167399920523","0.386017900076695","0.740930500091054","1","1","1","1","1","1","1","1","1"
"260039","img/object_images/stove01.jpg","img/object_images/lock01.jpg","img/object_images/chair02.jpg","0","1","1","0","0","1","0.740930500091054","0.496167399920523","0.50212959991768","1","1","1","1","1","1","1","1","1"
"260039","img/object_images/chair02.jpg","img/object_images/stove01.jpg","img/object_images/shoes08.jpg","1","0","1","1","0","1","0.50212959991768","0.740930500091054","0.438222800032236","1","1","1","1","1","1","1","1","1"
"260039","img/object_images/shoes08.jpg","img/object_images/chair02.jpg","img/object_images/umbrella01.jpg","1","1","1","1","1","0","0.438222800032236","0.50212959991768","0.381148599903099","1","1","1","1","1","1","1","1","1"
"260039","img/object_images/umbrella01.jpg","img/object_images/shoes08.jpg","img/object_images/surf_board01.jpg","1","1","1","0","1","1","0.381148599903099","0.438222800032236","0.542537499917671","1","1","1","1","1","1","1","1","1"
"260039","img/object_images/surf_board01.jpg","img/object_images/umbrella01.jpg","img/object_images/microphone03.jpg","1","1","1","1","0","1","0.542537499917671","0.381148599903099","0.414155200007372","1","1","1","1","1","1","1","1","1"
"260039","img/object_images/microphone03.jpg","img/object_images/surf_board01.jpg","img/object_images/laptop01.jpg","1","1","1","1","1","0","0.414155200007372","0.542537499917671","0.466309100040235","1","1","1","1","1","1","1","1","1"
"260039","img/object_images/laptop01.jpg","img/object_images/microphone03.jpg","img/object_images/trash_can05.jpg","1","1","1","0","1","1","0.466309100040235","0.414155200007372","0.571366399992257","1","1","1","1","1","1","1","1","1"
"260039","img/object_images/trash_can05.jpg","img/object_images/laptop01.jpg","img/object_images/helmet02.jpg","1","1","1","1","0","0","0.571366399992257","0.466309100040235","0.485683100065216","1","1","1","1","1","1","1","1","1"
"260039","img/object_images/helmet02.jpg","img/object_images/trash_can05.jpg","img/object_images/laptop03.jpg","1","1","1","0","1","1","0.485683100065216","0.571366399992257","0.483115600072779","1","1","1","1","1","1","1","1","1"
"260039","img/object_images/laptop03.jpg","img/object_images/helmet02.jpg","img/object_images/trash_can03.jpg","1","1","1","1","0","1","0.483115600072779","0.485683100065216","0.411230799974874","1","1","1","1","1","1","1","1","1"
"260039","img/object_images/trash_can03.jpg","img/object_images/laptop03.jpg","img/object_images/fan04.jpg","1","1","1","1","1","0","0.411230799974874","0.483115600072779","0.42815419996623","1","1","1","1","1","1","1","1","1"
"260039","img/object_images/fan04.jpg","img/object_images/trash_can03.jpg","img/object_images/toy05.jpg","1","1","1","0","1","0","0.42815419996623","0.411230799974874","0.485662199906074","1","1","1","1","1","1","1","1","1"
"260039","img/object_images/toy05.jpg","img/object_images/fan04.jpg","img/object_images/hair_brush02.jpg","1","1","1","0","0","0","0.485662199906074","0.42815419996623","0.503612300031818","1","1","1","1","1","1","1","1","1"
"260039","img/object_images/hair_brush02.jpg","img/object_images/toy05.jpg","img/object_images/gift_box05.jpg","1","1","1","0","0","0","0.503612300031818","0.485662199906074","0.5270796000259","1","1","1","1","1","1","1","1","1"
"260039","img/object_images/gift_box05.jpg","img/object_images/hair_brush02.jpg","img/object_images/backpack03.jpg","1","1","1","0","0","1","0.5270796000259","0.503612300031818","0.457304000039585","1","1","1","1","1","1","1","1","1"
"260039","img/object_images/backpack03.jpg","img/object_images/gift_box05.jpg","img/object_images/Vest02.jpg","1","1","1","1","0","0","0.457304000039585","0.5270796000259","0.432665000087582","1","1","1","1","1","1","1","1","1"
"260039","img/object_images/Vest02.jpg","img/object_images/backpack03.jpg",NA,"1","1",NA,"0","1",NA,"0.432665000087582","0.457304000039585",NA,"1","1",NA,"1","1",NA,"1","1",NA
"260039","img/object_images/pitcher07.jpg",NA,"img/object_images/Shoes05.jpg","1",NA,"1","1",NA,"0","0.519136000075378",NA,"0.515316300094128","1",NA,"1","1",NA,"1","1",NA,"1"
"260039","img/object_images/Shoes05.jpg","img/object_images/pitcher07.jpg","img/object_images/yoga_mat01.jpg","1","1","1","0","1","0","0.515316300094128","0.519136000075378","0.430871900054626","1","1","1","1","1","1","1","1","1"
"260039","img/object_images/yoga_mat01.jpg","img/object_images/Shoes05.jpg","img/object_images/headset02.jpg","1","1","1","0","0","0","0.430871900054626","0.515316300094128","0.429984299931675","1","1","1","1","1","1","1","1","1"
"260039","img/object_images/headset02.jpg","img/object_images/yoga_mat01.jpg","img/object_images/trumpet01.jpg","1","1","1","0","0","0","0.429984299931675","0.430871900054626","0.490819500060752","1","1","1","1","1","1","1","1","1"
"260039","img/object_images/trumpet01.jpg","img/object_images/headset02.jpg","img/object_images/jewel02.jpg","1","1","1","0","0","0","0.490819500060752","0.429984299931675","0.494670999934897","1","1","1","1","1","1","1","1","1"
"260039","img/object_images/jewel02.jpg","img/object_images/trumpet01.jpg","img/object_images/Eyeliner01.jpg","1","1","1","0","0","1","0.494670999934897","0.490819500060752","0.481681700097397","1","1","1","1","1","1","1","1","1"
"260039","img/object_images/Eyeliner01.jpg","img/object_images/jewel02.jpg","img/object_images/tennis_racket01.jpg","1","1","1","1","0","1","0.481681700097397","0.494670999934897","0.494755599997006","1","1","1","1","1","1","1","1","1"
"260039","img/object_images/tennis_racket01.jpg","img/object_images/Eyeliner01.jpg","img/object_images/belt03.jpg","1","1","1","1","1","0","0.494755599997006","0.481681700097397","0.417319100000896","1","1","1","1","1","1","1","1","1"
"260039","img/object_images/belt03.jpg","img/object_images/tennis_racket01.jpg","img/object_images/fan01.jpg","1","1","1","0","1","0","0.417319100000896","0.494755599997006","0.453970399918035","1","1","1","1","1","1","1","1","1"
"260039","img/object_images/fan01.jpg","img/object_images/belt03.jpg","img/object_images/nut_cracker01.jpg","1","1","1","0","0","1","0.453970399918035","0.417319100000896","0.410810300032608","1","1","1","1","1","1","1","1","1"
"260039","img/object_images/nut_cracker01.jpg","img/object_images/fan01.jpg","img/object_images/water_gun01.jpg","1","1","1","1","0","1","0.410810300032608","0.453970399918035","0.424638799973764","1","1","1","1","1","1","1","1","1"
"260039","img/object_images/water_gun01.jpg","img/object_images/nut_cracker01.jpg","img/object_images/dice01.jpg","1","1","0","1","1","0","0.424638799973764","0.410810300032608","0.475470899953507","1","1","1","1","1","1","1","1","2"
"260039","img/object_images/dice01.jpg","img/object_images/water_gun01.jpg","img/object_images/bucket01.jpg","0","1","1","0","1","1","0.475470899953507","0.424638799973764","0.594250499969348","1","1","1","1","1","1","2","1","1"
"260039","img/object_images/bucket01.jpg","img/object_images/dice01.jpg","img/object_images/joystick03.jpg","1","0","1","1","0","1","0.594250499969348","0.475470899953507","0.476440800004639","1","1","1","1","1","1","1","2","1"
"260039","img/object_images/joystick03.jpg","img/object_images/bucket01.jpg","img/object_images/TreeSlice01.jpg","1","1","1","1","1","1","0.476440800004639","0.594250499969348","0.44487200002186","1","1","1","1","1","1","1","1","1"
"260039","img/object_images/TreeSlice01.jpg","img/object_images/joystick03.jpg","img/object_images/note_book02.jpg","1","1","1","1","1","0","0.44487200002186","0.476440800004639","0.555620600003749","1","1","1","1","1","1","1","1","1"
"260039","img/object_images/note_book02.jpg","img/object_images/TreeSlice01.jpg","img/object_images/egg_basket01.jpg","1","1","1","0","1","1","0.555620600003749","0.44487200002186","0.455903499969281","1","1","1","1","1","1","1","1","1"
"260039","img/object_images/egg_basket01.jpg","img/object_images/note_book02.jpg","img/object_images/bookmark01.jpg","1","1","1","1","0","0","0.455903499969281","0.555620600003749","0.487231999984942","1","1","1","1","1","1","1","1","1"
"260039","img/object_images/bookmark01.jpg","img/object_images/egg_basket01.jpg","img/object_images/piano03.jpg","1","1","1","0","1","0","0.487231999984942","0.455903499969281","0.575638800044544","1","1","1","1","1","1","1","1","1"
"260039","img/object_images/piano03.jpg","img/object_images/bookmark01.jpg","img/object_images/bottle06.jpg","1","1","1","0","0","0","0.575638800044544","0.487231999984942","0.450121500063688","1","1","1","1","1","1","1","1","1"
"260039","img/object_images/bottle06.jpg","img/object_images/piano03.jpg","img/object_images/origami01.jpg","1","1","1","0","0","1","0.450121500063688","0.575638800044544","0.584452299983241","1","1","1","1","1","1","1","1","1"
"260039","img/object_images/origami01.jpg","img/object_images/bottle06.jpg","img/object_images/phone04.jpg","1","1","1","1","0","1","0.584452299983241","0.450121500063688","0.544243199983612","1","1","1","1","1","1","1","1","1"
"260039","img/object_images/phone04.jpg","img/object_images/origami01.jpg","img/object_images/badminton01.jpg","1","1","1","1","1","1","0.544243199983612","0.584452299983241","1.29709300003015","1","1","1","1","1","1","1","1","1"
"260039","img/object_images/badminton01.jpg","img/object_images/phone04.jpg","img/object_images/frame01.jpg","1","1","1","1","1","1","1.29709300003015","0.544243199983612","0.445958700031042","1","1","1","1","1","1","1","1","1"
"260039","img/object_images/frame01.jpg","img/object_images/badminton01.jpg","img/object_images/Safe01.jpg","1","1","1","1","1","1","0.445958700031042","1.29709300003015","0.458418100024574","1","1","1","1","1","1","1","1","1"
"260039","img/object_images/Safe01.jpg","img/object_images/frame01.jpg","img/object_images/lock03.jpg","1","1","1","1","1","1","0.458418100024574","0.445958700031042","0.430004399968311","1","1","1","1","1","1","1","1","1"
"260039","img/object_images/lock03.jpg","img/object_images/Safe01.jpg","img/object_images/shovel01.jpg","1","1","1","1","1","0","0.430004399968311","0.458418100024574","0.54548299999442","1","1","1","1","1","1","1","1","1"
"260039","img/object_images/shovel01.jpg","img/object_images/lock03.jpg","img/object_images/ToolBag01.jpg","1","1","1","0","1","0","0.54548299999442","0.430004399968311","0.474412700044922","1","1","1","1","1","1","1","1","1"
"260039","img/object_images/ToolBag01.jpg","img/object_images/shovel01.jpg","img/object_images/helmet03.jpg","1","1","1","0","0","1","0.474412700044922","0.54548299999442","0.49916220002342","1","1","1","1","1","1","1","1","1"
"260039","img/object_images/helmet03.jpg","img/object_images/ToolBag01.jpg","img/object_images/usb03.jpg","1","1","1","1","0","0","0.49916220002342","0.474412700044922","0.395970300072804","1","1","1","1","1","1","1","1","1"
"260039","img/object_images/usb03.jpg","img/object_images/helmet03.jpg","img/object_images/scale02.jpg","1","1","1","0","1","0","0.395970300072804","0.49916220002342","0.44974720000755","1","1","1","1","1","1","1","1","1"
"260039","img/object_images/scale02.jpg","img/object_images/usb03.jpg",NA,"1","1",NA,"0","0",NA,"0.44974720000755","0.395970300072804",NA,"1","1",NA,"1","1",NA,"1","1",NA
"260039","img/object_images/ironing_table02.jpg",NA,"img/object_images/Wisk01.jpg","1",NA,"1","0",NA,"1","0.969297999981791",NA,"0.559240199974738","1",NA,"1","1",NA,"1","1",NA,"1"
"260039","img/object_images/Wisk01.jpg","img/object_images/ironing_table02.jpg","img/object_images/basketball_hoop02.jpg","1","1","1","1","0","0","0.559240199974738","0.969297999981791","0.55027699994389","1","1","1","1","1","1","1","1","1"
"260039","img/object_images/basketball_hoop02.jpg","img/object_images/Wisk01.jpg","img/object_images/cochlear_implant01.jpg","1","1","1","0","1","0","0.55027699994389","0.559240199974738","0.449097700067796","1","1","1","1","1","1","1","1","1"
"260039","img/object_images/cochlear_implant01.jpg","img/object_images/basketball_hoop02.jpg","img/object_images/bottle12.jpg","1","1","1","0","0","1","0.449097700067796","0.55027699994389","0.421077199978754","1","1","1","1","1","1","1","1","1"
"260039","img/object_images/bottle12.jpg","img/object_images/cochlear_implant01.jpg","img/object_images/Woopie01.jpg","1","1","1","1","0","1","0.421077199978754","0.449097700067796","0.445187999983318","1","1","1","1","1","1","1","1","1"
"260039","img/object_images/Woopie01.jpg","img/object_images/bottle12.jpg","img/object_images/decorative02.jpg","1","1","1","1","1","0","0.445187999983318","0.421077199978754","0.46235779998824","1","1","1","1","1","1","1","1","1"
"260039","img/object_images/decorative02.jpg","img/object_images/Woopie01.jpg","img/object_images/toy_train02.jpg","1","1","0","0","1","1","0.46235779998824","0.445187999983318","0.341714800102636","1","1","1","1","1","1","1","1","2"
"260039","img/object_images/toy_train02.jpg","img/object_images/decorative02.jpg","img/object_images/brief_case02.jpg","0","1","1","1","0","1","0.341714800102636","0.46235779998824","0.450791700044647","1","1","1","1","1","1","2","1","1"
"260039","img/object_images/brief_case02.jpg","img/object_images/toy_train02.jpg","img/object_images/lantern01.jpg","1","0","1","1","1","1","0.450791700044647","0.341714800102636","0.467596899950877","1","1","1","1","1","1","1","2","1"
"260039","img/object_images/lantern01.jpg","img/object_images/brief_case02.jpg","img/object_images/broom01.jpg","1","1","1","1","1","1","0.467596899950877","0.450791700044647","0.494144099997356","1","1","1","1","1","1","1","1","1"
"260039","img/object_images/broom01.jpg","img/object_images/lantern01.jpg","img/object_images/pitcher03.jpg","1","1","1","1","1","1","0.494144099997356","0.467596899950877","0.405125399935059","1","1","1","1","1","1","1","1","1"
"260039","img/object_images/pitcher03.jpg","img/object_images/broom01.jpg","img/object_images/soap01.jpg","1","1","1","1","1","0","0.405125399935059","0.494144099997356","0.463204700034112","1","1","1","1","1","1","1","1","1"
"260039","img/object_images/soap01.jpg","img/object_images/pitcher03.jpg","img/object_images/Recycling01.jpg","1","1","1","0","1","1","0.463204700034112","0.405125399935059","0.438381700078026","1","1","1","1","1","1","1","1","1"
"260039","img/object_images/Recycling01.jpg","img/object_images/soap01.jpg","img/object_images/container01.jpg","1","1","1","1","0","0","0.438381700078026","0.463204700034112","0.605274199973792","1","1","1","1","1","1","1","1","1"
"260039","img/object_images/container01.jpg","img/object_images/Recycling01.jpg","img/object_images/ball01.jpg","1","1","1","0","1","1","0.605274199973792","0.438381700078026","0.542748900013976","1","1","1","1","1","1","1","1","1"
"260039","img/object_images/ball01.jpg","img/object_images/container01.jpg","img/object_images/razor03.jpg","1","1","1","1","0","0","0.542748900013976","0.605274199973792","0.513878299971111","1","1","1","1","1","1","1","1","1"
"260039","img/object_images/razor03.jpg","img/object_images/ball01.jpg","img/object_images/brief_case01.jpg","1","1","1","0","1","0","0.513878299971111","0.542748900013976","0.509516899939626","1","1","1","1","1","1","1","1","1"
"260039","img/object_images/brief_case01.jpg","img/object_images/razor03.jpg","img/object_images/airfryer01.jpg","1","1","1","0","0","0","0.509516899939626","0.513878299971111","0.458609799970873","1","1","1","1","1","1","1","1","1"
"260039","img/object_images/airfryer01.jpg","img/object_images/brief_case01.jpg","img/object_images/guitar01.jpg","1","1","1","0","0","1","0.458609799970873","0.509516899939626","0.473390100058168","1","1","1","1","1","1","1","1","1"
"260039","img/object_images/guitar01.jpg","img/object_images/airfryer01.jpg","img/object_images/chair01.jpg","1","1","0","1","0","0","0.473390100058168","0.458609799970873","0.647962799994275","1","1","1","1","1","1","1","1","1"
"260039","img/object_images/chair01.jpg","img/object_images/guitar01.jpg","img/object_images/couch04.jpg","0","1","1","0","1","1","0.647962799994275","0.473390100058168","0.495216200011782","1","1","1","1","1","1","1","1","1"
"260039","img/object_images/couch04.jpg","img/object_images/chair01.jpg","img/object_images/drone02.jpg","1","0","1","1","0","0","0.495216200011782","0.647962799994275","0.451159599935636","1","1","1","1","1","1","1","1","1"
"260039","img/object_images/drone02.jpg","img/object_images/couch04.jpg","img/object_images/pot01.jpg","1","1","1","0","1","0","0.451159599935636","0.495216200011782","0.568001399980858","1","1","1","1","1","1","1","1","1"
"260039","img/object_images/pot01.jpg","img/object_images/drone02.jpg","img/object_images/tie01.jpg","1","1","1","0","0","0","0.568001399980858","0.451159599935636","1.46773849998135","1","1","1","1","1","1","1","1","1"
"260039","img/object_images/tie01.jpg","img/object_images/pot01.jpg","img/object_images/car02.jpg","1","1","1","0","0","0","1.46773849998135","0.568001399980858","0.769388900022022","1","1","1","1","1","1","1","1","1"
"260039","img/object_images/car02.jpg","img/object_images/tie01.jpg","img/object_images/hat02.jpg","1","1","1","0","0","0","0.769388900022022","1.46773849998135","0.410442200023681","1","1","1","1","1","1","1","1","1"
"260039","img/object_images/hat02.jpg","img/object_images/car02.jpg","img/object_images/gloves05.jpg","1","1","1","0","0","1","0.410442200023681","0.769388900022022","0.493208699976094","1","1","1","1","1","1","1","1","1"
"260039","img/object_images/gloves05.jpg","img/object_images/hat02.jpg","img/object_images/toilet_paper01.jpg","1","1","1","1","0","1","0.493208699976094","0.410442200023681","0.438159999903291","1","1","1","1","1","1","1","1","1"
"260039","img/object_images/toilet_paper01.jpg","img/object_images/gloves05.jpg","img/object_images/helmet05.jpg","1","1","1","1","1","1","0.438159999903291","0.493208699976094","0.660948900040239","1","1","1","1","1","1","1","1","1"
"260039","img/object_images/helmet05.jpg","img/object_images/toilet_paper01.jpg","img/object_images/lamp01.jpg","1","1","1","1","1","1","0.660948900040239","0.438159999903291","0.456572300055996","1","1","1","1","1","1","1","1","1"
"260039","img/object_images/lamp01.jpg","img/object_images/helmet05.jpg","img/object_images/video_game06.jpg","1","1","1","1","1","0","0.456572300055996","0.660948900040239","0.456426599994302","1","1","1","1","1","1","1","1","1"
"260039","img/object_images/video_game06.jpg","img/object_images/lamp01.jpg",NA,"1","1",NA,"0","1",NA,"0.456426599994302","0.456572300055996",NA,"1","1",NA,"1","1",NA,"1","1",NA
"260039","img/object_images/toaster01.jpg",NA,"img/object_images/flask01.jpg","1",NA,"0","1",NA,"0","0.486717499908991",NA,"0.4691570000723","1",NA,"1","1",NA,"1","1",NA,"2"
"260039","img/object_images/flask01.jpg","img/object_images/toaster01.jpg","img/object_images/dog_leash01.jpg","0","1","1","0","1","0","0.4691570000723","0.486717499908991","0.621115199988708","1","1","1","1","1","1","2","1","1"
"260039","img/object_images/dog_leash01.jpg","img/object_images/flask01.jpg","img/object_images/boat_toy10.jpg","1","0","1","0","0","0","0.621115199988708","0.4691570000723","0.410426000016742","1","1","1","1","1","1","1","2","1"
"260039","img/object_images/boat_toy10.jpg","img/object_images/dog_leash01.jpg","img/object_images/tie02.jpg","1","1","1","0","0","0","0.410426000016742","0.621115199988708","0.613009899971075","1","1","1","1","1","1","1","1","1"
"260039","img/object_images/tie02.jpg","img/object_images/boat_toy10.jpg","img/object_images/pen05.jpg","1","1","1","0","0","0","0.613009899971075","0.410426000016742","0.64988749998156","1","1","1","1","1","1","1","1","1"
"260039","img/object_images/pen05.jpg","img/object_images/tie02.jpg","img/object_images/purse04.jpg","1","1","1","0","0","1","0.64988749998156","0.613009899971075","0.61067780002486","1","1","1","1","1","1","1","1","1"
"260039","img/object_images/purse04.jpg","img/object_images/pen05.jpg","img/object_images/perfume02.jpg","1","1","0","1","0","0","0.61067780002486","0.64988749998156","0.50920899992343","1","1","1","1","1","1","1","1","2"
"260039","img/object_images/perfume02.jpg","img/object_images/purse04.jpg","img/object_images/chair03.jpg","0","1","1","0","1","0","0.50920899992343","0.61067780002486","0.565448800101876","1","1","1","1","1","1","2","1","1"
"260039","img/object_images/chair03.jpg","img/object_images/perfume02.jpg","img/object_images/hat06.jpg","1","0","1","0","0","0","0.565448800101876","0.50920899992343","0.603956900071353","1","1","1","1","1","1","1","2","1"
"260039","img/object_images/hat06.jpg","img/object_images/chair03.jpg","img/object_images/boat02.jpg","1","1","1","0","0","1","0.603956900071353","0.565448800101876","0.546881699934602","1","1","1","1","1","1","1","1","1"
"260039","img/object_images/boat02.jpg","img/object_images/hat06.jpg","img/object_images/shoes07.jpg","1","1","1","1","0","0","0.546881699934602","0.603956900071353","0.630612600012682","1","1","1","1","1","1","1","1","1"
"260039","img/object_images/shoes07.jpg","img/object_images/boat02.jpg","img/object_images/tool19.jpg","1","1","1","0","1","1","0.630612600012682","0.546881699934602","0.433516100049019","1","1","1","1","1","1","1","1","1"
"260039","img/object_images/tool19.jpg","img/object_images/shoes07.jpg","img/object_images/knit01.jpg","1","1","1","1","0","0","0.433516100049019","0.630612600012682","0.835531000047922","1","1","1","1","1","1","1","1","1"
"260039","img/object_images/knit01.jpg","img/object_images/tool19.jpg","img/object_images/coloring_pencil02.jpg","1","1","1","0","1","0","0.835531000047922","0.433516100049019","0.68025759991724","1","1","1","1","1","1","1","1","1"
"260039","img/object_images/coloring_pencil02.jpg","img/object_images/knit01.jpg","img/object_images/audio_port01.jpg","1","1","1","0","0","1","0.68025759991724","0.835531000047922","0.483105699997395","1","1","1","1","1","1","1","1","1"
"260039","img/object_images/audio_port01.jpg","img/object_images/coloring_pencil02.jpg","img/object_images/WoodBox01.jpg","1","1","1","1","0","0","0.483105699997395","0.68025759991724","0.594992300029844","1","1","1","1","1","1","1","1","1"
"260039","img/object_images/WoodBox01.jpg","img/object_images/audio_port01.jpg","img/object_images/bean_bag02.jpg","1","1","1","0","1","1","0.594992300029844","0.483105699997395","0.502658400102518","1","1","1","1","1","1","1","1","1"
"260039","img/object_images/bean_bag02.jpg","img/object_images/WoodBox01.jpg","img/object_images/water_scooter01.jpg","1","1","1","1","0","1","0.502658400102518","0.594992300029844","0.47053309995681","1","1","1","1","1","1","1","1","1"
"260039","img/object_images/water_scooter01.jpg","img/object_images/bean_bag02.jpg","img/object_images/helmet04.jpg","1","1","1","1","1","1","0.47053309995681","0.502658400102518","0.422311399946921","1","1","1","1","1","1","1","1","1"
"260039","img/object_images/helmet04.jpg","img/object_images/water_scooter01.jpg","img/object_images/hot_air_balloon02.jpg","1","1","1","1","1","0","0.422311399946921","0.47053309995681","0.649407299933955","1","1","1","1","1","1","1","1","1"
"260039","img/object_images/hot_air_balloon02.jpg","img/object_images/helmet04.jpg","img/object_images/bottle02.jpg","1","1","1","0","1","1","0.649407299933955","0.422311399946921","0.561708599911071","1","1","1","1","1","1","1","1","1"
"260039","img/object_images/bottle02.jpg","img/object_images/hot_air_balloon02.jpg","img/object_images/toilet_paper_dispenser01.jpg","1","1","1","1","0","1","0.561708599911071","0.649407299933955","0.745017300010659","1","1","1","1","1","1","1","1","1"
"260039","img/object_images/toilet_paper_dispenser01.jpg","img/object_images/bottle02.jpg","img/object_images/bottle09.jpg","1","1","0","1","1","0","0.745017300010659","0.561708599911071","1.11305619997438","1","1","1","1","1","1","1","1","1"
"260039","img/object_images/bottle09.jpg","img/object_images/toilet_paper_dispenser01.jpg","img/object_images/piggy_bank01.jpg","0","1","0","0","1","1","1.11305619997438","0.745017300010659","0.881484700017609","1","1","1","1","1","1","1","1","1"
"260039","img/object_images/piggy_bank01.jpg","img/object_images/bottle09.jpg","img/object_images/scoreboard01.jpg","0","0","1","1","0","1","0.881484700017609","1.11305619997438","0.70360560005065","1","1","1","1","1","1","1","1","1"
"260039","img/object_images/scoreboard01.jpg","img/object_images/piggy_bank01.jpg","img/object_images/bottle10.jpg","1","0","1","1","1","1","0.70360560005065","0.881484700017609","0.723467799951322","1","1","1","1","1","1","1","1","1"
"260039","img/object_images/bottle10.jpg","img/object_images/scoreboard01.jpg","img/object_images/bicycle01.jpg","1","1","1","1","1","1","0.723467799951322","0.70360560005065","0.368106800015085","1","1","1","1","1","1","1","1","1"
"260039","img/object_images/bicycle01.jpg","img/object_images/bottle10.jpg","img/object_images/camera_lens01.jpg","1","1","0","1","1","1","0.368106800015085","0.723467799951322","0.476952799945138","1","1","1","1","1","1","1","1","1"
"260039","img/object_images/camera_lens01.jpg","img/object_images/bicycle01.jpg","img/object_images/wagon_cart03.jpg","0","1","1","1","1","1","0.476952799945138","0.368106800015085","0.443538299994543","1","1","1","1","1","1","1","1","1"
"260039","img/object_images/wagon_cart03.jpg","img/object_images/camera_lens01.jpg","img/object_images/fan02.jpg","1","0","0","1","1","0","0.443538299994543","0.476952799945138","0.58177439996507","1","1","1","1","1","1","1","1","1"
"260039","img/object_images/fan02.jpg","img/object_images/wagon_cart03.jpg","img/object_images/cellphone03.jpg","0","1","0","0","1","0","0.58177439996507","0.443538299994543","0.656301400042139","1","1","1","1","1","1","1","1","1"
"260039","img/object_images/cellphone03.jpg","img/object_images/fan02.jpg",NA,"0","0",NA,"0","0",NA,"0.656301400042139","0.58177439996507",NA,"1","1",NA,"1","1",NA,"1","1",NA
"260039","img/object_images/stereo02.jpg",NA,"img/object_images/sponge03.jpg","0",NA,"1","0",NA,"1","0.628547900007106",NA,"0.451436399947852","1",NA,"1","1",NA,"1","1",NA,"1"
"260039","img/object_images/sponge03.jpg","img/object_images/stereo02.jpg","img/object_images/blender02.jpg","1","0","1","1","0","1","0.451436399947852","0.628547900007106","0.449861799948849","1","1","1","1","1","1","1","1","1"
"260039","img/object_images/blender02.jpg","img/object_images/sponge03.jpg","img/object_images/camera03.jpg","1","1","1","1","1","0","0.449861799948849","0.451436399947852","0.452770299976692","1","1","1","1","1","1","1","1","1"
"260039","img/object_images/camera03.jpg","img/object_images/blender02.jpg","img/object_images/tool18.jpg","1","1","1","0","1","0","0.452770299976692","0.449861799948849","0.453548699966632","1","1","1","1","1","1","1","1","1"
"260039","img/object_images/tool18.jpg","img/object_images/camera03.jpg","img/object_images/flashlight03.jpg","1","1","1","0","0","0","0.453548699966632","0.452770299976692","0.49294240004383","1","1","1","1","1","1","1","1","1"
"260039","img/object_images/flashlight03.jpg","img/object_images/tool18.jpg","img/object_images/curtain02.jpg","1","1","1","0","0","0","0.49294240004383","0.453548699966632","0.482825799961574","1","1","1","1","1","1","1","1","1"
"260039","img/object_images/curtain02.jpg","img/object_images/flashlight03.jpg","img/object_images/jacket04.jpg","1","1","1","0","0","0","0.482825799961574","0.49294240004383","0.38139430002775","1","1","1","1","1","1","1","1","1"
"260039","img/object_images/jacket04.jpg","img/object_images/curtain02.jpg","img/object_images/kite01.jpg","1","1","1","0","0","1","0.38139430002775","0.482825799961574","0.483951800037175","1","1","1","1","1","1","1","1","1"
"260039","img/object_images/kite01.jpg","img/object_images/jacket04.jpg","img/object_images/hand_grip_exerciser01.jpg","1","1","1","1","0","0","0.483951800037175","0.38139430002775","0.680670500034466","1","1","1","1","1","1","1","1","1"
"260039","img/object_images/hand_grip_exerciser01.jpg","img/object_images/kite01.jpg","img/object_images/toy08.jpg","1","1","1","0","1","0","0.680670500034466","0.483951800037175","0.558360300026834","1","1","1","1","1","1","1","1","1"
"260039","img/object_images/toy08.jpg","img/object_images/hand_grip_exerciser01.jpg","img/object_images/car01.jpg","1","1","1","0","0","1","0.558360300026834","0.680670500034466","0.484607000020333","1","1","1","1","1","1","1","1","1"
"260039","img/object_images/car01.jpg","img/object_images/toy08.jpg","img/object_images/backpack01.jpg","1","1","1","1","0","0","0.484607000020333","0.558360300026834","0.572157500078902","1","1","1","1","1","1","1","1","1"
"260039","img/object_images/backpack01.jpg","img/object_images/car01.jpg","img/object_images/shower_head01.jpg","1","1","1","0","1","1","0.572157500078902","0.484607000020333","0.46138280001469","1","1","1","1","1","1","1","1","1"
"260039","img/object_images/shower_head01.jpg","img/object_images/backpack01.jpg","img/object_images/knit04.jpg","1","1","1","1","0","1","0.46138280001469","0.572157500078902","0.537489600013942","1","1","1","1","1","1","1","1","1"
"260039","img/object_images/knit04.jpg","img/object_images/shower_head01.jpg","img/object_images/knit03.jpg","1","1","1","1","1","1","0.537489600013942","0.46138280001469","0.472866200027056","1","1","1","1","1","1","1","1","1"
"260039","img/object_images/knit03.jpg","img/object_images/knit04.jpg","img/object_images/paper_cup02.jpg","1","1","1","1","1","1","0.472866200027056","0.537489600013942","0.488532999996096","1","1","1","1","1","1","1","1","1"
"260039","img/object_images/paper_cup02.jpg","img/object_images/knit03.jpg","img/object_images/Statue01.jpg","1","1","1","1","1","1","0.488532999996096","0.472866200027056","0.464712199987844","1","1","1","1","1","1","1","1","1"
"260039","img/object_images/Statue01.jpg","img/object_images/paper_cup02.jpg","img/object_images/bottle07.jpg","1","1","1","1","1","1","0.464712199987844","0.488532999996096","0.759495300007984","1","1","1","1","1","1","1","1","1"
"260039","img/object_images/bottle07.jpg","img/object_images/Statue01.jpg","img/object_images/phone02.jpg","1","1","1","1","1","1","0.759495300007984","0.464712199987844","0.257075000088662","1","1","1","1","1","1","1","1","1"
"260039","img/object_images/phone02.jpg","img/object_images/bottle07.jpg","img/object_images/knife02.jpg","1","1","1","1","1","0","0.257075000088662","0.759495300007984","1.36757930007298","1","1","1","1","1","1","1","1","1"
"260039","img/object_images/knife02.jpg","img/object_images/phone02.jpg","img/object_images/dresser03.jpg","1","1","1","0","1","0","1.36757930007298","0.257075000088662","1.00160359998699","1","1","1","1","1","1","1","1","1"
"260039","img/object_images/dresser03.jpg","img/object_images/knife02.jpg","img/object_images/boat04.jpg","1","1","1","0","0","0","1.00160359998699","1.36757930007298","0.460259199957363","1","1","1","1","1","1","1","1","1"
"260039","img/object_images/boat04.jpg","img/object_images/dresser03.jpg","img/object_images/basket04.jpg","1","1","1","0","0","1","0.460259199957363","1.00160359998699","0.482518600067124","1","1","1","1","1","1","1","1","1"
"260039","img/object_images/basket04.jpg","img/object_images/boat04.jpg","img/object_images/mail_box01.jpg","1","1","1","1","0","0","0.482518600067124","0.460259199957363","0.421638500061818","1","1","1","1","1","1","1","1","1"
"260039","img/object_images/mail_box01.jpg","img/object_images/basket04.jpg","img/object_images/keyboard02.jpg","1","1","0","0","1","1","0.421638500061818","0.482518600067124","0.42874539992772","1","1","1","1","1","1","1","1","2"
"260039","img/object_images/keyboard02.jpg","img/object_images/mail_box01.jpg","img/object_images/remover01.jpg","0","1","1","1","0","1","0.42874539992772","0.421638500061818","0.547363799996674","1","1","1","1","1","1","2","1","1"
"260039","img/object_images/remover01.jpg","img/object_images/keyboard02.jpg","img/object_images/gloves02.jpg","1","0","1","1","1","0","0.547363799996674","0.42874539992772","0.51298240001779","1","1","1","1","1","1","1","2","1"
"260039","img/object_images/gloves02.jpg","img/object_images/remover01.jpg","img/object_images/remote_controller01.jpg","1","1","1","0","1","1","0.51298240001779","0.547363799996674","0.492810700088739","1","1","1","1","1","1","1","1","1"
"260039","img/object_images/remote_controller01.jpg","img/object_images/gloves02.jpg","img/object_images/video_game01.jpg","1","1","1","1","0","1","0.492810700088739","0.51298240001779","0.422751099918969","1","1","1","1","1","1","1","1","1"
"260039","img/object_images/video_game01.jpg","img/object_images/remote_controller01.jpg","img/object_images/matches02.jpg","1","1","1","1","1","0","0.422751099918969","0.492810700088739","0.406328699900769","1","1","1","1","1","1","1","1","1"
"260039","img/object_images/matches02.jpg","img/object_images/video_game01.jpg","img/object_images/hoverboard01.jpg","1","1","1","0","1","0","0.406328699900769","0.422751099918969","0.435882300022058","1","1","1","1","1","1","1","1","1"
"260039","img/object_images/hoverboard01.jpg","img/object_images/matches02.jpg",NA,"1","1",NA,"0","0",NA,"0.435882300022058","0.406328699900769",NA,"1","1",NA,"1","1",NA,"1","1",NA
"260039","img/object_images/pen01.jpg",NA,"img/object_images/tool06.jpg","0",NA,"1","0",NA,"0","0.357539399992675",NA,"0.577342199976556","1",NA,"1","1",NA,"1","2",NA,"1"
"260039","img/object_images/tool06.jpg","img/object_images/pen01.jpg","img/object_images/toothbrush01.jpg","1","0","1","0","0","0","0.577342199976556","0.357539399992675","0.419928299961612","1","1","1","1","1","1","1","2","1"
"260039","img/object_images/toothbrush01.jpg","img/object_images/tool06.jpg","img/object_images/hair_brush01.jpg","1","1","1","0","0","1","0.419928299961612","0.577342199976556","0.444963300018571","1","1","1","1","1","1","1","1","1"
"260039","img/object_images/hair_brush01.jpg","img/object_images/toothbrush01.jpg","img/object_images/rock02.jpg","1","1","1","1","0","0","0.444963300018571","0.419928299961612","0.523725899984129","1","1","1","1","1","1","1","1","1"
"260039","img/object_images/rock02.jpg","img/object_images/hair_brush01.jpg","img/object_images/airfryer02.jpg","1","1","1","0","1","1","0.523725899984129","0.444963300018571","0.430983499973081","1","1","1","1","1","1","1","1","1"
"260039","img/object_images/airfryer02.jpg","img/object_images/rock02.jpg","img/object_images/fork02.jpg","1","1","1","1","0","0","0.430983499973081","0.523725899984129","0.461115599959157","1","1","1","1","1","1","1","1","1"
"260039","img/object_images/fork02.jpg","img/object_images/airfryer02.jpg","img/object_images/Violin01.jpg","1","1","1","0","1","0","0.461115599959157","0.430983499973081","0.483299699961208","1","1","1","1","1","1","1","1","1"
"260039","img/object_images/Violin01.jpg","img/object_images/fork02.jpg","img/object_images/soap03.jpg","1","1","1","0","0","0","0.483299699961208","0.461115599959157","0.388994700042531","1","1","1","1","1","1","1","1","1"
"260039","img/object_images/soap03.jpg","img/object_images/Violin01.jpg","img/object_images/shoes12.jpg","1","1","1","0","0","1","0.388994700042531","0.483299699961208","0.348963500000536","1","1","1","1","1","1","1","1","1"
"260039","img/object_images/shoes12.jpg","img/object_images/soap03.jpg","img/object_images/blender01.jpg","1","1","1","1","0","0","0.348963500000536","0.388994700042531","0.486180600011721","1","1","1","1","1","1","1","1","1"
"260039","img/object_images/blender01.jpg","img/object_images/shoes12.jpg","img/object_images/Trowel01.jpg","1","1","1","0","1","0","0.486180600011721","0.348963500000536","0.428452700027265","1","1","1","1","1","1","1","1","1"
"260039","img/object_images/Trowel01.jpg","img/object_images/blender01.jpg","img/object_images/bag_pipes01.jpg","1","1","1","0","0","1","0.428452700027265","0.486180600011721","0.46244899998419","1","1","1","1","1","1","1","1","1"
"260039","img/object_images/bag_pipes01.jpg","img/object_images/Trowel01.jpg","img/object_images/chain01.jpg","1","1","0","1","0","0","0.46244899998419","0.428452700027265","0.334433199954219","1","1","1","1","1","1","1","1","2"
"260039","img/object_images/chain01.jpg","img/object_images/bag_pipes01.jpg","img/object_images/bell03.jpg","0","1","1","0","1","0","0.334433199954219","0.46244899998419","0.39330770005472","1","1","1","1","1","1","2","1","1"
"260039","img/object_images/bell03.jpg","img/object_images/chain01.jpg","img/object_images/drone01.jpg","1","0","1","0","0","1","0.39330770005472","0.334433199954219","0.79242479999084","1","1","1","1","1","1","1","2","1"
"260039","img/object_images/drone01.jpg","img/object_images/bell03.jpg","img/object_images/box03.jpg","1","1","1","1","0","0","0.79242479999084","0.39330770005472","0.663600499974564","1","1","1","1","1","1","1","1","1"
"260039","img/object_images/box03.jpg","img/object_images/drone01.jpg","img/object_images/chair06.jpg","1","1","1","0","1","0","0.663600499974564","0.79242479999084","0.544159100041725","1","1","1","1","1","1","1","1","1"
"260039","img/object_images/chair06.jpg","img/object_images/box03.jpg","img/object_images/floss02.jpg","1","1","1","0","0","1","0.544159100041725","0.663600499974564","0.444564799894579","1","1","1","1","1","1","1","1","1"
"260039","img/object_images/floss02.jpg","img/object_images/chair06.jpg","img/object_images/mail_box02.jpg","1","1","1","1","0","1","0.444564799894579","0.544159100041725","0.498972599976696","1","1","1","1","1","1","1","1","1"
"260039","img/object_images/mail_box02.jpg","img/object_images/floss02.jpg","img/object_images/book02.jpg","1","1","1","1","1","1","0.498972599976696","0.444564799894579","0.471621199976653","1","1","1","1","1","1","1","1","1"
"260039","img/object_images/book02.jpg","img/object_images/mail_box02.jpg","img/object_images/scarf01.jpg","1","1","1","1","1","1","0.471621199976653","0.498972599976696","0.526175100007094","1","1","1","1","1","1","1","1","1"
"260039","img/object_images/scarf01.jpg","img/object_images/book02.jpg","img/object_images/tripod01.jpg","1","1","1","1","1","1","0.526175100007094","0.471621199976653","0.444897499983199","1","1","1","1","1","1","1","1","1"
"260039","img/object_images/tripod01.jpg","img/object_images/scarf01.jpg","img/object_images/toy01.jpg","1","1","1","1","1","1","0.444897499983199","0.526175100007094","0.466499099973589","1","1","1","1","1","1","1","1","1"
"260039","img/object_images/toy01.jpg","img/object_images/tripod01.jpg","img/object_images/pitcher09.jpg","1","1","1","1","1","1","0.466499099973589","0.444897499983199","0.453457800089382","1","1","1","1","1","1","1","1","1"
"260039","img/object_images/pitcher09.jpg","img/object_images/toy01.jpg","img/object_images/computer_mouse02.jpg","1","1","0","1","1","0","0.453457800089382","0.466499099973589","0.528232800075784","1","1","1","1","1","1","1","1","2"
"260039","img/object_images/computer_mouse02.jpg","img/object_images/pitcher09.jpg","img/object_images/computer_mouse01.jpg","0","1","1","0","1","1","0.528232800075784","0.453457800089382","0.459841099916957","1","1","1","1","1","1","2","1","1"
"260039","img/object_images/computer_mouse01.jpg","img/object_images/computer_mouse02.jpg","img/object_images/video_game03.jpg","1","0","1","1","0","1","0.459841099916957","0.528232800075784","0.463110300013795","1","1","1","1","1","1","1","2","1"
"260039","img/object_images/video_game03.jpg","img/object_images/computer_mouse01.jpg","img/object_images/skate_board01.jpg","1","1","1","1","1","0","0.463110300013795","0.459841099916957","0.413633899996057","1","1","1","1","1","1","1","1","1"
"260039","img/object_images/skate_board01.jpg","img/object_images/video_game03.jpg","img/object_images/egg_slicer01.jpg","1","1","1","0","1","1","0.413633899996057","0.463110300013795","0.470268199918792","1","1","1","1","1","1","1","1","1"
"260039","img/object_images/egg_slicer01.jpg","img/object_images/skate_board01.jpg","img/object_images/clip04.jpg","1","1","1","1","0","1","0.470268199918792","0.413633899996057","0.496979499934241","1","1","1","1","1","1","1","1","1"
"260039","img/object_images/clip04.jpg","img/object_images/egg_slicer01.jpg","img/object_images/couch01.jpg","1","1","1","1","1","0","0.496979499934241","0.470268199918792","0.468589500058442","1","1","1","1","1","1","1","1","1"
"260039","img/object_images/couch01.jpg","img/object_images/clip04.jpg",NA,"1","1",NA,"0","1",NA,"0.468589500058442","0.496979499934241",NA,"1","1",NA,"1","1",NA,"1","1",NA
