"participant_id","current_trial_object","pre_trial_object","post_trial_object","current_trial_accuracy","pre_trial_accuracy","post_trial_accuracy","current_trial_congruency","pre_trial_congruency","post_trial_congruency","current_trial_rt","pre_trial_rt","post_trial_rt","current_trial_responded","pre_trial_responded","post_trial_responded","current_trial_legitResponse","pre_trial_legitResponse","post_trial_legitResponse","current_trial_resp_nums","pre_trial_resp_nums","post_trial_resp_nums"
"260061","img/object_images/ball02.jpg",NA,"img/object_images/helmet02.jpg","1",NA,"1","1",NA,"0","0.857189000000062",NA,"0.999746999999843","1",NA,"1","1",NA,"1","1",NA,"1"
"260061","img/object_images/helmet02.jpg","img/object_images/ball02.jpg","img/object_images/trash_can03.jpg","1","1","1","0","1","1","0.999746999999843","0.857189000000062","1.29709409999987","1","1","1","1","1","1","1","1","1"
"260061","img/object_images/trash_can03.jpg","img/object_images/helmet02.jpg","img/object_images/laptop01.jpg","1","1","1","1","0","0","1.29709409999987","0.999746999999843","0.714136699999926","1","1","1","1","1","1","1","1","1"
"260061","img/object_images/laptop01.jpg","img/object_images/trash_can03.jpg","img/object_images/calculator01.jpg","1","1","1","0","1","1","0.714136699999926","1.29709409999987","0.557237899999791","1","1","1","1","1","1","1","1","1"
"260061","img/object_images/calculator01.jpg","img/object_images/laptop01.jpg","img/object_images/shoes08.jpg","1","1","1","1","0","1","0.557237899999791","0.714136699999926","0.753090499999871","1","1","1","1","1","1","1","1","1"
"260061","img/object_images/shoes08.jpg","img/object_images/calculator01.jpg","img/object_images/robe01.jpg","1","1","1","1","1","1","0.753090499999871","0.557237899999791","0.546401699999933","1","1","1","1","1","1","1","1","1"
"260061","img/object_images/robe01.jpg","img/object_images/shoes08.jpg","img/object_images/Vest02.jpg","1","1","1","1","1","0","0.546401699999933","0.753090499999871","1.50774469999988","1","1","1","1","1","1","1","1","1"
"260061","img/object_images/Vest02.jpg","img/object_images/robe01.jpg","img/object_images/fan04.jpg","1","1","1","0","1","0","1.50774469999988","0.546401699999933","0.796848499999896","1","1","1","1","1","1","1","1","1"
"260061","img/object_images/fan04.jpg","img/object_images/Vest02.jpg","img/object_images/chair02.jpg","1","1","1","0","0","1","0.796848499999896","1.50774469999988","1.28888499999994","1","1","1","1","1","1","1","1","1"
"260061","img/object_images/chair02.jpg","img/object_images/fan04.jpg","img/object_images/jewel03.jpg","1","1","1","1","0","1","1.28888499999994","0.796848499999896","0.879559499999914","1","1","1","1","1","1","1","1","1"
"260061","img/object_images/jewel03.jpg","img/object_images/chair02.jpg","img/object_images/toy05.jpg","1","1","1","1","1","0","0.879559499999914","1.28888499999994","0.811078799999905","1","1","1","1","1","1","1","1","1"
"260061","img/object_images/toy05.jpg","img/object_images/jewel03.jpg","img/object_images/combs01.jpg","1","1","1","0","1","1","0.811078799999905","0.879559499999914","0.707643899999994","1","1","1","1","1","1","1","1","1"
"260061","img/object_images/combs01.jpg","img/object_images/toy05.jpg","img/object_images/towels01.jpg","1","1","1","1","0","0","0.707643899999994","0.811078799999905","0.578430900000058","1","1","1","1","1","1","1","1","1"
"260061","img/object_images/towels01.jpg","img/object_images/combs01.jpg","img/object_images/pitcher05.jpg","1","1","1","0","1","0","0.578430900000058","0.707643899999994","0.555490100000043","1","1","1","1","1","1","1","1","1"
"260061","img/object_images/pitcher05.jpg","img/object_images/towels01.jpg","img/object_images/Lint_Roller02.jpg","1","1","1","0","0","0","0.555490100000043","0.578430900000058","0.606521799999882","1","1","1","1","1","1","1","1","1"
"260061","img/object_images/Lint_Roller02.jpg","img/object_images/pitcher05.jpg","img/object_images/hair_brush02.jpg","1","1","1","0","0","0","0.606521799999882","0.555490100000043","0.546031299999868","1","1","1","1","1","1","1","1","1"
"260061","img/object_images/hair_brush02.jpg","img/object_images/Lint_Roller02.jpg","img/object_images/hair_dryer01.jpg","1","1","1","0","0","0","0.546031299999868","0.606521799999882","0.507715399999825","1","1","1","1","1","1","1","1","1"
"260061","img/object_images/hair_dryer01.jpg","img/object_images/hair_brush02.jpg","img/object_images/bucket02.jpg","1","1","1","0","0","1","0.507715399999825","0.546031299999868","0.637780000000021","1","1","1","1","1","1","1","1","1"
"260061","img/object_images/bucket02.jpg","img/object_images/hair_dryer01.jpg","img/object_images/stove01.jpg","1","1","1","1","0","0","0.637780000000021","0.507715399999825","0.53836339999998","1","1","1","1","1","1","1","1","1"
"260061","img/object_images/stove01.jpg","img/object_images/bucket02.jpg","img/object_images/spatula02.jpg","1","1","1","0","1","1","0.53836339999998","0.637780000000021","0.521874399999888","1","1","1","1","1","1","1","1","1"
"260061","img/object_images/spatula02.jpg","img/object_images/stove01.jpg","img/object_images/backpack03.jpg","1","1","1","1","0","1","0.521874399999888","0.53836339999998","0.641095599999971","1","1","1","1","1","1","1","1","1"
"260061","img/object_images/backpack03.jpg","img/object_images/spatula02.jpg","img/object_images/microphone03.jpg","1","1","1","1","1","1","0.641095599999971","0.521874399999888","0.632666699999845","1","1","1","1","1","1","1","1","1"
"260061","img/object_images/microphone03.jpg","img/object_images/backpack03.jpg","img/object_images/surf_board01.jpg","1","1","1","1","1","1","0.632666699999845","0.641095599999971","0.720536799999991","1","1","1","1","1","1","1","1","1"
"260061","img/object_images/surf_board01.jpg","img/object_images/microphone03.jpg","img/object_images/lock01.jpg","1","1","1","1","1","0","0.720536799999991","0.632666699999845","1.01965919999975","1","1","1","1","1","1","1","1","1"
"260061","img/object_images/lock01.jpg","img/object_images/surf_board01.jpg","img/object_images/vase01.jpg","1","1","1","0","1","0","1.01965919999975","0.720536799999991","0.630825899999991","1","1","1","1","1","1","1","1","1"
"260061","img/object_images/vase01.jpg","img/object_images/lock01.jpg","img/object_images/umbrella01.jpg","1","1","1","0","0","0","0.630825899999991","1.01965919999975","0.649413999999751","1","1","1","1","1","1","1","1","1"
"260061","img/object_images/umbrella01.jpg","img/object_images/vase01.jpg","img/object_images/laptop03.jpg","1","1","1","0","0","1","0.649413999999751","0.630825899999991","0.793920999999955","1","1","1","1","1","1","1","1","1"
"260061","img/object_images/laptop03.jpg","img/object_images/umbrella01.jpg","img/object_images/chess_piece01.jpg","1","1","1","1","0","0","0.793920999999955","0.649413999999751","1.8430414999998","1","1","1","1","1","1","1","1","1"
"260061","img/object_images/chess_piece01.jpg","img/object_images/laptop03.jpg","img/object_images/gift_box05.jpg","1","1","1","0","1","0","1.8430414999998","0.793920999999955","1.83461029999989","1","1","1","1","1","1","1","1","1"
"260061","img/object_images/gift_box05.jpg","img/object_images/chess_piece01.jpg","img/object_images/trash_can05.jpg","1","1","1","0","0","1","1.83461029999989","1.8430414999998","1.86198289999993","1","1","1","1","1","1","1","1","1"
"260061","img/object_images/trash_can05.jpg","img/object_images/gift_box05.jpg","img/object_images/accardion01.jpg","1","1","1","1","0","1","1.86198289999993","1.83461029999989","0.962867799999913","1","1","1","1","1","1","1","1","1"
"260061","img/object_images/accardion01.jpg","img/object_images/trash_can05.jpg",NA,"1","1",NA,"1","1",NA,"0.962867799999913","1.86198289999993",NA,"1","1",NA,"1","1",NA,"1","1",NA
"260061","img/object_images/Tin01.jpg",NA,"img/object_images/Stool01.jpg","1",NA,"1","1",NA,"0","1.12767129999975",NA,"0.719679700000142","1",NA,"1","1",NA,"1","1",NA,"1"
"260061","img/object_images/Stool01.jpg","img/object_images/Tin01.jpg","img/object_images/tool02.jpg","1","1","1","0","1","1","0.719679700000142","1.12767129999975","0.931954899999937","1","1","1","1","1","1","1","1","1"
"260061","img/object_images/tool02.jpg","img/object_images/Stool01.jpg","img/object_images/crown02.jpg","1","1","1","1","0","1","0.931954899999937","0.719679700000142","1.46005700000001","1","1","1","1","1","1","1","1","1"
"260061","img/object_images/crown02.jpg","img/object_images/tool02.jpg","img/object_images/bottle05.jpg","1","1","1","1","1","0","1.46005700000001","0.931954899999937","0.779645599999867","1","1","1","1","1","1","1","1","1"
"260061","img/object_images/bottle05.jpg","img/object_images/crown02.jpg","img/object_images/pot01 (1).jpg","1","1","0","0","1","0","0.779645599999867","1.46005700000001","1.16946069999995","1","1","1","1","1","1","1","1","1"
"260061","img/object_images/pot01 (1).jpg","img/object_images/bottle05.jpg","img/object_images/Vacuum01.jpg","0","1","0","0","0","0","1.16946069999995","0.779645599999867","0.621396499999946","1","1","1","1","1","1","1","1","1"
"260061","img/object_images/Vacuum01.jpg","img/object_images/pot01 (1).jpg","img/object_images/outlet01.jpg","0","0","0","0","0","0","0.621396499999946","1.16946069999995","0.778045799999745","1","1","1","1","1","1","1","1","1"
"260061","img/object_images/outlet01.jpg","img/object_images/Vacuum01.jpg","img/object_images/watch01.jpg","0","0","0","0","0","0","0.778045799999745","0.621396499999946","0.662284600000021","1","1","1","1","1","1","1","1","1"
"260061","img/object_images/watch01.jpg","img/object_images/outlet01.jpg","img/object_images/bow01.jpg","0","0","0","0","0","1","0.662284600000021","0.778045799999745","0.591586799999959","1","1","1","1","1","1","1","1","1"
"260061","img/object_images/bow01.jpg","img/object_images/watch01.jpg","img/object_images/judge_gavel01.jpg","0","0","1","1","0","1","0.591586799999959","0.662284600000021","0.90099239999995","1","1","1","1","1","1","1","1","1"
"260061","img/object_images/judge_gavel01.jpg","img/object_images/bow01.jpg","img/object_images/mirror01.jpg","1","0","0","1","1","1","0.90099239999995","0.591586799999959","1.24738129999992","1","1","1","1","1","1","1","1","1"
"260061","img/object_images/mirror01.jpg","img/object_images/judge_gavel01.jpg","img/object_images/bird_house02.jpg","0","1","1","1","1","1","1.24738129999992","0.90099239999995","1.1895305999999","1","1","1","1","1","1","1","1","1"
"260061","img/object_images/bird_house02.jpg","img/object_images/mirror01.jpg","img/object_images/jewel04.jpg","1","0","1","1","1","0","1.1895305999999","1.24738129999992","0.687075900000082","1","1","1","1","1","1","1","1","1"
"260061","img/object_images/jewel04.jpg","img/object_images/bird_house02.jpg","img/object_images/dart01.jpg","1","1","1","0","1","0","0.687075900000082","1.1895305999999","0.737970500000074","1","1","1","1","1","1","1","1","1"
"260061","img/object_images/dart01.jpg","img/object_images/jewel04.jpg","img/object_images/guitar02.jpg","1","1","1","0","0","0","0.737970500000074","0.687075900000082","0.492307299999993","1","1","1","1","1","1","1","1","1"
"260061","img/object_images/guitar02.jpg","img/object_images/dart01.jpg","img/object_images/frisbee01.jpg","1","1","1","0","0","1","0.492307299999993","0.737970500000074","0.642800399999942","1","1","1","1","1","1","1","1","1"
"260061","img/object_images/frisbee01.jpg","img/object_images/guitar02.jpg","img/object_images/ornament01.jpg","1","1","1","1","0","1","0.642800399999942","0.492307299999993","0.560994100000016","1","1","1","1","1","1","1","1","1"
"260061","img/object_images/ornament01.jpg","img/object_images/frisbee01.jpg","img/object_images/towel02.jpg","1","1","1","1","1","1","0.560994100000016","0.642800399999942","0.530328599999848","1","1","1","1","1","1","1","1","1"
"260061","img/object_images/towel02.jpg","img/object_images/ornament01.jpg","img/object_images/Ring02.jpg","1","1","1","1","1","0","0.530328599999848","0.560994100000016","0.555785700000115","1","1","1","1","1","1","1","1","1"
"260061","img/object_images/Ring02.jpg","img/object_images/towel02.jpg","img/object_images/helmet01.jpg","1","1","1","0","1","0","0.555785700000115","0.530328599999848","0.497740499999736","1","1","1","1","1","1","1","1","1"
"260061","img/object_images/helmet01.jpg","img/object_images/Ring02.jpg","img/object_images/gauze01.jpg","1","1","1","0","0","0","0.497740499999736","0.555785700000115","0.618437399999948","1","1","1","1","1","1","1","1","1"
"260061","img/object_images/gauze01.jpg","img/object_images/helmet01.jpg","img/object_images/fridge03.jpg","1","1","1","0","0","0","0.618437399999948","0.497740499999736","0.663301899999851","1","1","1","1","1","1","1","1","1"
"260061","img/object_images/fridge03.jpg","img/object_images/gauze01.jpg","img/object_images/MetalWire01.jpg","1","1","1","0","0","0","0.663301899999851","0.618437399999948","0.48881799999981","1","1","1","1","1","1","1","1","1"
"260061","img/object_images/MetalWire01.jpg","img/object_images/fridge03.jpg","img/object_images/video_game07.jpg","1","1","1","0","0","1","0.48881799999981","0.663301899999851","0.860068700000056","1","1","1","1","1","1","1","1","1"
"260061","img/object_images/video_game07.jpg","img/object_images/MetalWire01.jpg","img/object_images/shovel03.jpg","1","1","0","1","0","1","0.860068700000056","0.48881799999981","1.16207339999983","1","1","1","1","1","1","1","1","1"
"260061","img/object_images/shovel03.jpg","img/object_images/video_game07.jpg","img/object_images/stapler.jpg","0","1","0","1","1","1","1.16207339999983","0.860068700000056","0.653058699999974","1","1","1","1","1","1","1","1","1"
"260061","img/object_images/stapler.jpg","img/object_images/shovel03.jpg","img/object_images/acoustic_capo01.jpg","0","0","0","1","1","1","0.653058699999974","1.16207339999983","0.501728599999979","1","1","1","1","1","1","1","1","1"
"260061","img/object_images/acoustic_capo01.jpg","img/object_images/stapler.jpg","img/object_images/toy03.jpg","0","0","0","1","1","1","0.501728599999979","0.653058699999974","0.65603370000008","1","1","1","1","1","1","1","1","1"
"260061","img/object_images/toy03.jpg","img/object_images/acoustic_capo01.jpg","img/object_images/tool09.jpg","0","0","0","1","1","1","0.65603370000008","0.501728599999979","0.47088430000008","1","1","1","1","1","1","1","1","1"
"260061","img/object_images/tool09.jpg","img/object_images/toy03.jpg","img/object_images/sink01.jpg","0","0","0","1","1","0","0.47088430000008","0.65603370000008","0.704024299999901","1","1","1","1","1","1","1","1","1"
"260061","img/object_images/sink01.jpg","img/object_images/tool09.jpg","img/object_images/toy04.jpg","0","0","0","0","1","0","0.704024299999901","0.47088430000008","0.469882599999892","1","1","1","1","1","1","1","1","1"
"260061","img/object_images/toy04.jpg","img/object_images/sink01.jpg",NA,"0","0",NA,"0","0",NA,"0.469882599999892","0.704024299999901",NA,"1","1",NA,"1","1",NA,"1","1",NA
"260061","img/object_images/video_game02.jpg",NA,"img/object_images/Confetti 01.jpg","1",NA,"0","1",NA,"0","0.72411279999983",NA,"0.81093739999983","1",NA,"1","1",NA,"1","1",NA,"1"
"260061","img/object_images/Confetti 01.jpg","img/object_images/video_game02.jpg","img/object_images/floss01.jpg","0","1","0","0","1","1","0.81093739999983","0.72411279999983","0.47157419999985","1","1","1","1","1","1","1","1","1"
"260061","img/object_images/floss01.jpg","img/object_images/Confetti 01.jpg","img/object_images/candle02.jpg","0","0","0","1","0","0","0.47157419999985","0.81093739999983","0.70635500000003","1","1","1","1","1","1","1","1","1"
"260061","img/object_images/candle02.jpg","img/object_images/floss01.jpg","img/object_images/sink_filter01 (1).jpg","0","0","0","0","1","0","0.70635500000003","0.47157419999985","0.743602499999952","1","1","1","1","1","1","1","1","1"
"260061","img/object_images/sink_filter01 (1).jpg","img/object_images/candle02.jpg","img/object_images/spray_can01.jpg","0","0","0","0","0","0","0.743602499999952","0.70635500000003","0.523967300000095","1","1","1","1","1","1","1","1","1"
"260061","img/object_images/spray_can01.jpg","img/object_images/sink_filter01 (1).jpg","img/object_images/bow_tie03.jpg","0","0","0","0","0","1","0.523967300000095","0.743602499999952","0.475836999999956","1","1","1","1","1","1","1","1","1"
"260061","img/object_images/bow_tie03.jpg","img/object_images/spray_can01.jpg","img/object_images/Candle_Holder01.jpg","0","0","0","1","0","0","0.475836999999956","0.523967300000095","0.858869799999866","1","1","1","1","1","1","1","1","1"
"260061","img/object_images/Candle_Holder01.jpg","img/object_images/bow_tie03.jpg","img/object_images/vase02.jpg","0","0","0","0","1","1","0.858869799999866","0.475836999999956","0.807158000000072","1","1","1","1","1","1","1","1","1"
"260061","img/object_images/vase02.jpg","img/object_images/Candle_Holder01.jpg","img/object_images/tool20.jpg","0","0","0","1","0","0","0.807158000000072","0.858869799999866","0.497612099999969","1","1","1","1","1","1","1","1","1"
"260061","img/object_images/tool20.jpg","img/object_images/vase02.jpg","img/object_images/cup01.jpg","0","0","0","0","1","0","0.497612099999969","0.807158000000072","0.520901800000047","1","1","1","1","1","1","1","1","1"
"260061","img/object_images/cup01.jpg","img/object_images/tool20.jpg","img/object_images/bag04.jpg","0","0","0","0","0","0","0.520901800000047","0.497612099999969","0.758869999999888","1","1","1","1","1","1","1","1","1"
"260061","img/object_images/bag04.jpg","img/object_images/cup01.jpg","img/object_images/lemon_squeezer01.jpg","0","0","0","0","0","1","0.758869999999888","0.520901800000047","0.754968199999894","1","1","1","1","1","1","1","1","1"
"260061","img/object_images/lemon_squeezer01.jpg","img/object_images/bag04.jpg","img/object_images/hat13.jpg","0","0","0","1","0","1","0.754968199999894","0.758869999999888","0.688066899999967","1","1","1","1","1","1","1","1","1"
"260061","img/object_images/hat13.jpg","img/object_images/lemon_squeezer01.jpg","img/object_images/camera05.jpg","0","0","0","1","1","0","0.688066899999967","0.754968199999894","0.624621999999817","1","1","1","1","1","1","1","1","1"
"260061","img/object_images/camera05.jpg","img/object_images/hat13.jpg","img/object_images/duster01.jpg","0","0","1","0","1","0","0.624621999999817","0.688066899999967","0.621899600000006","1","1","1","1","1","1","1","1","1"
"260061","img/object_images/duster01.jpg","img/object_images/camera05.jpg","img/object_images/office_supplies01.jpg","1","0","0","0","0","1","0.621899600000006","0.624621999999817","0.953571499999953","1","1","1","1","1","1","1","1","1"
"260061","img/object_images/office_supplies01.jpg","img/object_images/duster01.jpg","img/object_images/socks01.jpg","0","1","0","1","0","1","0.953571499999953","0.621899600000006","0.654224199999817","1","1","1","1","1","1","1","1","1"
"260061","img/object_images/socks01.jpg","img/object_images/office_supplies01.jpg","img/object_images/board01.jpg","0","0","0","1","1","1","0.654224199999817","0.953571499999953","0.466988099999753","1","1","1","1","1","1","1","1","1"
"260061","img/object_images/board01.jpg","img/object_images/socks01.jpg","img/object_images/glasses03.jpg","0","0","0","1","1","0","0.466988099999753","0.654224199999817","0.538551299999881","1","1","1","1","1","1","1","1","1"
"260061","img/object_images/glasses03.jpg","img/object_images/board01.jpg","img/object_images/razor02.jpg","0","0","1","0","1","1","0.538551299999881","0.466988099999753","0.509168300000056","1","1","1","1","1","1","1","1","1"
"260061","img/object_images/razor02.jpg","img/object_images/glasses03.jpg","img/object_images/hammer02.jpg","1","0","0","1","0","0","0.509168300000056","0.538551299999881","0.708204600000045","1","1","1","1","1","1","1","1","1"
"260061","img/object_images/hammer02.jpg","img/object_images/razor02.jpg","img/object_images/clipboard01.jpg","0","1","0","0","1","1","0.708204600000045","0.509168300000056","0.831360999999788","1","1","1","1","1","1","1","1","1"
"260061","img/object_images/clipboard01.jpg","img/object_images/hammer02.jpg","img/object_images/knife01.jpg","0","0","0","1","0","1","0.831360999999788","0.708204600000045","1.06481910000002","1","1","1","1","1","1","1","1","1"
"260061","img/object_images/knife01.jpg","img/object_images/clipboard01.jpg","img/object_images/tool13.jpg","0","0","0","1","1","1","1.06481910000002","0.831360999999788","0.653596199999811","1","1","1","1","1","1","1","1","1"
"260061","img/object_images/tool13.jpg","img/object_images/knife01.jpg","img/object_images/dust_pan01.jpg","0","0","0","1","1","1","0.653596199999811","1.06481910000002","0.615770799999837","1","1","1","1","1","1","1","1","1"
"260061","img/object_images/dust_pan01.jpg","img/object_images/tool13.jpg","img/object_images/pen06.jpg","0","0","0","1","1","0","0.615770799999837","0.653596199999811","1.73152570000002","1","1","1","1","1","1","1","1","1"
"260061","img/object_images/pen06.jpg","img/object_images/dust_pan01.jpg","img/object_images/sign02.jpg","0","0","0","0","1","0","1.73152570000002","0.615770799999837","0.664219000000003","1","1","1","1","1","1","1","1","1"
"260061","img/object_images/sign02.jpg","img/object_images/pen06.jpg","img/object_images/perfume01.jpg","0","0","0","0","0","0","0.664219000000003","1.73152570000002","1.43405209999992","1","1","1","1","1","1","1","1","1"
"260061","img/object_images/perfume01.jpg","img/object_images/sign02.jpg","img/object_images/hat09.jpg","0","0","0","0","0","0","1.43405209999992","0.664219000000003","0.600771899999927","1","1","1","1","1","1","1","1","1"
"260061","img/object_images/hat09.jpg","img/object_images/perfume01.jpg","img/object_images/ruler02.jpg","0","0","0","0","0","1","0.600771899999927","1.43405209999992","0.797319099999868","1","1","1","1","1","1","1","1","1"
"260061","img/object_images/ruler02.jpg","img/object_images/hat09.jpg","img/object_images/pan03.jpg","0","0","0","1","0","1","0.797319099999868","0.600771899999927","0.566565300000093","1","1","1","1","1","1","1","1","1"
"260061","img/object_images/pan03.jpg","img/object_images/ruler02.jpg",NA,"0","0",NA,"1","1",NA,"0.566565300000093","0.797319099999868",NA,"1","1",NA,"1","1",NA,"1","1",NA
"260061","img/object_images/Eyeliner01.jpg",NA,"img/object_images/ToolBag01.jpg","0",NA,"1","1",NA,"0","0.59182809999993",NA,"1.28656839999985","1",NA,"1","1",NA,"1","1",NA,"1"
"260061","img/object_images/ToolBag01.jpg","img/object_images/Eyeliner01.jpg","img/object_images/bottle06.jpg","1","0","0","0","1","0","1.28656839999985","0.59182809999993","0.56571729999996","1","1","1","1","1","1","1","1","1"
"260061","img/object_images/bottle06.jpg","img/object_images/ToolBag01.jpg","img/object_images/pitcher07.jpg","0","1","0","0","0","1","0.56571729999996","1.28656839999985","0.670505699999921","1","1","1","1","1","1","1","1","1"
"260061","img/object_images/pitcher07.jpg","img/object_images/bottle06.jpg","img/object_images/bookmark01.jpg","0","0","0","1","0","0","0.670505699999921","0.56571729999996","1.34282629999984","1","1","1","1","1","1","1","1","1"
"260061","img/object_images/bookmark01.jpg","img/object_images/pitcher07.jpg","img/object_images/Shoes05.jpg","0","0","0","0","1","0","1.34282629999984","0.670505699999921","0.56892270000003","1","1","1","1","1","1","1","1","1"
"260061","img/object_images/Shoes05.jpg","img/object_images/bookmark01.jpg","img/object_images/water_gun01.jpg","0","0","0","0","0","1","0.56892270000003","1.34282629999984","1.54945929999985","1","1","1","1","1","1","1","1","1"
"260061","img/object_images/water_gun01.jpg","img/object_images/Shoes05.jpg","img/object_images/scale02.jpg","0","0","0","1","0","0","1.54945929999985","0.56892270000003","0.726433000000043","1","1","1","1","1","1","1","1","1"
"260061","img/object_images/scale02.jpg","img/object_images/water_gun01.jpg","img/object_images/helmet03.jpg","0","0","0","0","1","1","0.726433000000043","1.54945929999985","0.496533399999635","1","1","1","1","1","1","1","1","1"
"260061","img/object_images/helmet03.jpg","img/object_images/scale02.jpg","img/object_images/belt03.jpg","0","0","0","1","0","0","0.496533399999635","0.726433000000043","0.730646300000217","1","1","1","1","1","1","1","1","1"
"260061","img/object_images/belt03.jpg","img/object_images/helmet03.jpg","img/object_images/frame01.jpg","0","0","0","0","1","1","0.730646300000217","0.496533399999635","0.656004100000018","1","1","1","1","1","1","1","1","1"
"260061","img/object_images/frame01.jpg","img/object_images/belt03.jpg","img/object_images/tennis_racket01.jpg","0","0","0","1","0","1","0.656004100000018","0.730646300000217","0.53949149999994","1","1","1","1","1","1","1","1","1"
"260061","img/object_images/tennis_racket01.jpg","img/object_images/frame01.jpg","img/object_images/headset02.jpg","0","0","0","1","1","0","0.53949149999994","0.656004100000018","0.4577855","1","1","1","1","1","1","1","1","1"
"260061","img/object_images/headset02.jpg","img/object_images/tennis_racket01.jpg","img/object_images/badminton01.jpg","0","0","0","0","1","1","0.4577855","0.53949149999994","0.674272999999857","1","1","1","1","1","1","1","1","1"
"260061","img/object_images/badminton01.jpg","img/object_images/headset02.jpg","img/object_images/piano03.jpg","0","0","0","1","0","0","0.674272999999857","0.4577855","0.740438999999924","1","1","1","1","1","1","1","1","1"
"260061","img/object_images/piano03.jpg","img/object_images/badminton01.jpg","img/object_images/nut_cracker01.jpg","0","0","1","0","1","1","0.740438999999924","0.674272999999857","1.53973729999984","1","1","1","1","1","1","1","1","1"
"260061","img/object_images/nut_cracker01.jpg","img/object_images/piano03.jpg","img/object_images/yoga_mat01.jpg","1","0","0","1","0","0","1.53973729999984","0.740438999999924","0.927952099999629","1","1","1","1","1","1","1","1","1"
"260061","img/object_images/yoga_mat01.jpg","img/object_images/nut_cracker01.jpg","img/object_images/joystick03.jpg","0","1","0","0","1","1","0.927952099999629","1.53973729999984","0.509926599999972","1","1","1","1","1","1","1","1","1"
"260061","img/object_images/joystick03.jpg","img/object_images/yoga_mat01.jpg","img/object_images/egg_basket01.jpg","0","0","0","1","0","1","0.509926599999972","0.927952099999629","0.645221099999844","1","1","1","1","1","1","1","1","1"
"260061","img/object_images/egg_basket01.jpg","img/object_images/joystick03.jpg","img/object_images/lock03.jpg","0","0","1","1","1","1","0.645221099999844","0.509926599999972","0.472965899999735","1","1","1","1","1","1","1","1","1"
"260061","img/object_images/lock03.jpg","img/object_images/egg_basket01.jpg","img/object_images/phone04.jpg","1","0","0","1","1","1","0.472965899999735","0.645221099999844","0.751008599999977","1","1","1","1","1","1","1","1","1"
"260061","img/object_images/phone04.jpg","img/object_images/lock03.jpg","img/object_images/TreeSlice01.jpg","0","1","0","1","1","1","0.751008599999977","0.472965899999735","1.29834509999978","1","1","1","1","1","1","1","1","1"
"260061","img/object_images/TreeSlice01.jpg","img/object_images/phone04.jpg","img/object_images/bucket01.jpg","0","0","0","1","1","1","1.29834509999978","0.751008599999977","0.752186199999642","1","1","1","1","1","1","1","1","1"
"260061","img/object_images/bucket01.jpg","img/object_images/TreeSlice01.jpg","img/object_images/dice01.jpg","0","0","0","1","1","0","0.752186199999642","1.29834509999978","1.15619290000018","1","1","1","1","1","1","1","1","1"
"260061","img/object_images/dice01.jpg","img/object_images/bucket01.jpg","img/object_images/usb03.jpg","0","0","1","0","1","0","1.15619290000018","0.752186199999642","0.797085399999787","1","1","1","1","1","1","1","1","1"
"260061","img/object_images/usb03.jpg","img/object_images/dice01.jpg","img/object_images/origami01.jpg","1","0","0","0","0","1","0.797085399999787","1.15619290000018","2.45533069999988","1","1","1","1","1","1","1","1","1"
"260061","img/object_images/origami01.jpg","img/object_images/usb03.jpg","img/object_images/trumpet01.jpg","0","1","0","1","0","0","2.45533069999988","0.797085399999787","0.74537499999974","1","1","1","1","1","1","1","1","1"
"260061","img/object_images/trumpet01.jpg","img/object_images/origami01.jpg","img/object_images/jewel02.jpg","0","0","0","0","1","0","0.74537499999974","2.45533069999988","1.61617460000002","1","1","1","1","1","1","1","1","1"
"260061","img/object_images/jewel02.jpg","img/object_images/trumpet01.jpg","img/object_images/Safe01.jpg","0","0","0","0","0","1","1.61617460000002","0.74537499999974","0.665220699999963","1","1","1","1","1","1","1","1","1"
"260061","img/object_images/Safe01.jpg","img/object_images/jewel02.jpg","img/object_images/fan01.jpg","0","0","0","1","0","0","0.665220699999963","1.61617460000002","0.673198199999888","1","1","1","1","1","1","1","1","1"
"260061","img/object_images/fan01.jpg","img/object_images/Safe01.jpg","img/object_images/shovel01.jpg","0","0","0","0","1","0","0.673198199999888","0.665220699999963","0.671712299999626","1","1","1","1","1","1","1","1","1"
"260061","img/object_images/shovel01.jpg","img/object_images/fan01.jpg","img/object_images/note_book02.jpg","0","0","0","0","0","0","0.671712299999626","0.673198199999888","0.656913799999757","1","1","1","1","1","1","1","1","1"
"260061","img/object_images/note_book02.jpg","img/object_images/shovel01.jpg",NA,"0","0",NA,"0","0",NA,"0.656913799999757","0.671712299999626",NA,"1","1",NA,"1","1",NA,"1","1",NA
"260061","img/object_images/gift_box02.jpg",NA,"img/object_images/funnel01.jpg","0",NA,"0","1",NA,"0","0.826382099999819",NA,"0.546067600000015","1",NA,"1","1",NA,"1","1",NA,"1"
"260061","img/object_images/funnel01.jpg","img/object_images/gift_box02.jpg","img/object_images/clip02.jpg","0","0","0","0","1","1","0.546067600000015","0.826382099999819","0.508471800000052","1","1","1","1","1","1","1","1","1"
"260061","img/object_images/clip02.jpg","img/object_images/funnel01.jpg","img/object_images/Witchhat01.jpg","0","0","0","1","0","1","0.508471800000052","0.546067600000015","0.468353299999535","1","1","1","1","1","1","1","1","1"
"260061","img/object_images/Witchhat01.jpg","img/object_images/clip02.jpg","img/object_images/ironing_table01.jpg","0","0","0","1","1","0","0.468353299999535","0.508471800000052","0.579297499999711","1","1","1","1","1","1","1","1","1"
"260061","img/object_images/ironing_table01.jpg","img/object_images/Witchhat01.jpg","img/object_images/vga_port 01.jpg","0","0","0","0","1","0","0.579297499999711","0.468353299999535","0.515667199999598","1","1","1","1","1","1","1","1","1"
"260061","img/object_images/vga_port 01.jpg","img/object_images/ironing_table01.jpg","img/object_images/jacket03.jpg","0","0","1","0","0","0","0.515667199999598","0.579297499999711","0.826040599999715","1","1","1","1","1","1","1","1","1"
"260061","img/object_images/jacket03.jpg","img/object_images/vga_port 01.jpg","img/object_images/Screws01.jpg","1","0","1","0","0","1","0.826040599999715","0.515667199999598","0.681936499999892","1","1","1","1","1","1","1","1","1"
"260061","img/object_images/Screws01.jpg","img/object_images/jacket03.jpg","img/object_images/socks02.jpg","1","1","1","1","0","0","0.681936499999892","0.826040599999715","0.861425800000006","1","1","1","1","1","1","1","1","1"
"260061","img/object_images/socks02.jpg","img/object_images/Screws01.jpg","img/object_images/gift_box03.jpg","1","1","1","0","1","0","0.861425800000006","0.681936499999892","2.33703760000003","1","1","1","1","1","1","1","1","1"
"260061","img/object_images/gift_box03.jpg","img/object_images/socks02.jpg","img/object_images/fork03.jpg","1","1","1","0","0","1","2.33703760000003","0.861425800000006","0.698638199999777","1","1","1","1","1","1","1","1","1"
"260061","img/object_images/fork03.jpg","img/object_images/gift_box03.jpg","img/object_images/bow_tie01.jpg","1","1","0","1","0","0","0.698638199999777","2.33703760000003","2.46153929999969","1","1","1","1","1","1","1","1","1"
"260061","img/object_images/bow_tie01.jpg","img/object_images/fork03.jpg","img/object_images/gift_box01.jpg","0","1","0","0","1","1","2.46153929999969","0.698638199999777","0.648764799999981","1","1","1","1","1","1","1","1","1"
"260061","img/object_images/gift_box01.jpg","img/object_images/bow_tie01.jpg","img/object_images/coloring_pencil01.jpg","0","0","0","1","0","1","0.648764799999981","2.46153929999969","0.459519700000101","1","1","1","1","1","1","1","1","1"
"260061","img/object_images/coloring_pencil01.jpg","img/object_images/gift_box01.jpg","img/object_images/lawn_mower01.jpg","0","0","0","1","1","1","0.459519700000101","0.648764799999981","0.684502299999849","1","1","1","1","1","1","1","1","1"
"260061","img/object_images/lawn_mower01.jpg","img/object_images/coloring_pencil01.jpg","img/object_images/measuring_tape02.jpg","0","0","0","1","1","1","0.684502299999849","0.459519700000101","0.521829099999877","1","1","1","1","1","1","1","1","1"
"260061","img/object_images/measuring_tape02.jpg","img/object_images/lawn_mower01.jpg","img/object_images/pitcher02.jpg","0","0","0","1","1","1","0.521829099999877","0.684502299999849","0.582638799999813","1","1","1","1","1","1","1","1","1"
"260061","img/object_images/pitcher02.jpg","img/object_images/measuring_tape02.jpg","img/object_images/camera07.jpg","0","0","0","1","1","1","0.582638799999813","0.521829099999877","0.758259099999805","1","1","1","1","1","1","1","1","1"
"260061","img/object_images/camera07.jpg","img/object_images/pitcher02.jpg","img/object_images/balloon01.jpg","0","0","0","1","1","0","0.758259099999805","0.582638799999813","1.55818039999963","1","1","1","1","1","1","1","1","1"
"260061","img/object_images/balloon01.jpg","img/object_images/camera07.jpg","img/object_images/wallet02.jpg","0","0","0","0","1","1","1.55818039999963","0.758259099999805","0.60508810000033","1","1","1","1","1","1","1","1","1"
"260061","img/object_images/wallet02.jpg","img/object_images/balloon01.jpg","img/object_images/lock04.jpg","0","0","0","1","0","1","0.60508810000033","1.55818039999963","1.17745919999993","1","1","1","1","1","1","1","1","1"
"260061","img/object_images/lock04.jpg","img/object_images/wallet02.jpg","img/object_images/bath_tub01.jpg","0","0","1","1","1","0","1.17745919999993","0.60508810000033","1.07863030000021","1","1","1","1","1","1","1","1","1"
"260061","img/object_images/bath_tub01.jpg","img/object_images/lock04.jpg","img/object_images/couch03.jpg","1","0","0","0","1","0","1.07863030000021","1.17745919999993","2.04700819999994","1","1","1","1","1","1","1","1","1"
"260061","img/object_images/couch03.jpg","img/object_images/bath_tub01.jpg","img/object_images/sleeping_bag01.jpg","0","1","0","0","0","0","2.04700819999994","1.07863030000021","1.89931039999988","1","1","1","1","1","1","1","1","1"
"260061","img/object_images/sleeping_bag01.jpg","img/object_images/couch03.jpg","img/object_images/dresser04.jpg","0","0","0","0","0","0","1.89931039999988","2.04700819999994","1.35752630000002","1","1","1","1","1","1","1","1","1"
"260061","img/object_images/dresser04.jpg","img/object_images/sleeping_bag01.jpg","img/object_images/handkerchief01.jpg","0","0","0","0","0","0","1.35752630000002","1.89931039999988","0.777062800000067","1","1","1","1","1","1","1","1","1"
"260061","img/object_images/handkerchief01.jpg","img/object_images/dresser04.jpg","img/object_images/bow_tie02.jpg","0","0","0","0","0","0","0.777062800000067","1.35752630000002","0.772575799999913","1","1","1","1","1","1","1","1","1"
"260061","img/object_images/bow_tie02.jpg","img/object_images/handkerchief01.jpg","img/object_images/golf_ball03.jpg","0","0","0","0","0","1","0.772575799999913","0.777062800000067","0.731475400000136","1","1","1","1","1","1","1","1","1"
"260061","img/object_images/golf_ball03.jpg","img/object_images/bow_tie02.jpg","img/object_images/hammer01.jpg","0","0","0","1","0","0","0.731475400000136","0.772575799999913","0.790612799999735","1","1","1","1","1","1","1","1","1"
"260061","img/object_images/hammer01.jpg","img/object_images/golf_ball03.jpg","img/object_images/paper_cup01.jpg","0","0","0","0","1","0","0.790612799999735","0.731475400000136","0.643953699999884","1","1","1","1","1","1","1","1","1"
"260061","img/object_images/paper_cup01.jpg","img/object_images/hammer01.jpg","img/object_images/jewelry01.jpg","0","0","0","0","0","1","0.643953699999884","0.790612799999735","1.18048769999973","1","1","1","1","1","1","1","1","1"
"260061","img/object_images/jewelry01.jpg","img/object_images/paper_cup01.jpg","img/object_images/grater01.jpg","0","0","0","1","0","1","1.18048769999973","0.643953699999884","0.703854699999965","1","1","1","1","1","1","1","1","1"
"260061","img/object_images/grater01.jpg","img/object_images/jewelry01.jpg",NA,"0","0",NA,"1","1",NA,"0.703854699999965","1.18048769999973",NA,"1","1",NA,"1","1",NA,"1","1",NA
"260061","img/object_images/floss02.jpg",NA,"img/object_images/rock02.jpg","0",NA,"0","1",NA,"0","0.768634799999973",NA,"0.636678399999937","1",NA,"1","1",NA,"1","1",NA,"1"
"260061","img/object_images/rock02.jpg","img/object_images/floss02.jpg","img/object_images/book02.jpg","0","0","0","0","1","1","0.636678399999937","0.768634799999973","0.517662399999836","1","1","1","1","1","1","1","1","1"
"260061","img/object_images/book02.jpg","img/object_images/rock02.jpg","img/object_images/blender01.jpg","0","0","0","1","0","0","0.517662399999836","0.636678399999937","0.456920699999728","1","1","1","1","1","1","1","1","1"
"260061","img/object_images/blender01.jpg","img/object_images/book02.jpg","img/object_images/couch01.jpg","0","0","0","0","1","0","0.456920699999728","0.517662399999836","0.529900300000236","1","1","1","1","1","1","1","1","1"
"260061","img/object_images/couch01.jpg","img/object_images/blender01.jpg","img/object_images/airfryer02.jpg","0","0","0","0","0","1","0.529900300000236","0.456920699999728","0.475136299999804","1","1","1","1","1","1","1","1","1"
"260061","img/object_images/airfryer02.jpg","img/object_images/couch01.jpg","img/object_images/video_game03.jpg","0","0","0","1","0","1","0.475136299999804","0.529900300000236","0.440220099999579","1","1","1","1","1","1","1","1","1"
"260061","img/object_images/video_game03.jpg","img/object_images/airfryer02.jpg","img/object_images/bag_pipes01.jpg","0","0","0","1","1","1","0.440220099999579","0.475136299999804","0.504960499999697","1","1","1","1","1","1","1","1","1"
"260061","img/object_images/bag_pipes01.jpg","img/object_images/video_game03.jpg","img/object_images/egg_slicer01.jpg","0","0","0","1","1","1","0.504960499999697","0.440220099999579","0.554832999999917","1","1","1","1","1","1","1","1","1"
"260061","img/object_images/egg_slicer01.jpg","img/object_images/bag_pipes01.jpg","img/object_images/Trowel01.jpg","0","0","0","1","1","0","0.554832999999917","0.504960499999697","0.632595199999969","1","1","1","1","1","1","1","1","1"
"260061","img/object_images/Trowel01.jpg","img/object_images/egg_slicer01.jpg","img/object_images/fork02.jpg","0","0","0","0","1","0","0.632595199999969","0.554832999999917","0.653492600000163","1","1","1","1","1","1","1","1","1"
"260061","img/object_images/fork02.jpg","img/object_images/Trowel01.jpg","img/object_images/mail_box02.jpg","0","0","0","0","0","1","0.653492600000163","0.632595199999969","0.612796300000127","1","1","1","1","1","1","1","1","1"
"260061","img/object_images/mail_box02.jpg","img/object_images/fork02.jpg","img/object_images/bell03.jpg","0","0","1","1","0","0","0.612796300000127","0.653492600000163","1.64531220000003","1","1","1","1","1","1","1","1","1"
"260061","img/object_images/bell03.jpg","img/object_images/mail_box02.jpg","img/object_images/tool06.jpg","1","0","0","0","1","0","1.64531220000003","0.612796300000127","1.13055869999994","1","1","1","1","1","1","1","1","1"
"260061","img/object_images/tool06.jpg","img/object_images/bell03.jpg","img/object_images/Violin01.jpg","0","1","0","0","0","0","1.13055869999994","1.64531220000003","0.489408400000002","1","1","1","1","1","1","1","1","1"
"260061","img/object_images/Violin01.jpg","img/object_images/tool06.jpg","img/object_images/drone01.jpg","0","0","0","0","0","1","0.489408400000002","1.13055869999994","0.510427299999947","1","1","1","1","1","1","1","1","1"
"260061","img/object_images/drone01.jpg","img/object_images/Violin01.jpg","img/object_images/scarf01.jpg","0","0","0","1","0","1","0.510427299999947","0.489408400000002","0.661247799999956","1","1","1","1","1","1","1","1","1"
"260061","img/object_images/scarf01.jpg","img/object_images/drone01.jpg","img/object_images/tripod01.jpg","0","0","0","1","1","1","0.661247799999956","0.510427299999947","0.590486999999712","1","1","1","1","1","1","1","1","1"
"260061","img/object_images/tripod01.jpg","img/object_images/scarf01.jpg","img/object_images/computer_mouse02.jpg","0","0","0","1","1","0","0.590486999999712","0.661247799999956","0.529834600000186","1","1","1","1","1","1","1","1","1"
"260061","img/object_images/computer_mouse02.jpg","img/object_images/tripod01.jpg","img/object_images/skate_board01.jpg","0","0","1","0","1","0","0.529834600000186","0.590486999999712","0.658500400000094","1","1","1","1","1","1","1","1","1"
"260061","img/object_images/skate_board01.jpg","img/object_images/computer_mouse02.jpg","img/object_images/box03.jpg","1","0","1","0","0","0","0.658500400000094","0.529834600000186","0.560136700000157","1","1","1","1","1","1","1","1","1"
"260061","img/object_images/box03.jpg","img/object_images/skate_board01.jpg","img/object_images/pitcher09.jpg","1","1","1","0","0","1","0.560136700000157","0.658500400000094","0.866857099999606","1","1","1","1","1","1","1","1","1"
"260061","img/object_images/pitcher09.jpg","img/object_images/box03.jpg","img/object_images/pen01.jpg","1","1","0","1","0","0","0.866857099999606","0.560136700000157","1.36272970000005","1","1","1","1","1","1","1","1","1"
"260061","img/object_images/pen01.jpg","img/object_images/pitcher09.jpg","img/object_images/clip04.jpg","0","1","0","0","1","1","1.36272970000005","0.866857099999606","0.625732999999627","1","1","1","1","1","1","1","1","1"
"260061","img/object_images/clip04.jpg","img/object_images/pen01.jpg","img/object_images/toy01.jpg","0","0","0","1","0","1","0.625732999999627","1.36272970000005","0.56375520000006","1","1","1","1","1","1","1","1","1"
"260061","img/object_images/toy01.jpg","img/object_images/clip04.jpg","img/object_images/soap03.jpg","0","0","0","1","1","0","0.56375520000006","0.625732999999627","0.855700999999726","1","1","1","1","1","1","1","1","1"
"260061","img/object_images/soap03.jpg","img/object_images/toy01.jpg","img/object_images/toothbrush01.jpg","0","0","0","0","1","0","0.855700999999726","0.56375520000006","0.55647729999987","1","1","1","1","1","1","1","1","1"
"260061","img/object_images/toothbrush01.jpg","img/object_images/soap03.jpg","img/object_images/hair_brush01.jpg","0","0","0","0","0","1","0.55647729999987","0.855700999999726","0.674639999999954","1","1","1","1","1","1","1","1","1"
"260061","img/object_images/hair_brush01.jpg","img/object_images/toothbrush01.jpg","img/object_images/chair06.jpg","0","0","0","1","0","0","0.674639999999954","0.55647729999987","0.729185099999768","1","1","1","1","1","1","1","1","1"
"260061","img/object_images/chair06.jpg","img/object_images/hair_brush01.jpg","img/object_images/computer_mouse01.jpg","0","0","0","0","1","1","0.729185099999768","0.674639999999954","0.523890700000038","1","1","1","1","1","1","1","1","1"
"260061","img/object_images/computer_mouse01.jpg","img/object_images/chair06.jpg","img/object_images/chain01.jpg","0","0","0","1","0","0","0.523890700000038","0.729185099999768","0.72428769999965","1","1","1","1","1","1","1","1","1"
"260061","img/object_images/chain01.jpg","img/object_images/computer_mouse01.jpg","img/object_images/shoes12.jpg","0","0","1","0","1","1","0.72428769999965","0.523890700000038","0.695407399999795","1","1","1","1","1","1","1","1","1"
"260061","img/object_images/shoes12.jpg","img/object_images/chain01.jpg",NA,"1","0",NA,"1","0",NA,"0.695407399999795","0.72428769999965",NA,"1","1",NA,"1","1",NA,"1","1",NA
"260061","img/object_images/knife02.jpg",NA,"img/object_images/knit03.jpg","0",NA,"0","0",NA,"1","2.25205789999995",NA,"1.46182879999992","1",NA,"1","1",NA,"1","1",NA,"1"
"260061","img/object_images/knit03.jpg","img/object_images/knife02.jpg","img/object_images/boat04.jpg","0","0","0","1","0","0","1.46182879999992","2.25205789999995","0.641362199999776","1","1","1","1","1","1","1","1","1"
"260061","img/object_images/boat04.jpg","img/object_images/knit03.jpg","img/object_images/remover01.jpg","0","0","0","0","1","1","0.641362199999776","1.46182879999992","1.25251709999998","1","1","1","1","1","1","1","1","1"
"260061","img/object_images/remover01.jpg","img/object_images/boat04.jpg","img/object_images/shower_head01.jpg","0","0","0","1","0","1","1.25251709999998","0.641362199999776","0.645728499999905","1","1","1","1","1","1","1","1","1"
"260061","img/object_images/shower_head01.jpg","img/object_images/remover01.jpg","img/object_images/mail_box01.jpg","0","0","0","1","1","0","0.645728499999905","1.25251709999998","0.567187100000183","1","1","1","1","1","1","1","1","1"
"260061","img/object_images/mail_box01.jpg","img/object_images/shower_head01.jpg","img/object_images/matches02.jpg","0","0","0","0","1","0","0.567187100000183","0.645728499999905","0.599394699999948","1","1","1","1","1","1","1","1","1"
"260061","img/object_images/matches02.jpg","img/object_images/mail_box01.jpg","img/object_images/backpack01.jpg","0","0","0","0","0","0","0.599394699999948","0.567187100000183","0.51670960000024","1","1","1","1","1","1","1","1","1"
"260061","img/object_images/backpack01.jpg","img/object_images/matches02.jpg","img/object_images/keyboard02.jpg","0","0","0","0","0","1","0.51670960000024","0.599394699999948","0.590253600000096","1","1","1","1","1","1","1","1","1"
"260061","img/object_images/keyboard02.jpg","img/object_images/backpack01.jpg","img/object_images/bottle07.jpg","0","0","0","1","0","1","0.590253600000096","0.51670960000024","0.495078100000001","1","1","1","1","1","1","1","1","1"
"260061","img/object_images/bottle07.jpg","img/object_images/keyboard02.jpg","img/object_images/knit04.jpg","0","0","0","1","1","1","0.495078100000001","0.590253600000096","0.496342099999993","1","1","1","1","1","1","1","1","1"
"260061","img/object_images/knit04.jpg","img/object_images/bottle07.jpg","img/object_images/car01.jpg","0","0","0","1","1","1","0.496342099999993","0.495078100000001","0.552580899999839","1","1","1","1","1","1","1","1","1"
"260061","img/object_images/car01.jpg","img/object_images/knit04.jpg","img/object_images/dresser03.jpg","0","0","0","1","1","0","0.552580899999839","0.496342099999993","0.684291299999813","1","1","1","1","1","1","1","1","1"
"260061","img/object_images/dresser03.jpg","img/object_images/car01.jpg","img/object_images/stereo02.jpg","0","0","0","0","1","0","0.684291299999813","0.552580899999839","0.725706099999798","1","1","1","1","1","1","1","1","1"
"260061","img/object_images/stereo02.jpg","img/object_images/dresser03.jpg","img/object_images/paper_cup02.jpg","0","0","0","0","0","1","0.725706099999798","0.684291299999813","0.547661499999549","1","1","1","1","1","1","1","1","1"
"260061","img/object_images/paper_cup02.jpg","img/object_images/stereo02.jpg","img/object_images/tool18.jpg","0","0","0","1","0","0","0.547661499999549","0.725706099999798","0.699783199999956","1","1","1","1","1","1","1","1","1"
"260061","img/object_images/tool18.jpg","img/object_images/paper_cup02.jpg","img/object_images/jacket04.jpg","0","0","0","0","1","0","0.699783199999956","0.547661499999549","0.650509399999692","1","1","1","1","1","1","1","1","1"
"260061","img/object_images/jacket04.jpg","img/object_images/tool18.jpg","img/object_images/flashlight03.jpg","0","0","0","0","0","0","0.650509399999692","0.699783199999956","1.2205391","1","1","1","1","1","1","1","1","1"
"260061","img/object_images/flashlight03.jpg","img/object_images/jacket04.jpg","img/object_images/hand_grip_exerciser01.jpg","0","0","0","0","0","0","1.2205391","0.650509399999692","0.660372099999904","1","1","1","1","1","1","1","1","1"
"260061","img/object_images/hand_grip_exerciser01.jpg","img/object_images/flashlight03.jpg","img/object_images/curtain02.jpg","0","0","0","0","0","0","0.660372099999904","1.2205391","0.610682100000076","1","1","1","1","1","1","1","1","1"
"260061","img/object_images/curtain02.jpg","img/object_images/hand_grip_exerciser01.jpg","img/object_images/Statue01.jpg","0","0","0","0","0","1","0.610682100000076","0.660372099999904","0.59144209999954","1","1","1","1","1","1","1","1","1"
"260061","img/object_images/Statue01.jpg","img/object_images/curtain02.jpg","img/object_images/kite01.jpg","0","0","0","1","0","1","0.59144209999954","0.610682100000076","0.592958499999668","1","1","1","1","1","1","1","1","1"
"260061","img/object_images/kite01.jpg","img/object_images/Statue01.jpg","img/object_images/sponge03.jpg","0","0","0","1","1","1","0.592958499999668","0.59144209999954","0.73484910000002","1","1","1","1","1","1","1","1","1"
"260061","img/object_images/sponge03.jpg","img/object_images/kite01.jpg","img/object_images/gloves02.jpg","0","0","0","1","1","0","0.73484910000002","0.592958499999668","0.677049099999977","1","1","1","1","1","1","1","1","1"
"260061","img/object_images/gloves02.jpg","img/object_images/sponge03.jpg","img/object_images/basket04.jpg","0","0","0","0","1","1","0.677049099999977","0.73484910000002","0.577579799999739","1","1","1","1","1","1","1","1","1"
"260061","img/object_images/basket04.jpg","img/object_images/gloves02.jpg","img/object_images/remote_controller01.jpg","0","0","1","1","0","1","0.577579799999739","0.677049099999977","0.479656599999771","1","1","1","1","1","1","1","1","1"
"260061","img/object_images/remote_controller01.jpg","img/object_images/basket04.jpg","img/object_images/toy08.jpg","1","0","0","1","1","0","0.479656599999771","0.577579799999739","0.868252999999868","1","1","1","1","1","1","1","1","1"
"260061","img/object_images/toy08.jpg","img/object_images/remote_controller01.jpg","img/object_images/camera03.jpg","0","1","0","0","1","0","0.868252999999868","0.479656599999771","0.506712800000287","1","1","1","1","1","1","1","1","1"
"260061","img/object_images/camera03.jpg","img/object_images/toy08.jpg","img/object_images/video_game01.jpg","0","0","0","0","0","1","0.506712800000287","0.868252999999868","0.655572699999766","1","1","1","1","1","1","1","1","1"
"260061","img/object_images/video_game01.jpg","img/object_images/camera03.jpg","img/object_images/hoverboard01.jpg","0","0","0","1","0","0","0.655572699999766","0.506712800000287","0.716581700000233","1","1","1","1","1","1","1","1","1"
"260061","img/object_images/hoverboard01.jpg","img/object_images/video_game01.jpg","img/object_images/phone02.jpg","0","0","0","0","1","1","0.716581700000233","0.655572699999766","0.895648999999821","1","1","1","1","1","1","1","1","1"
"260061","img/object_images/phone02.jpg","img/object_images/hoverboard01.jpg","img/object_images/blender02.jpg","0","0","0","1","0","1","0.895648999999821","0.716581700000233","0.544148199999881","1","1","1","1","1","1","1","1","1"
"260061","img/object_images/blender02.jpg","img/object_images/phone02.jpg",NA,"0","0",NA,"1","1",NA,"0.544148199999881","0.895648999999821",NA,"1","1",NA,"1","1",NA,"1","1",NA
"260061","img/object_images/shoes10.jpg",NA,"img/object_images/razor01.jpg","0",NA,"0","0",NA,"0","1.03348849999998",NA,"1.11900189999983","1",NA,"1","1",NA,"1","1",NA,"1"
"260061","img/object_images/razor01.jpg","img/object_images/shoes10.jpg","img/object_images/dress03.jpg","0","0","0","0","0","1","1.11900189999983","1.03348849999998","0.578752600000144","1","1","1","1","1","1","1","1","1"
"260061","img/object_images/dress03.jpg","img/object_images/razor01.jpg","img/object_images/cards01.jpg","0","0","0","1","0","0","0.578752600000144","1.11900189999983","0.609217699999817","1","1","1","1","1","1","1","1","1"
"260061","img/object_images/cards01.jpg","img/object_images/dress03.jpg","img/object_images/tool11.jpg","0","0","0","0","1","1","0.609217699999817","0.578752600000144","0.538385199999766","1","1","1","1","1","1","1","1","1"
"260061","img/object_images/tool11.jpg","img/object_images/cards01.jpg","img/object_images/WitchHat02.jpg","0","0","0","1","0","1","0.538385199999766","0.609217699999817","0.736708099999532","1","1","1","1","1","1","1","1","1"
"260061","img/object_images/WitchHat02.jpg","img/object_images/tool11.jpg","img/object_images/car04.jpg","0","0","0","1","1","0","0.736708099999532","0.538385199999766","0.560589599999957","1","1","1","1","1","1","1","1","1"
"260061","img/object_images/car04.jpg","img/object_images/WitchHat02.jpg","img/object_images/tv01.jpg","0","0","0","0","1","0","0.560589599999957","0.736708099999532","0.576228699999547","1","1","1","1","1","1","1","1","1"
"260061","img/object_images/tv01.jpg","img/object_images/car04.jpg","img/object_images/car03.jpg","0","0","0","0","0","0","0.576228699999547","0.560589599999957","0.539999399999715","1","1","1","1","1","1","1","1","1"
"260061","img/object_images/car03.jpg","img/object_images/tv01.jpg","img/object_images/fan05.jpg","0","0","0","0","0","0","0.539999399999715","0.576228699999547","0.576927899999873","1","1","1","1","1","1","1","1","1"
"260061","img/object_images/fan05.jpg","img/object_images/car03.jpg","img/object_images/rock03.jpg","0","0","0","0","0","0","0.576927899999873","0.539999399999715","0.525297999999793","1","1","1","1","1","1","1","1","1"
"260061","img/object_images/rock03.jpg","img/object_images/fan05.jpg","img/object_images/cutting_board01.jpg","0","0","0","0","0","1","0.525297999999793","0.576927899999873","0.664466299999958","1","1","1","1","1","1","1","1","1"
"260061","img/object_images/cutting_board01.jpg","img/object_images/rock03.jpg","img/object_images/lemon_squeezer02.jpg","0","0","0","1","0","1","0.664466299999958","0.525297999999793","0.490430099999912","1","1","1","1","1","1","1","1","1"
"260061","img/object_images/lemon_squeezer02.jpg","img/object_images/cutting_board01.jpg","img/object_images/ice_tray03.jpg","0","0","0","1","1","1","0.490430099999912","0.664466299999958","0.608673200000112","1","1","1","1","1","1","1","1","1"
"260061","img/object_images/ice_tray03.jpg","img/object_images/lemon_squeezer02.jpg","img/object_images/ribbon01.jpg","0","0","0","1","1","0","0.608673200000112","0.490430099999912","0.850576600000068","1","1","1","1","1","1","1","1","1"
"260061","img/object_images/ribbon01.jpg","img/object_images/ice_tray03.jpg","img/object_images/ladle02.jpg","0","0","0","0","1","0","0.850576600000068","0.608673200000112","0.820608199999924","1","1","1","1","1","1","1","1","1"
"260061","img/object_images/ladle02.jpg","img/object_images/ribbon01.jpg","img/object_images/screwdriver01.jpg","0","0","0","0","0","0","0.820608199999924","0.850576600000068","0.608402200000228","1","1","1","1","1","1","1","1","1"
"260061","img/object_images/screwdriver01.jpg","img/object_images/ladle02.jpg","img/object_images/slinky_toy01.jpg","0","0","0","0","0","1","0.608402200000228","0.820608199999924","0.74457869999992","1","1","1","1","1","1","1","1","1"
"260061","img/object_images/slinky_toy01.jpg","img/object_images/screwdriver01.jpg","img/object_images/yarn02.jpg","0","0","0","1","0","0","0.74457869999992","0.608402200000228","0.60042529999987","1","1","1","1","1","1","1","1","1"
"260061","img/object_images/yarn02.jpg","img/object_images/slinky_toy01.jpg","img/object_images/key02.jpg","0","0","0","0","1","1","0.60042529999987","0.74457869999992","0.806583799999544","1","1","1","1","1","1","1","1","1"
"260061","img/object_images/key02.jpg","img/object_images/yarn02.jpg","img/object_images/jewel01.jpg","0","0","0","1","0","0","0.806583799999544","0.60042529999987","0.559658999999783","1","1","1","1","1","1","1","1","1"
"260061","img/object_images/jewel01.jpg","img/object_images/key02.jpg","img/object_images/binoculars03.jpg","0","0","0","0","1","1","0.559658999999783","0.806583799999544","0.784324699999843","1","1","1","1","1","1","1","1","1"
"260061","img/object_images/binoculars03.jpg","img/object_images/jewel01.jpg","img/object_images/toaster02.jpg","0","0","0","1","0","1","0.784324699999843","0.559658999999783","1.16360869999994","1","1","1","1","1","1","1","1","1"
"260061","img/object_images/toaster02.jpg","img/object_images/binoculars03.jpg","img/object_images/shower_head03.jpg","0","0","0","1","1","1","1.16360869999994","0.784324699999843","0.569653600000265","1","1","1","1","1","1","1","1","1"
"260061","img/object_images/shower_head03.jpg","img/object_images/toaster02.jpg","img/object_images/MeasuringCup01.jpg","0","0","0","1","1","1","0.569653600000265","1.16360869999994","0.779073099999778","1","1","1","1","1","1","1","1","1"
"260061","img/object_images/MeasuringCup01.jpg","img/object_images/shower_head03.jpg","img/object_images/hair_brush05.jpg","0","0","0","1","1","1","0.779073099999778","0.569653600000265","0.689119599999913","1","1","1","1","1","1","1","1","1"
"260061","img/object_images/hair_brush05.jpg","img/object_images/MeasuringCup01.jpg","img/object_images/belt01.jpg","0","0","0","1","1","0","0.689119599999913","0.779073099999778","0.874299400000154","1","1","1","1","1","1","1","1","1"
"260061","img/object_images/belt01.jpg","img/object_images/hair_brush05.jpg","img/object_images/bag06.jpg","0","0","0","0","1","1","0.874299400000154","0.689119599999913","0.771884300000011","1","1","1","1","1","1","1","1","1"
"260061","img/object_images/bag06.jpg","img/object_images/belt01.jpg","img/object_images/jewelry07.jpg","0","0","0","1","0","1","0.771884300000011","0.874299400000154","1.48256109999988","1","1","1","1","1","1","1","1","1"
"260061","img/object_images/jewelry07.jpg","img/object_images/bag06.jpg","img/object_images/chair04.jpg","0","0","0","1","1","1","1.48256109999988","0.771884300000011","0.943250500000204","1","1","1","1","1","1","1","1","1"
"260061","img/object_images/chair04.jpg","img/object_images/jewelry07.jpg","img/object_images/mask01.jpg","0","0","0","1","1","0","0.943250500000204","1.48256109999988","1.42300760000012","1","1","1","1","1","1","1","1","1"
"260061","img/object_images/mask01.jpg","img/object_images/chair04.jpg","img/object_images/satellite01.jpg","0","0","0","0","1","0","1.42300760000012","0.943250500000204","0.647330900000043","1","1","1","1","1","1","1","1","1"
"260061","img/object_images/satellite01.jpg","img/object_images/mask01.jpg",NA,"0","0",NA,"0","0",NA,"0.647330900000043","1.42300760000012",NA,"1","1",NA,"1","1",NA,"1","1",NA
"260061","img/object_images/floppy_disk03.jpg",NA,"img/object_images/paint_brush04.jpg","0",NA,"0","1",NA,"0","0.874447400000236",NA,"0.741808399999854","1",NA,"1","1",NA,"1","1",NA,"1"
"260061","img/object_images/paint_brush04.jpg","img/object_images/floppy_disk03.jpg","img/object_images/lid01.jpg","0","0","0","0","1","1","0.741808399999854","0.874447400000236","0.49511409999991","1","1","1","1","1","1","1","1","1"
"260061","img/object_images/lid01.jpg","img/object_images/paint_brush04.jpg","img/object_images/note_book01.jpg","0","0","0","1","0","0","0.49511409999991","0.741808399999854","0.517201500000056","1","1","1","1","1","1","1","1","1"
"260061","img/object_images/note_book01.jpg","img/object_images/lid01.jpg","img/object_images/pen03.jpg","0","0","0","0","1","0","0.517201500000056","0.49511409999991","0.574701700000105","1","1","1","1","1","1","1","1","1"
"260061","img/object_images/pen03.jpg","img/object_images/note_book01.jpg","img/object_images/microscope01.jpg","0","0","0","0","0","0","0.574701700000105","0.517201500000056","0.787331099999619","1","1","1","1","1","1","1","1","1"
"260061","img/object_images/microscope01.jpg","img/object_images/pen03.jpg","img/object_images/floppy_disk02.jpg","0","0","0","0","0","0","0.787331099999619","0.574701700000105","1.40056369999979","1","1","1","1","1","1","1","1","1"
"260061","img/object_images/floppy_disk02.jpg","img/object_images/microscope01.jpg","img/object_images/motorcycle01.jpg","0","0","0","0","0","1","1.40056369999979","0.787331099999619","0.598964799999749","1","1","1","1","1","1","1","1","1"
"260061","img/object_images/motorcycle01.jpg","img/object_images/floppy_disk02.jpg","img/object_images/pillows01.jpg","0","0","0","1","0","1","0.598964799999749","1.40056369999979","0.591376899999659","1","1","1","1","1","1","1","1","1"
"260061","img/object_images/pillows01.jpg","img/object_images/motorcycle01.jpg","img/object_images/book03.jpg","0","0","0","1","1","1","0.591376899999659","0.598964799999749","0.60446160000015","1","1","1","1","1","1","1","1","1"
"260061","img/object_images/book03.jpg","img/object_images/pillows01.jpg","img/object_images/bottle01.jpg","0","0","0","1","1","0","0.60446160000015","0.591376899999659","0.702743300000066","1","1","1","1","1","1","1","1","1"
"260061","img/object_images/bottle01.jpg","img/object_images/book03.jpg","img/object_images/wire02.jpg","0","0","0","0","1","1","0.702743300000066","0.60446160000015","0.534073300000045","1","1","1","1","1","1","1","1","1"
"260061","img/object_images/wire02.jpg","img/object_images/bottle01.jpg","img/object_images/chess_piece02.jpg","0","0","0","1","0","1","0.534073300000045","0.702743300000066","0.698943199999803","1","1","1","1","1","1","1","1","1"
"260061","img/object_images/chess_piece02.jpg","img/object_images/wire02.jpg","img/object_images/Staples01.jpg","0","0","0","1","1","1","0.698943199999803","0.534073300000045","0.892952500000092","1","1","1","1","1","1","1","1","1"
"260061","img/object_images/Staples01.jpg","img/object_images/chess_piece02.jpg","img/object_images/compass01.jpg","0","0","0","1","1","1","0.892952500000092","0.698943199999803","0.60128090000012","1","1","1","1","1","1","1","1","1"
"260061","img/object_images/compass01.jpg","img/object_images/Staples01.jpg","img/object_images/clip03.jpg","0","0","0","1","1","0","0.60128090000012","0.892952500000092","0.523529399999688","1","1","1","1","1","1","1","1","1"
"260061","img/object_images/clip03.jpg","img/object_images/compass01.jpg","img/object_images/crutches02.jpg","0","0","0","0","1","0","0.523529399999688","0.60128090000012","0.794290800000226","1","1","1","1","1","1","1","1","1"
"260061","img/object_images/crutches02.jpg","img/object_images/clip03.jpg","img/object_images/hammer03.jpg","0","0","0","0","0","1","0.794290800000226","0.523529399999688","0.698226599999771","1","1","1","1","1","1","1","1","1"
"260061","img/object_images/hammer03.jpg","img/object_images/crutches02.jpg","img/object_images/ear_bud01.jpg","0","0","0","1","0","1","0.698226599999771","0.794290800000226","0.612816600000087","1","1","1","1","1","1","1","1","1"
"260061","img/object_images/ear_bud01.jpg","img/object_images/hammer03.jpg","img/object_images/bell02.jpg","0","0","0","1","1","0","0.612816600000087","0.698226599999771","0.720218299999715","1","1","1","1","1","1","1","1","1"
"260061","img/object_images/bell02.jpg","img/object_images/ear_bud01.jpg","img/object_images/clock02.jpg","0","0","1","0","1","0","0.720218299999715","0.612816600000087","1.33323170000017","1","1","1","1","1","1","1","1","1"
"260061","img/object_images/clock02.jpg","img/object_images/bell02.jpg","img/object_images/knit05.jpg","1","0","1","0","0","1","1.33323170000017","0.720218299999715","0.641310299999759","1","1","1","1","1","1","1","1","1"
"260061","img/object_images/knit05.jpg","img/object_images/clock02.jpg","img/object_images/tennis_racket02.jpg","1","1","0","1","0","1","0.641310299999759","1.33323170000017","0.988144199999852","1","1","1","1","1","1","1","1","1"
"260061","img/object_images/tennis_racket02.jpg","img/object_images/knit05.jpg","img/object_images/pitcher01.jpg","0","1","1","1","1","0","0.988144199999852","0.641310299999759","0.924736799999891","1","1","1","1","1","1","1","1","1"
"260061","img/object_images/pitcher01.jpg","img/object_images/tennis_racket02.jpg","img/object_images/Thermometer01.jpg","1","0","0","0","1","0","0.924736799999891","0.988144199999852","0.698749800000087","1","1","1","1","1","1","1","1","1"
"260061","img/object_images/Thermometer01.jpg","img/object_images/pitcher01.jpg","img/object_images/chair05.jpg","0","1","0","0","0","0","0.698749800000087","0.924736799999891","0.646305499999698","1","1","1","1","1","1","1","1","1"
"260061","img/object_images/chair05.jpg","img/object_images/Thermometer01.jpg","img/object_images/retainer01.jpg","0","0","0","0","0","0","0.646305499999698","0.698749800000087","0.94371870000009","1","1","1","1","1","1","1","1","1"
"260061","img/object_images/retainer01.jpg","img/object_images/chair05.jpg","img/object_images/cellphone01.jpg","0","0","0","0","0","1","0.94371870000009","0.646305499999698","0.73030679999988","1","1","1","1","1","1","1","1","1"
"260061","img/object_images/cellphone01.jpg","img/object_images/retainer01.jpg","img/object_images/usb02.jpg","0","0","0","1","0","0","0.73030679999988","0.94371870000009","1.54809720000026","1","1","1","1","1","1","1","1","1"
"260061","img/object_images/usb02.jpg","img/object_images/cellphone01.jpg","img/object_images/knife04.jpg","0","0","0","0","1","1","1.54809720000026","0.73030679999988","0.600417500000049","1","1","1","1","1","1","1","1","1"
"260061","img/object_images/knife04.jpg","img/object_images/usb02.jpg","img/object_images/tv02.jpg","0","0","0","1","0","0","0.600417500000049","1.54809720000026","0.732006299999966","1","1","1","1","1","1","1","1","1"
"260061","img/object_images/tv02.jpg","img/object_images/knife04.jpg","img/object_images/Oven01.jpg","0","0","0","0","1","1","0.732006299999966","0.600417500000049","0.557342800000015","1","1","1","1","1","1","1","1","1"
"260061","img/object_images/Oven01.jpg","img/object_images/tv02.jpg",NA,"0","0",NA,"1","0",NA,"0.557342800000015","0.732006299999966",NA,"1","1",NA,"1","1",NA,"1","1",NA
"260061","img/object_images/helmet05.jpg",NA,"img/object_images/airfryer01.jpg","0",NA,"0","1",NA,"0","1.3204102000002",NA,"0.63517059999981","1",NA,"1","1",NA,"1","1",NA,"1"
"260061","img/object_images/airfryer01.jpg","img/object_images/helmet05.jpg","img/object_images/toy_train02.jpg","0","0","0","0","1","1","0.63517059999981","1.3204102000002","0.54158990000019","1","1","1","1","1","1","1","1","1"
"260061","img/object_images/toy_train02.jpg","img/object_images/airfryer01.jpg","img/object_images/Woopie01.jpg","0","0","0","1","0","1","0.54158990000019","0.63517059999981","0.629681300000129","1","1","1","1","1","1","1","1","1"
"260061","img/object_images/Woopie01.jpg","img/object_images/toy_train02.jpg","img/object_images/basketball_hoop02.jpg","0","0","0","1","1","0","0.629681300000129","0.54158990000019","0.888862300000028","1","1","1","1","1","1","1","1","1"
"260061","img/object_images/basketball_hoop02.jpg","img/object_images/Woopie01.jpg","img/object_images/lantern01.jpg","0","0","0","0","1","1","0.888862300000028","0.629681300000129","0.827080599999817","1","1","1","1","1","1","1","1","1"
"260061","img/object_images/lantern01.jpg","img/object_images/basketball_hoop02.jpg","img/object_images/couch04.jpg","0","0","0","1","0","1","0.827080599999817","0.888862300000028","0.502214899999899","1","1","1","1","1","1","1","1","1"
"260061","img/object_images/couch04.jpg","img/object_images/lantern01.jpg","img/object_images/bottle12.jpg","0","0","0","1","1","1","0.502214899999899","0.827080599999817","0.713091500000019","1","1","1","1","1","1","1","1","1"
"260061","img/object_images/bottle12.jpg","img/object_images/couch04.jpg","img/object_images/chair01.jpg","0","0","0","1","1","0","0.713091500000019","0.502214899999899","0.719836399999849","1","1","1","1","1","1","1","1","1"
"260061","img/object_images/chair01.jpg","img/object_images/bottle12.jpg","img/object_images/razor03.jpg","0","0","0","0","1","0","0.719836399999849","0.713091500000019","0.577066800000239","1","1","1","1","1","1","1","1","1"
"260061","img/object_images/razor03.jpg","img/object_images/chair01.jpg","img/object_images/Recycling01.jpg","0","0","0","0","0","1","0.577066800000239","0.719836399999849","0.617797299999665","1","1","1","1","1","1","1","1","1"
"260061","img/object_images/Recycling01.jpg","img/object_images/razor03.jpg","img/object_images/soap01.jpg","0","0","0","1","0","0","0.617797299999665","0.577066800000239","1.07335470000021","1","1","1","1","1","1","1","1","1"
"260061","img/object_images/soap01.jpg","img/object_images/Recycling01.jpg","img/object_images/brief_case02.jpg","0","0","0","0","1","1","1.07335470000021","0.617797299999665","0.670305199999575","1","1","1","1","1","1","1","1","1"
"260061","img/object_images/brief_case02.jpg","img/object_images/soap01.jpg","img/object_images/video_game06.jpg","0","0","0","1","0","0","0.670305199999575","1.07335470000021","0.547191399999747","1","1","1","1","1","1","1","1","1"
"260061","img/object_images/video_game06.jpg","img/object_images/brief_case02.jpg","img/object_images/container01.jpg","0","0","0","0","1","0","0.547191399999747","0.670305199999575","0.492594199999758","1","1","1","1","1","1","1","1","1"
"260061","img/object_images/container01.jpg","img/object_images/video_game06.jpg","img/object_images/Wisk01.jpg","0","0","0","0","0","1","0.492594199999758","0.547191399999747","0.587711100000206","1","1","1","1","1","1","1","1","1"
"260061","img/object_images/Wisk01.jpg","img/object_images/container01.jpg","img/object_images/tie01.jpg","0","0","0","1","0","0","0.587711100000206","0.492594199999758","0.587866599999643","1","1","1","1","1","1","1","1","1"
"260061","img/object_images/tie01.jpg","img/object_images/Wisk01.jpg","img/object_images/guitar01.jpg","0","0","0","0","1","1","0.587866599999643","0.587711100000206","1.26748019999991","1","1","1","1","1","1","1","1","1"
"260061","img/object_images/guitar01.jpg","img/object_images/tie01.jpg","img/object_images/pitcher03.jpg","0","0","0","1","0","1","1.26748019999991","0.587866599999643","0.642619999999852","1","1","1","1","1","1","1","1","1"
"260061","img/object_images/pitcher03.jpg","img/object_images/guitar01.jpg","img/object_images/drone02.jpg","0","0","0","1","1","0","0.642619999999852","1.26748019999991","0.665968399999883","1","1","1","1","1","1","1","1","1"
"260061","img/object_images/drone02.jpg","img/object_images/pitcher03.jpg","img/object_images/gloves05.jpg","0","0","0","0","1","1","0.665968399999883","0.642619999999852","1.02507360000004","1","1","1","1","1","1","1","1","1"
"260061","img/object_images/gloves05.jpg","img/object_images/drone02.jpg","img/object_images/ball01.jpg","0","0","0","1","0","1","1.02507360000004","0.665968399999883","0.80970609999963","1","1","1","1","1","1","1","1","1"
"260061","img/object_images/ball01.jpg","img/object_images/gloves05.jpg","img/object_images/broom01.jpg","0","0","0","1","1","1","0.80970609999963","1.02507360000004","0.616211799999974","1","1","1","1","1","1","1","1","1"
"260061","img/object_images/broom01.jpg","img/object_images/ball01.jpg","img/object_images/decorative02.jpg","0","0","0","1","1","0","0.616211799999974","0.80970609999963","0.725470499999801","1","1","1","1","1","1","1","1","1"
"260061","img/object_images/decorative02.jpg","img/object_images/broom01.jpg","img/object_images/ironing_table02.jpg","0","0","0","0","1","0","0.725470499999801","0.616211799999974","0.762451599999849","1","1","1","1","1","1","1","1","1"
"260061","img/object_images/ironing_table02.jpg","img/object_images/decorative02.jpg","img/object_images/toilet_paper01.jpg","0","0","0","0","0","1","0.762451599999849","0.725470499999801","0.551025099999833","1","1","1","1","1","1","1","1","1"
"260061","img/object_images/toilet_paper01.jpg","img/object_images/ironing_table02.jpg","img/object_images/car02.jpg","0","0","0","1","0","0","0.551025099999833","0.762451599999849","0.569956000000047","1","1","1","1","1","1","1","1","1"
"260061","img/object_images/car02.jpg","img/object_images/toilet_paper01.jpg","img/object_images/hat02.jpg","0","0","0","0","1","0","0.569956000000047","0.551025099999833","2.49471559999961","1","1","1","1","1","1","1","1","1"
"260061","img/object_images/hat02.jpg","img/object_images/car02.jpg","img/object_images/cochlear_implant01.jpg","0","0","0","0","0","0","2.49471559999961","0.569956000000047","0.767227000000048","1","1","1","1","1","1","1","1","1"
"260061","img/object_images/cochlear_implant01.jpg","img/object_images/hat02.jpg","img/object_images/pot01.jpg","0","0","0","0","0","0","0.767227000000048","2.49471559999961","0.693222399999968","1","1","1","1","1","1","1","1","1"
"260061","img/object_images/pot01.jpg","img/object_images/cochlear_implant01.jpg","img/object_images/brief_case01.jpg","0","0","0","0","0","0","0.693222399999968","0.767227000000048","0.972352900000033","1","1","1","1","1","1","1","1","1"
"260061","img/object_images/brief_case01.jpg","img/object_images/pot01.jpg","img/object_images/lamp01.jpg","0","0","0","0","0","1","0.972352900000033","0.693222399999968","0.541490500000009","1","1","1","1","1","1","1","1","1"
"260061","img/object_images/lamp01.jpg","img/object_images/brief_case01.jpg",NA,"0","0",NA,"1","0",NA,"0.541490500000009","0.972352900000033",NA,"1","1",NA,"1","1",NA,"1","1",NA
"260061","img/object_images/coloring_pencil02.jpg",NA,"img/object_images/wagon_cart03.jpg","1",NA,"1","0",NA,"1","1.25889339999981",NA,"0.676410899999837","1",NA,"1","1",NA,"1","1",NA,"1"
"260061","img/object_images/wagon_cart03.jpg","img/object_images/coloring_pencil02.jpg","img/object_images/audio_port01.jpg","1","1","1","1","0","1","0.676410899999837","1.25889339999981","0.561551499999723","1","1","1","1","1","1","1","1","1"
"260061","img/object_images/audio_port01.jpg","img/object_images/wagon_cart03.jpg","img/object_images/hot_air_balloon02.jpg","1","1","1","1","1","0","0.561551499999723","0.676410899999837","0.451842600000191","1","1","1","1","1","1","1","1","1"
"260061","img/object_images/hot_air_balloon02.jpg","img/object_images/audio_port01.jpg","img/object_images/perfume02.jpg","1","1","0","0","1","0","0.451842600000191","0.561551499999723","0.860600600000225","1","1","1","1","1","1","1","1","1"
"260061","img/object_images/perfume02.jpg","img/object_images/hot_air_balloon02.jpg","img/object_images/knit01.jpg","0","1","0","0","0","0","0.860600600000225","0.451842600000191","0.488812699999698","1","1","1","1","1","1","1","1","1"
"260061","img/object_images/knit01.jpg","img/object_images/perfume02.jpg","img/object_images/camera_lens01.jpg","0","0","0","0","0","1","0.488812699999698","0.860600600000225","0.760793400000011","1","1","1","1","1","1","1","1","1"
"260061","img/object_images/camera_lens01.jpg","img/object_images/knit01.jpg","img/object_images/hat06.jpg","0","0","0","1","0","0","0.760793400000011","0.488812699999698","0.532796199999893","1","1","1","1","1","1","1","1","1"
"260061","img/object_images/hat06.jpg","img/object_images/camera_lens01.jpg","img/object_images/bean_bag02.jpg","0","0","1","0","1","1","0.532796199999893","0.760793400000011","0.544870899999978","1","1","1","1","1","1","1","1","1"
"260061","img/object_images/bean_bag02.jpg","img/object_images/hat06.jpg","img/object_images/tool19.jpg","1","0","0","1","0","1","0.544870899999978","0.532796199999893","1.04279339999971","1","1","1","1","1","1","1","1","1"
"260061","img/object_images/tool19.jpg","img/object_images/bean_bag02.jpg","img/object_images/cellphone03.jpg","0","1","0","1","1","0","1.04279339999971","0.544870899999978","0.718600899999956","1","1","1","1","1","1","1","1","1"
"260061","img/object_images/cellphone03.jpg","img/object_images/tool19.jpg","img/object_images/bottle02.jpg","0","0","0","0","1","1","0.718600899999956","1.04279339999971","1.33437469999967","1","1","1","1","1","1","1","1","1"
"260061","img/object_images/bottle02.jpg","img/object_images/cellphone03.jpg","img/object_images/bottle09.jpg","0","0","0","1","0","0","1.33437469999967","0.718600899999956","0.781562899999926","1","1","1","1","1","1","1","1","1"
"260061","img/object_images/bottle09.jpg","img/object_images/bottle02.jpg","img/object_images/boat02.jpg","0","0","0","0","1","1","0.781562899999926","1.33437469999967","0.591459799999711","1","1","1","1","1","1","1","1","1"
"260061","img/object_images/boat02.jpg","img/object_images/bottle09.jpg","img/object_images/dog_leash01.jpg","0","0","1","1","0","0","0.591459799999711","0.781562899999926","0.383473099999946","1","1","1","1","1","1","1","1","1"
"260061","img/object_images/dog_leash01.jpg","img/object_images/boat02.jpg","img/object_images/flask01.jpg","1","0","0","0","1","0","0.383473099999946","0.591459799999711","0.637706299999763","1","1","1","1","1","1","1","1","1"
"260061","img/object_images/flask01.jpg","img/object_images/dog_leash01.jpg","img/object_images/toilet_paper_dispenser01.jpg","0","1","0","0","0","1","0.637706299999763","0.383473099999946","0.53100500000005","1","1","1","1","1","1","1","1","1"
"260061","img/object_images/toilet_paper_dispenser01.jpg","img/object_images/flask01.jpg","img/object_images/pen05.jpg","0","0","0","1","0","0","0.53100500000005","0.637706299999763","0.69255569999973","1","1","1","1","1","1","1","1","1"
"260061","img/object_images/pen05.jpg","img/object_images/toilet_paper_dispenser01.jpg","img/object_images/scoreboard01.jpg","0","0","0","0","1","1","0.69255569999973","0.53100500000005","0.786080199999788","1","1","1","1","1","1","1","1","1"
"260061","img/object_images/scoreboard01.jpg","img/object_images/pen05.jpg","img/object_images/bottle10.jpg","0","0","0","1","0","1","0.786080199999788","0.69255569999973","0.813126199999942","1","1","1","1","1","1","1","1","1"
"260061","img/object_images/bottle10.jpg","img/object_images/scoreboard01.jpg","img/object_images/piggy_bank01.jpg","0","0","0","1","1","1","0.813126199999942","0.786080199999788","0.63707109999973","1","1","1","1","1","1","1","1","1"
"260061","img/object_images/piggy_bank01.jpg","img/object_images/bottle10.jpg","img/object_images/boat_toy10.jpg","0","0","1","1","1","0","0.63707109999973","0.813126199999942","0.742748699999765","1","1","1","1","1","1","1","1","1"
"260061","img/object_images/boat_toy10.jpg","img/object_images/piggy_bank01.jpg","img/object_images/chair03.jpg","1","0","0","0","1","0","0.742748699999765","0.63707109999973","0.700597700000117","1","1","1","1","1","1","1","1","1"
"260061","img/object_images/chair03.jpg","img/object_images/boat_toy10.jpg","img/object_images/water_scooter01.jpg","0","1","0","0","0","1","0.700597700000117","0.742748699999765","0.761355299999877","1","1","1","1","1","1","1","1","1"
"260061","img/object_images/water_scooter01.jpg","img/object_images/chair03.jpg","img/object_images/purse04.jpg","0","0","0","1","0","1","0.761355299999877","0.700597700000117","0.523532800000112","1","1","1","1","1","1","1","1","1"
"260061","img/object_images/purse04.jpg","img/object_images/water_scooter01.jpg","img/object_images/shoes07.jpg","0","0","0","1","1","0","0.523532800000112","0.761355299999877","0.532041900000195","1","1","1","1","1","1","1","1","1"
"260061","img/object_images/shoes07.jpg","img/object_images/purse04.jpg","img/object_images/WoodBox01.jpg","0","0","0","0","1","0","0.532041900000195","0.523532800000112","0.538695100000268","1","1","1","1","1","1","1","1","1"
"260061","img/object_images/WoodBox01.jpg","img/object_images/shoes07.jpg","img/object_images/helmet04.jpg","0","0","0","0","0","1","0.538695100000268","0.532041900000195","1.06583949999981","1","1","1","1","1","1","1","1","1"
"260061","img/object_images/helmet04.jpg","img/object_images/WoodBox01.jpg","img/object_images/toaster01.jpg","0","0","0","1","0","1","1.06583949999981","0.538695100000268","0.520859599999994","1","1","1","1","1","1","1","1","1"
"260061","img/object_images/toaster01.jpg","img/object_images/helmet04.jpg","img/object_images/fan02.jpg","0","0","0","1","1","0","0.520859599999994","1.06583949999981","0.697590399999854","1","1","1","1","1","1","1","1","1"
"260061","img/object_images/fan02.jpg","img/object_images/toaster01.jpg","img/object_images/tie02.jpg","0","0","0","0","1","0","0.697590399999854","0.520859599999994","1.39154429999985","1","1","1","1","1","1","1","1","1"
"260061","img/object_images/tie02.jpg","img/object_images/fan02.jpg","img/object_images/bicycle01.jpg","0","0","0","0","0","1","1.39154429999985","0.697590399999854","0.50297599999999","1","1","1","1","1","1","1","1","1"
"260061","img/object_images/bicycle01.jpg","img/object_images/tie02.jpg",NA,"0","0",NA,"1","0",NA,"0.50297599999999","1.39154429999985",NA,"1","1",NA,"1","1",NA,"1","1",NA
"260061","img/object_images/gift_box04.jpg",NA,"img/object_images/TrashCan02.jpg","1",NA,"1","0",NA,"1","1.45827030000032",NA,"0.641551299999946","1",NA,"1","1",NA,"1","1",NA,"1"
"260061","img/object_images/TrashCan02.jpg","img/object_images/gift_box04.jpg","img/object_images/ring03.jpg","1","1","1","1","0","1","0.641551299999946","1.45827030000032","0.57699899999966","1","1","1","1","1","1","1","1","1"
"260061","img/object_images/ring03.jpg","img/object_images/TrashCan02.jpg","img/object_images/hair_clips01.jpg","1","1","0","1","1","1","0.57699899999966","0.641551299999946","0.503748200000018","1","1","1","1","1","1","1","1","1"
"260061","img/object_images/hair_clips01.jpg","img/object_images/ring03.jpg","img/object_images/fire_extinguisher01.jpg","0","1","0","1","1","0","0.503748200000018","0.57699899999966","0.514082200000075","1","1","1","1","1","1","1","1","1"
"260061","img/object_images/fire_extinguisher01.jpg","img/object_images/hair_clips01.jpg","img/object_images/glasses06.jpg","0","0","0","0","1","1","0.514082200000075","0.503748200000018","0.544971900000064","1","1","1","1","1","1","1","1","1"
"260061","img/object_images/glasses06.jpg","img/object_images/fire_extinguisher01.jpg","img/object_images/blanket01.jpg","0","0","0","1","0","1","0.544971900000064","0.514082200000075","0.529077899999947","1","1","1","1","1","1","1","1","1"
"260061","img/object_images/blanket01.jpg","img/object_images/glasses06.jpg","img/object_images/handcuffs01.jpg","0","0","0","1","1","0","0.529077899999947","0.544971900000064","0.58090530000004","1","1","1","1","1","1","1","1","1"
"260061","img/object_images/handcuffs01.jpg","img/object_images/blanket01.jpg","img/object_images/yo_yo01.jpg","0","0","0","0","1","0","0.58090530000004","0.529077899999947","0.913906600000018","1","1","1","1","1","1","1","1","1"
"260061","img/object_images/yo_yo01.jpg","img/object_images/handcuffs01.jpg","img/object_images/Pottery01.jpg","0","0","0","0","0","0","0.913906600000018","0.58090530000004","1.28246090000016","1","1","1","1","1","1","1","1","1"
"260061","img/object_images/Pottery01.jpg","img/object_images/yo_yo01.jpg","img/object_images/tool07.jpg","0","0","0","0","0","0","1.28246090000016","0.913906600000018","1.23005570000009","1","1","1","1","1","1","1","1","1"
"260061","img/object_images/tool07.jpg","img/object_images/Pottery01.jpg","img/object_images/Traffic Sign 01.jpg","0","0","0","0","0","0","1.23005570000009","1.28246090000016","0.776164800000288","1","1","1","1","1","1","1","1","1"
"260061","img/object_images/Traffic Sign 01.jpg","img/object_images/tool07.jpg","img/object_images/projector01.jpg","0","0","0","0","0","0","0.776164800000288","1.23005570000009","0.632366000000047","1","1","1","1","1","1","1","1","1"
"260061","img/object_images/projector01.jpg","img/object_images/Traffic Sign 01.jpg","img/object_images/colander01.jpg","0","0","0","0","0","0","0.632366000000047","0.776164800000288","0.989551999999549","1","1","1","1","1","1","1","1","1"
"260061","img/object_images/colander01.jpg","img/object_images/projector01.jpg","img/object_images/purse01.jpg","0","0","0","0","0","1","0.989551999999549","0.632366000000047","0.689025999999558","1","1","1","1","1","1","1","1","1"
"260061","img/object_images/purse01.jpg","img/object_images/colander01.jpg","img/object_images/Sprayer01.jpg","0","0","0","1","0","0","0.689025999999558","0.989551999999549","0.605283600000348","1","1","1","1","1","1","1","1","1"
"260061","img/object_images/Sprayer01.jpg","img/object_images/purse01.jpg","img/object_images/bicycle_lock01.jpg","0","0","0","0","1","0","0.605283600000348","0.689025999999558","0.689973399999417","1","1","1","1","1","1","1","1","1"
"260061","img/object_images/bicycle_lock01.jpg","img/object_images/Sprayer01.jpg","img/object_images/exfoliater_brush01.jpg","0","0","0","0","0","0","0.689973399999417","0.605283600000348","0.574598799999876","1","1","1","1","1","1","1","1","1"
"260061","img/object_images/exfoliater_brush01.jpg","img/object_images/bicycle_lock01.jpg","img/object_images/basket02.jpg","0","0","0","0","0","0","0.574598799999876","0.689973399999417","0.647848199999771","1","1","1","1","1","1","1","1","1"
"260061","img/object_images/basket02.jpg","img/object_images/exfoliater_brush01.jpg","img/object_images/tool08.jpg","0","0","0","0","0","0","0.647848199999771","0.574598799999876","0.689343900000495","1","1","1","1","1","1","1","1","1"
"260061","img/object_images/tool08.jpg","img/object_images/basket02.jpg","img/object_images/book01.jpg","0","0","0","0","0","1","0.689343900000495","0.647848199999771","0.581632699999773","1","1","1","1","1","1","1","1","1"
"260061","img/object_images/book01.jpg","img/object_images/tool08.jpg","img/object_images/hole_puncher01.jpg","0","0","0","1","0","1","0.581632699999773","0.689343900000495","0.585539499999868","1","1","1","1","1","1","1","1","1"
"260061","img/object_images/hole_puncher01.jpg","img/object_images/book01.jpg","img/object_images/tray01.jpg","0","0","0","1","1","1","0.585539499999868","0.581632699999773","0.947409199999584","1","1","1","1","1","1","1","1","1"
"260061","img/object_images/tray01.jpg","img/object_images/hole_puncher01.jpg","img/object_images/cellphone02.jpg","0","0","0","1","1","1","0.947409199999584","0.585539499999868","0.546412000000146","1","1","1","1","1","1","1","1","1"
"260061","img/object_images/cellphone02.jpg","img/object_images/tray01.jpg","img/object_images/pan01.jpg","0","0","0","1","1","1","0.546412000000146","0.947409199999584","0.879697100000158","1","1","1","1","1","1","1","1","1"
"260061","img/object_images/pan01.jpg","img/object_images/cellphone02.jpg","img/object_images/faucet01.jpg","0","0","0","1","1","0","0.879697100000158","0.546412000000146","0.530054299999847","1","1","1","1","1","1","1","1","1"
"260061","img/object_images/faucet01.jpg","img/object_images/pan01.jpg","img/object_images/glasses07.jpg","0","0","0","0","1","1","0.530054299999847","0.879697100000158","0.663169300000391","1","1","1","1","1","1","1","1","1"
"260061","img/object_images/glasses07.jpg","img/object_images/faucet01.jpg","img/object_images/cup03.jpg","0","0","0","1","0","1","0.663169300000391","0.530054299999847","0.602793699999893","1","1","1","1","1","1","1","1","1"
"260061","img/object_images/cup03.jpg","img/object_images/glasses07.jpg","img/object_images/lighter01.jpg","0","0","0","1","1","1","0.602793699999893","0.663169300000391","0.880831699999817","1","1","1","1","1","1","1","1","1"
"260061","img/object_images/lighter01.jpg","img/object_images/cup03.jpg","img/object_images/jewelry09.jpg","0","0","0","1","1","1","0.880831699999817","0.602793699999893","0.680131900000106","1","1","1","1","1","1","1","1","1"
"260061","img/object_images/jewelry09.jpg","img/object_images/lighter01.jpg","img/object_images/speaker01.jpg","0","0","0","1","1","1","0.680131900000106","0.880831699999817","0.742783599999711","1","1","1","1","1","1","1","1","1"
"260061","img/object_images/speaker01.jpg","img/object_images/jewelry09.jpg","img/object_images/Kitchen_Towel.jpg","0","0","0","1","1","0","0.742783599999711","0.680131900000106","0.583625400000074","1","1","1","1","1","1","1","1","1"
"260061","img/object_images/Kitchen_Towel.jpg","img/object_images/speaker01.jpg",NA,"0","0",NA,"0","1",NA,"0.583625400000074","0.742783599999711",NA,"1","1",NA,"1","1",NA,"1","1",NA
