"participant_id","current_trial_object","pre_trial_object","post_trial_object","current_trial_accuracy","pre_trial_accuracy","post_trial_accuracy","current_trial_congruency","pre_trial_congruency","post_trial_congruency","current_trial_rt","pre_trial_rt","post_trial_rt","current_trial_responded","pre_trial_responded","post_trial_responded","current_trial_legitResponse","pre_trial_legitResponse","post_trial_legitResponse","current_trial_resp_nums","pre_trial_resp_nums","post_trial_resp_nums"
"260020","img/object_images/toilet_paper_dispenser01.jpg",NA,"img/object_images/camera_lens01.jpg","1",NA,"1","1",NA,"1","0.330629800002498",NA,"0.513559300001361","1",NA,"1","1",NA,"1","1",NA,"1"
"260020","img/object_images/camera_lens01.jpg","img/object_images/toilet_paper_dispenser01.jpg","img/object_images/bicycle01.jpg","1","1","1","1","1","1","0.513559300001361","0.330629800002498","0.427369500001078","1","1","1","1","1","1","1","1","1"
"260020","img/object_images/bicycle01.jpg","img/object_images/camera_lens01.jpg","img/object_images/bottle10.jpg","1","1","1","1","1","1","0.427369500001078","0.513559300001361","0.485668199995416","1","1","1","1","1","1","1","1","1"
"260020","img/object_images/bottle10.jpg","img/object_images/bicycle01.jpg","img/object_images/boat_toy10.jpg","1","1","1","1","1","0","0.485668199995416","0.427369500001078","0.600968599996122","1","1","1","1","1","1","1","1","1"
"260020","img/object_images/boat_toy10.jpg","img/object_images/bottle10.jpg","img/object_images/bottle09.jpg","1","1","1","0","1","0","0.600968599996122","0.485668199995416","0.573427600000286","1","1","1","1","1","1","1","1","1"
"260020","img/object_images/bottle09.jpg","img/object_images/boat_toy10.jpg","img/object_images/knit01.jpg","1","1","1","0","0","0","0.573427600000286","0.600968599996122","0.555618900005356","1","1","1","1","1","1","1","1","1"
"260020","img/object_images/knit01.jpg","img/object_images/bottle09.jpg","img/object_images/purse04.jpg","1","1","1","0","0","1","0.555618900005356","0.573427600000286","0.380165399998077","1","1","1","1","1","1","1","1","1"
"260020","img/object_images/purse04.jpg","img/object_images/knit01.jpg","img/object_images/WoodBox01.jpg","1","1","1","1","0","0","0.380165399998077","0.555618900005356","0.84501110000565","1","1","1","1","1","1","1","1","1"
"260020","img/object_images/WoodBox01.jpg","img/object_images/purse04.jpg","img/object_images/wagon_cart03.jpg","1","1","1","0","1","1","0.84501110000565","0.380165399998077","0.448263700003736","1","1","1","1","1","1","1","1","1"
"260020","img/object_images/wagon_cart03.jpg","img/object_images/WoodBox01.jpg","img/object_images/helmet04.jpg","1","1","1","1","0","1","0.448263700003736","0.84501110000565","0.745988800001214","1","1","1","1","1","1","1","1","1"
"260020","img/object_images/helmet04.jpg","img/object_images/wagon_cart03.jpg","img/object_images/bottle02.jpg","1","1","1","1","1","1","0.745988800001214","0.448263700003736","0.477803499998117","1","1","1","1","1","1","1","1","1"
"260020","img/object_images/bottle02.jpg","img/object_images/helmet04.jpg","img/object_images/cellphone03.jpg","1","1","0","1","1","0","0.477803499998117","0.745988800001214","0.354986900005315","1","1","1","1","1","1","1","1","1"
"260020","img/object_images/cellphone03.jpg","img/object_images/bottle02.jpg","img/object_images/hat06.jpg","0","1","1","0","1","0","0.354986900005315","0.477803499998117","0.761399499999243","1","1","1","1","1","1","1","1","1"
"260020","img/object_images/hat06.jpg","img/object_images/cellphone03.jpg","img/object_images/boat02.jpg","1","0","1","0","0","1","0.761399499999243","0.354986900005315","0.616683099993679","1","1","1","1","1","1","1","1","1"
"260020","img/object_images/boat02.jpg","img/object_images/hat06.jpg","img/object_images/flask01.jpg","1","1","0","1","0","0","0.616683099993679","0.761399499999243","0.755674299995007","1","1","1","1","1","1","1","1","1"
"260020","img/object_images/flask01.jpg","img/object_images/boat02.jpg","img/object_images/fan02.jpg","0","1","1","0","1","0","0.755674299995007","0.616683099993679","0.598619200005487","1","1","1","1","1","1","1","1","1"
"260020","img/object_images/fan02.jpg","img/object_images/flask01.jpg","img/object_images/hot_air_balloon02.jpg","1","0","1","0","0","0","0.598619200005487","0.755674299995007","0.605475500000466","1","1","1","1","1","1","1","1","1"
"260020","img/object_images/hot_air_balloon02.jpg","img/object_images/fan02.jpg","img/object_images/dog_leash01.jpg","1","1","1","0","0","0","0.605475500000466","0.598619200005487","0.500646200001938","1","1","1","1","1","1","1","1","1"
"260020","img/object_images/dog_leash01.jpg","img/object_images/hot_air_balloon02.jpg","img/object_images/piggy_bank01.jpg","1","1","1","0","0","1","0.500646200001938","0.605475500000466","0.553095800001756","1","1","1","1","1","1","1","1","1"
"260020","img/object_images/piggy_bank01.jpg","img/object_images/dog_leash01.jpg","img/object_images/pen05.jpg","1","1","1","1","0","0","0.553095800001756","0.500646200001938","0.637290099999518","1","1","1","1","1","1","1","1","1"
"260020","img/object_images/pen05.jpg","img/object_images/piggy_bank01.jpg","img/object_images/bean_bag02.jpg","1","1","1","0","1","1","0.637290099999518","0.553095800001756","0.573430099997495","1","1","1","1","1","1","1","1","1"
"260020","img/object_images/bean_bag02.jpg","img/object_images/pen05.jpg","img/object_images/shoes07.jpg","1","1","1","1","0","0","0.573430099997495","0.637290099999518","0.610718700001598","1","1","1","1","1","1","1","1","1"
"260020","img/object_images/shoes07.jpg","img/object_images/bean_bag02.jpg","img/object_images/tie02.jpg","1","1","1","0","1","0","0.610718700001598","0.573430099997495","0.602254199999152","1","1","1","1","1","1","1","1","1"
"260020","img/object_images/tie02.jpg","img/object_images/shoes07.jpg","img/object_images/chair03.jpg","1","1","1","0","0","0","0.602254199999152","0.610718700001598","0.516837300005136","1","1","1","1","1","1","1","1","1"
"260020","img/object_images/chair03.jpg","img/object_images/tie02.jpg","img/object_images/perfume02.jpg","1","1","1","0","0","0","0.516837300005136","0.602254199999152","0.580541900002572","1","1","1","1","1","1","1","1","1"
"260020","img/object_images/perfume02.jpg","img/object_images/chair03.jpg","img/object_images/toaster01.jpg","1","1","1","0","0","1","0.580541900002572","0.516837300005136","0.450961299997289","1","1","1","1","1","1","1","1","1"
"260020","img/object_images/toaster01.jpg","img/object_images/perfume02.jpg","img/object_images/audio_port01.jpg","1","1","1","1","0","1","0.450961299997289","0.580541900002572","0.729204900002514","1","1","1","1","1","1","1","1","1"
"260020","img/object_images/audio_port01.jpg","img/object_images/toaster01.jpg","img/object_images/water_scooter01.jpg","1","1","1","1","1","1","0.729204900002514","0.450961299997289","0.514372099998582","1","1","1","1","1","1","1","1","1"
"260020","img/object_images/water_scooter01.jpg","img/object_images/audio_port01.jpg","img/object_images/tool19.jpg","1","1","1","1","1","1","0.514372099998582","0.729204900002514","0.65888360000099","1","1","1","1","1","1","1","1","1"
"260020","img/object_images/tool19.jpg","img/object_images/water_scooter01.jpg","img/object_images/scoreboard01.jpg","1","1","1","1","1","1","0.65888360000099","0.514372099998582","0.449090000001888","1","1","1","1","1","1","1","1","1"
"260020","img/object_images/scoreboard01.jpg","img/object_images/tool19.jpg","img/object_images/coloring_pencil02.jpg","1","1","1","1","1","0","0.449090000001888","0.65888360000099","0.485658199999307","1","1","1","1","1","1","1","1","1"
"260020","img/object_images/coloring_pencil02.jpg","img/object_images/scoreboard01.jpg",NA,"1","1",NA,"0","1",NA,"0.485658199999307","0.449090000001888",NA,"1","1",NA,"1","1",NA,"1","1",NA
"260020","img/object_images/towel02.jpg",NA,"img/object_images/ornament01.jpg","1",NA,"1","1",NA,"1","0.292857199994614",NA,"0.41488599999866","1",NA,"1","1",NA,"1","1",NA,"1"
"260020","img/object_images/ornament01.jpg","img/object_images/towel02.jpg","img/object_images/MetalWire01.jpg","1","1","1","1","1","0","0.41488599999866","0.292857199994614","0.493148699999438","1","1","1","1","1","1","1","1","1"
"260020","img/object_images/MetalWire01.jpg","img/object_images/ornament01.jpg","img/object_images/sink01.jpg","1","1","1","0","1","0","0.493148699999438","0.41488599999866","0.519704799997271","1","1","1","1","1","1","1","1","1"
"260020","img/object_images/sink01.jpg","img/object_images/MetalWire01.jpg","img/object_images/crown02.jpg","1","1","1","0","0","1","0.519704799997271","0.493148699999438","0.368981900006474","1","1","1","1","1","1","1","1","1"
"260020","img/object_images/crown02.jpg","img/object_images/sink01.jpg","img/object_images/acoustic_capo01.jpg","1","1","1","1","0","1","0.368981900006474","0.519704799997271","0.360847900003137","1","1","1","1","1","1","1","1","1"
"260020","img/object_images/acoustic_capo01.jpg","img/object_images/crown02.jpg","img/object_images/dart01.jpg","1","1","0","1","1","0","0.360847900003137","0.368981900006474","0.3731925999964","1","1","1","1","1","1","1","1","1"
"260020","img/object_images/dart01.jpg","img/object_images/acoustic_capo01.jpg","img/object_images/Tin01.jpg","0","1","1","0","1","1","0.3731925999964","0.360847900003137","0.584576900000684","1","1","1","1","1","1","1","1","1"
"260020","img/object_images/Tin01.jpg","img/object_images/dart01.jpg","img/object_images/watch01.jpg","1","0","0","1","0","0","0.584576900000684","0.3731925999964","0.671019500005059","1","1","1","1","1","1","1","1","1"
"260020","img/object_images/watch01.jpg","img/object_images/Tin01.jpg","img/object_images/video_game07.jpg","0","1","1","0","1","1","0.671019500005059","0.584576900000684","0.484158100000059","1","1","1","1","1","1","1","1","1"
"260020","img/object_images/video_game07.jpg","img/object_images/watch01.jpg","img/object_images/bow01.jpg","1","0","1","1","0","1","0.484158100000059","0.671019500005059","0.675826300001063","1","1","1","1","1","1","1","1","1"
"260020","img/object_images/bow01.jpg","img/object_images/video_game07.jpg","img/object_images/Vacuum01.jpg","1","1","1","1","1","0","0.675826300001063","0.484158100000059","0.524474999998347","1","1","1","1","1","1","1","1","1"
"260020","img/object_images/Vacuum01.jpg","img/object_images/bow01.jpg","img/object_images/frisbee01.jpg","1","1","1","0","1","1","0.524474999998347","0.675826300001063","0.723500000000058","1","1","1","1","1","1","1","1","1"
"260020","img/object_images/frisbee01.jpg","img/object_images/Vacuum01.jpg","img/object_images/tool09.jpg","1","1","1","1","0","1","0.723500000000058","0.524474999998347","0.458771800003888","1","1","1","1","1","1","1","1","1"
"260020","img/object_images/tool09.jpg","img/object_images/frisbee01.jpg","img/object_images/outlet01.jpg","1","1","1","1","1","0","0.458771800003888","0.723500000000058","0.58490310000343","1","1","1","1","1","1","1","1","1"
"260020","img/object_images/outlet01.jpg","img/object_images/tool09.jpg","img/object_images/bottle05.jpg","1","1","1","0","1","0","0.58490310000343","0.458771800003888","0.56128919999901","1","1","1","1","1","1","1","1","1"
"260020","img/object_images/bottle05.jpg","img/object_images/outlet01.jpg","img/object_images/mirror01.jpg","1","1","1","0","0","1","0.56128919999901","0.58490310000343","0.727619400000549","1","1","1","1","1","1","1","1","1"
"260020","img/object_images/mirror01.jpg","img/object_images/bottle05.jpg","img/object_images/Ring02.jpg","1","1","0","1","0","0","0.727619400000549","0.56128919999901","0.350843299995176","1","1","1","1","1","1","1","1","1"
"260020","img/object_images/Ring02.jpg","img/object_images/mirror01.jpg","img/object_images/toy03.jpg","0","1","1","0","1","1","0.350843299995176","0.727619400000549","0.447456699999748","1","1","1","1","1","1","1","1","1"
"260020","img/object_images/toy03.jpg","img/object_images/Ring02.jpg","img/object_images/fridge03.jpg","1","0","0","1","0","0","0.447456699999748","0.350843299995176","0.779165499996452","1","1","1","1","1","1","1","1","1"
"260020","img/object_images/fridge03.jpg","img/object_images/toy03.jpg","img/object_images/jewel04.jpg","0","1","1","0","1","0","0.779165499996452","0.447456699999748","0.947275200000149","1","1","1","1","1","1","1","1","1"
"260020","img/object_images/jewel04.jpg","img/object_images/fridge03.jpg","img/object_images/bird_house02.jpg","1","0","1","0","0","1","0.947275200000149","0.779165499996452","0.772633599997789","1","1","1","1","1","1","1","1","1"
"260020","img/object_images/bird_house02.jpg","img/object_images/jewel04.jpg","img/object_images/pot01 (1).jpg","1","1","0","1","0","0","0.772633599997789","0.947275200000149","0.651051399996504","1","1","1","1","1","1","1","1","1"
"260020","img/object_images/pot01 (1).jpg","img/object_images/bird_house02.jpg","img/object_images/gauze01.jpg","0","1","1","0","1","0","0.651051399996504","0.772633599997789","0.746232599994983","1","1","1","1","1","1","1","1","1"
"260020","img/object_images/gauze01.jpg","img/object_images/pot01 (1).jpg","img/object_images/guitar02.jpg","1","0","1","0","0","0","0.746232599994983","0.651051399996504","0.614936800004216","1","1","1","1","1","1","1","1","1"
"260020","img/object_images/guitar02.jpg","img/object_images/gauze01.jpg","img/object_images/shovel03.jpg","1","1","1","0","0","1","0.614936800004216","0.746232599994983","0.482586500002071","1","1","1","1","1","1","1","1","1"
"260020","img/object_images/shovel03.jpg","img/object_images/guitar02.jpg","img/object_images/stapler.jpg","1","1","1","1","0","1","0.482586500002071","0.614936800004216","0.585706000005302","1","1","1","1","1","1","1","1","1"
"260020","img/object_images/stapler.jpg","img/object_images/shovel03.jpg","img/object_images/Stool01.jpg","1","1","1","1","1","0","0.585706000005302","0.482586500002071","0.557241900001827","1","1","1","1","1","1","1","1","1"
"260020","img/object_images/Stool01.jpg","img/object_images/stapler.jpg","img/object_images/judge_gavel01.jpg","1","1","1","0","1","1","0.557241900001827","0.585706000005302","0.376802300001145","1","1","1","1","1","1","1","1","1"
"260020","img/object_images/judge_gavel01.jpg","img/object_images/Stool01.jpg","img/object_images/helmet01.jpg","1","1","1","1","0","0","0.376802300001145","0.557241900001827","0.529825800003891","1","1","1","1","1","1","1","1","1"
"260020","img/object_images/helmet01.jpg","img/object_images/judge_gavel01.jpg","img/object_images/toy04.jpg","1","1","1","0","1","0","0.529825800003891","0.376802300001145","0.560742000001483","1","1","1","1","1","1","1","1","1"
"260020","img/object_images/toy04.jpg","img/object_images/helmet01.jpg","img/object_images/tool02.jpg","1","1","1","0","0","1","0.560742000001483","0.529825800003891","0.467491600000358","1","1","1","1","1","1","1","1","1"
"260020","img/object_images/tool02.jpg","img/object_images/toy04.jpg",NA,"1","1",NA,"1","0",NA,"0.467491600000358","0.560742000001483",NA,"1","1",NA,"1","1",NA,"1","1",NA
"260020","img/object_images/MeasuringCup01.jpg",NA,"img/object_images/satellite01.jpg","0",NA,"1","1",NA,"0","0.667102500003239",NA,"0.574688600005175","1",NA,"1","1",NA,"1","1",NA,"1"
"260020","img/object_images/satellite01.jpg","img/object_images/MeasuringCup01.jpg","img/object_images/cutting_board01.jpg","1","0","1","0","1","1","0.574688600005175","0.667102500003239","0.516612500003248","1","1","1","1","1","1","1","1","1"
"260020","img/object_images/cutting_board01.jpg","img/object_images/satellite01.jpg","img/object_images/tv01.jpg","1","1","1","1","0","0","0.516612500003248","0.574688600005175","0.549904200001038","1","1","1","1","1","1","1","1","1"
"260020","img/object_images/tv01.jpg","img/object_images/cutting_board01.jpg","img/object_images/fan05.jpg","1","1","1","0","1","0","0.549904200001038","0.516612500003248","0.510570800004643","1","1","1","1","1","1","1","1","1"
"260020","img/object_images/fan05.jpg","img/object_images/tv01.jpg","img/object_images/toaster02.jpg","1","1","1","0","0","1","0.510570800004643","0.549904200001038","0.47335000000021","1","1","1","1","1","1","1","1","1"
"260020","img/object_images/toaster02.jpg","img/object_images/fan05.jpg","img/object_images/car04.jpg","1","1","1","1","0","0","0.47335000000021","0.510570800004643","0.518882600001234","1","1","1","1","1","1","1","1","1"
"260020","img/object_images/car04.jpg","img/object_images/toaster02.jpg","img/object_images/belt01.jpg","1","1","1","0","1","0","0.518882600001234","0.47335000000021","0.514793199996348","1","1","1","1","1","1","1","1","1"
"260020","img/object_images/belt01.jpg","img/object_images/car04.jpg","img/object_images/ice_tray03.jpg","1","1","0","0","0","1","0.514793199996348","0.518882600001234","0.702979399997275","1","1","1","1","1","1","1","1","1"
"260020","img/object_images/ice_tray03.jpg","img/object_images/belt01.jpg","img/object_images/hair_brush05.jpg","0","1","1","1","0","1","0.702979399997275","0.514793199996348","0.557011700002477","1","1","1","1","1","1","1","1","1"
"260020","img/object_images/hair_brush05.jpg","img/object_images/ice_tray03.jpg","img/object_images/slinky_toy01.jpg","1","0","1","1","1","1","0.557011700002477","0.702979399997275","0.445852099997865","1","1","1","1","1","1","1","1","1"
"260020","img/object_images/slinky_toy01.jpg","img/object_images/hair_brush05.jpg","img/object_images/lemon_squeezer02.jpg","1","1","1","1","1","1","0.445852099997865","0.557011700002477","0.374285099998815","1","1","1","1","1","1","1","1","1"
"260020","img/object_images/lemon_squeezer02.jpg","img/object_images/slinky_toy01.jpg","img/object_images/jewel01.jpg","1","1","1","1","1","0","0.374285099998815","0.445852099997865","0.743784199999936","1","1","1","1","1","1","1","1","1"
"260020","img/object_images/jewel01.jpg","img/object_images/lemon_squeezer02.jpg","img/object_images/dress03.jpg","1","1","1","0","1","1","0.743784199999936","0.374285099998815","0.524392799998168","1","1","1","1","1","1","1","1","1"
"260020","img/object_images/dress03.jpg","img/object_images/jewel01.jpg","img/object_images/chair04.jpg","1","1","1","1","0","1","0.524392799998168","0.743784199999936","0.446273499997915","1","1","1","1","1","1","1","1","1"
"260020","img/object_images/chair04.jpg","img/object_images/dress03.jpg","img/object_images/ribbon01.jpg","1","1","1","1","1","0","0.446273499997915","0.524392799998168","0.530971599997429","1","1","1","1","1","1","1","1","1"
"260020","img/object_images/ribbon01.jpg","img/object_images/chair04.jpg","img/object_images/mask01.jpg","1","1","1","0","1","0","0.530971599997429","0.446273499997915","0.52990910000517","1","1","1","1","1","1","1","1","1"
"260020","img/object_images/mask01.jpg","img/object_images/ribbon01.jpg","img/object_images/yarn02.jpg","1","1","1","0","0","0","0.52990910000517","0.530971599997429","0.62115829999675","1","1","1","1","1","1","1","1","1"
"260020","img/object_images/yarn02.jpg","img/object_images/mask01.jpg","img/object_images/shoes10.jpg","1","1","1","0","0","0","0.62115829999675","0.52990910000517","0.578963899999508","1","1","1","1","1","1","1","1","1"
"260020","img/object_images/shoes10.jpg","img/object_images/yarn02.jpg","img/object_images/binoculars03.jpg","1","1","1","0","0","1","0.578963899999508","0.62115829999675","0.457456399999501","1","1","1","1","1","1","1","1","1"
"260020","img/object_images/binoculars03.jpg","img/object_images/shoes10.jpg","img/object_images/bag06.jpg","1","1","1","1","0","1","0.457456399999501","0.578963899999508","0.559957000004943","1","1","1","1","1","1","1","1","1"
"260020","img/object_images/bag06.jpg","img/object_images/binoculars03.jpg","img/object_images/shower_head03.jpg","1","1","1","1","1","1","0.559957000004943","0.457456399999501","0.417063299995789","1","1","1","1","1","1","1","1","1"
"260020","img/object_images/shower_head03.jpg","img/object_images/bag06.jpg","img/object_images/screwdriver01.jpg","1","1","1","1","1","0","0.417063299995789","0.559957000004943","0.568197200002032","1","1","1","1","1","1","1","1","1"
"260020","img/object_images/screwdriver01.jpg","img/object_images/shower_head03.jpg","img/object_images/key02.jpg","1","1","1","0","1","1","0.568197200002032","0.417063299995789","0.446425399997679","1","1","1","1","1","1","1","1","1"
"260020","img/object_images/key02.jpg","img/object_images/screwdriver01.jpg","img/object_images/cards01.jpg","1","1","1","1","0","0","0.446425399997679","0.568197200002032","0.546372999997402","1","1","1","1","1","1","1","1","1"
"260020","img/object_images/cards01.jpg","img/object_images/key02.jpg","img/object_images/ladle02.jpg","1","1","1","0","1","0","0.546372999997402","0.446425399997679","0.527550200000405","1","1","1","1","1","1","1","1","1"
"260020","img/object_images/ladle02.jpg","img/object_images/cards01.jpg","img/object_images/rock03.jpg","1","1","1","0","0","0","0.527550200000405","0.546372999997402","0.530516099999659","1","1","1","1","1","1","1","1","1"
"260020","img/object_images/rock03.jpg","img/object_images/ladle02.jpg","img/object_images/tool11.jpg","1","1","1","0","0","1","0.530516099999659","0.527550200000405","0.428173200001766","1","1","1","1","1","1","1","1","1"
"260020","img/object_images/tool11.jpg","img/object_images/rock03.jpg","img/object_images/razor01.jpg","1","1","1","1","0","0","0.428173200001766","0.530516099999659","0.540611900003569","1","1","1","1","1","1","1","1","1"
"260020","img/object_images/razor01.jpg","img/object_images/tool11.jpg","img/object_images/jewelry07.jpg","1","1","1","0","1","1","0.540611900003569","0.428173200001766","0.449922400002834","1","1","1","1","1","1","1","1","1"
"260020","img/object_images/jewelry07.jpg","img/object_images/razor01.jpg","img/object_images/car03.jpg","1","1","1","1","0","0","0.449922400002834","0.540611900003569","0.588183100000606","1","1","1","1","1","1","1","1","1"
"260020","img/object_images/car03.jpg","img/object_images/jewelry07.jpg","img/object_images/WitchHat02.jpg","1","1","1","0","1","1","0.588183100000606","0.449922400002834","0.418715499996324","1","1","1","1","1","1","1","1","1"
"260020","img/object_images/WitchHat02.jpg","img/object_images/car03.jpg",NA,"1","1",NA,"1","0",NA,"0.418715499996324","0.588183100000606",NA,"1","1",NA,"1","1",NA,"1","1",NA
"260020","img/object_images/laptop03.jpg",NA,"img/object_images/combs01.jpg","1",NA,"0","1",NA,"1","0.372623499999463",NA,"0.449527900003886","1",NA,"1","1",NA,"1","1",NA,"2"
"260020","img/object_images/combs01.jpg","img/object_images/laptop03.jpg","img/object_images/spatula02.jpg","0","1","1","1","1","1","0.449527900003886","0.372623499999463","0.431520999998611","1","1","1","1","1","1","2","1","1"
"260020","img/object_images/spatula02.jpg","img/object_images/combs01.jpg","img/object_images/calculator01.jpg","1","0","1","1","1","1","0.431520999998611","0.449527900003886","0.31711190000351","1","1","1","1","1","1","1","2","1"
"260020","img/object_images/calculator01.jpg","img/object_images/spatula02.jpg","img/object_images/fan04.jpg","1","1","1","1","1","0","0.31711190000351","0.431520999998611","0.502625199995236","1","1","1","1","1","1","1","1","1"
"260020","img/object_images/fan04.jpg","img/object_images/calculator01.jpg","img/object_images/Vest02.jpg","1","1","1","0","1","0","0.502625199995236","0.31711190000351","0.41313899999659","1","1","1","1","1","1","1","1","1"
"260020","img/object_images/Vest02.jpg","img/object_images/fan04.jpg","img/object_images/microphone03.jpg","1","1","1","0","0","1","0.41313899999659","0.502625199995236","0.339059500001895","1","1","1","1","1","1","1","1","1"
"260020","img/object_images/microphone03.jpg","img/object_images/Vest02.jpg","img/object_images/towels01.jpg","1","1","0","1","0","0","0.339059500001895","0.41313899999659","0.229649699998845","1","1","1","1","1","1","1","1","1"
"260020","img/object_images/towels01.jpg","img/object_images/microphone03.jpg","img/object_images/chess_piece01.jpg","0","1","1","0","1","0","0.229649699998845","0.339059500001895","0.397662699993816","1","1","1","1","1","1","1","1","1"
"260020","img/object_images/chess_piece01.jpg","img/object_images/towels01.jpg","img/object_images/ball02.jpg","1","0","1","0","0","1","0.397662699993816","0.229649699998845","0.379201599993394","1","1","1","1","1","1","1","1","1"
"260020","img/object_images/ball02.jpg","img/object_images/chess_piece01.jpg","img/object_images/trash_can05.jpg","1","1","1","1","0","1","0.379201599993394","0.397662699993816","0.315621499998088","1","1","1","1","1","1","1","1","1"
"260020","img/object_images/trash_can05.jpg","img/object_images/ball02.jpg","img/object_images/laptop01.jpg","1","1","1","1","1","0","0.315621499998088","0.379201599993394","0.470444699996733","1","1","1","1","1","1","1","1","1"
"260020","img/object_images/laptop01.jpg","img/object_images/trash_can05.jpg","img/object_images/trash_can03.jpg","1","1","1","0","1","1","0.470444699996733","0.315621499998088","0.32424350000656","1","1","1","1","1","1","1","1","1"
"260020","img/object_images/trash_can03.jpg","img/object_images/laptop01.jpg","img/object_images/chair02.jpg","1","1","1","1","0","1","0.32424350000656","0.470444699996733","0.461012600004324","1","1","1","1","1","1","1","1","1"
"260020","img/object_images/chair02.jpg","img/object_images/trash_can03.jpg","img/object_images/pitcher05.jpg","1","1","1","1","1","0","0.461012600004324","0.32424350000656","0.474015499996312","1","1","1","1","1","1","1","1","1"
"260020","img/object_images/pitcher05.jpg","img/object_images/chair02.jpg","img/object_images/jewel03.jpg","1","1","1","0","1","1","0.474015499996312","0.461012600004324","0.391806699997687","1","1","1","1","1","1","1","1","1"
"260020","img/object_images/jewel03.jpg","img/object_images/pitcher05.jpg","img/object_images/bucket02.jpg","1","1","1","1","0","1","0.391806699997687","0.474015499996312","0.383764500002144","1","1","1","1","1","1","1","1","1"
"260020","img/object_images/bucket02.jpg","img/object_images/jewel03.jpg","img/object_images/toy05.jpg","1","1","0","1","1","0","0.383764500002144","0.391806699997687","0.381363200001942","1","1","1","1","1","1","1","1","1"
"260020","img/object_images/toy05.jpg","img/object_images/bucket02.jpg","img/object_images/surf_board01.jpg","0","1","1","0","1","1","0.381363200001942","0.383764500002144","0.492409699996642","1","1","1","1","1","1","1","1","1"
"260020","img/object_images/surf_board01.jpg","img/object_images/toy05.jpg","img/object_images/Lint_Roller02.jpg","1","0","1","1","0","0","0.492409699996642","0.381363200001942","0.524737899999309","1","1","1","1","1","1","1","1","1"
"260020","img/object_images/Lint_Roller02.jpg","img/object_images/surf_board01.jpg","img/object_images/accardion01.jpg","1","1","1","0","1","1","0.524737899999309","0.492409699996642","0.435258700003033","1","1","1","1","1","1","1","1","1"
"260020","img/object_images/accardion01.jpg","img/object_images/Lint_Roller02.jpg","img/object_images/gift_box05.jpg","1","1","1","1","0","0","0.435258700003033","0.524737899999309","0.392698899995594","1","1","1","1","1","1","1","1","1"
"260020","img/object_images/gift_box05.jpg","img/object_images/accardion01.jpg","img/object_images/backpack03.jpg","1","1","1","0","1","1","0.392698899995594","0.435258700003033","0.360304800000449","1","1","1","1","1","1","1","1","1"
"260020","img/object_images/backpack03.jpg","img/object_images/gift_box05.jpg","img/object_images/stove01.jpg","1","1","0","1","0","0","0.360304800000449","0.392698899995594","0.336913600003754","1","1","1","1","1","1","1","1","1"
"260020","img/object_images/stove01.jpg","img/object_images/backpack03.jpg","img/object_images/robe01.jpg","0","1","1","0","1","1","0.336913600003754","0.360304800000449","0.464128200001142","1","1","1","1","1","1","1","1","1"
"260020","img/object_images/robe01.jpg","img/object_images/stove01.jpg","img/object_images/hair_brush02.jpg","1","0","1","1","0","0","0.464128200001142","0.336913600003754","0.629465700003493","1","1","1","1","1","1","1","1","1"
"260020","img/object_images/hair_brush02.jpg","img/object_images/robe01.jpg","img/object_images/vase01.jpg","1","1","0","0","1","0","0.629465700003493","0.464128200001142","0.453213000000687","1","1","1","1","1","1","1","1","2"
"260020","img/object_images/vase01.jpg","img/object_images/hair_brush02.jpg","img/object_images/umbrella01.jpg","0","1","1","0","0","0","0.453213000000687","0.629465700003493","0.438809599996603","1","1","1","1","1","1","2","1","1"
"260020","img/object_images/umbrella01.jpg","img/object_images/vase01.jpg","img/object_images/helmet02.jpg","1","0","1","0","0","0","0.438809599996603","0.453213000000687","0.441206700001203","1","1","1","1","1","1","1","2","1"
"260020","img/object_images/helmet02.jpg","img/object_images/umbrella01.jpg","img/object_images/hair_dryer01.jpg","1","1","0","0","0","0","0.441206700001203","0.438809599996603","0.380120199995872","1","1","1","1","1","1","1","1","1"
"260020","img/object_images/hair_dryer01.jpg","img/object_images/helmet02.jpg","img/object_images/lock01.jpg","0","1","1","0","0","0","0.380120199995872","0.441206700001203","0.461196399999608","1","1","1","1","1","1","1","1","1"
"260020","img/object_images/lock01.jpg","img/object_images/hair_dryer01.jpg","img/object_images/shoes08.jpg","1","0","1","0","0","1","0.461196399999608","0.380120199995872","0.377626400004374","1","1","1","1","1","1","1","1","1"
"260020","img/object_images/shoes08.jpg","img/object_images/lock01.jpg",NA,"1","1",NA,"1","0",NA,"0.377626400004374","0.461196399999608",NA,"1","1",NA,"1","1",NA,"1","1",NA
"260020","img/object_images/piano03.jpg",NA,"img/object_images/tennis_racket01.jpg","0",NA,"1","0",NA,"1","0.473042800003896",NA,"0.420162200003688","1",NA,"1","1",NA,"1","2",NA,"1"
"260020","img/object_images/tennis_racket01.jpg","img/object_images/piano03.jpg","img/object_images/Safe01.jpg","1","0","1","1","0","1","0.420162200003688","0.473042800003896","0.360323300003074","1","1","1","1","1","1","1","2","1"
"260020","img/object_images/Safe01.jpg","img/object_images/tennis_racket01.jpg","img/object_images/yoga_mat01.jpg","1","1","1","1","1","0","0.360323300003074","0.420162200003688","0.487508099999104","1","1","1","1","1","1","1","1","1"
"260020","img/object_images/yoga_mat01.jpg","img/object_images/Safe01.jpg","img/object_images/usb03.jpg","1","1","0","0","1","0","0.487508099999104","0.360323300003074","0.470126300002448","1","1","1","1","1","1","1","1","1"
"260020","img/object_images/usb03.jpg","img/object_images/yoga_mat01.jpg","img/object_images/scale02.jpg","0","1","1","0","0","0","0.470126300002448","0.487508099999104","0.408929299999727","1","1","1","1","1","1","1","1","1"
"260020","img/object_images/scale02.jpg","img/object_images/usb03.jpg","img/object_images/trumpet01.jpg","1","0","0","0","0","0","0.408929299999727","0.470126300002448","0.381008500000462","1","1","1","1","1","1","1","1","1"
"260020","img/object_images/trumpet01.jpg","img/object_images/scale02.jpg","img/object_images/joystick03.jpg","0","1","1","0","0","1","0.381008500000462","0.408929299999727","0.428070699999807","1","1","1","1","1","1","1","1","1"
"260020","img/object_images/joystick03.jpg","img/object_images/trumpet01.jpg","img/object_images/phone04.jpg","1","0","1","1","0","1","0.428070699999807","0.381008500000462","0.392015799996443","1","1","1","1","1","1","1","1","1"
"260020","img/object_images/phone04.jpg","img/object_images/joystick03.jpg","img/object_images/bucket01.jpg","1","1","1","1","1","1","0.392015799996443","0.428070699999807","0.649633200002427","1","1","1","1","1","1","1","1","1"
"260020","img/object_images/bucket01.jpg","img/object_images/phone04.jpg","img/object_images/belt03.jpg","1","1","1","1","1","0","0.649633200002427","0.392015799996443","0.480250099994009","1","1","1","1","1","1","1","1","1"
"260020","img/object_images/belt03.jpg","img/object_images/bucket01.jpg","img/object_images/Eyeliner01.jpg","1","1","1","0","1","1","0.480250099994009","0.649633200002427","0.320331899994926","1","1","1","1","1","1","1","1","1"
"260020","img/object_images/Eyeliner01.jpg","img/object_images/belt03.jpg","img/object_images/headset02.jpg","1","1","1","1","0","0","0.320331899994926","0.480250099994009","0.623491599995759","1","1","1","1","1","1","1","1","1"
"260020","img/object_images/headset02.jpg","img/object_images/Eyeliner01.jpg","img/object_images/nut_cracker01.jpg","1","1","1","0","1","1","0.623491599995759","0.320331899994926","0.447872600001574","1","1","1","1","1","1","1","1","1"
"260020","img/object_images/nut_cracker01.jpg","img/object_images/headset02.jpg","img/object_images/dice01.jpg","1","1","1","1","0","0","0.447872600001574","0.623491599995759","0.301214400002209","1","1","1","1","1","1","1","1","1"
"260020","img/object_images/dice01.jpg","img/object_images/nut_cracker01.jpg","img/object_images/bookmark01.jpg","1","1","1","0","1","0","0.301214400002209","0.447872600001574","0.482031400002597","1","1","1","1","1","1","1","1","1"
"260020","img/object_images/bookmark01.jpg","img/object_images/dice01.jpg","img/object_images/TreeSlice01.jpg","1","1","1","0","0","1","0.482031400002597","0.301214400002209","0.377405799998087","1","1","1","1","1","1","1","1","1"
"260020","img/object_images/TreeSlice01.jpg","img/object_images/bookmark01.jpg","img/object_images/frame01.jpg","1","1","1","1","0","1","0.377405799998087","0.482031400002597","0.32341159999487","1","1","1","1","1","1","1","1","1"
"260020","img/object_images/frame01.jpg","img/object_images/TreeSlice01.jpg","img/object_images/bottle06.jpg","1","1","1","1","1","0","0.32341159999487","0.377405799998087","0.464708300001803","1","1","1","1","1","1","1","1","1"
"260020","img/object_images/bottle06.jpg","img/object_images/frame01.jpg","img/object_images/origami01.jpg","1","1","1","0","1","1","0.464708300001803","0.32341159999487","0.318583100000978","1","1","1","1","1","1","1","1","1"
"260020","img/object_images/origami01.jpg","img/object_images/bottle06.jpg","img/object_images/egg_basket01.jpg","1","1","1","1","0","1","0.318583100000978","0.464708300001803","0.431934400003229","1","1","1","1","1","1","1","1","1"
"260020","img/object_images/egg_basket01.jpg","img/object_images/origami01.jpg","img/object_images/pitcher07.jpg","1","1","1","1","1","1","0.431934400003229","0.318583100000978","0.37317769999936","1","1","1","1","1","1","1","1","1"
"260020","img/object_images/pitcher07.jpg","img/object_images/egg_basket01.jpg","img/object_images/lock03.jpg","1","1","1","1","1","1","0.37317769999936","0.431934400003229","0.352085900005477","1","1","1","1","1","1","1","1","1"
"260020","img/object_images/lock03.jpg","img/object_images/pitcher07.jpg","img/object_images/Shoes05.jpg","1","1","1","1","1","0","0.352085900005477","0.37317769999936","0.527131299997563","1","1","1","1","1","1","1","1","1"
"260020","img/object_images/Shoes05.jpg","img/object_images/lock03.jpg","img/object_images/helmet03.jpg","1","1","1","0","1","1","0.527131299997563","0.352085900005477","0.43668610000168","1","1","1","1","1","1","1","1","1"
"260020","img/object_images/helmet03.jpg","img/object_images/Shoes05.jpg","img/object_images/jewel02.jpg","1","1","1","1","0","0","0.43668610000168","0.527131299997563","0.462395700000343","1","1","1","1","1","1","1","1","1"
"260020","img/object_images/jewel02.jpg","img/object_images/helmet03.jpg","img/object_images/water_gun01.jpg","1","1","1","0","1","1","0.462395700000343","0.43668610000168","0.406816300004721","1","1","1","1","1","1","1","1","1"
"260020","img/object_images/water_gun01.jpg","img/object_images/jewel02.jpg","img/object_images/fan01.jpg","1","1","0","1","0","0","0.406816300004721","0.462395700000343","0.386784499998612","1","1","1","1","1","1","1","1","1"
"260020","img/object_images/fan01.jpg","img/object_images/water_gun01.jpg","img/object_images/badminton01.jpg","0","1","1","0","1","1","0.386784499998612","0.406816300004721","0.370707099995343","1","1","1","1","1","1","1","1","1"
"260020","img/object_images/badminton01.jpg","img/object_images/fan01.jpg","img/object_images/shovel01.jpg","1","0","1","1","0","0","0.370707099995343","0.386784499998612","0.478618299996015","1","1","1","1","1","1","1","1","1"
"260020","img/object_images/shovel01.jpg","img/object_images/badminton01.jpg","img/object_images/note_book02.jpg","1","1","0","0","1","0","0.478618299996015","0.370707099995343","0.369546699999773","1","1","1","1","1","1","1","1","1"
"260020","img/object_images/note_book02.jpg","img/object_images/shovel01.jpg","img/object_images/ToolBag01.jpg","0","1","1","0","0","0","0.369546699999773","0.478618299996015","0.471427099997527","1","1","1","1","1","1","1","1","1"
"260020","img/object_images/ToolBag01.jpg","img/object_images/note_book02.jpg",NA,"1","0",NA,"0","0",NA,"0.471427099997527","0.369546699999773",NA,"1","1",NA,"1","1",NA,"1","1",NA
"260020","img/object_images/chair01.jpg",NA,"img/object_images/airfryer01.jpg","1",NA,"1","0",NA,"0","0.53982189999806",NA,"0.496258599996509","1",NA,"1","1",NA,"1","1",NA,"1"
"260020","img/object_images/airfryer01.jpg","img/object_images/chair01.jpg","img/object_images/pitcher03.jpg","1","1","1","0","0","1","0.496258599996509","0.53982189999806","0.427922399998351","1","1","1","1","1","1","1","1","1"
"260020","img/object_images/pitcher03.jpg","img/object_images/airfryer01.jpg","img/object_images/cochlear_implant01.jpg","1","1","1","1","0","0","0.427922399998351","0.496258599996509","0.47989950000192","1","1","1","1","1","1","1","1","1"
"260020","img/object_images/cochlear_implant01.jpg","img/object_images/pitcher03.jpg","img/object_images/ball01.jpg","1","1","1","0","1","1","0.47989950000192","0.427922399998351","0.328497100003005","1","1","1","1","1","1","1","1","1"
"260020","img/object_images/ball01.jpg","img/object_images/cochlear_implant01.jpg","img/object_images/helmet05.jpg","1","1","1","1","0","1","0.328497100003005","0.47989950000192","0.417136199997913","1","1","1","1","1","1","1","1","1"
"260020","img/object_images/helmet05.jpg","img/object_images/ball01.jpg","img/object_images/ironing_table02.jpg","1","1","0","1","1","0","0.417136199997913","0.328497100003005","0.384891199995764","1","1","1","1","1","1","1","1","1"
"260020","img/object_images/ironing_table02.jpg","img/object_images/helmet05.jpg","img/object_images/toilet_paper01.jpg","0","1","1","0","1","1","0.384891199995764","0.417136199997913","0.397869899999932","1","1","1","1","1","1","1","1","1"
"260020","img/object_images/toilet_paper01.jpg","img/object_images/ironing_table02.jpg","img/object_images/brief_case01.jpg","1","0","0","1","0","0","0.397869899999932","0.384891199995764","0.340022799995495","1","1","1","1","1","1","1","1","1"
"260020","img/object_images/brief_case01.jpg","img/object_images/toilet_paper01.jpg","img/object_images/decorative02.jpg","0","1","0","0","1","0","0.340022799995495","0.397869899999932","0.316858899997897","1","1","1","1","1","1","1","1","1"
"260020","img/object_images/decorative02.jpg","img/object_images/brief_case01.jpg","img/object_images/Recycling01.jpg","0","0","1","0","0","1","0.316858899997897","0.340022799995495","0.544411400005629","1","1","1","1","1","1","1","1","1"
"260020","img/object_images/Recycling01.jpg","img/object_images/decorative02.jpg","img/object_images/Wisk01.jpg","1","0","0","1","0","1","0.544411400005629","0.316858899997897","0.597359999999753","1","1","1","1","1","1","1","1","1"
"260020","img/object_images/Wisk01.jpg","img/object_images/Recycling01.jpg","img/object_images/brief_case02.jpg","0","1","1","1","1","1","0.597359999999753","0.544411400005629","0.464085100000375","1","1","1","1","1","1","1","1","1"
"260020","img/object_images/brief_case02.jpg","img/object_images/Wisk01.jpg","img/object_images/broom01.jpg","1","0","1","1","1","1","0.464085100000375","0.597359999999753","0.378876299997501","1","1","1","1","1","1","1","1","1"
"260020","img/object_images/broom01.jpg","img/object_images/brief_case02.jpg","img/object_images/bottle12.jpg","1","1","1","1","1","1","0.378876299997501","0.464085100000375","0.427059599998756","1","1","1","1","1","1","1","1","1"
"260020","img/object_images/bottle12.jpg","img/object_images/broom01.jpg","img/object_images/car02.jpg","1","1","0","1","1","0","0.427059599998756","0.378876299997501","0.334904099996493","1","1","1","1","1","1","1","1","1"
"260020","img/object_images/car02.jpg","img/object_images/bottle12.jpg","img/object_images/Woopie01.jpg","0","1","1","0","1","1","0.334904099996493","0.427059599998756","0.422299500001827","1","1","1","1","1","1","1","1","1"
"260020","img/object_images/Woopie01.jpg","img/object_images/car02.jpg","img/object_images/hat02.jpg","1","0","1","1","0","0","0.422299500001827","0.334904099996493","0.49182650000148","1","1","1","1","1","1","1","1","1"
"260020","img/object_images/hat02.jpg","img/object_images/Woopie01.jpg","img/object_images/razor03.jpg","1","1","1","0","1","0","0.49182650000148","0.422299500001827","0.509993100000429","1","1","1","1","1","1","1","1","1"
"260020","img/object_images/razor03.jpg","img/object_images/hat02.jpg","img/object_images/lantern01.jpg","1","1","1","0","0","1","0.509993100000429","0.49182650000148","0.465710500000569","1","1","1","1","1","1","1","1","1"
"260020","img/object_images/lantern01.jpg","img/object_images/razor03.jpg","img/object_images/pot01.jpg","1","1","1","1","0","0","0.465710500000569","0.509993100000429","0.448807900000247","1","1","1","1","1","1","1","1","1"
"260020","img/object_images/pot01.jpg","img/object_images/lantern01.jpg","img/object_images/toy_train02.jpg","1","1","1","0","1","1","0.448807900000247","0.465710500000569","0.409023899999738","1","1","1","1","1","1","1","1","1"
"260020","img/object_images/toy_train02.jpg","img/object_images/pot01.jpg","img/object_images/basketball_hoop02.jpg","1","1","0","1","0","0","0.409023899999738","0.448807900000247","0.411511399994197","1","1","1","1","1","1","1","1","2"
"260020","img/object_images/basketball_hoop02.jpg","img/object_images/toy_train02.jpg","img/object_images/couch04.jpg","0","1","1","0","1","1","0.411511399994197","0.409023899999738","0.428640199999791","1","1","1","1","1","1","2","1","1"
"260020","img/object_images/couch04.jpg","img/object_images/basketball_hoop02.jpg","img/object_images/guitar01.jpg","1","0","1","1","0","1","0.428640199999791","0.411511399994197","0.382696500004386","1","1","1","1","1","1","1","2","1"
"260020","img/object_images/guitar01.jpg","img/object_images/couch04.jpg","img/object_images/soap01.jpg","1","1","1","1","1","0","0.382696500004386","0.428640199999791","0.294122699997388","1","1","1","1","1","1","1","1","1"
"260020","img/object_images/soap01.jpg","img/object_images/guitar01.jpg","img/object_images/container01.jpg","1","1","0","0","1","0","0.294122699997388","0.382696500004386","0.315387399998144","1","1","1","1","1","1","1","1","1"
"260020","img/object_images/container01.jpg","img/object_images/soap01.jpg","img/object_images/drone02.jpg","0","1","1","0","0","0","0.315387399998144","0.294122699997388","0.541198600003554","1","1","1","1","1","1","1","1","1"
"260020","img/object_images/drone02.jpg","img/object_images/container01.jpg","img/object_images/tie01.jpg","1","0","1","0","0","0","0.541198600003554","0.315387399998144","0.485731900000246","1","1","1","1","1","1","1","1","1"
"260020","img/object_images/tie01.jpg","img/object_images/drone02.jpg","img/object_images/lamp01.jpg","1","1","0","0","0","1","0.485731900000246","0.541198600003554",NA,"1","1","0","1","1","0","1","1","0"
"260020","img/object_images/lamp01.jpg","img/object_images/tie01.jpg","img/object_images/gloves05.jpg","0","1","1","1","0","1",NA,"0.485731900000246","0.401076499998453","0","1","1","0","1","1","0","1","1"
"260020","img/object_images/gloves05.jpg","img/object_images/lamp01.jpg","img/object_images/video_game06.jpg","1","0","1","1","1","0","0.401076499998453",NA,"0.477575600001728","1","0","1","1","0","1","1","0","1"
"260020","img/object_images/video_game06.jpg","img/object_images/gloves05.jpg",NA,"1","1",NA,"0","1",NA,"0.477575600001728","0.401076499998453",NA,"1","1",NA,"1","1",NA,"1","1",NA
"260020","img/object_images/pan01.jpg",NA,"img/object_images/tray01.jpg","1",NA,"1","1",NA,"1","0.356417300004978",NA,"0.397404099996493","1",NA,"1","1",NA,"1","1",NA,"1"
"260020","img/object_images/tray01.jpg","img/object_images/pan01.jpg","img/object_images/lighter01.jpg","1","1","1","1","1","1","0.397404099996493","0.356417300004978","0.340407999996387","1","1","1","1","1","1","1","1","1"
"260020","img/object_images/lighter01.jpg","img/object_images/tray01.jpg","img/object_images/exfoliater_brush01.jpg","1","1","0","1","1","0","0.340407999996387","0.397404099996493","0.292517000001681","1","1","1","1","1","1","1","1","1"
"260020","img/object_images/exfoliater_brush01.jpg","img/object_images/lighter01.jpg","img/object_images/handcuffs01.jpg","0","1","1","0","1","0","0.292517000001681","0.340407999996387","0.573485599998094","1","1","1","1","1","1","1","1","1"
"260020","img/object_images/handcuffs01.jpg","img/object_images/exfoliater_brush01.jpg","img/object_images/jewelry09.jpg","1","0","1","0","0","1","0.573485599998094","0.292517000001681","0.360673499999393","1","1","1","1","1","1","1","1","1"
"260020","img/object_images/jewelry09.jpg","img/object_images/handcuffs01.jpg","img/object_images/tool08.jpg","1","1","1","1","0","0","0.360673499999393","0.573485599998094","0.480207000000519","1","1","1","1","1","1","1","1","1"
"260020","img/object_images/tool08.jpg","img/object_images/jewelry09.jpg","img/object_images/basket02.jpg","1","1","1","0","1","0","0.480207000000519","0.360673499999393","0.418632699998852","1","1","1","1","1","1","1","1","1"
"260020","img/object_images/basket02.jpg","img/object_images/tool08.jpg","img/object_images/tool07.jpg","1","1","1","0","0","0","0.418632699998852","0.480207000000519","0.515894299998763","1","1","1","1","1","1","1","1","1"
"260020","img/object_images/tool07.jpg","img/object_images/basket02.jpg","img/object_images/colander01.jpg","1","1","1","0","0","0","0.515894299998763","0.418632699998852","0.419669800001429","1","1","1","1","1","1","1","1","1"
"260020","img/object_images/colander01.jpg","img/object_images/tool07.jpg","img/object_images/projector01.jpg","1","1","0","0","0","0","0.419669800001429","0.515894299998763","0.345249900005001","1","1","1","1","1","1","1","1","1"
"260020","img/object_images/projector01.jpg","img/object_images/colander01.jpg","img/object_images/glasses07.jpg","0","1","1","0","0","1","0.345249900005001","0.419669800001429","0.418964399999822","1","1","1","1","1","1","1","1","1"
"260020","img/object_images/glasses07.jpg","img/object_images/projector01.jpg","img/object_images/gift_box04.jpg","1","0","0","1","0","0","0.418964399999822","0.345249900005001","0.381506799996714","1","1","1","1","1","1","1","1","1"
"260020","img/object_images/gift_box04.jpg","img/object_images/glasses07.jpg","img/object_images/cellphone02.jpg","0","1","1","0","1","1","0.381506799996714","0.418964399999822","0.420016600000963","1","1","1","1","1","1","1","1","1"
"260020","img/object_images/cellphone02.jpg","img/object_images/gift_box04.jpg","img/object_images/book01.jpg","1","0","1","1","0","1","0.420016600000963","0.381506799996714","0.4473130999977","1","1","1","1","1","1","1","1","1"
"260020","img/object_images/book01.jpg","img/object_images/cellphone02.jpg","img/object_images/yo_yo01.jpg","1","1","0","1","1","0","0.4473130999977","0.420016600000963","0.383518099995854","1","1","1","1","1","1","1","1","1"
"260020","img/object_images/yo_yo01.jpg","img/object_images/book01.jpg","img/object_images/bicycle_lock01.jpg","0","1","1","0","1","0","0.383518099995854","0.4473130999977","0.509759499997017","1","1","1","1","1","1","1","1","1"
"260020","img/object_images/bicycle_lock01.jpg","img/object_images/yo_yo01.jpg","img/object_images/fire_extinguisher01.jpg","1","0","1","0","0","0","0.509759499997017","0.383518099995854","0.576373700001568","1","1","1","1","1","1","1","1","1"
"260020","img/object_images/fire_extinguisher01.jpg","img/object_images/bicycle_lock01.jpg","img/object_images/hole_puncher01.jpg","1","1","1","0","0","1","0.576373700001568","0.509759499997017","0.414540300000226","1","1","1","1","1","1","1","1","1"
"260020","img/object_images/hole_puncher01.jpg","img/object_images/fire_extinguisher01.jpg","img/object_images/ring03.jpg","1","1","1","1","0","1","0.414540300000226","0.576373700001568","0.567007900004683","1","1","1","1","1","1","1","1","1"
"260020","img/object_images/ring03.jpg","img/object_images/hole_puncher01.jpg","img/object_images/Pottery01.jpg","1","1","1","1","1","0","0.567007900004683","0.414540300000226","0.54011509999691","1","1","1","1","1","1","1","1","1"
"260020","img/object_images/Pottery01.jpg","img/object_images/ring03.jpg","img/object_images/Traffic Sign 01.jpg","1","1","0","0","1","0","0.54011509999691","0.567007900004683","0.457671899996058","1","1","1","1","1","1","1","1","1"
"260020","img/object_images/Traffic Sign 01.jpg","img/object_images/Pottery01.jpg","img/object_images/hair_clips01.jpg","0","1","1","0","0","1","0.457671899996058","0.54011509999691","0.390815899998415","1","1","1","1","1","1","1","1","1"
"260020","img/object_images/hair_clips01.jpg","img/object_images/Traffic Sign 01.jpg","img/object_images/purse01.jpg","1","0","1","1","0","1","0.390815899998415","0.457671899996058","0.429948099998","1","1","1","1","1","1","1","1","1"
"260020","img/object_images/purse01.jpg","img/object_images/hair_clips01.jpg","img/object_images/cup03.jpg","1","1","1","1","1","1","0.429948099998","0.390815899998415","0.407428300000902","1","1","1","1","1","1","1","1","1"
"260020","img/object_images/cup03.jpg","img/object_images/purse01.jpg","img/object_images/Sprayer01.jpg","1","1","1","1","1","0","0.407428300000902","0.429948099998","0.482533400005195","1","1","1","1","1","1","1","1","1"
"260020","img/object_images/Sprayer01.jpg","img/object_images/cup03.jpg","img/object_images/blanket01.jpg","1","1","1","0","1","1","0.482533400005195","0.407428300000902","0.387792300003639","1","1","1","1","1","1","1","1","1"
"260020","img/object_images/blanket01.jpg","img/object_images/Sprayer01.jpg","img/object_images/TrashCan02.jpg","1","1","1","1","0","1","0.387792300003639","0.482533400005195","0.36876889999985","1","1","1","1","1","1","1","1","1"
"260020","img/object_images/TrashCan02.jpg","img/object_images/blanket01.jpg","img/object_images/glasses06.jpg","1","1","1","1","1","1","0.36876889999985","0.387792300003639","0.441332400005194","1","1","1","1","1","1","1","1","1"
"260020","img/object_images/glasses06.jpg","img/object_images/TrashCan02.jpg","img/object_images/faucet01.jpg","1","1","0","1","1","0","0.441332400005194","0.36876889999985","0.346843799998169","1","1","1","1","1","1","1","1","1"
"260020","img/object_images/faucet01.jpg","img/object_images/glasses06.jpg","img/object_images/Kitchen_Towel.jpg","0","1","0","0","1","0","0.346843799998169","0.441332400005194","0.354924999999639","1","1","1","1","1","1","1","1","1"
"260020","img/object_images/Kitchen_Towel.jpg","img/object_images/faucet01.jpg","img/object_images/speaker01.jpg","0","0","1","0","0","1","0.354924999999639","0.346843799998169","0.414380700000038","1","1","1","1","1","1","1","1","1"
"260020","img/object_images/speaker01.jpg","img/object_images/Kitchen_Towel.jpg",NA,"1","0",NA,"1","0",NA,"0.414380700000038","0.354924999999639",NA,"1","1",NA,"1","1",NA,"1","1",NA
"260020","img/object_images/ear_bud01.jpg",NA,"img/object_images/Thermometer01.jpg","1",NA,"1","1",NA,"0","0.391340899994248",NA,"0.57365099999879","1",NA,"1","1",NA,"1","1",NA,"1"
"260020","img/object_images/Thermometer01.jpg","img/object_images/ear_bud01.jpg","img/object_images/Staples01.jpg","1","1","1","0","1","1","0.57365099999879","0.391340899994248","0.377720700002101","1","1","1","1","1","1","1","1","1"
"260020","img/object_images/Staples01.jpg","img/object_images/Thermometer01.jpg","img/object_images/paint_brush04.jpg","1","1","1","1","0","0","0.377720700002101","0.57365099999879","0.475381799995375","1","1","1","1","1","1","1","1","1"
"260020","img/object_images/paint_brush04.jpg","img/object_images/Staples01.jpg","img/object_images/floppy_disk02.jpg","1","1","0","0","1","0","0.475381799995375","0.377720700002101","0.446403900001314","1","1","1","1","1","1","1","1","1"
"260020","img/object_images/floppy_disk02.jpg","img/object_images/paint_brush04.jpg","img/object_images/clock02.jpg","0","1","1","0","0","0","0.446403900001314","0.475381799995375","0.537039499999082","1","1","1","1","1","1","1","1","1"
"260020","img/object_images/clock02.jpg","img/object_images/floppy_disk02.jpg","img/object_images/microscope01.jpg","1","0","0","0","0","0","0.537039499999082","0.446403900001314","0.405818800005363","1","1","1","1","1","1","1","1","1"
"260020","img/object_images/microscope01.jpg","img/object_images/clock02.jpg","img/object_images/floppy_disk03.jpg","0","1","1","0","0","1","0.405818800005363","0.537039499999082","0.347474599999259","1","1","1","1","1","1","1","1","1"
"260020","img/object_images/floppy_disk03.jpg","img/object_images/microscope01.jpg","img/object_images/pitcher01.jpg","1","0","1","1","0","0","0.347474599999259","0.405818800005363","0.488912299995718","1","1","1","1","1","1","1","1","1"
"260020","img/object_images/pitcher01.jpg","img/object_images/floppy_disk03.jpg","img/object_images/wire02.jpg","1","1","1","0","1","1","0.488912299995718","0.347474599999259","0.359562400000868","1","1","1","1","1","1","1","1","1"
"260020","img/object_images/wire02.jpg","img/object_images/pitcher01.jpg","img/object_images/clip03.jpg","1","1","1","1","0","0","0.359562400000868","0.488912299995718","0.527396800003771","1","1","1","1","1","1","1","1","1"
"260020","img/object_images/clip03.jpg","img/object_images/wire02.jpg","img/object_images/retainer01.jpg","1","1","1","0","1","0","0.527396800003771","0.359562400000868","0.465859000003547","1","1","1","1","1","1","1","1","1"
"260020","img/object_images/retainer01.jpg","img/object_images/clip03.jpg","img/object_images/note_book01.jpg","1","1","1","0","0","0","0.465859000003547","0.527396800003771","0.490972100000363","1","1","1","1","1","1","1","1","1"
"260020","img/object_images/note_book01.jpg","img/object_images/retainer01.jpg","img/object_images/book03.jpg","1","1","1","0","0","1","0.490972100000363","0.465859000003547","0.369102299999213","1","1","1","1","1","1","1","1","1"
"260020","img/object_images/book03.jpg","img/object_images/note_book01.jpg","img/object_images/tennis_racket02.jpg","1","1","1","1","0","1","0.369102299999213","0.490972100000363","0.370300700000371","1","1","1","1","1","1","1","1","1"
"260020","img/object_images/tennis_racket02.jpg","img/object_images/book03.jpg","img/object_images/motorcycle01.jpg","1","1","1","1","1","1","0.370300700000371","0.369102299999213","0.51046569999744","1","1","1","1","1","1","1","1","1"
"260020","img/object_images/motorcycle01.jpg","img/object_images/tennis_racket02.jpg","img/object_images/Oven01.jpg","1","1","1","1","1","1","0.51046569999744","0.370300700000371","0.358567299997958","1","1","1","1","1","1","1","1","1"
"260020","img/object_images/Oven01.jpg","img/object_images/motorcycle01.jpg","img/object_images/tv02.jpg","1","1","1","1","1","0","0.358567299997958","0.51046569999744","0.557424999999057","1","1","1","1","1","1","1","1","1"
"260020","img/object_images/tv02.jpg","img/object_images/Oven01.jpg","img/object_images/compass01.jpg","1","1","1","0","1","1","0.557424999999057","0.358567299997958","0.371251700002176","1","1","1","1","1","1","1","1","1"
"260020","img/object_images/compass01.jpg","img/object_images/tv02.jpg","img/object_images/knife04.jpg","1","1","1","1","0","1","0.371251700002176","0.557424999999057","0.392431200001738","1","1","1","1","1","1","1","1","1"
"260020","img/object_images/knife04.jpg","img/object_images/compass01.jpg","img/object_images/bottle01.jpg","1","1","0","1","1","0","0.392431200001738","0.371251700002176","0.418351799999073","1","1","1","1","1","1","1","1","1"
"260020","img/object_images/bottle01.jpg","img/object_images/knife04.jpg","img/object_images/hammer03.jpg","0","1","1","0","1","1","0.418351799999073","0.392431200001738","0.464150599997083","1","1","1","1","1","1","1","1","1"
"260020","img/object_images/hammer03.jpg","img/object_images/bottle01.jpg","img/object_images/bell02.jpg","1","0","1","1","0","0","0.464150599997083","0.418351799999073","0.429536400006327","1","1","1","1","1","1","1","1","1"
"260020","img/object_images/bell02.jpg","img/object_images/hammer03.jpg","img/object_images/pen03.jpg","1","1","1","0","1","0","0.429536400006327","0.464150599997083","0.274980599999253","1","1","1","1","1","1","1","1","1"
"260020","img/object_images/pen03.jpg","img/object_images/bell02.jpg","img/object_images/chair05.jpg","1","1","1","0","0","0","0.274980599999253","0.429536400006327","0.34010280000075","1","1","1","1","1","1","1","1","1"
"260020","img/object_images/chair05.jpg","img/object_images/pen03.jpg","img/object_images/chess_piece02.jpg","1","1","1","0","0","1","0.34010280000075","0.274980599999253","0.285165300003428","1","1","1","1","1","1","1","1","1"
"260020","img/object_images/chess_piece02.jpg","img/object_images/chair05.jpg","img/object_images/lid01.jpg","1","1","1","1","0","1","0.285165300003428","0.34010280000075","0.29528990000108","1","1","1","1","1","1","1","1","1"
"260020","img/object_images/lid01.jpg","img/object_images/chess_piece02.jpg","img/object_images/knit05.jpg","1","1","1","1","1","1","0.29528990000108","0.285165300003428","0.325878399999056","1","1","1","1","1","1","1","1","1"
"260020","img/object_images/knit05.jpg","img/object_images/lid01.jpg","img/object_images/crutches02.jpg","1","1","1","1","1","0","0.325878399999056","0.29528990000108","0.517696099996101","1","1","1","1","1","1","1","1","1"
"260020","img/object_images/crutches02.jpg","img/object_images/knit05.jpg","img/object_images/usb02.jpg","1","1","0","0","1","0","0.517696099996101","0.325878399999056","0.433701800000563","1","1","1","1","1","1","1","1","1"
"260020","img/object_images/usb02.jpg","img/object_images/crutches02.jpg","img/object_images/pillows01.jpg","0","1","1","0","0","1","0.433701800000563","0.517696099996101","0.377110099994752","1","1","1","1","1","1","1","1","1"
"260020","img/object_images/pillows01.jpg","img/object_images/usb02.jpg","img/object_images/cellphone01.jpg","1","0","1","1","0","1","0.377110099994752","0.433701800000563","0.411859200001345","1","1","1","1","1","1","1","1","1"
"260020","img/object_images/cellphone01.jpg","img/object_images/pillows01.jpg",NA,"1","1",NA,"1","1",NA,"0.411859200001345","0.377110099994752",NA,"1","1",NA,"1","1",NA,"1","1",NA
"260020","img/object_images/video_game03.jpg",NA,"img/object_images/book02.jpg","1",NA,"1","1",NA,"1","0.405052000001888",NA,"0.416931100000511","1",NA,"1","1",NA,"1","1",NA,"1"
"260020","img/object_images/book02.jpg","img/object_images/video_game03.jpg","img/object_images/airfryer02.jpg","1","1","1","1","1","1","0.416931100000511","0.405052000001888","0.340169800001604","1","1","1","1","1","1","1","1","1"
"260020","img/object_images/airfryer02.jpg","img/object_images/book02.jpg","img/object_images/toy01.jpg","1","1","1","1","1","1","0.340169800001604","0.416931100000511","0.417402400002175","1","1","1","1","1","1","1","1","1"
"260020","img/object_images/toy01.jpg","img/object_images/airfryer02.jpg","img/object_images/skate_board01.jpg","1","1","0","1","1","0","0.417402400002175","0.340169800001604","0.326060100000177","1","1","1","1","1","1","1","1","1"
"260020","img/object_images/skate_board01.jpg","img/object_images/toy01.jpg","img/object_images/blender01.jpg","0","1","0","0","1","0","0.326060100000177","0.417402400002175","0.397017499999492","1","1","1","1","1","1","1","1","1"
"260020","img/object_images/blender01.jpg","img/object_images/skate_board01.jpg","img/object_images/hair_brush01.jpg","0","0","1","0","0","1","0.397017499999492","0.326060100000177","0.324770300001546","1","1","1","1","1","1","1","1","1"
"260020","img/object_images/hair_brush01.jpg","img/object_images/blender01.jpg","img/object_images/fork02.jpg","1","0","1","1","0","0","0.324770300001546","0.397017499999492","0.509446299998672","1","1","1","1","1","1","1","1","1"
"260020","img/object_images/fork02.jpg","img/object_images/hair_brush01.jpg","img/object_images/clip04.jpg","1","1","1","0","1","1","0.509446299998672","0.324770300001546","0.34147629999643","1","1","1","1","1","1","1","1","1"
"260020","img/object_images/clip04.jpg","img/object_images/fork02.jpg","img/object_images/floss02.jpg","1","1","0","1","0","1","0.34147629999643","0.509446299998672","0.612398500001291","1","1","1","1","1","1","1","1","1"
"260020","img/object_images/floss02.jpg","img/object_images/clip04.jpg","img/object_images/pitcher09.jpg","0","1","1","1","1","1","0.612398500001291","0.34147629999643","0.386773100006394","1","1","1","1","1","1","1","1","1"
"260020","img/object_images/pitcher09.jpg","img/object_images/floss02.jpg","img/object_images/egg_slicer01.jpg","1","0","1","1","1","1","0.386773100006394","0.612398500001291","0.389831699998467","1","1","1","1","1","1","1","1","1"
"260020","img/object_images/egg_slicer01.jpg","img/object_images/pitcher09.jpg","img/object_images/tripod01.jpg","1","1","1","1","1","1","0.389831699998467","0.386773100006394","0.400180100004945","1","1","1","1","1","1","1","1","1"
"260020","img/object_images/tripod01.jpg","img/object_images/egg_slicer01.jpg","img/object_images/chair06.jpg","1","1","1","1","1","0","0.400180100004945","0.389831699998467","0.396220299997367","1","1","1","1","1","1","1","1","1"
"260020","img/object_images/chair06.jpg","img/object_images/tripod01.jpg","img/object_images/chain01.jpg","1","1","1","0","1","0","0.396220299997367","0.400180100004945","0.433124499999394","1","1","1","1","1","1","1","1","1"
"260020","img/object_images/chain01.jpg","img/object_images/chair06.jpg","img/object_images/bell03.jpg","1","1","0","0","0","0","0.433124499999394","0.396220299997367","0.326976299998933","1","1","1","1","1","1","1","1","1"
"260020","img/object_images/bell03.jpg","img/object_images/chain01.jpg","img/object_images/toothbrush01.jpg","0","1","1","0","0","0","0.326976299998933","0.433124499999394","0.2961667999989","1","1","1","1","1","1","1","1","1"
"260020","img/object_images/toothbrush01.jpg","img/object_images/bell03.jpg","img/object_images/mail_box02.jpg","1","0","0","0","0","1","0.2961667999989","0.326976299998933","0.440549600003578","1","1","1","1","1","1","1","1","1"
"260020","img/object_images/mail_box02.jpg","img/object_images/toothbrush01.jpg","img/object_images/Trowel01.jpg","0","1","0","1","0","0","0.440549600003578","0.2961667999989","0.533826599996246","1","1","1","1","1","1","1","1","1"
"260020","img/object_images/Trowel01.jpg","img/object_images/mail_box02.jpg","img/object_images/computer_mouse01.jpg","0","0","1","0","1","1","0.533826599996246","0.440549600003578","0.429054000000178","1","1","1","1","1","1","1","1","1"
"260020","img/object_images/computer_mouse01.jpg","img/object_images/Trowel01.jpg","img/object_images/Violin01.jpg","1","0","0","1","0","0","0.429054000000178","0.533826599996246","0.308436999999685","1","1","1","1","1","1","1","1","1"
"260020","img/object_images/Violin01.jpg","img/object_images/computer_mouse01.jpg","img/object_images/computer_mouse02.jpg","0","1","1","0","1","0","0.308436999999685","0.429054000000178","0.408765599997423","1","1","1","1","1","1","1","1","1"
"260020","img/object_images/computer_mouse02.jpg","img/object_images/Violin01.jpg","img/object_images/soap03.jpg","1","0","1","0","0","0","0.408765599997423","0.308436999999685","0.501277199997276","1","1","1","1","1","1","1","1","1"
"260020","img/object_images/soap03.jpg","img/object_images/computer_mouse02.jpg","img/object_images/shoes12.jpg","1","1","1","0","0","1","0.501277199997276","0.408765599997423","0.372906199998397","1","1","1","1","1","1","1","1","1"
"260020","img/object_images/shoes12.jpg","img/object_images/soap03.jpg","img/object_images/drone01.jpg","1","1","1","1","0","1","0.372906199998397","0.501277199997276","0.423648000003595","1","1","1","1","1","1","1","1","1"
"260020","img/object_images/drone01.jpg","img/object_images/shoes12.jpg","img/object_images/couch01.jpg","1","1","0","1","1","0","0.423648000003595","0.372906199998397","0.347706499997003","1","1","1","1","1","1","1","1","1"
"260020","img/object_images/couch01.jpg","img/object_images/drone01.jpg","img/object_images/pen01.jpg","0","1","1","0","1","0","0.347706499997003","0.423648000003595","0.263070100001642","1","1","1","1","1","1","1","1","1"
"260020","img/object_images/pen01.jpg","img/object_images/couch01.jpg","img/object_images/tool06.jpg","1","0","0","0","0","0","0.263070100001642","0.347706499997003","0.346830599999521","1","1","1","1","1","1","1","1","1"
"260020","img/object_images/tool06.jpg","img/object_images/pen01.jpg","img/object_images/box03.jpg","0","1","1","0","0","0","0.346830599999521","0.263070100001642","0.432780900002399","1","1","1","1","1","1","1","1","1"
"260020","img/object_images/box03.jpg","img/object_images/tool06.jpg","img/object_images/scarf01.jpg","1","0","1","0","0","1","0.432780900002399","0.346830599999521","0.388386999999057","1","1","1","1","1","1","1","1","1"
"260020","img/object_images/scarf01.jpg","img/object_images/box03.jpg","img/object_images/rock02.jpg","1","1","1","1","0","0","0.388386999999057","0.432780900002399","0.437307899999723","1","1","1","1","1","1","1","1","1"
"260020","img/object_images/rock02.jpg","img/object_images/scarf01.jpg","img/object_images/bag_pipes01.jpg","1","1","1","0","1","1","0.437307899999723","0.388386999999057","0.431192099997133","1","1","1","1","1","1","1","1","1"
"260020","img/object_images/bag_pipes01.jpg","img/object_images/rock02.jpg",NA,"1","1",NA,"1","0",NA,"0.431192099997133","0.437307899999723",NA,"1","1",NA,"1","1",NA,"1","1",NA
"260020","img/object_images/gift_box02.jpg",NA,"img/object_images/socks02.jpg","1",NA,"0","1",NA,"0","0.374338700006774",NA,"0.41707630000019","1",NA,"1","1",NA,"1","1",NA,"1"
"260020","img/object_images/socks02.jpg","img/object_images/gift_box02.jpg","img/object_images/hammer01.jpg","0","1","1","0","1","0","0.41707630000019","0.374338700006774","0.497793800001091","1","1","1","1","1","1","1","1","1"
"260020","img/object_images/hammer01.jpg","img/object_images/socks02.jpg","img/object_images/fork03.jpg","1","0","0","0","0","1","0.497793800001091","0.41707630000019","0.442488500004401","1","1","1","1","1","1","1","1","1"
"260020","img/object_images/fork03.jpg","img/object_images/hammer01.jpg","img/object_images/paper_cup01.jpg","0","1","1","1","0","0","0.442488500004401","0.497793800001091","0.506845299998531","1","1","1","1","1","1","1","1","1"
"260020","img/object_images/paper_cup01.jpg","img/object_images/fork03.jpg","img/object_images/ironing_table01.jpg","1","0","1","0","1","0","0.506845299998531","0.442488500004401","0.490611500004889","1","1","1","1","1","1","1","1","1"
"260020","img/object_images/ironing_table01.jpg","img/object_images/paper_cup01.jpg","img/object_images/lock04.jpg","1","1","1","0","0","1","0.490611500004889","0.506845299998531","0.500731700005417","1","1","1","1","1","1","1","1","1"
"260020","img/object_images/lock04.jpg","img/object_images/ironing_table01.jpg","img/object_images/golf_ball03.jpg","1","1","1","1","0","1","0.500731700005417","0.490611500004889","0.521794799999043","1","1","1","1","1","1","1","1","1"
"260020","img/object_images/golf_ball03.jpg","img/object_images/lock04.jpg","img/object_images/jacket03.jpg","1","1","1","1","1","0","0.521794799999043","0.500731700005417","0.437321099998371","1","1","1","1","1","1","1","1","1"
"260020","img/object_images/jacket03.jpg","img/object_images/golf_ball03.jpg","img/object_images/gift_box01.jpg","1","1","1","0","1","1","0.437321099998371","0.521794799999043","0.330303800001275","1","1","1","1","1","1","1","1","1"
"260020","img/object_images/gift_box01.jpg","img/object_images/jacket03.jpg","img/object_images/dresser04.jpg","1","1","0","1","0","0","0.330303800001275","0.437321099998371","0.33624140000029","1","1","1","1","1","1","1","1","1"
"260020","img/object_images/dresser04.jpg","img/object_images/gift_box01.jpg","img/object_images/gift_box03.jpg","0","1","0","0","1","0","0.33624140000029","0.330303800001275","0.58164950000355","1","1","1","1","1","1","1","1","1"
"260020","img/object_images/gift_box03.jpg","img/object_images/dresser04.jpg","img/object_images/sleeping_bag01.jpg","0","0","0","0","0","0","0.58164950000355","0.33624140000029","0.435273700000835","1","1","1","1","1","1","1","1","1"
"260020","img/object_images/sleeping_bag01.jpg","img/object_images/gift_box03.jpg","img/object_images/bath_tub01.jpg","0","0","1","0","0","0","0.435273700000835","0.58164950000355","0.539604800003872","1","1","1","1","1","1","1","1","1"
"260020","img/object_images/bath_tub01.jpg","img/object_images/sleeping_bag01.jpg","img/object_images/pitcher02.jpg","1","0","1","0","0","1","0.539604800003872","0.435273700000835","0.436945600005856","1","1","1","1","1","1","1","1","1"
"260020","img/object_images/pitcher02.jpg","img/object_images/bath_tub01.jpg","img/object_images/Screws01.jpg","1","1","1","1","0","1","0.436945600005856","0.539604800003872","0.432652499999676","1","1","1","1","1","1","1","1","1"
"260020","img/object_images/Screws01.jpg","img/object_images/pitcher02.jpg","img/object_images/lawn_mower01.jpg","1","1","1","1","1","1","0.432652499999676","0.436945600005856","0.344518800004153","1","1","1","1","1","1","1","1","1"
"260020","img/object_images/lawn_mower01.jpg","img/object_images/Screws01.jpg","img/object_images/balloon01.jpg","1","1","1","1","1","0","0.344518800004153","0.432652499999676","0.483533200000238","1","1","1","1","1","1","1","1","1"
"260020","img/object_images/balloon01.jpg","img/object_images/lawn_mower01.jpg","img/object_images/bow_tie02.jpg","1","1","0","0","1","0","0.483533200000238","0.344518800004153","0.392100799996115","1","1","1","1","1","1","1","1","1"
"260020","img/object_images/bow_tie02.jpg","img/object_images/balloon01.jpg","img/object_images/couch03.jpg","0","1","1","0","0","0","0.392100799996115","0.483533200000238","0.418692300001567","1","1","1","1","1","1","1","1","1"
"260020","img/object_images/couch03.jpg","img/object_images/bow_tie02.jpg","img/object_images/coloring_pencil01.jpg","1","0","1","0","0","1","0.418692300001567","0.392100799996115","0.409615800002939","1","1","1","1","1","1","1","1","1"
"260020","img/object_images/coloring_pencil01.jpg","img/object_images/couch03.jpg","img/object_images/jewelry01.jpg","1","1","1","1","0","1","0.409615800002939","0.418692300001567","0.444527200001176","1","1","1","1","1","1","1","1","1"
"260020","img/object_images/jewelry01.jpg","img/object_images/coloring_pencil01.jpg","img/object_images/wallet02.jpg","1","1","1","1","1","1","0.444527200001176","0.409615800002939","0.300968600000488","1","1","1","1","1","1","1","1","1"
"260020","img/object_images/wallet02.jpg","img/object_images/jewelry01.jpg","img/object_images/vga_port 01.jpg","1","1","1","1","1","0","0.300968600000488","0.444527200001176","0.549283300002571","1","1","1","1","1","1","1","1","1"
"260020","img/object_images/vga_port 01.jpg","img/object_images/wallet02.jpg","img/object_images/camera07.jpg","1","1","0","0","1","1","0.549283300002571","0.300968600000488","0.313481800003501","1","1","1","1","1","1","1","1","1"
"260020","img/object_images/camera07.jpg","img/object_images/vga_port 01.jpg","img/object_images/handkerchief01.jpg","0","1","0","1","0","0","0.313481800003501","0.549283300002571","0.398472900000343","1","1","1","1","1","1","1","1","1"
"260020","img/object_images/handkerchief01.jpg","img/object_images/camera07.jpg","img/object_images/bow_tie01.jpg","0","0","0","0","1","0","0.398472900000343","0.313481800003501","0.605632600003446","1","1","1","1","1","1","1","1","1"
"260020","img/object_images/bow_tie01.jpg","img/object_images/handkerchief01.jpg","img/object_images/funnel01.jpg","0","0","0","0","0","0","0.605632600003446","0.398472900000343","0.455609500000719","1","1","1","1","1","1","1","1","1"
"260020","img/object_images/funnel01.jpg","img/object_images/bow_tie01.jpg","img/object_images/Witchhat01.jpg","0","0","1","0","0","1","0.455609500000719","0.605632600003446","0.384729399993375","1","1","1","1","1","1","1","1","1"
"260020","img/object_images/Witchhat01.jpg","img/object_images/funnel01.jpg","img/object_images/grater01.jpg","1","0","1","1","0","1","0.384729399993375","0.455609500000719","0.415636600002472","1","1","1","1","1","1","1","1","1"
"260020","img/object_images/grater01.jpg","img/object_images/Witchhat01.jpg","img/object_images/clip02.jpg","1","1","1","1","1","1","0.415636600002472","0.384729399993375","0.509658400005719","1","1","1","1","1","1","1","1","1"
"260020","img/object_images/clip02.jpg","img/object_images/grater01.jpg","img/object_images/measuring_tape02.jpg","1","1","1","1","1","1","0.509658400005719","0.415636600002472","0.387211400004162","1","1","1","1","1","1","1","1","1"
"260020","img/object_images/measuring_tape02.jpg","img/object_images/clip02.jpg",NA,"1","1",NA,"1","1",NA,"0.387211400004162","0.509658400005719",NA,"1","1",NA,"1","1",NA,"1","1",NA
"260020","img/object_images/knife01.jpg",NA,"img/object_images/spray_can01.jpg","1",NA,"1","1",NA,"0","0.41048860000592",NA,"0.523413200004143","1",NA,"1","1",NA,"1","1",NA,"1"
"260020","img/object_images/spray_can01.jpg","img/object_images/knife01.jpg","img/object_images/hammer02.jpg","1","1","1","0","1","0","0.523413200004143","0.41048860000592","0.538220899994485","1","1","1","1","1","1","1","1","1"
"260020","img/object_images/hammer02.jpg","img/object_images/spray_can01.jpg","img/object_images/hat09.jpg","1","1","1","0","0","0","0.538220899994485","0.523413200004143","0.428534800004854","1","1","1","1","1","1","1","1","1"
"260020","img/object_images/hat09.jpg","img/object_images/hammer02.jpg","img/object_images/pen06.jpg","1","1","1","0","0","0","0.428534800004854","0.538220899994485","0.438836300003459","1","1","1","1","1","1","1","1","1"
"260020","img/object_images/pen06.jpg","img/object_images/hat09.jpg","img/object_images/hat13.jpg","1","1","1","0","0","1","0.438836300003459","0.428534800004854","0.379107200002181","1","1","1","1","1","1","1","1","1"
"260020","img/object_images/hat13.jpg","img/object_images/pen06.jpg","img/object_images/ruler02.jpg","1","1","1","1","0","1","0.379107200002181","0.438836300003459","0.448643000003358","1","1","1","1","1","1","1","1","1"
"260020","img/object_images/ruler02.jpg","img/object_images/hat13.jpg","img/object_images/tool20.jpg","1","1","1","1","1","0","0.448643000003358","0.379107200002181","0.469676399996388","1","1","1","1","1","1","1","1","1"
"260020","img/object_images/tool20.jpg","img/object_images/ruler02.jpg","img/object_images/glasses03.jpg","1","1","0","0","1","0","0.469676399996388","0.448643000003358","0.383502900003805","1","1","1","1","1","1","1","1","1"
"260020","img/object_images/glasses03.jpg","img/object_images/tool20.jpg","img/object_images/duster01.jpg","0","1","1","0","0","0","0.383502900003805","0.469676399996388","0.549567999994906","1","1","1","1","1","1","1","1","1"
"260020","img/object_images/duster01.jpg","img/object_images/glasses03.jpg","img/object_images/pan03.jpg","1","0","1","0","0","1","0.549567999994906","0.383502900003805","0.431403900001897","1","1","1","1","1","1","1","1","1"
"260020","img/object_images/pan03.jpg","img/object_images/duster01.jpg","img/object_images/cup01.jpg","1","1","1","1","0","0","0.431403900001897","0.549567999994906","0.429207200002566","1","1","1","1","1","1","1","1","1"
"260020","img/object_images/cup01.jpg","img/object_images/pan03.jpg","img/object_images/lemon_squeezer01.jpg","1","1","1","0","1","1","0.429207200002566","0.431403900001897","0.39950520000275","1","1","1","1","1","1","1","1","1"
"260020","img/object_images/lemon_squeezer01.jpg","img/object_images/cup01.jpg","img/object_images/floss01.jpg","1","1","1","1","0","1","0.39950520000275","0.429207200002566","0.355841099997633","1","1","1","1","1","1","1","1","1"
"260020","img/object_images/floss01.jpg","img/object_images/lemon_squeezer01.jpg","img/object_images/camera05.jpg","1","1","1","1","1","0","0.355841099997633","0.39950520000275","0.368630799996026","1","1","1","1","1","1","1","1","1"
"260020","img/object_images/camera05.jpg","img/object_images/floss01.jpg","img/object_images/razor02.jpg","1","1","1","0","1","1","0.368630799996026","0.355841099997633","0.46628690000216","1","1","1","1","1","1","1","1","1"
"260020","img/object_images/razor02.jpg","img/object_images/camera05.jpg","img/object_images/candle02.jpg","1","1","1","1","0","0","0.46628690000216","0.368630799996026","0.463341000002401","1","1","1","1","1","1","1","1","1"
"260020","img/object_images/candle02.jpg","img/object_images/razor02.jpg","img/object_images/clipboard01.jpg","1","1","1","0","1","1","0.463341000002401","0.46628690000216","0.459964800000307","1","1","1","1","1","1","1","1","1"
"260020","img/object_images/clipboard01.jpg","img/object_images/candle02.jpg","img/object_images/office_supplies01.jpg","1","1","1","1","0","1","0.459964800000307","0.463341000002401","0.343024000001606","1","1","1","1","1","1","1","1","1"
"260020","img/object_images/office_supplies01.jpg","img/object_images/clipboard01.jpg","img/object_images/socks01.jpg","1","1","1","1","1","1","0.343024000001606","0.459964800000307","0.350474200000463","1","1","1","1","1","1","1","1","1"
"260020","img/object_images/socks01.jpg","img/object_images/office_supplies01.jpg","img/object_images/Confetti 01.jpg","1","1","0","1","1","0","0.350474200000463","0.343024000001606","0.38659490000282","1","1","1","1","1","1","1","1","1"
"260020","img/object_images/Confetti 01.jpg","img/object_images/socks01.jpg","img/object_images/vase02.jpg","0","1","1","0","1","1","0.38659490000282","0.350474200000463","0.371891599999799","1","1","1","1","1","1","1","1","1"
"260020","img/object_images/vase02.jpg","img/object_images/Confetti 01.jpg","img/object_images/video_game02.jpg","1","0","1","1","0","1","0.371891599999799","0.38659490000282","0.427566999998817","1","1","1","1","1","1","1","1","1"
"260020","img/object_images/video_game02.jpg","img/object_images/vase02.jpg","img/object_images/board01.jpg","1","1","1","1","1","1","0.427566999998817","0.371891599999799","0.380883399993763","1","1","1","1","1","1","1","1","1"
"260020","img/object_images/board01.jpg","img/object_images/video_game02.jpg","img/object_images/perfume01.jpg","1","1","1","1","1","0","0.380883399993763","0.427566999998817","0.529718199999479","1","1","1","1","1","1","1","1","1"
"260020","img/object_images/perfume01.jpg","img/object_images/board01.jpg","img/object_images/bag04.jpg","1","1","1","0","1","0","0.529718199999479","0.380883399993763","0.566948500003491","1","1","1","1","1","1","1","1","1"
"260020","img/object_images/bag04.jpg","img/object_images/perfume01.jpg","img/object_images/sign02.jpg","1","1","1","0","0","0","0.566948500003491","0.529718199999479","0.490721800000756","1","1","1","1","1","1","1","1","1"
"260020","img/object_images/sign02.jpg","img/object_images/bag04.jpg","img/object_images/dust_pan01.jpg","1","1","1","0","0","1","0.490721800000756","0.566948500003491","0.429599700000836","1","1","1","1","1","1","1","1","1"
"260020","img/object_images/dust_pan01.jpg","img/object_images/sign02.jpg","img/object_images/Candle_Holder01.jpg","1","1","1","1","0","0","0.429599700000836","0.490721800000756","0.505013800000597","1","1","1","1","1","1","1","1","1"
"260020","img/object_images/Candle_Holder01.jpg","img/object_images/dust_pan01.jpg","img/object_images/tool13.jpg","1","1","1","0","1","1","0.505013800000597","0.429599700000836","0.432293999998365","1","1","1","1","1","1","1","1","1"
"260020","img/object_images/tool13.jpg","img/object_images/Candle_Holder01.jpg","img/object_images/bow_tie03.jpg","1","1","1","1","0","1","0.432293999998365","0.505013800000597","0.405839699997159","1","1","1","1","1","1","1","1","1"
"260020","img/object_images/bow_tie03.jpg","img/object_images/tool13.jpg","img/object_images/sink_filter01 (1).jpg","1","1","1","1","1","0","0.405839699997159","0.432293999998365","0.432840900000883","1","1","1","1","1","1","1","1","1"
"260020","img/object_images/sink_filter01 (1).jpg","img/object_images/bow_tie03.jpg",NA,"1","1",NA,"0","1",NA,"0.432840900000883","0.405839699997159",NA,"1","1",NA,"1","1",NA,"1","1",NA
"260020","img/object_images/backpack01.jpg",NA,"img/object_images/boat04.jpg","1",NA,"1","0",NA,"0","0.561447200001567",NA,"0.479086500003177","1",NA,"1","1",NA,"1","1",NA,"1"
"260020","img/object_images/boat04.jpg","img/object_images/backpack01.jpg","img/object_images/bottle07.jpg","1","1","1","0","0","1","0.479086500003177","0.561447200001567","0.412679000000935","1","1","1","1","1","1","1","1","1"
"260020","img/object_images/bottle07.jpg","img/object_images/boat04.jpg","img/object_images/shower_head01.jpg","1","1","1","1","0","1","0.412679000000935","0.479086500003177","0.380842200000188","1","1","1","1","1","1","1","1","1"
"260020","img/object_images/shower_head01.jpg","img/object_images/bottle07.jpg","img/object_images/remote_controller01.jpg","1","1","1","1","1","1","0.380842200000188","0.412679000000935","0.406978500002879","1","1","1","1","1","1","1","1","1"
"260020","img/object_images/remote_controller01.jpg","img/object_images/shower_head01.jpg","img/object_images/knife02.jpg","1","1","0","1","1","0","0.406978500002879","0.380842200000188","0.374086600000737","1","1","1","1","1","1","1","1","1"
"260020","img/object_images/knife02.jpg","img/object_images/remote_controller01.jpg","img/object_images/Statue01.jpg","0","1","1","0","1","1","0.374086600000737","0.406978500002879","0.469774000004691","1","1","1","1","1","1","1","1","1"
"260020","img/object_images/Statue01.jpg","img/object_images/knife02.jpg","img/object_images/video_game01.jpg","1","0","1","1","0","1","0.469774000004691","0.374086600000737","0.348352900000464","1","1","1","1","1","1","1","1","1"
"260020","img/object_images/video_game01.jpg","img/object_images/Statue01.jpg","img/object_images/knit03.jpg","1","1","1","1","1","1","0.348352900000464","0.469774000004691","0.379437800002052","1","1","1","1","1","1","1","1","1"
"260020","img/object_images/knit03.jpg","img/object_images/video_game01.jpg","img/object_images/sponge03.jpg","1","1","1","1","1","1","0.379437800002052","0.348352900000464","0.366461899997375","1","1","1","1","1","1","1","1","1"
"260020","img/object_images/sponge03.jpg","img/object_images/knit03.jpg","img/object_images/hoverboard01.jpg","1","1","1","1","1","0","0.366461899997375","0.379437800002052","0.461916099993687","1","1","1","1","1","1","1","1","1"
"260020","img/object_images/hoverboard01.jpg","img/object_images/sponge03.jpg","img/object_images/mail_box01.jpg","1","1","0","0","1","0","0.461916099993687","0.366461899997375","0.387915599996631","1","1","1","1","1","1","1","1","1"
"260020","img/object_images/mail_box01.jpg","img/object_images/hoverboard01.jpg","img/object_images/basket04.jpg","0","1","1","0","0","1","0.387915599996631","0.461916099993687","0.375950100002228","1","1","1","1","1","1","1","1","1"
"260020","img/object_images/basket04.jpg","img/object_images/mail_box01.jpg","img/object_images/kite01.jpg","1","0","1","1","0","1","0.375950100002228","0.387915599996631","0.436717899996438","1","1","1","1","1","1","1","1","1"
"260020","img/object_images/kite01.jpg","img/object_images/basket04.jpg","img/object_images/toy08.jpg","1","1","0","1","1","0","0.436717899996438","0.375950100002228","0.389605500000471","1","1","1","1","1","1","1","1","1"
"260020","img/object_images/toy08.jpg","img/object_images/kite01.jpg","img/object_images/knit04.jpg","0","1","1","0","1","1","0.389605500000471","0.436717899996438","0.433470600000874","1","1","1","1","1","1","1","1","1"
"260020","img/object_images/knit04.jpg","img/object_images/toy08.jpg","img/object_images/stereo02.jpg","1","0","0","1","0","0","0.433470600000874","0.389605500000471","0.335928000000422","1","1","1","1","1","1","1","1","1"
"260020","img/object_images/stereo02.jpg","img/object_images/knit04.jpg","img/object_images/camera03.jpg","0","1","1","0","1","0","0.335928000000422","0.433470600000874","0.43841579999571","1","1","1","1","1","1","1","1","1"
"260020","img/object_images/camera03.jpg","img/object_images/stereo02.jpg","img/object_images/car01.jpg","1","0","1","0","0","1","0.43841579999571","0.335928000000422","0.459773300004599","1","1","1","1","1","1","1","1","1"
"260020","img/object_images/car01.jpg","img/object_images/camera03.jpg","img/object_images/keyboard02.jpg","1","1","1","1","0","1","0.459773300004599","0.43841579999571","0.422455299994908","1","1","1","1","1","1","1","1","1"
"260020","img/object_images/keyboard02.jpg","img/object_images/car01.jpg","img/object_images/dresser03.jpg","1","1","1","1","1","0","0.422455299994908","0.459773300004599","0.476890300000378","1","1","1","1","1","1","1","1","1"
"260020","img/object_images/dresser03.jpg","img/object_images/keyboard02.jpg","img/object_images/remover01.jpg","1","1","1","0","1","1","0.476890300000378","0.422455299994908","0.408196000003954","1","1","1","1","1","1","1","1","1"
"260020","img/object_images/remover01.jpg","img/object_images/dresser03.jpg","img/object_images/hand_grip_exerciser01.jpg","1","1","0","1","0","0","0.408196000003954","0.476890300000378","0.354000400002406","1","1","1","1","1","1","1","1","1"
"260020","img/object_images/hand_grip_exerciser01.jpg","img/object_images/remover01.jpg","img/object_images/tool18.jpg","0","1","0","0","1","0","0.354000400002406","0.408196000003954","0.549075999995694","1","1","1","1","1","1","1","1","2"
"260020","img/object_images/tool18.jpg","img/object_images/hand_grip_exerciser01.jpg","img/object_images/matches02.jpg","0","0","1","0","0","0","0.549075999995694","0.354000400002406","0.491931299999123","1","1","1","1","1","1","2","1","1"
"260020","img/object_images/matches02.jpg","img/object_images/tool18.jpg","img/object_images/gloves02.jpg","1","0","1","0","0","0","0.491931299999123","0.549075999995694","0.48962589999428","1","1","1","1","1","1","1","2","1"
"260020","img/object_images/gloves02.jpg","img/object_images/matches02.jpg","img/object_images/paper_cup02.jpg","1","1","1","0","0","1","0.48962589999428","0.491931299999123","0.48152570000093","1","1","1","1","1","1","1","1","1"
"260020","img/object_images/paper_cup02.jpg","img/object_images/gloves02.jpg","img/object_images/phone02.jpg","1","1","1","1","0","1","0.48152570000093","0.48962589999428","0.514703900000313","1","1","1","1","1","1","1","1","1"
"260020","img/object_images/phone02.jpg","img/object_images/paper_cup02.jpg","img/object_images/jacket04.jpg","1","1","1","1","1","0","0.514703900000313","0.48152570000093","0.474044399998093","1","1","1","1","1","1","1","1","1"
"260020","img/object_images/jacket04.jpg","img/object_images/phone02.jpg","img/object_images/curtain02.jpg","1","1","0","0","1","0","0.474044399998093","0.514703900000313","0.468403499995475","1","1","1","1","1","1","1","1","1"
"260020","img/object_images/curtain02.jpg","img/object_images/jacket04.jpg","img/object_images/flashlight03.jpg","0","1","1","0","0","0","0.468403499995475","0.474044399998093","0.420872299997427","1","1","1","1","1","1","1","1","1"
"260020","img/object_images/flashlight03.jpg","img/object_images/curtain02.jpg","img/object_images/blender02.jpg","1","0","1","0","0","1","0.420872299997427","0.468403499995475","0.43895390000398","1","1","1","1","1","1","1","1","1"
"260020","img/object_images/blender02.jpg","img/object_images/flashlight03.jpg",NA,"1","1",NA,"1","0",NA,"0.43895390000398","0.420872299997427",NA,"1","1",NA,"1","1",NA,"1","1",NA
