"participant_id","object","surpAcc","memory_surp_responses","memory_surp_rt","keep_surp_memory_trial_based_on_rt","surp_block_num","exclude_block","number_of_surp_resp_items_used","num_blocks_excluded"
"260040","img/object_images/bow_tie01.jpg","1","k","1.56865599998855",1,1,0,2,0
"260040","img/object_images/accardion01.jpg","1","s","3.00452289998066",1,1,0,2,0
"260040","img/object_images/microphone03.jpg","0","s","2.18705129998852",1,1,0,2,0
"260040","img/object_images/jewel04.jpg","1","k","0.861227299988968",1,1,0,2,0
"260040","img/object_images/ruler02.jpg","1","s","1.19131039999775",1,1,0,2,0
"260040","img/object_images/guitar02.jpg","1","k","1.79162949998863",1,1,0,2,0
"260040","img/object_images/book03.jpg","0","k","2.21485049999319",1,1,0,2,0
"260040","img/object_images/knife04.jpg","1","k","3.08808139999746",1,1,0,2,0
"260040","img/object_images/crown02.jpg","1","k","1.17219000001205",1,1,0,2,0
"260040","img/object_images/video_game02.jpg","0","k","2.02959489999921",1,1,0,2,0
"260040","img/object_images/Thermometer01.jpg","1","k","1.06983480000054",1,1,0,2,0
"260040","img/object_images/boat04.jpg","1","s","3.46163830001024",1,1,0,2,0
"260040","img/object_images/hair_brush02.jpg","1","s","3.94657259999076",1,1,0,2,0
"260040","img/object_images/fan01.jpg","1","k","1.05432440000004",1,1,0,2,0
"260040","img/object_images/pot01.jpg","1","s","3.96628879997297",1,1,0,2,0
"260040","img/object_images/razor01.jpg","1","s","1.32155129997409",1,1,0,2,0
"260040","img/object_images/Lint_Roller02.jpg","0","s","3.69028690000414",1,1,0,2,0
"260040","img/object_images/mask01.jpg","1","s","2.167862399976",1,1,0,2,0
"260040","img/object_images/Traffic Sign 01.jpg","1","s","0.960504500020761",1,1,0,2,0
"260040","img/object_images/shower_head01.jpg","1","s","3.83923069998855",1,1,0,2,0
"260040","img/object_images/sink01.jpg","1","k","1.30946819999372",1,1,0,2,0
"260040","img/object_images/broom01.jpg","1","k","1.20874879998155",1,1,0,2,0
"260040","img/object_images/toaster01.jpg","1","k","2.58539419999579",1,1,0,2,0
"260040","img/object_images/knife01.jpg","1","s","1.96132079997915",1,1,0,2,0
"260040","img/object_images/ToolBag01.jpg","1","s","1.06409379999968",1,1,0,2,0
"260040","img/object_images/MetalWire01.jpg","1","s","3.27131730000838",1,1,0,2,0
"260040","img/object_images/knife02.jpg","1","s","5.2525394000113",1,1,0,2,0
"260040","img/object_images/clip02.jpg","1","s","5.76654809998581",1,1,0,2,0
"260040","img/object_images/scarf01.jpg","1","s","1.27747339999769",1,1,0,2,0
"260040","img/object_images/brief_case02.jpg","1","s","4.18684919999214",1,1,0,2,0
"260040","img/object_images/flashlight03.jpg","1","k","2.99198189997696",1,1,0,2,0
"260040","img/object_images/bird_house02.jpg","1","s","3.08212319997256",1,1,0,2,0
"260040","img/object_images/dress03.jpg","0","k","2.15430289998767",1,1,0,2,0
"260040","img/object_images/purse04.jpg","1","k","1.6804196999874",1,1,0,2,0
"260040","img/object_images/perfume02.jpg","0","k","5.19513299997197",1,1,0,2,0
"260040","img/object_images/bow_tie03.jpg","0","s","3.64990750001743",1,1,0,2,0
"260040","img/object_images/pitcher02.jpg","1","k","3.1324314000085",1,1,0,2,0
"260040","img/object_images/key02.jpg","1","k","4.98006969998823",1,1,0,2,0
"260040","img/object_images/knit05.jpg","1","k","4.27700360000017",1,1,0,2,0
"260040","img/object_images/matches02.jpg","1","k","1.22829090000596",1,1,0,2,0
"260040","img/object_images/vase01.jpg","1","k","0.975337899988517",1,1,0,2,0
"260040","img/object_images/Vest02.jpg","1","s","1.00488680001581",1,1,0,2,0
"260040","img/object_images/pen03.jpg","1","k","1.31746559997555",1,1,0,2,0
"260040","img/object_images/WoodBox01.jpg","0","k","4.00964329999988",1,1,0,2,0
"260040","img/object_images/bottle05.jpg","1","k","1.58720100001665",1,1,0,2,0
"260040","img/object_images/tv01.jpg","1","k","3.39162759997998",1,1,0,2,0
"260040","img/object_images/ornament01.jpg","1","k","1.58067880000453",1,1,0,2,0
"260040","img/object_images/cellphone03.jpg","1","k","1.9129597999854",1,1,0,2,0
"260040","img/object_images/helmet01.jpg","1","s","2.41500209999504",1,2,0,2,0
"260040","img/object_images/board01.jpg","0","s","3.62515279999934",1,2,0,2,0
"260040","img/object_images/dice01.jpg","1","s","3.58720790001098",1,2,0,2,0
"260040","img/object_images/hole_puncher01.jpg","1","k","0.989846700016642",1,2,0,2,0
"260040","img/object_images/gift_box02.jpg","1","k","0.998205000010785",1,2,0,2,0
"260040","img/object_images/ball02.jpg","0","k","4.6390121000004",1,2,0,2,0
"260040","img/object_images/glasses03.jpg","1","s","1.09056549999514",1,2,0,2,0
"260040","img/object_images/lemon_squeezer02.jpg","1","k","1.51110719999997",1,2,0,2,0
"260040","img/object_images/airfryer01.jpg","1","s","6.47200849998626",1,2,0,2,0
"260040","img/object_images/pen05.jpg","1","s","2.80342449998716",1,2,0,2,0
"260040","img/object_images/pitcher01.jpg","0","k","3.44655110000167",1,2,0,2,0
"260040","img/object_images/backpack01.jpg","1","k","3.42263479999383",1,2,0,2,0
"260040","img/object_images/retainer01.jpg","1","k","1.21618300001137",1,2,0,2,0
"260040","img/object_images/ironing_table01.jpg","1","s","3.73475100001087",1,2,0,2,0
"260040","img/object_images/gauze01.jpg","1","s","1.21301760000642",1,2,0,2,0
"260040","img/object_images/ice_tray03.jpg","1","k","1.78745369997341",1,2,0,2,0
"260040","img/object_images/acoustic_capo01.jpg","1","k","2.8540992999915",1,2,0,2,0
"260040","img/object_images/microscope01.jpg","1","s","4.66019369999412",1,2,0,2,0
"260040","img/object_images/projector01.jpg","1","s","2.54768049999257",1,2,0,2,0
"260040","img/object_images/surf_board01.jpg","1","k","1.2640169999795",1,2,0,2,0
"260040","img/object_images/robe01.jpg","1","s","6.55728380000801",1,2,0,2,0
"260040","img/object_images/tie02.jpg","1","s","1.05119899997953",1,2,0,2,0
"260040","img/object_images/Witchhat01.jpg","1","s","4.2037686999829",1,2,0,2,0
"260040","img/object_images/wallet02.jpg","0","k","4.2087558999774",1,2,0,2,0
"260040","img/object_images/bath_tub01.jpg","1","s","6.9277110999974",1,2,0,2,0
"260040","img/object_images/mail_box02.jpg","1","k","4.22250529998564",1,2,0,2,0
"260040","img/object_images/TreeSlice01.jpg","0","k","2.68783049998456",1,2,0,2,0
"260040","img/object_images/boat_toy10.jpg","1","s","2.63086179998936",1,2,0,2,0
"260040","img/object_images/soap01.jpg","1","k","2.71842900000047",1,2,0,2,0
"260040","img/object_images/hat13.jpg","1","s","1.81803799999761",1,2,0,2,0
"260040","img/object_images/pan01.jpg","1","s","1.47983060000115",1,2,0,2,0
"260040","img/object_images/toothbrush01.jpg","1","s","5.90483919999679",1,2,0,2,0
"260040","img/object_images/crutches02.jpg","1","k","1.00959109998075",1,2,0,2,0
"260040","img/object_images/tool07.jpg","1","s","3.97539929999039",1,2,0,2,0
"260040","img/object_images/tool11.jpg","1","k","1.11722539999755",1,2,0,2,0
"260040","img/object_images/vase02.jpg","1","s","1.19850410000072",1,2,0,2,0
"260040","img/object_images/slinky_toy01.jpg","1","s","1.3674808999931",1,2,0,2,0
"260040","img/object_images/ear_bud01.jpg","1","s","0.981838899984723",1,2,0,2,0
"260040","img/object_images/clip04.jpg","1","k","4.55955599999288",1,2,0,2,0
"260040","img/object_images/knit01.jpg","1","s","1.77372940001078",1,2,0,2,0
"260040","img/object_images/pen01.jpg","1","k","6.27103750000242",1,2,0,2,0
"260040","img/object_images/curtain02.jpg","1","s","1.25804710001103",1,2,0,2,0
"260040","img/object_images/note_book02.jpg","1","s","1.43532820002292",1,2,0,2,0
"260040","img/object_images/hammer03.jpg","1","s","1.54627510000137",1,2,0,2,0
"260040","img/object_images/trash_can05.jpg","0","s","2.27150859998073",1,2,0,2,0
"260040","img/object_images/lemon_squeezer01.jpg","0","s","4.42655109998304",1,2,0,2,0
"260040","img/object_images/tripod01.jpg","1","k","1.68311340000946",1,2,0,2,0
"260040","img/object_images/WitchHat02.jpg","0","s","2.72271040000487",1,2,0,2,0
"260040","img/object_images/water_gun01.jpg","1","k","2.76484160000109",1,3,0,2,0
"260040","img/object_images/tool02.jpg","1","s","1.25698010000633",1,3,0,2,0
"260040","img/object_images/camera05.jpg","1","s","1.51515970000764",1,3,0,2,0
"260040","img/object_images/Violin01.jpg","1","s","0.953707700013183",1,3,0,2,0
"260040","img/object_images/hoverboard01.jpg","1","s","0.820177199988393",1,3,0,2,0
"260040","img/object_images/candle02.jpg","0","k","2.2121460000053",1,3,0,2,0
"260040","img/object_images/toy03.jpg","0","k","2.40200000000186",1,3,0,2,0
"260040","img/object_images/stereo02.jpg","0","s","1.52038189998711",1,3,0,2,0
"260040","img/object_images/bookmark01.jpg","1","k","0.97534460001043",1,3,0,2,0
"260040","img/object_images/toy08.jpg","1","s","4.07403099999647",1,3,0,2,0
"260040","img/object_images/audio_port01.jpg","0","k","2.59881009999663",1,3,0,2,0
"260040","img/object_images/bucket02.jpg","1","s","1.22154929998214",1,3,0,2,0
"260040","img/object_images/tool08.jpg","1","k","1.75504089999595",1,3,0,2,0
"260040","img/object_images/origami01.jpg","1","s","1.7287639999995",1,3,0,2,0
"260040","img/object_images/sleeping_bag01.jpg","0","s","2.55168669999694",1,3,0,2,0
"260040","img/object_images/bottle12.jpg","1","s","2.42062779999105",1,3,0,2,0
"260040","img/object_images/blender01.jpg","1","s","1.97898229997372",1,3,0,2,0
"260040","img/object_images/basket02.jpg","1","s","1.811933399993",1,3,0,2,0
"260040","img/object_images/spatula02.jpg","1","k","3.17584509999142",1,3,0,2,0
"260040","img/object_images/Candle_Holder01.jpg","1","s","1.41287069997634",1,3,0,2,0
"260040","img/object_images/sink_filter01 (1).jpg","1","s","1.62843860001885",1,3,0,2,0
"260040","img/object_images/kite01.jpg","0","s","1.22839600002044",1,3,0,2,0
"260040","img/object_images/trumpet01.jpg","1","s","4.6634355999995",1,3,0,2,0
"260040","img/object_images/book02.jpg","1","s","3.45048120000865",1,3,0,2,0
"260040","img/object_images/Tin01.jpg","1","s","2.2871028999798",1,3,0,2,0
"260040","img/object_images/fan04.jpg","1","s","1.41095849999692",1,3,0,2,0
"260040","img/object_images/exfoliater_brush01.jpg","1","s","2.70592320000287",1,3,0,2,0
"260040","img/object_images/toy_train02.jpg","0","k","2.56830849999096",1,3,0,2,0
"260040","img/object_images/TrashCan02.jpg","1","s","2.8506122000108",1,3,0,2,0
"260040","img/object_images/shovel01.jpg","1","k","1.51703210000414",1,3,0,2,0
"260040","img/object_images/gloves05.jpg","1","s","2.00426829999196",1,3,0,2,0
"260040","img/object_images/dog_leash01.jpg","1","k","1.00959579998744",1,3,0,2,0
"260040","img/object_images/backpack03.jpg","1","k","1.28470489999745",1,3,0,2,0
"260040","img/object_images/bag04.jpg","1","s","3.21980489999987",1,3,0,2,0
"260040","img/object_images/combs01.jpg","0","k","2.20883979997598",1,3,0,2,0
"260040","img/object_images/note_book01.jpg","1","s","2.8549989000021",1,3,0,2,0
"260040","img/object_images/MeasuringCup01.jpg","0","s","2.42191099998308",1,3,0,2,0
"260040","img/object_images/toy01.jpg","1","k","1.71364360000007",1,3,0,2,0
"260040","img/object_images/lock03.jpg","1","k","1.97545619998709",1,3,0,2,0
"260040","img/object_images/bottle02.jpg","1","s","1.50583239999833",1,3,0,2,0
"260040","img/object_images/computer_mouse01.jpg","0","s","4.72349889998441",1,3,0,2,0
"260040","img/object_images/yarn02.jpg","1","k","3.26018369998201",1,3,0,2,0
"260040","img/object_images/video_game06.jpg","0","s","1.74889630000689",1,3,0,2,0
"260040","img/object_images/jewelry01.jpg","1","k","0.968782999989344",1,3,0,2,0
"260040","img/object_images/floppy_disk02.jpg","1","k","2.76320479999413",1,3,0,2,0
"260040","img/object_images/clock02.jpg","1","s","1.57683599999291",1,3,0,2,0
"260040","img/object_images/Ring02.jpg","1","k","0.912710199976573",1,3,0,2,0
"260040","img/object_images/book01.jpg","0","s","1.2422540000116",1,3,0,2,0
"260040","img/object_images/hat02.jpg","1","k","1.71106470000814",1,4,0,2,0
"260040","img/object_images/egg_slicer01.jpg","1","k","1.29577110000537",1,4,0,2,0
"260040","img/object_images/couch03.jpg","1","s","1.2454238999926",1,4,0,2,0
"260040","img/object_images/flask01.jpg","1","k","2.34350119999726",1,4,0,2,0
"260040","img/object_images/yo_yo01.jpg","1","k","1.58117689998471",1,4,0,2,0
"260040","img/object_images/lamp01.jpg","0","k","1.97338239999954",1,4,0,2,0
"260040","img/object_images/basket04.jpg","1","s","1.17027519998373",1,4,0,2,0
"260040","img/object_images/judge_gavel01.jpg","1","k","0.88628289999906",1,4,0,2,0
"260040","img/object_images/Wisk01.jpg","0","k","1.44013750000158",1,4,0,2,0
"260040","img/object_images/cards01.jpg","1","k","0.893824500002665",1,4,0,2,0
"260040","img/object_images/jewel02.jpg","1","k","1.12649049999891",1,4,0,2,0
"260040","img/object_images/video_game07.jpg","0","k","1.85044880001806",1,4,0,2,0
"260040","img/object_images/brief_case01.jpg","1","k","1.02988499999628",1,4,0,2,0
"260040","img/object_images/bag_pipes01.jpg","1","s","1.31715159997111",1,4,0,2,0
"260040","img/object_images/pitcher05.jpg","1","s","1.29337610001676",1,4,0,2,0
"260040","img/object_images/mirror01.jpg","1","s","1.15421559999231",1,4,0,2,0
"260040","img/object_images/Woopie01.jpg","1","k","2.41089420000208",1,4,0,2,0
"260040","img/object_images/bottle01.jpg","1","k","6.73975020000944",1,4,0,2,0
"260040","img/object_images/water_scooter01.jpg","0","s","1.44188970001414",1,4,0,2,0
"260040","img/object_images/chess_piece02.jpg","1","s","1.76006239998969",1,4,0,2,0
"260040","img/object_images/bicycle_lock01.jpg","1","s","4.42359489999944",1,4,0,2,0
"260040","img/object_images/hair_brush05.jpg","0","k","2.58219080002164",1,4,0,2,0
"260040","img/object_images/motorcycle01.jpg","1","k","6.83452259999467",1,4,0,2,0
"260040","img/object_images/speaker01.jpg","1","s","1.25512139999773",1,4,0,2,0
"260040","img/object_images/Statue01.jpg","0","k","2.76266999999643",1,4,0,2,0
"260040","img/object_images/container01.jpg","1","s","1.17265550000593",1,4,0,2,0
"260040","img/object_images/bean_bag02.jpg","1","k","1.21800429999712",1,4,0,2,0
"260040","img/object_images/Trowel01.jpg","0","s","1.72253100000671",1,4,0,2,0
"260040","img/object_images/guitar01.jpg","1","s","1.22851980000269",1,4,0,2,0
"260040","img/object_images/handcuffs01.jpg","1","k","1.22699339999235",1,4,0,2,0
"260040","img/object_images/usb03.jpg","1","s","1.5902466000116",1,4,0,2,0
"260040","img/object_images/bottle09.jpg","1","s","2.62854019997758",1,4,0,2,0
"260040","img/object_images/hammer01.jpg","1","k","2.25694590000785",1,4,0,2,0
"260040","img/object_images/chair05.jpg","0","k","3.6706753000035",1,4,0,2,0
"260040","img/object_images/chair02.jpg","0","k","1.06371949997265",1,4,0,2,0
"260040","img/object_images/Staples01.jpg","1","s","2.00252979999641",1,4,0,2,0
"260040","img/object_images/joystick03.jpg","1","k","2.0701631999982",1,4,0,2,0
"260040","img/object_images/bow01.jpg","1","s","1.42557490000036",1,4,0,2,0
"260040","img/object_images/colander01.jpg","1","s","1.46446659998037",1,4,0,2,0
"260040","img/object_images/piggy_bank01.jpg","0","s","1.84861230000388",1,4,0,2,0
"260040","img/object_images/ball01.jpg","0","k","1.8413925000059",1,4,0,2,0
"260040","img/object_images/chain01.jpg","1","s","1.56508589998703",1,4,0,2,0
"260040","img/object_images/golf_ball03.jpg","1","k","1.17327389999991",1,4,0,2,0
"260040","img/object_images/Pottery01.jpg","1","k","2.12059899998712",1,4,0,2,0
"260040","img/object_images/knit03.jpg","1","s","3.30389729997842",1,4,0,2,0
"260040","img/object_images/jacket04.jpg","1","k","1.2825756999955",1,4,0,2,0
"260040","img/object_images/lighter01.jpg","1","k","1.7902410000097",1,4,0,2,0
"260040","img/object_images/tool18.jpg","1","k","1.17435580000165",1,4,0,2,0
"260040","img/object_images/car04.jpg","1","s","5.02122059999965",1,5,0,2,0
"260040","img/object_images/Vacuum01.jpg","1","s","4.86254500001087",1,5,0,2,0
"260040","img/object_images/tie01.jpg","1","s","1.61003379998147",1,5,0,2,0
"260040","img/object_images/lid01.jpg","0","s","1.21790039999178",1,5,0,2,0
"260040","img/object_images/helmet03.jpg","1","k","1.01033310001367",1,5,0,2,0
"260040","img/object_images/lawn_mower01.jpg","1","k","1.94764870000654",1,5,0,2,0
"260040","img/object_images/paint_brush04.jpg","0","s","3.28999009999097",1,5,0,2,0
"260040","img/object_images/grater01.jpg","1","k","4.11635399999795",1,5,0,2,0
"260040","img/object_images/sign02.jpg","1","s","1.86819690000266",1,5,0,2,0
"260040","img/object_images/shoes10.jpg","1","k","1.16698849998647",1,5,0,2,0
"260040","img/object_images/helmet05.jpg","1","s","1.12066260000574",1,5,0,2,0
"260040","img/object_images/video_game01.jpg","0","s","1.2104986999766",1,5,0,2,0
"260040","img/object_images/headset02.jpg","1","k","1.66593290001038",1,5,0,2,0
"260040","img/object_images/watch01.jpg","0","s","2.47794959999737",1,5,0,2,0
"260040","img/object_images/fan05.jpg","1","k","1.03171669997391",1,5,0,2,0
"260040","img/object_images/razor02.jpg","0","s","1.2461873999855",1,5,0,2,0
"260040","img/object_images/pitcher09.jpg","0","k","1.05684069998097",1,5,0,2,0
"260040","img/object_images/socks01.jpg","0","k","2.58042369998293",1,5,0,2,0
"260040","img/object_images/office_supplies01.jpg","1","k","1.89920580000035",1,5,0,2,0
"260040","img/object_images/shoes08.jpg","1","k","2.86108069997863",1,5,0,2,0
"260040","img/object_images/coloring_pencil02.jpg","0","s","1.37538129999302",1,5,0,2,0
"260040","img/object_images/clip03.jpg","0","k","2.64601670001866",1,5,0,2,0
"260040","img/object_images/tool13.jpg","1","s","1.05722180000157",1,5,0,2,0
"260040","img/object_images/bottle10.jpg","1","s","1.32051750001847",1,5,0,2,0
"260040","img/object_images/laptop01.jpg","1","s","1.74497920001158",1,5,0,2,0
"260040","img/object_images/lock01.jpg","1","s","1.76045900001191",1,5,0,2,0
"260040","img/object_images/jewelry09.jpg","1","k","1.00023549998878",1,5,0,2,0
"260040","img/object_images/lock04.jpg","1","s","1.72225099999923",1,5,0,2,0
"260040","img/object_images/coloring_pencil01.jpg","1","s","1.11696599997231",1,5,0,2,0
"260040","img/object_images/hammer02.jpg","1","s","1.35259399999632",1,5,0,2,0
"260040","img/object_images/pitcher03.jpg","1","k","1.46985799999675",1,5,0,2,0
"260040","img/object_images/bag06.jpg","1","s","1.58016179999686",1,5,0,2,0
"260040","img/object_images/faucet01.jpg","1","s","1.38316629998735",1,5,0,2,0
"260040","img/object_images/balloon01.jpg","0","k","2.4399354000052",1,5,0,2,0
"260040","img/object_images/dresser03.jpg","1","s","2.46791529998882",1,5,0,2,0
"260040","img/object_images/binoculars03.jpg","1","k","2.36368629999924",1,5,0,2,0
"260040","img/object_images/toy04.jpg","0","s","3.31546199999866",1,5,0,2,0
"260040","img/object_images/jewel01.jpg","1","s","2.21658379997825",1,5,0,2,0
"260040","img/object_images/tennis_racket01.jpg","1","s","3.5538588000054",1,5,0,2,0
"260040","img/object_images/bow_tie02.jpg","1","s","0.977065000013681",1,5,0,2,0
"260040","img/object_images/phone02.jpg","0","k","2.5268024999823",1,5,0,2,0
"260040","img/object_images/badminton01.jpg","1","k","2.08808060002048",1,5,0,2,0
"260040","img/object_images/Kitchen_Towel.jpg","0","s","2.66125589999137",1,5,0,2,0
"260040","img/object_images/camera07.jpg","1","s","1.45843009999953",1,5,0,2,0
"260040","img/object_images/bell03.jpg","1","k","4.38261169998441",1,5,0,2,0
"260040","img/object_images/socks02.jpg","0","s","1.37352479997207",1,5,0,2,0
"260040","img/object_images/vga_port 01.jpg","1","k","0.975217299972428",1,5,0,2,0
"260040","img/object_images/couch04.jpg","1","s","3.3780270999996",1,5,0,2,0
"260040","img/object_images/tray01.jpg","1","k","2.09047110000392",1,6,0,2,0
"260040","img/object_images/tool19.jpg","1","k","3.01807890000055",1,6,0,2,0
"260040","img/object_images/gift_box05.jpg","1","s","1.82096539999475",1,6,0,2,0
"260040","img/object_images/hair_brush01.jpg","1","s","3.78218110001762",1,6,0,2,0
"260040","img/object_images/ribbon01.jpg","0","s","2.10970919998363",1,6,0,2,0
"260040","img/object_images/hair_dryer01.jpg","0","s","3.94786549999844",1,6,0,2,0
"260040","img/object_images/pitcher07.jpg","1","k","1.01216579999891",1,6,0,2,0
"260040","img/object_images/shoes07.jpg","1","k","2.59665779999341",1,6,0,2,0
"260040","img/object_images/paper_cup02.jpg","1","k","2.0752221000148",1,6,0,2,0
"260040","img/object_images/remote_controller01.jpg","1","k","6.08648619998712",1,6,0,2,0
"260040","img/object_images/car02.jpg","0","k","2.19826730000204",1,6,0,2,0
"260040","img/object_images/jewelry07.jpg","1","k","2.08831360001932",1,6,0,2,0
"260040","img/object_images/keyboard02.jpg","1","s","1.49316349998116",1,6,0,2,0
"260040","img/object_images/ironing_table02.jpg","1","k","1.14119470000151",1,6,0,2,0
"260040","img/object_images/tool06.jpg","1","k","2.17321009997977",1,6,0,2,0
"260040","img/object_images/belt01.jpg","0","s","2.02901709999423",1,6,0,2,0
"260040","img/object_images/perfume01.jpg","1","s","1.73735670000315",1,6,0,2,0
"260040","img/object_images/chair04.jpg","0","s","1.61858549999306",1,6,0,2,0
"260040","img/object_images/soap03.jpg","1","k","1.23135439999169",1,6,0,2,0
"260040","img/object_images/Eyeliner01.jpg","1","k","0.995287500001723",1,6,0,2,0
"260040","img/object_images/fork02.jpg","1","k","1.28984309997759",1,6,0,2,0
"260040","img/object_images/Sprayer01.jpg","0","k","1.9926963999751",1,6,0,2,0
"260040","img/object_images/rock02.jpg","1","k","1.0004894999729",1,6,0,2,0
"260040","img/object_images/funnel01.jpg","1","s","1.52970240000286",1,6,0,2,0
"260040","img/object_images/piano03.jpg","0","k","2.44120249999105",1,6,0,2,0
"260040","img/object_images/blender02.jpg","0","s","1.2636635999952",1,6,0,2,0
"260040","img/object_images/toy05.jpg","1","k","2.00530839999556",1,6,0,2,0
"260040","img/object_images/cup03.jpg","0","k","1.47380249999696",1,6,0,2,0
"260040","img/object_images/hand_grip_exerciser01.jpg","0","s","3.44509449999896",1,6,0,2,0
"260040","img/object_images/drone02.jpg","0","k","1.04486849997193",1,6,0,2,0
"260040","img/object_images/scale02.jpg","1","k","1.21495550000691",1,6,0,2,0
"260040","img/object_images/hot_air_balloon02.jpg","0","s","2.22819090000121",1,6,0,2,0
"260040","img/object_images/usb02.jpg","1","s","1.24938470000052",1,6,0,2,0
"260040","img/object_images/umbrella01.jpg","0","s","2.53863070000079",1,6,0,2,0
"260040","img/object_images/spray_can01.jpg","1","s","0.918100000009872",1,6,0,2,0
"260040","img/object_images/bucket01.jpg","1","k","2.22316939997836",1,6,0,2,0
"260040","img/object_images/jewel03.jpg","1","s","1.44878679999965",1,6,0,2,0
"260040","img/object_images/shoes12.jpg","1","k","1.1028374999878",1,6,0,2,0
"260040","img/object_images/paper_cup01.jpg","1","k","1.73832580001908",1,6,0,2,0
"260040","img/object_images/shower_head03.jpg","0","s","1.62642009998672",1,6,0,2,0
"260040","img/object_images/computer_mouse02.jpg","0","k","0.974305499985348",1,6,0,2,0
"260040","img/object_images/camera_lens01.jpg","1","s","2.30930269998498",1,6,0,2,0
"260040","img/object_images/purse01.jpg","1","s","1.38178930000868",1,6,0,2,0
"260040","img/object_images/fridge03.jpg","1","k","2.51288200001",1,6,0,2,0
"260040","img/object_images/glasses07.jpg","0","s","3.20561749997432",1,6,0,2,0
"260040","img/object_images/toaster02.jpg","1","k","1.33438060001936",1,6,0,2,0
"260040","img/object_images/cutting_board01.jpg","1","k","1.6340085999982",1,6,0,2,0
"260040","img/object_images/trash_can03.jpg","0","s","1.14578000002075",1,6,0,2,0
"260040","img/object_images/screwdriver01.jpg","0","s","1.54929399999673",1,7,0,2,0
"260040","img/object_images/towels01.jpg","0","s","1.11992580001242",1,7,0,2,0
"260040","img/object_images/duster01.jpg","1","k","1.12717570000677",1,7,0,2,0
"260040","img/object_images/jacket03.jpg","1","s","1.13897699999507",1,7,0,2,0
"260040","img/object_images/towel02.jpg","0","s","1.17456720001064",1,7,0,2,0
"260040","img/object_images/cup01.jpg","1","s","2.46947879999061",1,7,0,2,0
"260040","img/object_images/hair_clips01.jpg","1","s","0.874596799985738",1,7,0,2,0
"260040","img/object_images/basketball_hoop02.jpg","1","s","1.35925000000861",1,7,0,2,0
"260040","img/object_images/hat09.jpg","1","s","1.52689440001268",1,7,0,2,0
"260040","img/object_images/remover01.jpg","0","k","2.27425660000881",1,7,0,2,0
"260040","img/object_images/video_game03.jpg","1","s","1.51342860001023",1,7,0,2,0
"260040","img/object_images/yoga_mat01.jpg","0","s","1.44001779999235",1,7,0,2,0
"260040","img/object_images/rock03.jpg","1","s","2.78219420000096",1,7,0,2,0
"260040","img/object_images/Confetti 01.jpg","1","s","1.90852559998166",1,7,0,2,0
"260040","img/object_images/boat02.jpg","0","k","2.28121359998477",1,7,0,2,0
"260040","img/object_images/outlet01.jpg","0","k","3.25357810000423",1,7,0,2,0
"260040","img/object_images/box03.jpg","0","k","2.74926430001506",1,7,0,2,0
"260040","img/object_images/clipboard01.jpg","1","s","1.63626600001589",1,7,0,2,0
"260040","img/object_images/mail_box01.jpg","0","k","3.414916299982",1,7,0,2,0
"260040","img/object_images/chair06.jpg","0","s","1.87288909999188",1,7,0,2,0
"260040","img/object_images/razor03.jpg","1","s","1.08973489998607",1,7,0,2,0
"260040","img/object_images/cochlear_implant01.jpg","0","k","7.16565049998462",1,7,0,2,0
"260040","img/object_images/tv02.jpg","1","s","3.26038329998846",1,7,0,2,0
"260040","img/object_images/compass01.jpg","1","k","1.77724599998328",1,7,0,2,0
"260040","img/object_images/handkerchief01.jpg","1","k","2.40519759999006",1,7,0,2,0
"260040","img/object_images/frame01.jpg","1","k","3.95566510001663",1,7,0,2,0
"260040","img/object_images/decorative02.jpg","1","s","3.4545242000022",1,7,0,2,0
"260040","img/object_images/Oven01.jpg","1","k","1.77338199998485",1,7,0,2,0
"260040","img/object_images/fork03.jpg","1","k","1.70967739998014",1,7,0,2,0
"260040","img/object_images/car01.jpg","0","k","3.44875129999127",1,7,0,2,0
"260040","img/object_images/wire02.jpg","0","k","1.85748569999123",1,7,0,2,0
"260040","img/object_images/ring03.jpg","1","s","2.72442099999171",1,7,0,2,0
"260040","img/object_images/bicycle01.jpg","1","s","2.14559060000465",1,7,0,2,0
"260040","img/object_images/bell02.jpg","1","k","2.9684402999992",1,7,0,2,0
"260040","img/object_images/gloves02.jpg","1","s","2.99081499999738",1,7,0,2,0
"260040","img/object_images/tennis_racket02.jpg","1","s","2.28303409999353",1,7,0,2,0
"260040","img/object_images/measuring_tape02.jpg","0","k","4.96112369999173",1,7,0,2,0
"260040","img/object_images/chair03.jpg","0","s","1.72381199998199",1,7,0,2,0
"260040","img/object_images/car03.jpg","1","k","3.29461219999939",1,7,0,2,0
"260040","img/object_images/floss02.jpg","1","s","4.77232409999124",1,7,0,2,0
"260040","img/object_images/fan02.jpg","0","s","3.77853479998885",1,7,0,2,0
"260040","img/object_images/stove01.jpg","1","k","1.55959419999272",1,7,0,2,0
"260040","img/object_images/bottle06.jpg","1","k","2.47099349999917",1,7,0,2,0
"260040","img/object_images/Stool01.jpg","0","s","3.18589919997612",1,7,0,2,0
"260040","img/object_images/glasses06.jpg","1","s","1.29749120000633",1,7,0,2,0
"260040","img/object_images/pen06.jpg","1","k","3.22076890000608",1,7,0,2,0
"260040","img/object_images/camera03.jpg","0","s","4.62355019999086",1,7,0,2,0
"260040","img/object_images/stapler.jpg","1","s","1.71006459998898",1,7,0,2,0
"260040","img/object_images/frisbee01.jpg","1","k","1.90188609997858",1,8,0,2,0
"260040","img/object_images/belt03.jpg","1","s","3.37318349999259",1,8,0,2,0
"260040","img/object_images/couch01.jpg","1","k","2.64259740000125",1,8,0,2,0
"260040","img/object_images/scoreboard01.jpg","0","s","2.41231359998346",1,8,0,2,0
"260040","img/object_images/cellphone01.jpg","0","k","3.36225750000449",1,8,0,2,0
"260040","img/object_images/chess_piece01.jpg","0","s","2.58420579996891",1,8,0,2,0
"260040","img/object_images/pan03.jpg","1","k","3.92337319999933",1,8,0,2,0
"260040","img/object_images/gift_box01.jpg","0","s","2.58094610000262",1,8,0,2,0
"260040","img/object_images/laptop03.jpg","0","s","1.97744809999131",1,8,0,2,0
"260040","img/object_images/chair01.jpg","1","k","2.71047949997592",1,8,0,2,0
"260040","img/object_images/egg_basket01.jpg","1","k","1.92281710001407",1,8,0,2,0
"260040","img/object_images/fire_extinguisher01.jpg","1","s","3.45159959999728",1,8,0,2,0
"260040","img/object_images/dresser04.jpg","0","k","2.4534866999893",1,8,0,2,0
"260040","img/object_images/bottle07.jpg","1","k","1.63057169999229",1,8,0,2,0
"260040","img/object_images/hat06.jpg","1","s","1.89443380001467",1,8,0,2,0
"260040","img/object_images/gift_box03.jpg","1","k","1.4881938000035",1,8,0,2,0
"260040","img/object_images/nut_cracker01.jpg","1","k","1.31896649999544",1,8,0,2,0
"260040","img/object_images/blanket01.jpg","0","k","3.01903070000117",1,8,0,2,0
"260040","img/object_images/satellite01.jpg","1","k","2.20998600000166",1,8,0,2,0
"260040","img/object_images/tool09.jpg","0","s","1.64546159998281",1,8,0,2,0
"260040","img/object_images/sponge03.jpg","1","s","2.48144279999542",1,8,0,2,0
"260040","img/object_images/dart01.jpg","1","s","1.13858849997632",1,8,0,2,0
"260040","img/object_images/gift_box04.jpg","1","k","1.35311659998843",1,8,0,2,0
"260040","img/object_images/cellphone02.jpg","0","s","1.73112049998599",1,8,0,2,0
"260040","img/object_images/pillows01.jpg","0","k","1.23893819999648",1,8,0,2,0
"260040","img/object_images/floppy_disk03.jpg","1","k","1.53827309998451",1,8,0,2,0
"260040","img/object_images/Recycling01.jpg","0","s","3.57073740000487",1,8,0,2,0
"260040","img/object_images/wagon_cart03.jpg","1","s","1.54997809999622",1,8,0,2,0
"260040","img/object_images/calculator01.jpg","1","k","2.71790210000472",1,8,0,2,0
"260040","img/object_images/lantern01.jpg","1","s","2.76133750000736",1,8,0,2,0
"260040","img/object_images/ladle02.jpg","0","s","1.71371959999669",1,8,0,2,0
"260040","img/object_images/airfryer02.jpg","1","k","1.02477370001725",1,8,0,2,0
"260040","img/object_images/helmet04.jpg","1","s","1.06825399998343",1,8,0,2,0
"260040","img/object_images/drone01.jpg","0","s","3.19894970001769",1,8,0,2,0
"260040","img/object_images/dust_pan01.jpg","1","s","1.66441399996984",1,8,0,2,0
"260040","img/object_images/toilet_paper_dispenser01.jpg","1","s","1.22427929998958",1,8,0,2,0
"260040","img/object_images/Safe01.jpg","0","k","2.09102699998766",1,8,0,2,0
"260040","img/object_images/toilet_paper01.jpg","0","s","1.62719100000686",1,8,0,2,0
"260040","img/object_images/knit04.jpg","1","k","1.12179139998625",1,8,0,2,0
"260040","img/object_images/Screws01.jpg","1","k","3.48451670000213",1,8,0,2,0
"260040","img/object_images/phone04.jpg","0","s","2.58396590000484",1,8,0,2,0
"260040","img/object_images/helmet02.jpg","0","k","1.4756090999872",1,8,0,2,0
"260040","img/object_images/shovel03.jpg","0","s","1.82472539998707",1,8,0,2,0
"260040","img/object_images/Shoes05.jpg","0","s","1.93169150000904",1,8,0,2,0
"260040","img/object_images/tool20.jpg","1","k","1.36846830000286",1,8,0,2,0
"260040","img/object_images/skate_board01.jpg","1","k","2.60409390000859",1,8,0,2,0
"260040","img/object_images/pot01 (1).jpg","1","s","0.999576899979729",1,8,0,2,0
"260040","img/object_images/floss01.jpg","1","s","1.07271690000198",1,8,0,2,0
