"participant_id","current_trial_object","pre_trial_object","post_trial_object","current_trial_accuracy","pre_trial_accuracy","post_trial_accuracy","current_trial_congruency","pre_trial_congruency","post_trial_congruency","current_trial_rt","pre_trial_rt","post_trial_rt","current_trial_responded","pre_trial_responded","post_trial_responded","current_trial_legitResponse","pre_trial_legitResponse","post_trial_legitResponse","current_trial_resp_nums","pre_trial_resp_nums","post_trial_resp_nums"
"260029","img/object_images/stove01.jpg",NA,"img/object_images/Lint_Roller02.jpg","0",NA,"1","0",NA,"0","0.87269800005015",NA,"0.50552050000988","1",NA,"1","1",NA,"1","1",NA,"1"
"260029","img/object_images/Lint_Roller02.jpg","img/object_images/stove01.jpg","img/object_images/lock01.jpg","1","0","1","0","0","0","0.50552050000988","0.87269800005015","0.443869599956088","1","1","1","1","1","1","1","1","1"
"260029","img/object_images/lock01.jpg","img/object_images/Lint_Roller02.jpg","img/object_images/towels01.jpg","1","1","1","0","0","0","0.443869599956088","0.50552050000988","0.479308899957687","1","1","1","1","1","1","1","1","1"
"260029","img/object_images/towels01.jpg","img/object_images/lock01.jpg","img/object_images/hair_dryer01.jpg","1","1","1","0","0","0","0.479308899957687","0.443869599956088","0.601700800005347","1","1","1","1","1","1","1","1","1"
"260029","img/object_images/hair_dryer01.jpg","img/object_images/towels01.jpg","img/object_images/umbrella01.jpg","1","1","1","0","0","0","0.601700800005347","0.479308899957687","0.537285499973223","1","1","1","1","1","1","1","1","1"
"260029","img/object_images/umbrella01.jpg","img/object_images/hair_dryer01.jpg","img/object_images/laptop03.jpg","1","1","1","0","0","1","0.537285499973223","0.601700800005347","0.452940700110048","1","1","1","1","1","1","1","1","1"
"260029","img/object_images/laptop03.jpg","img/object_images/umbrella01.jpg","img/object_images/shoes08.jpg","1","1","1","1","0","1","0.452940700110048","0.537285499973223","0.431134399957955","1","1","1","1","1","1","1","1","1"
"260029","img/object_images/shoes08.jpg","img/object_images/laptop03.jpg","img/object_images/microphone03.jpg","1","1","1","1","1","1","0.431134399957955","0.452940700110048","0.506623700028285","1","1","1","1","1","1","1","1","1"
"260029","img/object_images/microphone03.jpg","img/object_images/shoes08.jpg","img/object_images/helmet02.jpg","1","1","1","1","1","0","0.506623700028285","0.431134399957955","0.549230000004172","1","1","1","1","1","1","1","1","1"
"260029","img/object_images/helmet02.jpg","img/object_images/microphone03.jpg","img/object_images/accardion01.jpg","1","1","1","0","1","1","0.549230000004172","0.506623700028285","0.499902999959886","1","1","1","1","1","1","1","1","1"
"260029","img/object_images/accardion01.jpg","img/object_images/helmet02.jpg","img/object_images/chess_piece01.jpg","1","1","1","1","0","0","0.499902999959886","0.549230000004172","0.607326600002125","1","1","1","1","1","1","1","1","1"
"260029","img/object_images/chess_piece01.jpg","img/object_images/accardion01.jpg","img/object_images/backpack03.jpg","1","1","1","0","1","1","0.607326600002125","0.499902999959886","0.623197000008076","1","1","1","1","1","1","1","1","1"
"260029","img/object_images/backpack03.jpg","img/object_images/chess_piece01.jpg","img/object_images/toy05.jpg","1","1","1","1","0","0","0.623197000008076","0.607326600002125","0.480399499996565","1","1","1","1","1","1","1","1","1"
"260029","img/object_images/toy05.jpg","img/object_images/backpack03.jpg","img/object_images/trash_can03.jpg","1","1","1","0","1","1","0.480399499996565","0.623197000008076","0.566632400033996","1","1","1","1","1","1","1","1","1"
"260029","img/object_images/trash_can03.jpg","img/object_images/toy05.jpg","img/object_images/gift_box05.jpg","1","1","1","1","0","0","0.566632400033996","0.480399499996565","0.498353300034069","1","1","1","1","1","1","1","1","1"
"260029","img/object_images/gift_box05.jpg","img/object_images/trash_can03.jpg","img/object_images/Vest02.jpg","1","1","1","0","1","0","0.498353300034069","0.566632400033996","0.485680700046942","1","1","1","1","1","1","1","1","1"
"260029","img/object_images/Vest02.jpg","img/object_images/gift_box05.jpg","img/object_images/ball02.jpg","1","1","1","0","0","1","0.485680700046942","0.498353300034069","0.624352299957536","1","1","1","1","1","1","1","1","1"
"260029","img/object_images/ball02.jpg","img/object_images/Vest02.jpg","img/object_images/bucket02.jpg","1","1","1","1","0","1","0.624352299957536","0.485680700046942","0.593581399996765","1","1","1","1","1","1","1","1","1"
"260029","img/object_images/bucket02.jpg","img/object_images/ball02.jpg","img/object_images/pitcher05.jpg","1","1","1","1","1","0","0.593581399996765","0.624352299957536","0.568986500031315","1","1","1","1","1","1","1","1","1"
"260029","img/object_images/pitcher05.jpg","img/object_images/bucket02.jpg","img/object_images/surf_board01.jpg","1","1","1","0","1","1","0.568986500031315","0.593581399996765","0.477650000015274","1","1","1","1","1","1","1","1","1"
"260029","img/object_images/surf_board01.jpg","img/object_images/pitcher05.jpg","img/object_images/calculator01.jpg","1","1","1","1","0","1","0.477650000015274","0.568986500031315","0.482841499964707","1","1","1","1","1","1","1","1","1"
"260029","img/object_images/calculator01.jpg","img/object_images/surf_board01.jpg","img/object_images/hair_brush02.jpg","1","1","1","1","1","0","0.482841499964707","0.477650000015274","0.558697700034827","1","1","1","1","1","1","1","1","1"
"260029","img/object_images/hair_brush02.jpg","img/object_images/calculator01.jpg","img/object_images/chair02.jpg","1","1","1","0","1","1","0.558697700034827","0.482841499964707","0.509605600032955","1","1","1","1","1","1","1","1","1"
"260029","img/object_images/chair02.jpg","img/object_images/hair_brush02.jpg","img/object_images/laptop01.jpg","1","1","1","1","0","0","0.509605600032955","0.558697700034827","0.540017100051045","1","1","1","1","1","1","1","1","1"
"260029","img/object_images/laptop01.jpg","img/object_images/chair02.jpg","img/object_images/fan04.jpg","1","1","1","0","1","0","0.540017100051045","0.509605600032955","0.567901800037362","1","1","1","1","1","1","1","1","1"
"260029","img/object_images/fan04.jpg","img/object_images/laptop01.jpg","img/object_images/vase01.jpg","1","1","1","0","0","0","0.567901800037362","0.540017100051045","0.522873000008985","1","1","1","1","1","1","1","1","1"
"260029","img/object_images/vase01.jpg","img/object_images/fan04.jpg","img/object_images/spatula02.jpg","1","1","1","0","0","1","0.522873000008985","0.567901800037362","0.444265100057237","1","1","1","1","1","1","1","1","1"
"260029","img/object_images/spatula02.jpg","img/object_images/vase01.jpg","img/object_images/jewel03.jpg","1","1","1","1","0","1","0.444265100057237","0.522873000008985","0.473492000019178","1","1","1","1","1","1","1","1","1"
"260029","img/object_images/jewel03.jpg","img/object_images/spatula02.jpg","img/object_images/trash_can05.jpg","1","1","1","1","1","1","0.473492000019178","0.444265100057237","0.472157799988054","1","1","1","1","1","1","1","1","1"
"260029","img/object_images/trash_can05.jpg","img/object_images/jewel03.jpg","img/object_images/robe01.jpg","1","1","1","1","1","1","0.472157799988054","0.473492000019178","0.501078799949028","1","1","1","1","1","1","1","1","1"
"260029","img/object_images/robe01.jpg","img/object_images/trash_can05.jpg","img/object_images/combs01.jpg","1","1","1","1","1","1","0.501078799949028","0.472157799988054","0.472157100099139","1","1","1","1","1","1","1","1","1"
"260029","img/object_images/combs01.jpg","img/object_images/robe01.jpg",NA,"1","1",NA,"1","1",NA,"0.472157100099139","0.501078799949028",NA,"1","1",NA,"1","1",NA,"1","1",NA
"260029","img/object_images/Witchhat01.jpg",NA,"img/object_images/balloon01.jpg","1",NA,"1","1",NA,"0","1.88091220008209",NA,"0.482863900018856","1",NA,"1","1",NA,"1","1",NA,"1"
"260029","img/object_images/balloon01.jpg","img/object_images/Witchhat01.jpg","img/object_images/Screws01.jpg","1","1","1","0","1","1","0.482863900018856","1.88091220008209","0.391181800048798","1","1","1","1","1","1","1","1","1"
"260029","img/object_images/Screws01.jpg","img/object_images/balloon01.jpg","img/object_images/jacket03.jpg","1","1","1","1","0","0","0.391181800048798","0.482863900018856","0.442440900020301","1","1","1","1","1","1","1","1","1"
"260029","img/object_images/jacket03.jpg","img/object_images/Screws01.jpg","img/object_images/sleeping_bag01.jpg","1","1","1","0","1","0","0.442440900020301","0.391181800048798","0.467342199990526","1","1","1","1","1","1","1","1","1"
"260029","img/object_images/sleeping_bag01.jpg","img/object_images/jacket03.jpg","img/object_images/handkerchief01.jpg","1","1","1","0","0","0","0.467342199990526","0.442440900020301","0.496267099981196","1","1","1","1","1","1","1","1","1"
"260029","img/object_images/handkerchief01.jpg","img/object_images/sleeping_bag01.jpg","img/object_images/bow_tie02.jpg","1","1","1","0","0","0","0.496267099981196","0.467342199990526","0.464983999961987","1","1","1","1","1","1","1","1","1"
"260029","img/object_images/bow_tie02.jpg","img/object_images/handkerchief01.jpg","img/object_images/golf_ball03.jpg","1","1","1","0","0","1","0.464983999961987","0.496267099981196","0.422231500037014","1","1","1","1","1","1","1","1","1"
"260029","img/object_images/golf_ball03.jpg","img/object_images/bow_tie02.jpg","img/object_images/gift_box01.jpg","1","1","1","1","0","1","0.422231500037014","0.464983999961987","0.402824199991301","1","1","1","1","1","1","1","1","1"
"260029","img/object_images/gift_box01.jpg","img/object_images/golf_ball03.jpg","img/object_images/fork03.jpg","1","1","1","1","1","1","0.402824199991301","0.422231500037014","0.360223199939355","1","1","1","1","1","1","1","1","1"
"260029","img/object_images/fork03.jpg","img/object_images/gift_box01.jpg","img/object_images/vga_port 01.jpg","1","1","1","1","1","0","0.360223199939355","0.402824199991301","0.470166799961589","1","1","1","1","1","1","1","1","1"
"260029","img/object_images/vga_port 01.jpg","img/object_images/fork03.jpg","img/object_images/measuring_tape02.jpg","1","1","1","0","1","1","0.470166799961589","0.360223199939355","0.507311100023799","1","1","1","1","1","1","1","1","1"
"260029","img/object_images/measuring_tape02.jpg","img/object_images/vga_port 01.jpg","img/object_images/camera07.jpg","1","1","1","1","0","1","0.507311100023799","0.470166799961589","0.353096399921924","1","1","1","1","1","1","1","1","1"
"260029","img/object_images/camera07.jpg","img/object_images/measuring_tape02.jpg","img/object_images/jewelry01.jpg","1","1","1","1","1","1","0.353096399921924","0.507311100023799","0.395951899932697","1","1","1","1","1","1","1","1","1"
"260029","img/object_images/jewelry01.jpg","img/object_images/camera07.jpg","img/object_images/hammer01.jpg","1","1","1","1","1","0","0.395951899932697","0.353096399921924","0.436399000114761","1","1","1","1","1","1","1","1","1"
"260029","img/object_images/hammer01.jpg","img/object_images/jewelry01.jpg","img/object_images/lawn_mower01.jpg","1","1","1","0","1","1","0.436399000114761","0.395951899932697","0.455706899985671","1","1","1","1","1","1","1","1","1"
"260029","img/object_images/lawn_mower01.jpg","img/object_images/hammer01.jpg","img/object_images/socks02.jpg","1","1","1","1","0","0","0.455706899985671","0.436399000114761","0.419011399964802","1","1","1","1","1","1","1","1","1"
"260029","img/object_images/socks02.jpg","img/object_images/lawn_mower01.jpg","img/object_images/gift_box03.jpg","1","1","1","0","1","0","0.419011399964802","0.455706899985671","0.462138700066134","1","1","1","1","1","1","1","1","1"
"260029","img/object_images/gift_box03.jpg","img/object_images/socks02.jpg","img/object_images/bow_tie01.jpg","1","1","1","0","0","0","0.462138700066134","0.419011399964802","0.49641319992952","1","1","1","1","1","1","1","1","1"
"260029","img/object_images/bow_tie01.jpg","img/object_images/gift_box03.jpg","img/object_images/paper_cup01.jpg","1","1","1","0","0","0","0.49641319992952","0.462138700066134","0.420324000064284","1","1","1","1","1","1","1","1","1"
"260029","img/object_images/paper_cup01.jpg","img/object_images/bow_tie01.jpg","img/object_images/pitcher02.jpg","1","1","1","0","0","1","0.420324000064284","0.49641319992952","0.380259500001557","1","1","1","1","1","1","1","1","1"
"260029","img/object_images/pitcher02.jpg","img/object_images/paper_cup01.jpg","img/object_images/wallet02.jpg","1","1","1","1","0","1","0.380259500001557","0.420324000064284","0.372310400009155","1","1","1","1","1","1","1","1","1"
"260029","img/object_images/wallet02.jpg","img/object_images/pitcher02.jpg","img/object_images/bath_tub01.jpg","1","1","1","1","1","0","0.372310400009155","0.380259500001557","0.443635400035419","1","1","1","1","1","1","1","1","1"
"260029","img/object_images/bath_tub01.jpg","img/object_images/wallet02.jpg","img/object_images/dresser04.jpg","1","1","1","0","1","0","0.443635400035419","0.372310400009155","0.413449299987406","1","1","1","1","1","1","1","1","1"
"260029","img/object_images/dresser04.jpg","img/object_images/bath_tub01.jpg","img/object_images/lock04.jpg","1","1","1","0","0","1","0.413449299987406","0.443635400035419","0.410035200067796","1","1","1","1","1","1","1","1","1"
"260029","img/object_images/lock04.jpg","img/object_images/dresser04.jpg","img/object_images/coloring_pencil01.jpg","1","1","1","1","0","1","0.410035200067796","0.413449299987406","0.413728899904527","1","1","1","1","1","1","1","1","1"
"260029","img/object_images/coloring_pencil01.jpg","img/object_images/lock04.jpg","img/object_images/ironing_table01.jpg","1","1","1","1","1","0","0.413728899904527","0.410035200067796","0.426468200050294","1","1","1","1","1","1","1","1","1"
"260029","img/object_images/ironing_table01.jpg","img/object_images/coloring_pencil01.jpg","img/object_images/grater01.jpg","1","1","1","0","1","1","0.426468200050294","0.413728899904527","0.466117899981327","1","1","1","1","1","1","1","1","1"
"260029","img/object_images/grater01.jpg","img/object_images/ironing_table01.jpg","img/object_images/clip02.jpg","1","1","1","1","0","1","0.466117899981327","0.426468200050294","0.425440200022422","1","1","1","1","1","1","1","1","1"
"260029","img/object_images/clip02.jpg","img/object_images/grater01.jpg","img/object_images/couch03.jpg","1","1","1","1","1","0","0.425440200022422","0.466117899981327","0.412504300009459","1","1","1","1","1","1","1","1","1"
"260029","img/object_images/couch03.jpg","img/object_images/clip02.jpg","img/object_images/gift_box02.jpg","1","1","1","0","1","1","0.412504300009459","0.425440200022422","0.386702199932188","1","1","1","1","1","1","1","1","1"
"260029","img/object_images/gift_box02.jpg","img/object_images/couch03.jpg","img/object_images/funnel01.jpg","1","1","1","1","0","0","0.386702199932188","0.412504300009459","0.435010600020178","1","1","1","1","1","1","1","1","1"
"260029","img/object_images/funnel01.jpg","img/object_images/gift_box02.jpg",NA,"1","1",NA,"0","1",NA,"0.435010600020178","0.386702199932188",NA,"1","1",NA,"1","1",NA,"1","1",NA
"260029","img/object_images/tool02.jpg",NA,"img/object_images/ornament01.jpg","1",NA,"1","1",NA,"1","0.543460499960929",NA,"0.384965399978682","1",NA,"1","1",NA,"1","1",NA,"1"
"260029","img/object_images/ornament01.jpg","img/object_images/tool02.jpg","img/object_images/fridge03.jpg","1","1","1","1","1","0","0.384965399978682","0.543460499960929","0.37919389992021","1","1","1","1","1","1","1","1","1"
"260029","img/object_images/fridge03.jpg","img/object_images/ornament01.jpg","img/object_images/Vacuum01.jpg","1","1","1","0","1","0","0.37919389992021","0.384965399978682","0.391547700040974","1","1","1","1","1","1","1","1","1"
"260029","img/object_images/Vacuum01.jpg","img/object_images/fridge03.jpg","img/object_images/gauze01.jpg","1","1","1","0","0","0","0.391547700040974","0.37919389992021","0.43316760007292","1","1","1","1","1","1","1","1","1"
"260029","img/object_images/gauze01.jpg","img/object_images/Vacuum01.jpg","img/object_images/acoustic_capo01.jpg","1","1","1","0","0","1","0.43316760007292","0.391547700040974","0.381401800084859","1","1","1","1","1","1","1","1","1"
"260029","img/object_images/acoustic_capo01.jpg","img/object_images/gauze01.jpg","img/object_images/watch01.jpg","1","1","1","1","0","0","0.381401800084859","0.43316760007292","0.396475499961525","1","1","1","1","1","1","1","1","1"
"260029","img/object_images/watch01.jpg","img/object_images/acoustic_capo01.jpg","img/object_images/bottle05.jpg","1","1","1","0","1","0","0.396475499961525","0.381401800084859","0.395528299966827","1","1","1","1","1","1","1","1","1"
"260029","img/object_images/bottle05.jpg","img/object_images/watch01.jpg","img/object_images/stapler.jpg","1","1","1","0","0","1","0.395528299966827","0.396475499961525","0.423749200068414","1","1","1","1","1","1","1","1","1"
"260029","img/object_images/stapler.jpg","img/object_images/bottle05.jpg","img/object_images/video_game07.jpg","1","1","1","1","0","1","0.423749200068414","0.395528299966827","0.390168800018728","1","1","1","1","1","1","1","1","1"
"260029","img/object_images/video_game07.jpg","img/object_images/stapler.jpg","img/object_images/helmet01.jpg","1","1","1","1","1","0","0.390168800018728","0.423749200068414","0.450171300093643","1","1","1","1","1","1","1","1","1"
"260029","img/object_images/helmet01.jpg","img/object_images/video_game07.jpg","img/object_images/toy03.jpg","1","1","1","0","1","1","0.450171300093643","0.390168800018728","0.358659300021827","1","1","1","1","1","1","1","1","1"
"260029","img/object_images/toy03.jpg","img/object_images/helmet01.jpg","img/object_images/toy04.jpg","1","1","1","1","0","0","0.358659300021827","0.450171300093643","0.459330200101249","1","1","1","1","1","1","1","1","1"
"260029","img/object_images/toy04.jpg","img/object_images/toy03.jpg","img/object_images/sink01.jpg","1","1","1","0","1","0","0.459330200101249","0.358659300021827","0.413924499996938","1","1","1","1","1","1","1","1","1"
"260029","img/object_images/sink01.jpg","img/object_images/toy04.jpg","img/object_images/jewel04.jpg","1","1","1","0","0","0","0.413924499996938","0.459330200101249","0.442133999895304","1","1","1","1","1","1","1","1","1"
"260029","img/object_images/jewel04.jpg","img/object_images/sink01.jpg","img/object_images/judge_gavel01.jpg","1","1","1","0","0","1","0.442133999895304","0.413924499996938","0.409004399902187","1","1","1","1","1","1","1","1","1"
"260029","img/object_images/judge_gavel01.jpg","img/object_images/jewel04.jpg","img/object_images/MetalWire01.jpg","1","1","1","1","0","0","0.409004399902187","0.442133999895304","0.455991400056519","1","1","1","1","1","1","1","1","1"
"260029","img/object_images/MetalWire01.jpg","img/object_images/judge_gavel01.jpg","img/object_images/Tin01.jpg","1","1","1","0","1","1","0.455991400056519","0.409004399902187","0.473468099953607","1","1","1","1","1","1","1","1","1"
"260029","img/object_images/Tin01.jpg","img/object_images/MetalWire01.jpg","img/object_images/guitar02.jpg","1","1","1","1","0","0","0.473468099953607","0.455991400056519","0.416707600001246","1","1","1","1","1","1","1","1","1"
"260029","img/object_images/guitar02.jpg","img/object_images/Tin01.jpg","img/object_images/towel02.jpg","1","1","1","0","1","1","0.416707600001246","0.473468099953607","0.367252000025474","1","1","1","1","1","1","1","1","1"
"260029","img/object_images/towel02.jpg","img/object_images/guitar02.jpg","img/object_images/mirror01.jpg","1","1","0","1","0","1","0.367252000025474","0.416707600001246","0.445172399980947","1","1","1","1","1","1","1","1","1"
"260029","img/object_images/mirror01.jpg","img/object_images/towel02.jpg","img/object_images/shovel03.jpg","0","1","1","1","1","1","0.445172399980947","0.367252000025474","0.459119600011036","1","1","1","1","1","1","1","1","1"
"260029","img/object_images/shovel03.jpg","img/object_images/mirror01.jpg","img/object_images/outlet01.jpg","1","0","1","1","1","0","0.459119600011036","0.445172399980947","0.485042599961162","1","1","1","1","1","1","1","1","1"
"260029","img/object_images/outlet01.jpg","img/object_images/shovel03.jpg","img/object_images/Stool01.jpg","1","1","1","0","1","0","0.485042599961162","0.459119600011036","0.410690299933776","1","1","1","1","1","1","1","1","1"
"260029","img/object_images/Stool01.jpg","img/object_images/outlet01.jpg","img/object_images/dart01.jpg","1","1","1","0","0","0","0.410690299933776","0.485042599961162","0.548898899927735","1","1","1","1","1","1","1","1","1"
"260029","img/object_images/dart01.jpg","img/object_images/Stool01.jpg","img/object_images/Ring02.jpg","1","1","1","0","0","0","0.548898899927735","0.410690299933776","0.509909200016409","1","1","1","1","1","1","1","1","1"
"260029","img/object_images/Ring02.jpg","img/object_images/dart01.jpg","img/object_images/pot01 (1).jpg","1","1","1","0","0","0","0.509909200016409","0.548898899927735","0.518450899980962","1","1","1","1","1","1","1","1","1"
"260029","img/object_images/pot01 (1).jpg","img/object_images/Ring02.jpg","img/object_images/tool09.jpg","1","1","1","0","0","1","0.518450899980962","0.509909200016409","0.473017000011168","1","1","1","1","1","1","1","1","1"
"260029","img/object_images/tool09.jpg","img/object_images/pot01 (1).jpg","img/object_images/crown02.jpg","1","1","1","1","0","1","0.473017000011168","0.518450899980962","0.421062599983998","1","1","1","1","1","1","1","1","1"
"260029","img/object_images/crown02.jpg","img/object_images/tool09.jpg","img/object_images/bow01.jpg","1","1","1","1","1","1","0.421062599983998","0.473017000011168","0.489178800024092","1","1","1","1","1","1","1","1","1"
"260029","img/object_images/bow01.jpg","img/object_images/crown02.jpg","img/object_images/bird_house02.jpg","1","1","1","1","1","1","0.489178800024092","0.421062599983998","0.427532500005327","1","1","1","1","1","1","1","1","1"
"260029","img/object_images/bird_house02.jpg","img/object_images/bow01.jpg","img/object_images/frisbee01.jpg","1","1","1","1","1","1","0.427532500005327","0.489178800024092","0.387586900033057","1","1","1","1","1","1","1","1","1"
"260029","img/object_images/frisbee01.jpg","img/object_images/bird_house02.jpg",NA,"1","1",NA,"1","1",NA,"0.387586900033057","0.427532500005327",NA,"1","1",NA,"1","1",NA,"1","1",NA
"260029","img/object_images/water_scooter01.jpg",NA,"img/object_images/bottle10.jpg","1",NA,"1","1",NA,"1","0.66447469999548",NA,"0.414533499977551","1",NA,"1","1",NA,"1","1",NA,"1"
"260029","img/object_images/bottle10.jpg","img/object_images/water_scooter01.jpg","img/object_images/boat_toy10.jpg","1","1","1","1","1","0","0.414533499977551","0.66447469999548","0.470012500067241","1","1","1","1","1","1","1","1","1"
"260029","img/object_images/boat_toy10.jpg","img/object_images/bottle10.jpg","img/object_images/dog_leash01.jpg","1","1","1","0","1","0","0.470012500067241","0.414533499977551","0.511632699985057","1","1","1","1","1","1","1","1","1"
"260029","img/object_images/dog_leash01.jpg","img/object_images/boat_toy10.jpg","img/object_images/bean_bag02.jpg","1","1","1","0","0","1","0.511632699985057","0.470012500067241","0.396463599987328","1","1","1","1","1","1","1","1","1"
"260029","img/object_images/bean_bag02.jpg","img/object_images/dog_leash01.jpg","img/object_images/toilet_paper_dispenser01.jpg","1","1","1","1","0","1","0.396463599987328","0.511632699985057","0.409788700053468","1","1","1","1","1","1","1","1","1"
"260029","img/object_images/toilet_paper_dispenser01.jpg","img/object_images/bean_bag02.jpg","img/object_images/bicycle01.jpg","1","1","1","1","1","1","0.409788700053468","0.396463599987328","0.412130300072022","1","1","1","1","1","1","1","1","1"
"260029","img/object_images/bicycle01.jpg","img/object_images/toilet_paper_dispenser01.jpg","img/object_images/scoreboard01.jpg","1","1","1","1","1","1","0.412130300072022","0.409788700053468","0.428196900058538","1","1","1","1","1","1","1","1","1"
"260029","img/object_images/scoreboard01.jpg","img/object_images/bicycle01.jpg","img/object_images/coloring_pencil02.jpg","1","1","1","1","1","0","0.428196900058538","0.412130300072022","0.459529099985957","1","1","1","1","1","1","1","1","1"
"260029","img/object_images/coloring_pencil02.jpg","img/object_images/scoreboard01.jpg","img/object_images/bottle02.jpg","1","1","1","0","1","1","0.459529099985957","0.428196900058538","0.411927500041202","1","1","1","1","1","1","1","1","1"
"260029","img/object_images/bottle02.jpg","img/object_images/coloring_pencil02.jpg","img/object_images/tool19.jpg","1","1","1","1","0","1","0.411927500041202","0.459529099985957","0.425532100023702","1","1","1","1","1","1","1","1","1"
"260029","img/object_images/tool19.jpg","img/object_images/bottle02.jpg","img/object_images/bottle09.jpg","1","1","1","1","1","0","0.425532100023702","0.411927500041202","0.457425000029616","1","1","1","1","1","1","1","1","1"
"260029","img/object_images/bottle09.jpg","img/object_images/tool19.jpg","img/object_images/perfume02.jpg","1","1","1","0","1","0","0.457425000029616","0.425532100023702","0.477533899946138","1","1","1","1","1","1","1","1","1"
"260029","img/object_images/perfume02.jpg","img/object_images/bottle09.jpg","img/object_images/wagon_cart03.jpg","1","1","1","0","0","1","0.477533899946138","0.457425000029616","0.437577699893154","1","1","1","1","1","1","1","1","1"
"260029","img/object_images/wagon_cart03.jpg","img/object_images/perfume02.jpg","img/object_images/shoes07.jpg","1","1","1","1","0","0","0.437577699893154","0.477533899946138","0.58176920004189","1","1","1","1","1","1","1","1","1"
"260029","img/object_images/shoes07.jpg","img/object_images/wagon_cart03.jpg","img/object_images/boat02.jpg","1","1","1","0","1","1","0.58176920004189","0.437577699893154","0.41488129994832","1","1","1","1","1","1","1","1","1"
"260029","img/object_images/boat02.jpg","img/object_images/shoes07.jpg","img/object_images/chair03.jpg","1","1","1","1","0","0","0.41488129994832","0.58176920004189","0.491035700077191","1","1","1","1","1","1","1","1","1"
"260029","img/object_images/chair03.jpg","img/object_images/boat02.jpg","img/object_images/tie02.jpg","1","1","1","0","1","0","0.491035700077191","0.41488129994832","0.395758899976499","1","1","1","1","1","1","1","1","1"
"260029","img/object_images/tie02.jpg","img/object_images/chair03.jpg","img/object_images/WoodBox01.jpg","1","1","1","0","0","0","0.395758899976499","0.491035700077191","0.472223300021142","1","1","1","1","1","1","1","1","1"
"260029","img/object_images/WoodBox01.jpg","img/object_images/tie02.jpg","img/object_images/piggy_bank01.jpg","1","1","1","0","0","1","0.472223300021142","0.395758899976499","0.382744599948637","1","1","1","1","1","1","1","1","1"
"260029","img/object_images/piggy_bank01.jpg","img/object_images/WoodBox01.jpg","img/object_images/pen05.jpg","1","1","1","1","0","0","0.382744599948637","0.472223300021142","0.42465689999517","1","1","1","1","1","1","1","1","1"
"260029","img/object_images/pen05.jpg","img/object_images/piggy_bank01.jpg","img/object_images/fan02.jpg","1","1","1","0","1","0","0.42465689999517","0.382744599948637","0.446966799907386","1","1","1","1","1","1","1","1","1"
"260029","img/object_images/fan02.jpg","img/object_images/pen05.jpg","img/object_images/knit01.jpg","1","1","1","0","0","0","0.446966799907386","0.42465689999517","0.414134500082582","1","1","1","1","1","1","1","1","1"
"260029","img/object_images/knit01.jpg","img/object_images/fan02.jpg","img/object_images/audio_port01.jpg","1","1","1","0","0","1","0.414134500082582","0.446966799907386","0.434378200094216","1","1","1","1","1","1","1","1","1"
"260029","img/object_images/audio_port01.jpg","img/object_images/knit01.jpg","img/object_images/hot_air_balloon02.jpg","1","1","1","1","0","0","0.434378200094216","0.414134500082582","0.426243399968371","1","1","1","1","1","1","1","1","1"
"260029","img/object_images/hot_air_balloon02.jpg","img/object_images/audio_port01.jpg","img/object_images/hat06.jpg","1","1","1","0","1","0","0.426243399968371","0.434378200094216","0.510030500008725","1","1","1","1","1","1","1","1","1"
"260029","img/object_images/hat06.jpg","img/object_images/hot_air_balloon02.jpg","img/object_images/cellphone03.jpg","1","1","1","0","0","0","0.510030500008725","0.426243399968371","0.60165299999062","1","1","1","1","1","1","1","1","1"
"260029","img/object_images/cellphone03.jpg","img/object_images/hat06.jpg","img/object_images/camera_lens01.jpg","1","1","1","0","0","1","0.60165299999062","0.510030500008725","0.467396500054747","1","1","1","1","1","1","1","1","1"
"260029","img/object_images/camera_lens01.jpg","img/object_images/cellphone03.jpg","img/object_images/helmet04.jpg","1","1","1","1","0","1","0.467396500054747","0.60165299999062","0.50929570000153","1","1","1","1","1","1","1","1","1"
"260029","img/object_images/helmet04.jpg","img/object_images/camera_lens01.jpg","img/object_images/purse04.jpg","1","1","1","1","1","1","0.50929570000153","0.467396500054747","0.485589700052515","1","1","1","1","1","1","1","1","1"
"260029","img/object_images/purse04.jpg","img/object_images/helmet04.jpg","img/object_images/flask01.jpg","1","1","1","1","1","0","0.485589700052515","0.50929570000153","0.433991700061597","1","1","1","1","1","1","1","1","1"
"260029","img/object_images/flask01.jpg","img/object_images/purse04.jpg","img/object_images/toaster01.jpg","1","1","1","0","1","1","0.433991700061597","0.485589700052515","0.405250299954787","1","1","1","1","1","1","1","1","1"
"260029","img/object_images/toaster01.jpg","img/object_images/flask01.jpg",NA,"1","1",NA,"1","0",NA,"0.405250299954787","0.433991700061597",NA,"1","1",NA,"1","1",NA,"1","1",NA
"260029","img/object_images/toy08.jpg",NA,"img/object_images/knit04.jpg","1",NA,"1","0",NA,"1","1.0983313000761",NA,"0.526753399986774","1",NA,"1","1",NA,"1","1",NA,"1"
"260029","img/object_images/knit04.jpg","img/object_images/toy08.jpg","img/object_images/video_game01.jpg","1","1","1","1","0","1","0.526753399986774","1.0983313000761","0.389249900006689","1","1","1","1","1","1","1","1","1"
"260029","img/object_images/video_game01.jpg","img/object_images/knit04.jpg","img/object_images/mail_box01.jpg","1","1","1","1","1","0","0.389249900006689","0.526753399986774","0.453231899999082","1","1","1","1","1","1","1","1","1"
"260029","img/object_images/mail_box01.jpg","img/object_images/video_game01.jpg","img/object_images/backpack01.jpg","1","1","1","0","1","0","0.453231899999082","0.389249900006689","0.488242299994454","1","1","1","1","1","1","1","1","1"
"260029","img/object_images/backpack01.jpg","img/object_images/mail_box01.jpg","img/object_images/keyboard02.jpg","1","1","1","0","0","1","0.488242299994454","0.453231899999082","0.424131500069052","1","1","1","1","1","1","1","1","1"
"260029","img/object_images/keyboard02.jpg","img/object_images/backpack01.jpg","img/object_images/knit03.jpg","1","1","1","1","0","1","0.424131500069052","0.488242299994454","0.411307399976067","1","1","1","1","1","1","1","1","1"
"260029","img/object_images/knit03.jpg","img/object_images/keyboard02.jpg","img/object_images/gloves02.jpg","1","1","1","1","1","0","0.411307399976067","0.424131500069052","0.454635599977337","1","1","1","1","1","1","1","1","1"
"260029","img/object_images/gloves02.jpg","img/object_images/knit03.jpg","img/object_images/phone02.jpg","1","1","1","0","1","1","0.454635599977337","0.411307399976067","0.405217800056562","1","1","1","1","1","1","1","1","1"
"260029","img/object_images/phone02.jpg","img/object_images/gloves02.jpg","img/object_images/hand_grip_exerciser01.jpg","1","1","1","1","0","0","0.405217800056562","0.454635599977337","0.43445870000869","1","1","1","1","1","1","1","1","1"
"260029","img/object_images/hand_grip_exerciser01.jpg","img/object_images/phone02.jpg","img/object_images/shower_head01.jpg","1","1","1","0","1","1","0.43445870000869","0.405217800056562","0.395395900006406","1","1","1","1","1","1","1","1","1"
"260029","img/object_images/shower_head01.jpg","img/object_images/hand_grip_exerciser01.jpg","img/object_images/camera03.jpg","1","1","1","1","0","0","0.395395900006406","0.43445870000869","0.436234299908392","1","1","1","1","1","1","1","1","1"
"260029","img/object_images/camera03.jpg","img/object_images/shower_head01.jpg","img/object_images/kite01.jpg","1","1","1","0","1","1","0.436234299908392","0.395395900006406","0.410892799962312","1","1","1","1","1","1","1","1","1"
"260029","img/object_images/kite01.jpg","img/object_images/camera03.jpg","img/object_images/curtain02.jpg","1","1","1","1","0","0","0.410892799962312","0.436234299908392","0.48079709999729","1","1","1","1","1","1","1","1","1"
"260029","img/object_images/curtain02.jpg","img/object_images/kite01.jpg","img/object_images/car01.jpg","1","1","1","0","1","1","0.48079709999729","0.410892799962312","0.382459699991159","1","1","1","1","1","1","1","1","1"
"260029","img/object_images/car01.jpg","img/object_images/curtain02.jpg","img/object_images/dresser03.jpg","1","1","1","1","0","0","0.382459699991159","0.48079709999729","0.434502699994482","1","1","1","1","1","1","1","1","1"
"260029","img/object_images/dresser03.jpg","img/object_images/car01.jpg","img/object_images/matches02.jpg","1","1","1","0","1","0","0.434502699994482","0.382459699991159","0.371698800008744","1","1","1","1","1","1","1","1","1"
"260029","img/object_images/matches02.jpg","img/object_images/dresser03.jpg","img/object_images/tool18.jpg","1","1","1","0","0","0","0.371698800008744","0.434502699994482","0.461671099998057","1","1","1","1","1","1","1","1","1"
"260029","img/object_images/tool18.jpg","img/object_images/matches02.jpg","img/object_images/boat04.jpg","1","1","1","0","0","0","0.461671099998057","0.371698800008744","0.545465600094758","1","1","1","1","1","1","1","1","1"
"260029","img/object_images/boat04.jpg","img/object_images/tool18.jpg","img/object_images/knife02.jpg","1","1","1","0","0","0","0.545465600094758","0.461671099998057","0.556061000097543","1","1","1","1","1","1","1","1","1"
"260029","img/object_images/knife02.jpg","img/object_images/boat04.jpg","img/object_images/paper_cup02.jpg","1","1","1","0","0","1","0.556061000097543","0.545465600094758","0.504430300090462","1","1","1","1","1","1","1","1","1"
"260029","img/object_images/paper_cup02.jpg","img/object_images/knife02.jpg","img/object_images/remote_controller01.jpg","1","1","1","1","0","1","0.504430300090462","0.556061000097543","0.387270899955183","1","1","1","1","1","1","1","1","1"
"260029","img/object_images/remote_controller01.jpg","img/object_images/paper_cup02.jpg","img/object_images/sponge03.jpg","1","1","1","1","1","1","0.387270899955183","0.504430300090462","0.41799590003211","1","1","1","1","1","1","1","1","1"
"260029","img/object_images/sponge03.jpg","img/object_images/remote_controller01.jpg","img/object_images/bottle07.jpg","1","1","1","1","1","1","0.41799590003211","0.387270899955183","0.422109500039369","1","1","1","1","1","1","1","1","1"
"260029","img/object_images/bottle07.jpg","img/object_images/sponge03.jpg","img/object_images/jacket04.jpg","1","1","1","1","1","0","0.422109500039369","0.41799590003211","0.434849599958398","1","1","1","1","1","1","1","1","1"
"260029","img/object_images/jacket04.jpg","img/object_images/bottle07.jpg","img/object_images/flashlight03.jpg","1","1","1","0","1","0","0.434849599958398","0.422109500039369","0.485584000009112","1","1","1","1","1","1","1","1","1"
"260029","img/object_images/flashlight03.jpg","img/object_images/jacket04.jpg","img/object_images/basket04.jpg","1","1","1","0","0","1","0.485584000009112","0.434849599958398","0.43072599999141","1","1","1","1","1","1","1","1","1"
"260029","img/object_images/basket04.jpg","img/object_images/flashlight03.jpg","img/object_images/remover01.jpg","1","1","1","1","0","1","0.43072599999141","0.485584000009112","0.422835299978033","1","1","1","1","1","1","1","1","1"
"260029","img/object_images/remover01.jpg","img/object_images/basket04.jpg","img/object_images/Statue01.jpg","1","1","1","1","1","1","0.422835299978033","0.43072599999141","0.427212700014934","1","1","1","1","1","1","1","1","1"
"260029","img/object_images/Statue01.jpg","img/object_images/remover01.jpg","img/object_images/stereo02.jpg","1","1","1","1","1","0","0.427212700014934","0.422835299978033","0.476115899975412","1","1","1","1","1","1","1","1","1"
"260029","img/object_images/stereo02.jpg","img/object_images/Statue01.jpg","img/object_images/hoverboard01.jpg","1","1","1","0","1","0","0.476115899975412","0.427212700014934","0.494605500018224","1","1","1","1","1","1","1","1","1"
"260029","img/object_images/hoverboard01.jpg","img/object_images/stereo02.jpg","img/object_images/blender02.jpg","1","1","1","0","0","1","0.494605500018224","0.476115899975412","0.405566899920814","1","1","1","1","1","1","1","1","1"
"260029","img/object_images/blender02.jpg","img/object_images/hoverboard01.jpg",NA,"1","1",NA,"1","0",NA,"0.405566899920814","0.494605500018224",NA,"1","1",NA,"1","1",NA,"1","1",NA
"260029","img/object_images/shoes10.jpg",NA,"img/object_images/fan05.jpg","1",NA,"1","0",NA,"0","0.442278799950145",NA,"0.434778599999845","1",NA,"1","1",NA,"1","1",NA,"1"
"260029","img/object_images/fan05.jpg","img/object_images/shoes10.jpg","img/object_images/rock03.jpg","1","1","1","0","0","0","0.434778599999845","0.442278799950145","0.465365300071426","1","1","1","1","1","1","1","1","1"
"260029","img/object_images/rock03.jpg","img/object_images/fan05.jpg","img/object_images/yarn02.jpg","1","1","1","0","0","0","0.465365300071426","0.434778599999845","0.442749899928458","1","1","1","1","1","1","1","1","1"
"260029","img/object_images/yarn02.jpg","img/object_images/rock03.jpg","img/object_images/WitchHat02.jpg","1","1","1","0","0","1","0.442749899928458","0.465365300071426","0.357442399952561","1","1","1","1","1","1","1","1","1"
"260029","img/object_images/WitchHat02.jpg","img/object_images/yarn02.jpg","img/object_images/binoculars03.jpg","1","1","1","1","0","1","0.357442399952561","0.442749899928458","0.391086000017822","1","1","1","1","1","1","1","1","1"
"260029","img/object_images/binoculars03.jpg","img/object_images/WitchHat02.jpg","img/object_images/cutting_board01.jpg","1","1","1","1","1","1","0.391086000017822","0.357442399952561","0.424411300104111","1","1","1","1","1","1","1","1","1"
"260029","img/object_images/cutting_board01.jpg","img/object_images/binoculars03.jpg","img/object_images/dress03.jpg","1","1","1","1","1","1","0.424411300104111","0.391086000017822","0.39864409994334","1","1","1","1","1","1","1","1","1"
"260029","img/object_images/dress03.jpg","img/object_images/cutting_board01.jpg","img/object_images/chair04.jpg","1","1","1","1","1","1","0.39864409994334","0.424411300104111","0.401828100089915","1","1","1","1","1","1","1","1","1"
"260029","img/object_images/chair04.jpg","img/object_images/dress03.jpg","img/object_images/satellite01.jpg","1","1","1","1","1","0","0.401828100089915","0.39864409994334","0.48522870009765","1","1","1","1","1","1","1","1","1"
"260029","img/object_images/satellite01.jpg","img/object_images/chair04.jpg","img/object_images/lemon_squeezer02.jpg","1","1","1","0","1","1","0.48522870009765","0.401828100089915","0.389808800071478","1","1","1","1","1","1","1","1","1"
"260029","img/object_images/lemon_squeezer02.jpg","img/object_images/satellite01.jpg","img/object_images/car03.jpg","1","1","1","1","0","0","0.389808800071478","0.48522870009765","0.400553399929777","1","1","1","1","1","1","1","1","1"
"260029","img/object_images/car03.jpg","img/object_images/lemon_squeezer02.jpg","img/object_images/shower_head03.jpg","1","1","1","0","1","1","0.400553399929777","0.389808800071478","0.448518899967894","1","1","1","1","1","1","1","1","1"
"260029","img/object_images/shower_head03.jpg","img/object_images/car03.jpg","img/object_images/ice_tray03.jpg","1","1","1","1","0","1","0.448518899967894","0.400553399929777","0.375553899910301","1","1","1","1","1","1","1","1","1"
"260029","img/object_images/ice_tray03.jpg","img/object_images/shower_head03.jpg","img/object_images/ladle02.jpg","1","1","1","1","1","0","0.375553899910301","0.448518899967894","0.442825600039214","1","1","1","1","1","1","1","1","1"
"260029","img/object_images/ladle02.jpg","img/object_images/ice_tray03.jpg","img/object_images/belt01.jpg","1","1","1","0","1","0","0.442825600039214","0.375553899910301","0.442731400020421","1","1","1","1","1","1","1","1","1"
"260029","img/object_images/belt01.jpg","img/object_images/ladle02.jpg","img/object_images/ribbon01.jpg","1","1","1","0","0","0","0.442731400020421","0.442825600039214","0.464925599982962","1","1","1","1","1","1","1","1","1"
"260029","img/object_images/ribbon01.jpg","img/object_images/belt01.jpg","img/object_images/jewelry07.jpg","1","1","1","0","0","1","0.464925599982962","0.442731400020421","0.411824799957685","1","1","1","1","1","1","1","1","1"
"260029","img/object_images/jewelry07.jpg","img/object_images/ribbon01.jpg","img/object_images/screwdriver01.jpg","1","1","1","1","0","0","0.411824799957685","0.464925599982962","0.392736800014973","1","1","1","1","1","1","1","1","1"
"260029","img/object_images/screwdriver01.jpg","img/object_images/jewelry07.jpg","img/object_images/tool11.jpg","1","1","1","0","1","1","0.392736800014973","0.411824799957685","0.370312200044282","1","1","1","1","1","1","1","1","1"
"260029","img/object_images/tool11.jpg","img/object_images/screwdriver01.jpg","img/object_images/jewel01.jpg","1","1","1","1","0","0","0.370312200044282","0.392736800014973","0.587173899984919","1","1","1","1","1","1","1","1","1"
"260029","img/object_images/jewel01.jpg","img/object_images/tool11.jpg","img/object_images/key02.jpg","1","1","1","0","1","1","0.587173899984919","0.370312200044282","0.422415699926205","1","1","1","1","1","1","1","1","1"
"260029","img/object_images/key02.jpg","img/object_images/jewel01.jpg","img/object_images/car04.jpg","1","1","1","1","0","0","0.422415699926205","0.587173899984919","0.462443000054918","1","1","1","1","1","1","1","1","1"
"260029","img/object_images/car04.jpg","img/object_images/key02.jpg","img/object_images/tv01.jpg","1","1","1","0","1","0","0.462443000054918","0.422415699926205","0.384029400069267","1","1","1","1","1","1","1","1","1"
"260029","img/object_images/tv01.jpg","img/object_images/car04.jpg","img/object_images/cards01.jpg","1","1","1","0","0","0","0.384029400069267","0.462443000054918","0.483012499986216","1","1","1","1","1","1","1","1","1"
"260029","img/object_images/cards01.jpg","img/object_images/tv01.jpg","img/object_images/toaster02.jpg","1","1","1","0","0","1","0.483012499986216","0.384029400069267","0.385473200003617","1","1","1","1","1","1","1","1","1"
"260029","img/object_images/toaster02.jpg","img/object_images/cards01.jpg","img/object_images/slinky_toy01.jpg","1","1","1","1","0","1","0.385473200003617","0.483012499986216","0.429331700084731","1","1","1","1","1","1","1","1","1"
"260029","img/object_images/slinky_toy01.jpg","img/object_images/toaster02.jpg","img/object_images/mask01.jpg","1","1","1","1","1","0","0.429331700084731","0.385473200003617","0.407356100040488","1","1","1","1","1","1","1","1","1"
"260029","img/object_images/mask01.jpg","img/object_images/slinky_toy01.jpg","img/object_images/hair_brush05.jpg","1","1","1","0","1","1","0.407356100040488","0.429331700084731","0.400056899990887","1","1","1","1","1","1","1","1","1"
"260029","img/object_images/hair_brush05.jpg","img/object_images/mask01.jpg","img/object_images/bag06.jpg","1","1","1","1","0","1","0.400056899990887","0.407356100040488","0.393059000023641","1","1","1","1","1","1","1","1","1"
"260029","img/object_images/bag06.jpg","img/object_images/hair_brush05.jpg","img/object_images/MeasuringCup01.jpg","1","1","1","1","1","1","0.393059000023641","0.400056899990887","0.397122299997136","1","1","1","1","1","1","1","1","1"
"260029","img/object_images/MeasuringCup01.jpg","img/object_images/bag06.jpg","img/object_images/razor01.jpg","1","1","1","1","1","0","0.397122299997136","0.393059000023641","0.415786899975501","1","1","1","1","1","1","1","1","1"
"260029","img/object_images/razor01.jpg","img/object_images/MeasuringCup01.jpg",NA,"1","1",NA,"0","1",NA,"0.415786899975501","0.397122299997136",NA,"1","1",NA,"1","1",NA,"1","1",NA
"260029","img/object_images/tray01.jpg",NA,"img/object_images/hair_clips01.jpg","1",NA,"1","1",NA,"1","0.547947000013664",NA,"0.356550200027414","1",NA,"1","1",NA,"1","1",NA,"1"
"260029","img/object_images/hair_clips01.jpg","img/object_images/tray01.jpg","img/object_images/fire_extinguisher01.jpg","1","1","1","1","1","0","0.356550200027414","0.547947000013664","0.457682500011288","1","1","1","1","1","1","1","1","1"
"260029","img/object_images/fire_extinguisher01.jpg","img/object_images/hair_clips01.jpg","img/object_images/faucet01.jpg","1","1","1","0","1","0","0.457682500011288","0.356550200027414","0.464095500065014","1","1","1","1","1","1","1","1","1"
"260029","img/object_images/faucet01.jpg","img/object_images/fire_extinguisher01.jpg","img/object_images/cup03.jpg","1","1","1","0","0","1","0.464095500065014","0.457682500011288","0.303513000020757","1","1","1","1","1","1","1","1","1"
"260029","img/object_images/cup03.jpg","img/object_images/faucet01.jpg","img/object_images/bicycle_lock01.jpg","1","1","1","1","0","0","0.303513000020757","0.464095500065014","0.398354000062682","1","1","1","1","1","1","1","1","1"
"260029","img/object_images/bicycle_lock01.jpg","img/object_images/cup03.jpg","img/object_images/glasses06.jpg","1","1","1","0","1","1","0.398354000062682","0.303513000020757","0.388662100071087","1","1","1","1","1","1","1","1","1"
"260029","img/object_images/glasses06.jpg","img/object_images/bicycle_lock01.jpg","img/object_images/lighter01.jpg","1","1","1","1","0","1","0.388662100071087","0.398354000062682","0.336226799990982","1","1","1","1","1","1","1","1","1"
"260029","img/object_images/lighter01.jpg","img/object_images/glasses06.jpg","img/object_images/tool07.jpg","1","1","1","1","1","0","0.336226799990982","0.388662100071087","0.401719399960712","1","1","1","1","1","1","1","1","1"
"260029","img/object_images/tool07.jpg","img/object_images/lighter01.jpg","img/object_images/Kitchen_Towel.jpg","1","1","1","0","1","0","0.401719399960712","0.336226799990982","0.33024420007132","1","1","1","1","1","1","1","1","1"
"260029","img/object_images/Kitchen_Towel.jpg","img/object_images/tool07.jpg","img/object_images/Pottery01.jpg","1","1","1","0","0","0","0.33024420007132","0.401719399960712","0.424553099903278","1","1","1","1","1","1","1","1","1"
"260029","img/object_images/Pottery01.jpg","img/object_images/Kitchen_Towel.jpg","img/object_images/yo_yo01.jpg","1","1","0","0","0","0","0.424553099903278","0.33024420007132","0.340756400022656","1","1","1","1","1","1","1","1","1"
"260029","img/object_images/yo_yo01.jpg","img/object_images/Pottery01.jpg","img/object_images/Sprayer01.jpg","0","1","1","0","0","0","0.340756400022656","0.424553099903278","0.426516699953936","1","1","1","1","1","1","1","1","1"
"260029","img/object_images/Sprayer01.jpg","img/object_images/yo_yo01.jpg","img/object_images/speaker01.jpg","1","0","1","0","0","1","0.426516699953936","0.340756400022656","0.420372100081295","1","1","1","1","1","1","1","1","1"
"260029","img/object_images/speaker01.jpg","img/object_images/Sprayer01.jpg","img/object_images/hole_puncher01.jpg","1","1","1","1","0","1","0.420372100081295","0.426516699953936","0.403823800035752","1","1","1","1","1","1","1","1","1"
"260029","img/object_images/hole_puncher01.jpg","img/object_images/speaker01.jpg","img/object_images/gift_box04.jpg","1","1","1","1","1","0","0.403823800035752","0.420372100081295","0.396117400028743","1","1","1","1","1","1","1","1","1"
"260029","img/object_images/gift_box04.jpg","img/object_images/hole_puncher01.jpg","img/object_images/ring03.jpg","1","1","1","0","1","1","0.396117400028743","0.403823800035752","0.397400599904358","1","1","1","1","1","1","1","1","1"
"260029","img/object_images/ring03.jpg","img/object_images/gift_box04.jpg","img/object_images/purse01.jpg","1","1","1","1","0","1","0.397400599904358","0.396117400028743","0.369303400046192","1","1","1","1","1","1","1","1","1"
"260029","img/object_images/purse01.jpg","img/object_images/ring03.jpg","img/object_images/colander01.jpg","1","1","0","1","1","0","0.369303400046192","0.397400599904358","0.388562700012699","1","1","1","1","1","1","1","1","2"
"260029","img/object_images/colander01.jpg","img/object_images/purse01.jpg","img/object_images/projector01.jpg","0","1","1","0","1","0","0.388562700012699","0.369303400046192","0.572501500020735","1","1","1","1","1","1","2","1","1"
"260029","img/object_images/projector01.jpg","img/object_images/colander01.jpg","img/object_images/tool08.jpg","1","0","1","0","0","0","0.572501500020735","0.388562700012699","0.464013000018895","1","1","1","1","1","1","1","2","1"
"260029","img/object_images/tool08.jpg","img/object_images/projector01.jpg","img/object_images/cellphone02.jpg","1","1","1","0","0","1","0.464013000018895","0.572501500020735","0.346625500009395","1","1","1","1","1","1","1","1","1"
"260029","img/object_images/cellphone02.jpg","img/object_images/tool08.jpg","img/object_images/Traffic Sign 01.jpg","1","1","1","1","0","0","0.346625500009395","0.464013000018895","0.527157099917531","1","1","1","1","1","1","1","1","1"
"260029","img/object_images/Traffic Sign 01.jpg","img/object_images/cellphone02.jpg","img/object_images/TrashCan02.jpg","1","1","1","0","1","1","0.527157099917531","0.346625500009395","0.532520599896088","1","1","1","1","1","1","1","1","1"
"260029","img/object_images/TrashCan02.jpg","img/object_images/Traffic Sign 01.jpg","img/object_images/exfoliater_brush01.jpg","1","1","1","1","0","0","0.532520599896088","0.527157099917531","0.430251399986446","1","1","1","1","1","1","1","1","1"
"260029","img/object_images/exfoliater_brush01.jpg","img/object_images/TrashCan02.jpg","img/object_images/basket02.jpg","1","1","1","0","1","0","0.430251399986446","0.532520599896088","0.518549800035544","1","1","1","1","1","1","1","1","1"
"260029","img/object_images/basket02.jpg","img/object_images/exfoliater_brush01.jpg","img/object_images/book01.jpg","1","1","1","0","0","1","0.518549800035544","0.430251399986446","0.421162199927494","1","1","1","1","1","1","1","1","1"
"260029","img/object_images/book01.jpg","img/object_images/basket02.jpg","img/object_images/pan01.jpg","1","1","1","1","0","1","0.421162199927494","0.518549800035544","0.369262599968351","1","1","1","1","1","1","1","1","1"
"260029","img/object_images/pan01.jpg","img/object_images/book01.jpg","img/object_images/blanket01.jpg","1","1","1","1","1","1","0.369262599968351","0.421162199927494","0.453939200029709","1","1","1","1","1","1","1","1","1"
"260029","img/object_images/blanket01.jpg","img/object_images/pan01.jpg","img/object_images/glasses07.jpg","1","1","1","1","1","1","0.453939200029709","0.369262599968351","0.443986700032838","1","1","1","1","1","1","1","1","1"
"260029","img/object_images/glasses07.jpg","img/object_images/blanket01.jpg","img/object_images/handcuffs01.jpg","1","1","1","1","1","0","0.443986700032838","0.453939200029709","0.49457760003861","1","1","1","1","1","1","1","1","1"
"260029","img/object_images/handcuffs01.jpg","img/object_images/glasses07.jpg","img/object_images/jewelry09.jpg","1","1","1","0","1","1","0.49457760003861","0.443986700032838","0.386145299999043","1","1","1","1","1","1","1","1","1"
"260029","img/object_images/jewelry09.jpg","img/object_images/handcuffs01.jpg",NA,"1","1",NA,"1","0",NA,"0.386145299999043","0.49457760003861",NA,"1","1",NA,"1","1",NA,"1","1",NA
"260029","img/object_images/broom01.jpg",NA,"img/object_images/helmet05.jpg","1",NA,"1","1",NA,"1","0.442817799979821",NA,"0.469485000008717","1",NA,"1","1",NA,"1","1",NA,"1"
"260029","img/object_images/helmet05.jpg","img/object_images/broom01.jpg","img/object_images/video_game06.jpg","1","1","1","1","1","0","0.469485000008717","0.442817799979821","0.382339800009504","1","1","1","1","1","1","1","1","1"
"260029","img/object_images/video_game06.jpg","img/object_images/helmet05.jpg","img/object_images/razor03.jpg","1","1","1","0","1","0","0.382339800009504","0.469485000008717","0.432693400071003","1","1","1","1","1","1","1","1","1"
"260029","img/object_images/razor03.jpg","img/object_images/video_game06.jpg","img/object_images/pot01.jpg","1","1","1","0","0","0","0.432693400071003","0.382339800009504","0.424865300068632","1","1","1","1","1","1","1","1","1"
"260029","img/object_images/pot01.jpg","img/object_images/razor03.jpg","img/object_images/Wisk01.jpg","1","1","1","0","0","1","0.424865300068632","0.432693400071003","0.3640145000536","1","1","1","1","1","1","1","1","1"
"260029","img/object_images/Wisk01.jpg","img/object_images/pot01.jpg","img/object_images/lamp01.jpg","1","1","1","1","0","1","0.3640145000536","0.424865300068632","0.3945358999772","1","1","1","1","1","1","1","1","1"
"260029","img/object_images/lamp01.jpg","img/object_images/Wisk01.jpg","img/object_images/car02.jpg","1","1","1","1","1","0","0.3945358999772","0.3640145000536","0.435254300013185","1","1","1","1","1","1","1","1","1"
"260029","img/object_images/car02.jpg","img/object_images/lamp01.jpg","img/object_images/Recycling01.jpg","1","1","1","0","1","1","0.435254300013185","0.3945358999772","0.375928599969484","1","1","1","1","1","1","1","1","1"
"260029","img/object_images/Recycling01.jpg","img/object_images/car02.jpg","img/object_images/guitar01.jpg","1","1","1","1","0","1","0.375928599969484","0.435254300013185","0.440978499944322","1","1","1","1","1","1","1","1","1"
"260029","img/object_images/guitar01.jpg","img/object_images/Recycling01.jpg","img/object_images/couch04.jpg","1","1","1","1","1","1","0.440978499944322","0.375928599969484","0.37501970003359","1","1","1","1","1","1","1","1","1"
"260029","img/object_images/couch04.jpg","img/object_images/guitar01.jpg","img/object_images/chair01.jpg","1","1","1","1","1","0","0.37501970003359","0.440978499944322","0.448097400018014","1","1","1","1","1","1","1","1","1"
"260029","img/object_images/chair01.jpg","img/object_images/couch04.jpg","img/object_images/soap01.jpg","1","1","1","0","1","0","0.448097400018014","0.37501970003359","0.431672899983823","1","1","1","1","1","1","1","1","1"
"260029","img/object_images/soap01.jpg","img/object_images/chair01.jpg","img/object_images/toy_train02.jpg","1","1","1","0","0","1","0.431672899983823","0.448097400018014","0.388314099982381","1","1","1","1","1","1","1","1","1"
"260029","img/object_images/toy_train02.jpg","img/object_images/soap01.jpg","img/object_images/container01.jpg","1","1","1","1","0","0","0.388314099982381","0.431672899983823","0.452703999937512","1","1","1","1","1","1","1","1","1"
"260029","img/object_images/container01.jpg","img/object_images/toy_train02.jpg","img/object_images/gloves05.jpg","1","1","1","0","1","1","0.452703999937512","0.388314099982381","0.379928999929689","1","1","1","1","1","1","1","1","1"
"260029","img/object_images/gloves05.jpg","img/object_images/container01.jpg","img/object_images/basketball_hoop02.jpg","1","1","1","1","0","0","0.379928999929689","0.452703999937512","0.521486299927346","1","1","1","1","1","1","1","1","1"
"260029","img/object_images/basketball_hoop02.jpg","img/object_images/gloves05.jpg","img/object_images/hat02.jpg","1","1","1","0","1","0","0.521486299927346","0.379928999929689","0.422546399990097","1","1","1","1","1","1","1","1","1"
"260029","img/object_images/hat02.jpg","img/object_images/basketball_hoop02.jpg","img/object_images/decorative02.jpg","1","1","1","0","0","0","0.422546399990097","0.521486299927346","0.457314500003122","1","1","1","1","1","1","1","1","1"
"260029","img/object_images/decorative02.jpg","img/object_images/hat02.jpg","img/object_images/pitcher03.jpg","1","1","1","0","0","1","0.457314500003122","0.422546399990097","0.626026700017974","1","1","1","1","1","1","1","1","1"
"260029","img/object_images/pitcher03.jpg","img/object_images/decorative02.jpg","img/object_images/toilet_paper01.jpg","1","1","1","1","0","1","0.626026700017974","0.457314500003122","0.353365500108339","1","1","1","1","1","1","1","1","1"
"260029","img/object_images/toilet_paper01.jpg","img/object_images/pitcher03.jpg","img/object_images/ironing_table02.jpg","1","1","1","1","1","0","0.353365500108339","0.626026700017974","0.441286699962802","1","1","1","1","1","1","1","1","1"
"260029","img/object_images/ironing_table02.jpg","img/object_images/toilet_paper01.jpg","img/object_images/brief_case02.jpg","1","1","1","0","1","1","0.441286699962802","0.353365500108339","0.33948289998807","1","1","1","1","1","1","1","1","1"
"260029","img/object_images/brief_case02.jpg","img/object_images/ironing_table02.jpg","img/object_images/brief_case01.jpg","1","1","1","1","0","0","0.33948289998807","0.441286699962802","0.361475700046867","1","1","1","1","1","1","1","1","1"
"260029","img/object_images/brief_case01.jpg","img/object_images/brief_case02.jpg","img/object_images/cochlear_implant01.jpg","1","1","1","0","1","0","0.361475700046867","0.33948289998807","0.522750900010578","1","1","1","1","1","1","1","1","1"
"260029","img/object_images/cochlear_implant01.jpg","img/object_images/brief_case01.jpg","img/object_images/ball01.jpg","1","1","1","0","0","1","0.522750900010578","0.361475700046867","0.482957399915904","1","1","1","1","1","1","1","1","1"
"260029","img/object_images/ball01.jpg","img/object_images/cochlear_implant01.jpg","img/object_images/Woopie01.jpg","1","1","1","1","0","1","0.482957399915904","0.522750900010578","0.48859339999035","1","1","1","1","1","1","1","1","1"
"260029","img/object_images/Woopie01.jpg","img/object_images/ball01.jpg","img/object_images/bottle12.jpg","1","1","1","1","1","1","0.48859339999035","0.482957399915904","0.414384999894537","1","1","1","1","1","1","1","1","1"
"260029","img/object_images/bottle12.jpg","img/object_images/Woopie01.jpg","img/object_images/tie01.jpg","1","1","1","1","1","0","0.414384999894537","0.48859339999035","0.407187800039537","1","1","1","1","1","1","1","1","1"
"260029","img/object_images/tie01.jpg","img/object_images/bottle12.jpg","img/object_images/airfryer01.jpg","1","1","1","0","1","0","0.407187800039537","0.414384999894537","0.476759499986656","1","1","1","1","1","1","1","1","1"
"260029","img/object_images/airfryer01.jpg","img/object_images/tie01.jpg","img/object_images/drone02.jpg","1","1","1","0","0","0","0.476759499986656","0.407187800039537","0.426042699953541","1","1","1","1","1","1","1","1","1"
"260029","img/object_images/drone02.jpg","img/object_images/airfryer01.jpg","img/object_images/lantern01.jpg","1","1","1","0","0","1","0.426042699953541","0.476759499986656","0.411653999937698","1","1","1","1","1","1","1","1","1"
"260029","img/object_images/lantern01.jpg","img/object_images/drone02.jpg",NA,"1","1",NA,"1","0",NA,"0.411653999937698","0.426042699953541",NA,"1","1",NA,"1","1",NA,"1","1",NA
"260029","img/object_images/knife01.jpg",NA,"img/object_images/spray_can01.jpg","1",NA,"1","1",NA,"0","0.577368299942464",NA,"0.476559599977918","1",NA,"1","1",NA,"1","1",NA,"1"
"260029","img/object_images/spray_can01.jpg","img/object_images/knife01.jpg","img/object_images/video_game02.jpg","1","1","1","0","1","1","0.476559599977918","0.577368299942464","0.396327900001779","1","1","1","1","1","1","1","1","1"
"260029","img/object_images/video_game02.jpg","img/object_images/spray_can01.jpg","img/object_images/sink_filter01 (1).jpg","1","1","1","1","0","0","0.396327900001779","0.476559599977918","0.414524400024675","1","1","1","1","1","1","1","1","1"
"260029","img/object_images/sink_filter01 (1).jpg","img/object_images/video_game02.jpg","img/object_images/pan03.jpg","1","1","1","0","1","1","0.414524400024675","0.396327900001779","0.384465800016187","1","1","1","1","1","1","1","1","1"
"260029","img/object_images/pan03.jpg","img/object_images/sink_filter01 (1).jpg","img/object_images/clipboard01.jpg","1","1","1","1","0","1","0.384465800016187","0.414524400024675","0.379437300027348","1","1","1","1","1","1","1","1","1"
"260029","img/object_images/clipboard01.jpg","img/object_images/pan03.jpg","img/object_images/razor02.jpg","1","1","1","1","1","1","0.379437300027348","0.384465800016187","0.463673799997196","1","1","1","1","1","1","1","1","1"
"260029","img/object_images/razor02.jpg","img/object_images/clipboard01.jpg","img/object_images/sign02.jpg","1","1","1","1","1","0","0.463673799997196","0.379437300027348","0.528956800000742","1","1","1","1","1","1","1","1","1"
"260029","img/object_images/sign02.jpg","img/object_images/razor02.jpg","img/object_images/hammer02.jpg","1","1","1","0","1","0","0.528956800000742","0.463673799997196","0.458475599996746","1","1","1","1","1","1","1","1","1"
"260029","img/object_images/hammer02.jpg","img/object_images/sign02.jpg","img/object_images/vase02.jpg","1","1","1","0","0","1","0.458475599996746","0.528956800000742","0.42943119991105","1","1","1","1","1","1","1","1","1"
"260029","img/object_images/vase02.jpg","img/object_images/hammer02.jpg","img/object_images/camera05.jpg","1","1","1","1","0","0","0.42943119991105","0.458475599996746","0.431199499987997","1","1","1","1","1","1","1","1","1"
"260029","img/object_images/camera05.jpg","img/object_images/vase02.jpg","img/object_images/glasses03.jpg","1","1","1","0","1","0","0.431199499987997","0.42943119991105","0.457492600078695","1","1","1","1","1","1","1","1","1"
"260029","img/object_images/glasses03.jpg","img/object_images/camera05.jpg","img/object_images/pen06.jpg","1","1","1","0","0","0","0.457492600078695","0.431199499987997","0.45217840000987","1","1","1","1","1","1","1","1","1"
"260029","img/object_images/pen06.jpg","img/object_images/glasses03.jpg","img/object_images/cup01.jpg","1","1","1","0","0","0","0.45217840000987","0.457492600078695","0.617374500026926","1","1","1","1","1","1","1","1","1"
"260029","img/object_images/cup01.jpg","img/object_images/pen06.jpg","img/object_images/dust_pan01.jpg","1","1","1","0","0","1","0.617374500026926","0.45217840000987","0.551272900076583","1","1","1","1","1","1","1","1","1"
"260029","img/object_images/dust_pan01.jpg","img/object_images/cup01.jpg","img/object_images/Confetti 01.jpg","1","1","1","1","0","0","0.551272900076583","0.617374500026926","0.484438900020905","1","1","1","1","1","1","1","1","1"
"260029","img/object_images/Confetti 01.jpg","img/object_images/dust_pan01.jpg","img/object_images/hat13.jpg","1","1","1","0","1","1","0.484438900020905","0.551272900076583","0.429580900003202","1","1","1","1","1","1","1","1","1"
"260029","img/object_images/hat13.jpg","img/object_images/Confetti 01.jpg","img/object_images/ruler02.jpg","1","1","1","1","0","1","0.429580900003202","0.484438900020905","0.514058400061913","1","1","1","1","1","1","1","1","1"
"260029","img/object_images/ruler02.jpg","img/object_images/hat13.jpg","img/object_images/tool13.jpg","1","1","1","1","1","1","0.514058400061913","0.429580900003202","0.50745110004209","1","1","1","1","1","1","1","1","1"
"260029","img/object_images/tool13.jpg","img/object_images/ruler02.jpg","img/object_images/duster01.jpg","1","1","1","1","1","0","0.50745110004209","0.514058400061913","0.46601929992903","1","1","1","1","1","1","1","1","1"
"260029","img/object_images/duster01.jpg","img/object_images/tool13.jpg","img/object_images/tool20.jpg","1","1","1","0","1","0","0.46601929992903","0.50745110004209","0.434652199968696","1","1","1","1","1","1","1","1","1"
"260029","img/object_images/tool20.jpg","img/object_images/duster01.jpg","img/object_images/Candle_Holder01.jpg","1","1","1","0","0","0","0.434652199968696","0.46601929992903","0.474202099954709","1","1","1","1","1","1","1","1","1"
"260029","img/object_images/Candle_Holder01.jpg","img/object_images/tool20.jpg","img/object_images/lemon_squeezer01.jpg","1","1","1","0","0","1","0.474202099954709","0.434652199968696","0.471088799997233","1","1","1","1","1","1","1","1","1"
"260029","img/object_images/lemon_squeezer01.jpg","img/object_images/Candle_Holder01.jpg","img/object_images/office_supplies01.jpg","1","1","1","1","0","1","0.471088799997233","0.474202099954709","0.394721499993466","1","1","1","1","1","1","1","1","1"
"260029","img/object_images/office_supplies01.jpg","img/object_images/lemon_squeezer01.jpg","img/object_images/hat09.jpg","1","1","1","1","1","0","0.394721499993466","0.471088799997233","0.421164400060661","1","1","1","1","1","1","1","1","1"
"260029","img/object_images/hat09.jpg","img/object_images/office_supplies01.jpg","img/object_images/perfume01.jpg","1","1","1","0","1","0","0.421164400060661","0.394721499993466","0.466224299976602","1","1","1","1","1","1","1","1","1"
"260029","img/object_images/perfume01.jpg","img/object_images/hat09.jpg","img/object_images/socks01.jpg","1","1","1","0","0","1","0.466224299976602","0.421164400060661","0.368613200029358","1","1","1","1","1","1","1","1","1"
"260029","img/object_images/socks01.jpg","img/object_images/perfume01.jpg","img/object_images/board01.jpg","1","1","1","1","0","1","0.368613200029358","0.466224299976602","0.38912970002275","1","1","1","1","1","1","1","1","1"
"260029","img/object_images/board01.jpg","img/object_images/socks01.jpg","img/object_images/bag04.jpg","1","1","1","1","1","0","0.38912970002275","0.368613200029358","0.496607400011271","1","1","1","1","1","1","1","1","1"
"260029","img/object_images/bag04.jpg","img/object_images/board01.jpg","img/object_images/bow_tie03.jpg","1","1","1","0","1","1","0.496607400011271","0.38912970002275","1.18382539995946","1","1","1","1","1","1","1","1","1"
"260029","img/object_images/bow_tie03.jpg","img/object_images/bag04.jpg","img/object_images/candle02.jpg","1","1","1","1","0","0","1.18382539995946","0.496607400011271","0.437872299924493","1","1","1","1","1","1","1","1","1"
"260029","img/object_images/candle02.jpg","img/object_images/bow_tie03.jpg","img/object_images/floss01.jpg","1","1","1","0","1","1","0.437872299924493","1.18382539995946","0.413067099987529","1","1","1","1","1","1","1","1","1"
"260029","img/object_images/floss01.jpg","img/object_images/candle02.jpg",NA,"1","1",NA,"1","0",NA,"0.413067099987529","0.437872299924493",NA,"1","1",NA,"1","1",NA,"1","1",NA
"260029","img/object_images/soap03.jpg",NA,"img/object_images/pitcher09.jpg","1",NA,"1","0",NA,"1","0.485697299940512",NA,"0.372731399955228","1",NA,"1","1",NA,"1","1",NA,"1"
"260029","img/object_images/pitcher09.jpg","img/object_images/soap03.jpg","img/object_images/tool06.jpg","1","1","1","1","0","0","0.372731399955228","0.485697299940512","0.42960460006725","1","1","1","1","1","1","1","1","1"
"260029","img/object_images/tool06.jpg","img/object_images/pitcher09.jpg","img/object_images/rock02.jpg","1","1","1","0","1","0","0.42960460006725","0.372731399955228","0.51149920001626","1","1","1","1","1","1","1","1","1"
"260029","img/object_images/rock02.jpg","img/object_images/tool06.jpg","img/object_images/floss02.jpg","1","1","1","0","0","1","0.51149920001626","0.42960460006725","0.422132899984717","1","1","1","1","1","1","1","1","1"
"260029","img/object_images/floss02.jpg","img/object_images/rock02.jpg","img/object_images/couch01.jpg","1","1","1","1","0","0","0.422132899984717","0.51149920001626","0.440503300051205","1","1","1","1","1","1","1","1","1"
"260029","img/object_images/couch01.jpg","img/object_images/floss02.jpg","img/object_images/toy01.jpg","1","1","1","0","1","1","0.440503300051205","0.422132899984717","0.442980300053023","1","1","1","1","1","1","1","1","1"
"260029","img/object_images/toy01.jpg","img/object_images/couch01.jpg","img/object_images/Violin01.jpg","1","1","1","1","0","0","0.442980300053023","0.440503300051205","0.406179500045255","1","1","1","1","1","1","1","1","1"
"260029","img/object_images/Violin01.jpg","img/object_images/toy01.jpg","img/object_images/egg_slicer01.jpg","1","1","1","0","1","1","0.406179500045255","0.442980300053023","0.39707179996185","1","1","1","1","1","1","1","1","1"
"260029","img/object_images/egg_slicer01.jpg","img/object_images/Violin01.jpg","img/object_images/video_game03.jpg","1","1","1","1","0","1","0.39707179996185","0.406179500045255","0.372594599961303","1","1","1","1","1","1","1","1","1"
"260029","img/object_images/video_game03.jpg","img/object_images/egg_slicer01.jpg","img/object_images/hair_brush01.jpg","1","1","1","1","1","1","0.372594599961303","0.39707179996185","0.394447600003332","1","1","1","1","1","1","1","1","1"
"260029","img/object_images/hair_brush01.jpg","img/object_images/video_game03.jpg","img/object_images/bell03.jpg","1","1","1","1","1","0","0.394447600003332","0.372594599961303","0.427387799951248","1","1","1","1","1","1","1","1","1"
"260029","img/object_images/bell03.jpg","img/object_images/hair_brush01.jpg","img/object_images/computer_mouse02.jpg","1","1","1","0","1","0","0.427387799951248","0.394447600003332","0.447718799929135","1","1","1","1","1","1","1","1","1"
"260029","img/object_images/computer_mouse02.jpg","img/object_images/bell03.jpg","img/object_images/pen01.jpg","1","1","1","0","0","0","0.447718799929135","0.427387799951248","0.492894299910404","1","1","1","1","1","1","1","1","1"
"260029","img/object_images/pen01.jpg","img/object_images/computer_mouse02.jpg","img/object_images/box03.jpg","1","1","0","0","0","0","0.492894299910404","0.447718799929135","0.471741699962877","1","1","1","1","1","1","1","1","1"
"260029","img/object_images/box03.jpg","img/object_images/pen01.jpg","img/object_images/chain01.jpg","0","1","1","0","0","0","0.471741699962877","0.492894299910404","0.443700900068507","1","1","1","1","1","1","1","1","1"
"260029","img/object_images/chain01.jpg","img/object_images/box03.jpg","img/object_images/skate_board01.jpg","1","0","1","0","0","0","0.443700900068507","0.471741699962877","0.429542800062336","1","1","1","1","1","1","1","1","1"
"260029","img/object_images/skate_board01.jpg","img/object_images/chain01.jpg","img/object_images/Trowel01.jpg","1","1","1","0","0","0","0.429542800062336","0.443700900068507","0.473565899999812","1","1","1","1","1","1","1","1","1"
"260029","img/object_images/Trowel01.jpg","img/object_images/skate_board01.jpg","img/object_images/toothbrush01.jpg","1","1","1","0","0","0","0.473565899999812","0.429542800062336","0.423171899979934","1","1","1","1","1","1","1","1","1"
"260029","img/object_images/toothbrush01.jpg","img/object_images/Trowel01.jpg","img/object_images/mail_box02.jpg","1","1","1","0","0","1","0.423171899979934","0.473565899999812","0.412960199988447","1","1","1","1","1","1","1","1","1"
"260029","img/object_images/mail_box02.jpg","img/object_images/toothbrush01.jpg","img/object_images/chair06.jpg","1","1","1","1","0","0","0.412960199988447","0.423171899979934","0.475494900019839","1","1","1","1","1","1","1","1","1"
"260029","img/object_images/chair06.jpg","img/object_images/mail_box02.jpg","img/object_images/clip04.jpg","1","1","1","0","1","1","0.475494900019839","0.412960199988447","0.482478099991567","1","1","1","1","1","1","1","1","1"
"260029","img/object_images/clip04.jpg","img/object_images/chair06.jpg","img/object_images/shoes12.jpg","1","1","1","1","0","1","0.482478099991567","0.475494900019839","0.475766699993983","1","1","1","1","1","1","1","1","1"
"260029","img/object_images/shoes12.jpg","img/object_images/clip04.jpg","img/object_images/airfryer02.jpg","1","1","1","1","1","1","0.475766699993983","0.482478099991567","0.417538100038655","1","1","1","1","1","1","1","1","1"
"260029","img/object_images/airfryer02.jpg","img/object_images/shoes12.jpg","img/object_images/fork02.jpg","1","1","1","1","1","0","0.417538100038655","0.475766699993983","0.458377999952063","1","1","1","1","1","1","1","1","1"
"260029","img/object_images/fork02.jpg","img/object_images/airfryer02.jpg","img/object_images/book02.jpg","1","1","1","0","1","1","0.458377999952063","0.417538100038655","0.597695300006308","1","1","1","1","1","1","1","1","1"
"260029","img/object_images/book02.jpg","img/object_images/fork02.jpg","img/object_images/drone01.jpg","1","1","1","1","0","1","0.597695300006308","0.458377999952063","0.385442600003444","1","1","1","1","1","1","1","1","1"
"260029","img/object_images/drone01.jpg","img/object_images/book02.jpg","img/object_images/tripod01.jpg","1","1","1","1","1","1","0.385442600003444","0.597695300006308","0.416158400010318","1","1","1","1","1","1","1","1","1"
"260029","img/object_images/tripod01.jpg","img/object_images/drone01.jpg","img/object_images/scarf01.jpg","1","1","1","1","1","1","0.416158400010318","0.385442600003444","0.434615200036205","1","1","1","1","1","1","1","1","1"
"260029","img/object_images/scarf01.jpg","img/object_images/tripod01.jpg","img/object_images/bag_pipes01.jpg","1","1","1","1","1","1","0.434615200036205","0.416158400010318","0.619126099976711","1","1","1","1","1","1","1","1","1"
"260029","img/object_images/bag_pipes01.jpg","img/object_images/scarf01.jpg","img/object_images/computer_mouse01.jpg","1","1","1","1","1","1","0.619126099976711","0.434615200036205","0.46106429991778","1","1","1","1","1","1","1","1","1"
"260029","img/object_images/computer_mouse01.jpg","img/object_images/bag_pipes01.jpg","img/object_images/blender01.jpg","1","1","1","1","1","0","0.46106429991778","0.619126099976711","0.473865299951285","1","1","1","1","1","1","1","1","1"
"260029","img/object_images/blender01.jpg","img/object_images/computer_mouse01.jpg",NA,"1","1",NA,"0","1",NA,"0.473865299951285","0.46106429991778",NA,"1","1",NA,"1","1",NA,"1","1",NA
"260029","img/object_images/bucket01.jpg",NA,"img/object_images/origami01.jpg","1",NA,"1","1",NA,"1","0.575209299917333",NA,"0.399375099921599","1",NA,"1","1",NA,"1","1",NA,"1"
"260029","img/object_images/origami01.jpg","img/object_images/bucket01.jpg","img/object_images/frame01.jpg","1","1","1","1","1","1","0.399375099921599","0.575209299917333","0.42876709997654","1","1","1","1","1","1","1","1","1"
"260029","img/object_images/frame01.jpg","img/object_images/origami01.jpg","img/object_images/badminton01.jpg","1","1","1","1","1","1","0.42876709997654","0.399375099921599","0.358124099904671","1","1","1","1","1","1","1","1","1"
"260029","img/object_images/badminton01.jpg","img/object_images/frame01.jpg","img/object_images/trumpet01.jpg","1","1","1","1","1","0","0.358124099904671","0.42876709997654","0.438362599932589","1","1","1","1","1","1","1","1","1"
"260029","img/object_images/trumpet01.jpg","img/object_images/badminton01.jpg","img/object_images/lock03.jpg","1","1","1","0","1","1","0.438362599932589","0.358124099904671","0.406695700017735","1","1","1","1","1","1","1","1","1"
"260029","img/object_images/lock03.jpg","img/object_images/trumpet01.jpg","img/object_images/nut_cracker01.jpg","1","1","1","1","0","1","0.406695700017735","0.438362599932589","0.354590500006452","1","1","1","1","1","1","1","1","1"
"260029","img/object_images/nut_cracker01.jpg","img/object_images/lock03.jpg","img/object_images/shovel01.jpg","1","1","1","1","1","0","0.354590500006452","0.406695700017735","0.470868400065228","1","1","1","1","1","1","1","1","1"
"260029","img/object_images/shovel01.jpg","img/object_images/nut_cracker01.jpg","img/object_images/dice01.jpg","1","1","1","0","1","0","0.470868400065228","0.354590500006452","0.44065949996002","1","1","1","1","1","1","1","1","1"
"260029","img/object_images/dice01.jpg","img/object_images/shovel01.jpg","img/object_images/water_gun01.jpg","1","1","1","0","0","1","0.44065949996002","0.470868400065228","0.355964199989103","1","1","1","1","1","1","1","1","1"
"260029","img/object_images/water_gun01.jpg","img/object_images/dice01.jpg","img/object_images/TreeSlice01.jpg","1","1","1","1","0","1","0.355964199989103","0.44065949996002","0.36753609997686","1","1","1","1","1","1","1","1","1"
"260029","img/object_images/TreeSlice01.jpg","img/object_images/water_gun01.jpg","img/object_images/egg_basket01.jpg","1","1","1","1","1","1","0.36753609997686","0.355964199989103","0.421775000053458","1","1","1","1","1","1","1","1","1"
"260029","img/object_images/egg_basket01.jpg","img/object_images/TreeSlice01.jpg","img/object_images/note_book02.jpg","1","1","1","1","1","0","0.421775000053458","0.36753609997686","0.455513999913819","1","1","1","1","1","1","1","1","1"
"260029","img/object_images/note_book02.jpg","img/object_images/egg_basket01.jpg","img/object_images/ToolBag01.jpg","1","1","1","0","1","0","0.455513999913819","0.421775000053458","0.439718700014055","1","1","1","1","1","1","1","1","1"
"260029","img/object_images/ToolBag01.jpg","img/object_images/note_book02.jpg","img/object_images/bookmark01.jpg","1","1","1","0","0","0","0.439718700014055","0.455513999913819","0.405152100021951","1","1","1","1","1","1","1","1","1"
"260029","img/object_images/bookmark01.jpg","img/object_images/ToolBag01.jpg","img/object_images/pitcher07.jpg","1","1","1","0","0","1","0.405152100021951","0.439718700014055","0.475840300088748","1","1","1","1","1","1","1","1","1"
"260029","img/object_images/pitcher07.jpg","img/object_images/bookmark01.jpg","img/object_images/yoga_mat01.jpg","1","1","1","1","0","0","0.475840300088748","0.405152100021951","0.44689380005002","1","1","1","1","1","1","1","1","1"
"260029","img/object_images/yoga_mat01.jpg","img/object_images/pitcher07.jpg","img/object_images/jewel02.jpg","1","1","1","0","1","0","0.44689380005002","0.475840300088748","0.4934968999587","1","1","1","1","1","1","1","1","1"
"260029","img/object_images/jewel02.jpg","img/object_images/yoga_mat01.jpg","img/object_images/joystick03.jpg","1","1","1","0","0","1","0.4934968999587","0.44689380005002","0.346173899946734","1","1","1","1","1","1","1","1","1"
"260029","img/object_images/joystick03.jpg","img/object_images/jewel02.jpg","img/object_images/fan01.jpg","1","1","1","1","0","0","0.346173899946734","0.4934968999587","0.486756100086495","1","1","1","1","1","1","1","1","1"
"260029","img/object_images/fan01.jpg","img/object_images/joystick03.jpg","img/object_images/usb03.jpg","1","1","1","0","1","0","0.486756100086495","0.346173899946734","0.48606959998142","1","1","1","1","1","1","1","1","1"
"260029","img/object_images/usb03.jpg","img/object_images/fan01.jpg","img/object_images/tennis_racket01.jpg","1","1","1","0","0","1","0.48606959998142","0.486756100086495","0.373713199980557","1","1","1","1","1","1","1","1","1"
"260029","img/object_images/tennis_racket01.jpg","img/object_images/usb03.jpg","img/object_images/Safe01.jpg","1","1","1","1","0","1","0.373713199980557","0.48606959998142","0.486715200007893","1","1","1","1","1","1","1","1","1"
"260029","img/object_images/Safe01.jpg","img/object_images/tennis_racket01.jpg","img/object_images/headset02.jpg","1","1","1","1","1","0","0.486715200007893","0.373713199980557","0.454724699957296","1","1","1","1","1","1","1","1","1"
"260029","img/object_images/headset02.jpg","img/object_images/Safe01.jpg","img/object_images/bottle06.jpg","1","1","1","0","1","0","0.454724699957296","0.486715200007893","0.417438899981789","1","1","1","1","1","1","1","1","1"
"260029","img/object_images/bottle06.jpg","img/object_images/headset02.jpg","img/object_images/Shoes05.jpg","1","1","1","0","0","0","0.417438899981789","0.454724699957296","0.518259800039232","1","1","1","1","1","1","1","1","1"
"260029","img/object_images/Shoes05.jpg","img/object_images/bottle06.jpg","img/object_images/piano03.jpg","1","1","1","0","0","0","0.518259800039232","0.417438899981789","0.380257099983282","1","1","1","1","1","1","1","1","1"
"260029","img/object_images/piano03.jpg","img/object_images/Shoes05.jpg","img/object_images/Eyeliner01.jpg","1","1","1","0","0","1","0.380257099983282","0.518259800039232","0.413379400037229","1","1","1","1","1","1","1","1","1"
"260029","img/object_images/Eyeliner01.jpg","img/object_images/piano03.jpg","img/object_images/helmet03.jpg","1","1","1","1","0","1","0.413379400037229","0.380257099983282","0.4466302000219","1","1","1","1","1","1","1","1","1"
"260029","img/object_images/helmet03.jpg","img/object_images/Eyeliner01.jpg","img/object_images/scale02.jpg","1","1","1","1","1","0","0.4466302000219","0.413379400037229","0.450659799971618","1","1","1","1","1","1","1","1","1"
"260029","img/object_images/scale02.jpg","img/object_images/helmet03.jpg","img/object_images/phone04.jpg","1","1","1","0","1","1","0.450659799971618","0.4466302000219","0.385947400005534","1","1","1","1","1","1","1","1","1"
"260029","img/object_images/phone04.jpg","img/object_images/scale02.jpg","img/object_images/belt03.jpg","1","1","1","1","0","0","0.385947400005534","0.450659799971618","0.527373200049624","1","1","1","1","1","1","1","1","1"
"260029","img/object_images/belt03.jpg","img/object_images/phone04.jpg",NA,"1","1",NA,"0","1",NA,"0.527373200049624","0.385947400005534",NA,"1","1",NA,"1","1",NA,"1","1",NA
"260029","img/object_images/chess_piece02.jpg",NA,"img/object_images/Oven01.jpg","1",NA,"1","1",NA,"1","0.566385400015861",NA,"0.400089400005527","1",NA,"1","1",NA,"1","1",NA,"1"
"260029","img/object_images/Oven01.jpg","img/object_images/chess_piece02.jpg","img/object_images/clip03.jpg","1","1","1","1","1","0","0.400089400005527","0.566385400015861","0.53193369996734","1","1","1","1","1","1","1","1","1"
"260029","img/object_images/clip03.jpg","img/object_images/Oven01.jpg","img/object_images/wire02.jpg","1","1","1","0","1","1","0.53193369996734","0.400089400005527","0.387771900044754","1","1","1","1","1","1","1","1","1"
"260029","img/object_images/wire02.jpg","img/object_images/clip03.jpg","img/object_images/crutches02.jpg","1","1","1","1","0","0","0.387771900044754","0.53193369996734","0.492933899979107","1","1","1","1","1","1","1","1","1"
"260029","img/object_images/crutches02.jpg","img/object_images/wire02.jpg","img/object_images/note_book01.jpg","1","1","1","0","1","0","0.492933899979107","0.387771900044754","0.478646900039166","1","1","1","1","1","1","1","1","1"
"260029","img/object_images/note_book01.jpg","img/object_images/crutches02.jpg","img/object_images/knife04.jpg","1","1","1","0","0","1","0.478646900039166","0.492933899979107","0.452508899965324","1","1","1","1","1","1","1","1","1"
"260029","img/object_images/knife04.jpg","img/object_images/note_book01.jpg","img/object_images/hammer03.jpg","1","1","1","1","0","1","0.452508899965324","0.478646900039166","0.436925700050779","1","1","1","1","1","1","1","1","1"
"260029","img/object_images/hammer03.jpg","img/object_images/knife04.jpg","img/object_images/lid01.jpg","1","1","1","1","1","1","0.436925700050779","0.452508899965324","0.437540299957618","1","1","1","1","1","1","1","1","1"
"260029","img/object_images/lid01.jpg","img/object_images/hammer03.jpg","img/object_images/tv02.jpg","1","1","1","1","1","0","0.437540299957618","0.436925700050779","0.482246899977326","1","1","1","1","1","1","1","1","1"
"260029","img/object_images/tv02.jpg","img/object_images/lid01.jpg","img/object_images/compass01.jpg","1","1","1","0","1","1","0.482246899977326","0.437540299957618","0.36962490004953","1","1","1","1","1","1","1","1","1"
"260029","img/object_images/compass01.jpg","img/object_images/tv02.jpg","img/object_images/motorcycle01.jpg","1","1","1","1","0","1","0.36962490004953","0.482246899977326","0.420294900075532","1","1","1","1","1","1","1","1","1"
"260029","img/object_images/motorcycle01.jpg","img/object_images/compass01.jpg","img/object_images/paint_brush04.jpg","1","1","1","1","1","0","0.420294900075532","0.36962490004953","0.419604300055653","1","1","1","1","1","1","1","1","1"
"260029","img/object_images/paint_brush04.jpg","img/object_images/motorcycle01.jpg","img/object_images/chair05.jpg","1","1","1","0","1","0","0.419604300055653","0.420294900075532","0.430131400004029","1","1","1","1","1","1","1","1","1"
"260029","img/object_images/chair05.jpg","img/object_images/paint_brush04.jpg","img/object_images/usb02.jpg","1","1","1","0","0","0","0.430131400004029","0.419604300055653","0.469610800035298","1","1","1","1","1","1","1","1","1"
"260029","img/object_images/usb02.jpg","img/object_images/chair05.jpg","img/object_images/knit05.jpg","1","1","1","0","0","1","0.469610800035298","0.430131400004029","0.408801099983975","1","1","1","1","1","1","1","1","1"
"260029","img/object_images/knit05.jpg","img/object_images/usb02.jpg","img/object_images/pitcher01.jpg","1","1","1","1","0","0","0.408801099983975","0.469610800035298","0.441509599913843","1","1","1","1","1","1","1","1","1"
"260029","img/object_images/pitcher01.jpg","img/object_images/knit05.jpg","img/object_images/pillows01.jpg","1","1","1","0","1","1","0.441509599913843","0.408801099983975","0.378794300020672","1","1","1","1","1","1","1","1","1"
"260029","img/object_images/pillows01.jpg","img/object_images/pitcher01.jpg","img/object_images/bottle01.jpg","1","1","1","1","0","0","0.378794300020672","0.441509599913843","0.412801900063641","1","1","1","1","1","1","1","1","1"
"260029","img/object_images/bottle01.jpg","img/object_images/pillows01.jpg","img/object_images/pen03.jpg","1","1","1","0","1","0","0.412801900063641","0.378794300020672","0.422422199975699","1","1","1","1","1","1","1","1","1"
"260029","img/object_images/pen03.jpg","img/object_images/bottle01.jpg","img/object_images/floppy_disk02.jpg","1","1","1","0","0","0","0.422422199975699","0.412801900063641","0.408640499925241","1","1","1","1","1","1","1","1","1"
"260029","img/object_images/floppy_disk02.jpg","img/object_images/pen03.jpg","img/object_images/Thermometer01.jpg","1","1","1","0","0","0","0.408640499925241","0.422422199975699","0.419509000028484","1","1","1","1","1","1","1","1","1"
"260029","img/object_images/Thermometer01.jpg","img/object_images/floppy_disk02.jpg","img/object_images/retainer01.jpg","1","1","1","0","0","0","0.419509000028484","0.408640499925241","0.369293099967763","1","1","1","1","1","1","1","1","1"
"260029","img/object_images/retainer01.jpg","img/object_images/Thermometer01.jpg","img/object_images/book03.jpg","1","1","1","0","0","1","0.369293099967763","0.419509000028484","0.43958330003079","1","1","1","1","1","1","1","1","1"
"260029","img/object_images/book03.jpg","img/object_images/retainer01.jpg","img/object_images/microscope01.jpg","1","1","1","1","0","0","0.43958330003079","0.369293099967763","0.407483799965121","1","1","1","1","1","1","1","1","1"
"260029","img/object_images/microscope01.jpg","img/object_images/book03.jpg","img/object_images/Staples01.jpg","1","1","1","0","1","1","0.407483799965121","0.43958330003079","0.405654500005767","1","1","1","1","1","1","1","1","1"
"260029","img/object_images/Staples01.jpg","img/object_images/microscope01.jpg","img/object_images/clock02.jpg","1","1","1","1","0","0","0.405654500005767","0.407483799965121","0.4446098000044","1","1","1","1","1","1","1","1","1"
"260029","img/object_images/clock02.jpg","img/object_images/Staples01.jpg","img/object_images/ear_bud01.jpg","1","1","1","0","1","1","0.4446098000044","0.405654500005767","0.41002790001221","1","1","1","1","1","1","1","1","1"
"260029","img/object_images/ear_bud01.jpg","img/object_images/clock02.jpg","img/object_images/tennis_racket02.jpg","1","1","1","1","0","1","0.41002790001221","0.4446098000044","0.47423560009338","1","1","1","1","1","1","1","1","1"
"260029","img/object_images/tennis_racket02.jpg","img/object_images/ear_bud01.jpg","img/object_images/floppy_disk03.jpg","1","1","1","1","1","1","0.47423560009338","0.41002790001221","0.392362499958836","1","1","1","1","1","1","1","1","1"
"260029","img/object_images/floppy_disk03.jpg","img/object_images/tennis_racket02.jpg","img/object_images/cellphone01.jpg","1","1","1","1","1","1","0.392362499958836","0.47423560009338","0.364344600006007","1","1","1","1","1","1","1","1","1"
"260029","img/object_images/cellphone01.jpg","img/object_images/floppy_disk03.jpg","img/object_images/bell02.jpg","1","1","1","1","1","0","0.364344600006007","0.392362499958836","0.422702200012282","1","1","1","1","1","1","1","1","1"
"260029","img/object_images/bell02.jpg","img/object_images/cellphone01.jpg",NA,"1","1",NA,"0","1",NA,"0.422702200012282","0.364344600006007",NA,"1","1",NA,"1","1",NA,"1","1",NA
