"participant_id","current_trial_object","pre_trial_object","post_trial_object","current_trial_accuracy","pre_trial_accuracy","post_trial_accuracy","current_trial_congruency","pre_trial_congruency","post_trial_congruency","current_trial_rt","pre_trial_rt","post_trial_rt","current_trial_responded","pre_trial_responded","post_trial_responded","current_trial_legitResponse","pre_trial_legitResponse","post_trial_legitResponse","current_trial_resp_nums","pre_trial_resp_nums","post_trial_resp_nums"
"260059","img/object_images/watch01.jpg",NA,"img/object_images/mirror01.jpg","1",NA,"1","0",NA,"1","0.631068200338632",NA,"0.489887700416148","1",NA,"1","1",NA,"1","1",NA,"1"
"260059","img/object_images/mirror01.jpg","img/object_images/watch01.jpg","img/object_images/sink01.jpg","1","1","1","1","0","0","0.489887700416148","0.631068200338632","0.625721900258213","1","1","1","1","1","1","1","1","1"
"260059","img/object_images/sink01.jpg","img/object_images/mirror01.jpg","img/object_images/acoustic_capo01.jpg","1","1","1","0","1","1","0.625721900258213","0.489887700416148","0.481608400121331","1","1","1","1","1","1","1","1","1"
"260059","img/object_images/acoustic_capo01.jpg","img/object_images/sink01.jpg","img/object_images/toy04.jpg","1","1","1","1","0","0","0.481608400121331","0.625721900258213","0.556340800132602","1","1","1","1","1","1","1","1","1"
"260059","img/object_images/toy04.jpg","img/object_images/acoustic_capo01.jpg","img/object_images/Stool01.jpg","1","1","1","0","1","0","0.556340800132602","0.481608400121331","0.507142300717533","1","1","1","1","1","1","1","1","1"
"260059","img/object_images/Stool01.jpg","img/object_images/toy04.jpg","img/object_images/toy03.jpg","1","1","1","0","0","1","0.507142300717533","0.556340800132602","0.447819900233299","1","1","1","1","1","1","1","1","1"
"260059","img/object_images/toy03.jpg","img/object_images/Stool01.jpg","img/object_images/ornament01.jpg","1","1","1","1","0","1","0.447819900233299","0.507142300717533","0.461231500376016","1","1","1","1","1","1","1","1","1"
"260059","img/object_images/ornament01.jpg","img/object_images/toy03.jpg","img/object_images/towel02.jpg","1","1","1","1","1","1","0.461231500376016","0.447819900233299","0.455358100123703","1","1","1","1","1","1","1","1","1"
"260059","img/object_images/towel02.jpg","img/object_images/ornament01.jpg","img/object_images/bow01.jpg","1","1","1","1","1","1","0.455358100123703","0.461231500376016","0.495130100287497","1","1","1","1","1","1","1","1","1"
"260059","img/object_images/bow01.jpg","img/object_images/towel02.jpg","img/object_images/judge_gavel01.jpg","1","1","1","1","1","1","0.495130100287497","0.455358100123703","0.351633800659329","1","1","1","1","1","1","1","1","1"
"260059","img/object_images/judge_gavel01.jpg","img/object_images/bow01.jpg","img/object_images/Tin01.jpg","1","1","1","1","1","1","0.351633800659329","0.495130100287497","0.442450700327754","1","1","1","1","1","1","1","1","1"
"260059","img/object_images/Tin01.jpg","img/object_images/judge_gavel01.jpg","img/object_images/MetalWire01.jpg","1","1","1","1","1","0","0.442450700327754","0.351633800659329","0.57539050001651","1","1","1","1","1","1","1","1","1"
"260059","img/object_images/MetalWire01.jpg","img/object_images/Tin01.jpg","img/object_images/helmet01.jpg","1","1","1","0","1","0","0.57539050001651","0.442450700327754","0.533161300700158","1","1","1","1","1","1","1","1","1"
"260059","img/object_images/helmet01.jpg","img/object_images/MetalWire01.jpg","img/object_images/Vacuum01.jpg","1","1","1","0","0","0","0.533161300700158","0.57539050001651","0.493721000384539","1","1","1","1","1","1","1","1","1"
"260059","img/object_images/Vacuum01.jpg","img/object_images/helmet01.jpg","img/object_images/video_game07.jpg","1","1","1","0","0","1","0.493721000384539","0.533161300700158","0.589671000372618","1","1","1","1","1","1","1","1","1"
"260059","img/object_images/video_game07.jpg","img/object_images/Vacuum01.jpg","img/object_images/Ring02.jpg","1","1","1","1","0","0","0.589671000372618","0.493721000384539","0.55201440025121","1","1","1","1","1","1","1","1","1"
"260059","img/object_images/Ring02.jpg","img/object_images/video_game07.jpg","img/object_images/gauze01.jpg","1","1","1","0","1","0","0.55201440025121","0.589671000372618","0.503009700216353","1","1","1","1","1","1","1","1","1"
"260059","img/object_images/gauze01.jpg","img/object_images/Ring02.jpg","img/object_images/dart01.jpg","1","1","1","0","0","0","0.503009700216353","0.55201440025121","0.509464100468904","1","1","1","1","1","1","1","1","1"
"260059","img/object_images/dart01.jpg","img/object_images/gauze01.jpg","img/object_images/shovel03.jpg","1","1","1","0","0","1","0.509464100468904","0.503009700216353","0.486121300142258","1","1","1","1","1","1","1","1","1"
"260059","img/object_images/shovel03.jpg","img/object_images/dart01.jpg","img/object_images/jewel04.jpg","1","1","1","1","0","0","0.486121300142258","0.509464100468904","0.564991700462997","1","1","1","1","1","1","1","1","1"
"260059","img/object_images/jewel04.jpg","img/object_images/shovel03.jpg","img/object_images/tool09.jpg","1","1","1","0","1","1","0.564991700462997","0.486121300142258","0.540855100378394","1","1","1","1","1","1","1","1","1"
"260059","img/object_images/tool09.jpg","img/object_images/jewel04.jpg","img/object_images/bird_house02.jpg","1","1","1","1","0","1","0.540855100378394","0.564991700462997","0.375741200521588","1","1","1","1","1","1","1","1","1"
"260059","img/object_images/bird_house02.jpg","img/object_images/tool09.jpg","img/object_images/stapler.jpg","1","1","1","1","1","1","0.375741200521588","0.540855100378394","0.387583500239998","1","1","1","1","1","1","1","1","1"
"260059","img/object_images/stapler.jpg","img/object_images/bird_house02.jpg","img/object_images/bottle05.jpg","1","1","1","1","1","0","0.387583500239998","0.375741200521588","0.596234400290996","1","1","1","1","1","1","1","1","1"
"260059","img/object_images/bottle05.jpg","img/object_images/stapler.jpg","img/object_images/frisbee01.jpg","1","1","1","0","1","1","0.596234400290996","0.387583500239998","0.516693800222129","1","1","1","1","1","1","1","1","1"
"260059","img/object_images/frisbee01.jpg","img/object_images/bottle05.jpg","img/object_images/fridge03.jpg","1","1","1","1","0","0","0.516693800222129","0.596234400290996","0.519694600719959","1","1","1","1","1","1","1","1","1"
"260059","img/object_images/fridge03.jpg","img/object_images/frisbee01.jpg","img/object_images/guitar02.jpg","1","1","1","0","1","0","0.519694600719959","0.516693800222129","0.46909370040521","1","1","1","1","1","1","1","1","1"
"260059","img/object_images/guitar02.jpg","img/object_images/fridge03.jpg","img/object_images/crown02.jpg","1","1","1","0","0","1","0.46909370040521","0.519694600719959","0.494988800026476","1","1","1","1","1","1","1","1","1"
"260059","img/object_images/crown02.jpg","img/object_images/guitar02.jpg","img/object_images/tool02.jpg","1","1","1","1","0","1","0.494988800026476","0.46909370040521","0.395843000616878","1","1","1","1","1","1","1","1","1"
"260059","img/object_images/tool02.jpg","img/object_images/crown02.jpg","img/object_images/pot01 (1).jpg","1","1","1","1","1","0","0.395843000616878","0.494988800026476","0.396698100492358","1","1","1","1","1","1","1","1","1"
"260059","img/object_images/pot01 (1).jpg","img/object_images/tool02.jpg","img/object_images/outlet01.jpg","1","1","1","0","1","0","0.396698100492358","0.395843000616878","0.47707000002265","1","1","1","1","1","1","1","1","1"
"260059","img/object_images/outlet01.jpg","img/object_images/pot01 (1).jpg",NA,"1","1",NA,"0","0",NA,"0.47707000002265","0.396698100492358",NA,"1","1",NA,"1","1",NA,"1","1",NA
"260059","img/object_images/video_game02.jpg",NA,"img/object_images/board01.jpg","1",NA,"1","1",NA,"1","0.369720300659537",NA,"0.44111500075087","1",NA,"1","1",NA,"1","1",NA,"1"
"260059","img/object_images/board01.jpg","img/object_images/video_game02.jpg","img/object_images/clipboard01.jpg","1","1","1","1","1","1","0.44111500075087","0.369720300659537","0.379037800710648","1","1","1","1","1","1","1","1","1"
"260059","img/object_images/clipboard01.jpg","img/object_images/board01.jpg","img/object_images/pen06.jpg","1","1","0","1","1","0","0.379037800710648","0.44111500075087","0.340401500463486","1","1","1","1","1","1","1","1","1"
"260059","img/object_images/pen06.jpg","img/object_images/clipboard01.jpg","img/object_images/pan03.jpg","0","1","1","0","1","1","0.340401500463486","0.379037800710648","0.557113600429147","1","1","1","1","1","1","1","1","1"
"260059","img/object_images/pan03.jpg","img/object_images/pen06.jpg","img/object_images/hat09.jpg","1","0","0","1","0","0","0.557113600429147","0.340401500463486","0.378573900554329","1","1","1","1","1","1","1","1","1"
"260059","img/object_images/hat09.jpg","img/object_images/pan03.jpg","img/object_images/candle02.jpg","0","1","1","0","1","0","0.378573900554329","0.557113600429147","0.601274000480771","1","1","1","1","1","1","1","1","1"
"260059","img/object_images/candle02.jpg","img/object_images/hat09.jpg","img/object_images/socks01.jpg","1","0","1","0","0","1","0.601274000480771","0.378573900554329","0.329768300056458","1","1","1","1","1","1","1","1","1"
"260059","img/object_images/socks01.jpg","img/object_images/candle02.jpg","img/object_images/dust_pan01.jpg","1","1","1","1","0","1","0.329768300056458","0.601274000480771","0.376565500162542","1","1","1","1","1","1","1","1","1"
"260059","img/object_images/dust_pan01.jpg","img/object_images/socks01.jpg","img/object_images/bow_tie03.jpg","1","1","0","1","1","1","0.376565500162542","0.329768300056458","0.259912600275129","1","1","1","1","1","1","1","1","1"
"260059","img/object_images/bow_tie03.jpg","img/object_images/dust_pan01.jpg","img/object_images/ruler02.jpg","0","1","1","1","1","1","0.259912600275129","0.376565500162542","0.909682800527662","1","1","1","1","1","1","1","1","1"
"260059","img/object_images/ruler02.jpg","img/object_images/bow_tie03.jpg","img/object_images/Candle_Holder01.jpg","1","0","0","1","1","0","0.909682800527662","0.259912600275129","0.324628000147641","1","1","1","1","1","1","1","1","1"
"260059","img/object_images/Candle_Holder01.jpg","img/object_images/ruler02.jpg","img/object_images/camera05.jpg","0","1","1","0","1","0","0.324628000147641","0.909682800527662","0.477491600438953","1","1","1","1","1","1","1","1","1"
"260059","img/object_images/camera05.jpg","img/object_images/Candle_Holder01.jpg","img/object_images/vase02.jpg","1","0","1","0","0","1","0.477491600438953","0.324628000147641","0.421155699994415","1","1","1","1","1","1","1","1","1"
"260059","img/object_images/vase02.jpg","img/object_images/camera05.jpg","img/object_images/glasses03.jpg","1","1","0","1","0","0","0.421155699994415","0.477491600438953","0.341521300375462","1","1","1","1","1","1","1","1","1"
"260059","img/object_images/glasses03.jpg","img/object_images/vase02.jpg","img/object_images/hammer02.jpg","0","1","1","0","1","0","0.341521300375462","0.421155699994415","0.632876800373197","1","1","1","1","1","1","1","1","1"
"260059","img/object_images/hammer02.jpg","img/object_images/glasses03.jpg","img/object_images/floss01.jpg","1","0","1","0","0","1","0.632876800373197","0.341521300375462","0.401288600172848","1","1","1","1","1","1","1","1","1"
"260059","img/object_images/floss01.jpg","img/object_images/hammer02.jpg","img/object_images/Confetti 01.jpg","1","1","1","1","0","0","0.401288600172848","0.632876800373197","0.590008300263435","1","1","1","1","1","1","1","1","1"
"260059","img/object_images/Confetti 01.jpg","img/object_images/floss01.jpg","img/object_images/spray_can01.jpg","1","1","1","0","1","0","0.590008300263435","0.401288600172848","0.497413800563663","1","1","1","1","1","1","1","1","1"
"260059","img/object_images/spray_can01.jpg","img/object_images/Confetti 01.jpg","img/object_images/lemon_squeezer01.jpg","1","1","1","0","0","1","0.497413800563663","0.590008300263435","0.431612000335008","1","1","1","1","1","1","1","1","1"
"260059","img/object_images/lemon_squeezer01.jpg","img/object_images/spray_can01.jpg","img/object_images/tool20.jpg","1","1","1","1","0","0","0.431612000335008","0.497413800563663","0.472536200191826","1","1","1","1","1","1","1","1","1"
"260059","img/object_images/tool20.jpg","img/object_images/lemon_squeezer01.jpg","img/object_images/tool13.jpg","1","1","1","0","1","1","0.472536200191826","0.431612000335008","0.356526900548488","1","1","1","1","1","1","1","1","1"
"260059","img/object_images/tool13.jpg","img/object_images/tool20.jpg","img/object_images/knife01.jpg","1","1","1","1","0","1","0.356526900548488","0.472536200191826","0.388207600452006","1","1","1","1","1","1","1","1","1"
"260059","img/object_images/knife01.jpg","img/object_images/tool13.jpg","img/object_images/sink_filter01 (1).jpg","1","1","1","1","1","0","0.388207600452006","0.356526900548488","0.385469100438058","1","1","1","1","1","1","1","1","1"
"260059","img/object_images/sink_filter01 (1).jpg","img/object_images/knife01.jpg","img/object_images/hat13.jpg","1","1","1","0","1","1","0.385469100438058","0.388207600452006","0.368091800250113","1","1","1","1","1","1","1","1","1"
"260059","img/object_images/hat13.jpg","img/object_images/sink_filter01 (1).jpg","img/object_images/sign02.jpg","1","1","1","1","0","0","0.368091800250113","0.385469100438058","0.433402900118381","1","1","1","1","1","1","1","1","1"
"260059","img/object_images/sign02.jpg","img/object_images/hat13.jpg","img/object_images/perfume01.jpg","1","1","1","0","1","0","0.433402900118381","0.368091800250113","0.52377080032602","1","1","1","1","1","1","1","1","1"
"260059","img/object_images/perfume01.jpg","img/object_images/sign02.jpg","img/object_images/razor02.jpg","1","1","1","0","0","1","0.52377080032602","0.433402900118381","0.301366400439292","1","1","1","1","1","1","1","1","1"
"260059","img/object_images/razor02.jpg","img/object_images/perfume01.jpg","img/object_images/office_supplies01.jpg","1","1","1","1","0","1","0.301366400439292","0.52377080032602","0.372348500415683","1","1","1","1","1","1","1","1","1"
"260059","img/object_images/office_supplies01.jpg","img/object_images/razor02.jpg","img/object_images/cup01.jpg","1","1","0","1","1","0","0.372348500415683","0.301366400439292","0.327983200550079","1","1","1","1","1","1","1","1","1"
"260059","img/object_images/cup01.jpg","img/object_images/office_supplies01.jpg","img/object_images/duster01.jpg","0","1","1","0","1","0","0.327983200550079","0.372348500415683","0.446974500082433","1","1","1","1","1","1","1","1","1"
"260059","img/object_images/duster01.jpg","img/object_images/cup01.jpg","img/object_images/bag04.jpg","1","0","0","0","0","0","0.446974500082433","0.327983200550079","0.345612400211394","1","1","1","1","1","1","1","1","1"
"260059","img/object_images/bag04.jpg","img/object_images/duster01.jpg",NA,"0","1",NA,"0","0",NA,"0.345612400211394","0.446974500082433",NA,"1","1",NA,"1","1",NA,"1","1",NA
"260059","img/object_images/cellphone03.jpg",NA,"img/object_images/audio_port01.jpg","1",NA,"1","0",NA,"1","0.552258300129324",NA,"0.363893200643361","1",NA,"1","1",NA,"1","1",NA,"1"
"260059","img/object_images/audio_port01.jpg","img/object_images/cellphone03.jpg","img/object_images/tie02.jpg","1","1","1","1","0","0","0.363893200643361","0.552258300129324","0.453945100307465","1","1","1","1","1","1","1","1","1"
"260059","img/object_images/tie02.jpg","img/object_images/audio_port01.jpg","img/object_images/purse04.jpg","1","1","1","0","1","1","0.453945100307465","0.363893200643361","0.339493700303137","1","1","1","1","1","1","1","1","1"
"260059","img/object_images/purse04.jpg","img/object_images/tie02.jpg","img/object_images/hat06.jpg","1","1","1","1","0","0","0.339493700303137","0.453945100307465","0.415268500335515","1","1","1","1","1","1","1","1","1"
"260059","img/object_images/hat06.jpg","img/object_images/purse04.jpg","img/object_images/bottle09.jpg","1","1","1","0","1","0","0.415268500335515","0.339493700303137","0.471520100254565","1","1","1","1","1","1","1","1","1"
"260059","img/object_images/bottle09.jpg","img/object_images/hat06.jpg","img/object_images/bottle02.jpg","1","1","1","0","0","1","0.471520100254565","0.415268500335515","0.361592400353402","1","1","1","1","1","1","1","1","1"
"260059","img/object_images/bottle02.jpg","img/object_images/bottle09.jpg","img/object_images/scoreboard01.jpg","1","1","1","1","0","1","0.361592400353402","0.471520100254565","0.352654200512916","1","1","1","1","1","1","1","1","1"
"260059","img/object_images/scoreboard01.jpg","img/object_images/bottle02.jpg","img/object_images/perfume02.jpg","1","1","0","1","1","0","0.352654200512916","0.361592400353402","0.398739400319755","1","1","1","1","1","1","1","1","1"
"260059","img/object_images/perfume02.jpg","img/object_images/scoreboard01.jpg","img/object_images/hot_air_balloon02.jpg","0","1","1","0","1","0","0.398739400319755","0.352654200512916","0.500285300426185","1","1","1","1","1","1","1","1","1"
"260059","img/object_images/hot_air_balloon02.jpg","img/object_images/perfume02.jpg","img/object_images/wagon_cart03.jpg","1","0","1","0","0","1","0.500285300426185","0.398739400319755","0.389693000353873","1","1","1","1","1","1","1","1","1"
"260059","img/object_images/wagon_cart03.jpg","img/object_images/hot_air_balloon02.jpg","img/object_images/bean_bag02.jpg","1","1","1","1","0","1","0.389693000353873","0.500285300426185","0.404852400068194","1","1","1","1","1","1","1","1","1"
"260059","img/object_images/bean_bag02.jpg","img/object_images/wagon_cart03.jpg","img/object_images/chair03.jpg","1","1","0","1","1","0","0.404852400068194","0.389693000353873","0.389401800464839","1","1","1","1","1","1","1","1","1"
"260059","img/object_images/chair03.jpg","img/object_images/bean_bag02.jpg","img/object_images/toaster01.jpg","0","1","1","0","1","1","0.389401800464839","0.404852400068194","0.470730100292713","1","1","1","1","1","1","1","1","1"
"260059","img/object_images/toaster01.jpg","img/object_images/chair03.jpg","img/object_images/bottle10.jpg","1","0","1","1","0","1","0.470730100292713","0.389401800464839","0.40036080032587","1","1","1","1","1","1","1","1","1"
"260059","img/object_images/bottle10.jpg","img/object_images/toaster01.jpg","img/object_images/water_scooter01.jpg","1","1","1","1","1","1","0.40036080032587","0.470730100292713","0.378785000182688","1","1","1","1","1","1","1","1","1"
"260059","img/object_images/water_scooter01.jpg","img/object_images/bottle10.jpg","img/object_images/piggy_bank01.jpg","1","1","1","1","1","1","0.378785000182688","0.40036080032587","0.542877500411123","1","1","1","1","1","1","1","1","1"
"260059","img/object_images/piggy_bank01.jpg","img/object_images/water_scooter01.jpg","img/object_images/shoes07.jpg","1","1","1","1","1","0","0.542877500411123","0.378785000182688","0.474018300417811","1","1","1","1","1","1","1","1","1"
"260059","img/object_images/shoes07.jpg","img/object_images/piggy_bank01.jpg","img/object_images/boat02.jpg","1","1","1","0","1","1","0.474018300417811","0.542877500411123","0.354911300353706","1","1","1","1","1","1","1","1","1"
"260059","img/object_images/boat02.jpg","img/object_images/shoes07.jpg","img/object_images/coloring_pencil02.jpg","1","1","0","1","0","0","0.354911300353706","0.474018300417811","0.530132500454783","1","1","1","1","1","1","1","1","1"
"260059","img/object_images/coloring_pencil02.jpg","img/object_images/boat02.jpg","img/object_images/fan02.jpg","0","1","1","0","1","0","0.530132500454783","0.354911300353706","0.510832100640982","1","1","1","1","1","1","1","1","1"
"260059","img/object_images/fan02.jpg","img/object_images/coloring_pencil02.jpg","img/object_images/WoodBox01.jpg","1","0","1","0","0","0","0.510832100640982","0.530132500454783","0.496397700626403","1","1","1","1","1","1","1","1","1"
"260059","img/object_images/WoodBox01.jpg","img/object_images/fan02.jpg","img/object_images/flask01.jpg","1","1","1","0","0","0","0.496397700626403","0.510832100640982","0.457531400490552","1","1","1","1","1","1","1","1","1"
"260059","img/object_images/flask01.jpg","img/object_images/WoodBox01.jpg","img/object_images/helmet04.jpg","1","1","1","0","0","1","0.457531400490552","0.496397700626403","0.511306200176477","1","1","1","1","1","1","1","1","1"
"260059","img/object_images/helmet04.jpg","img/object_images/flask01.jpg","img/object_images/knit01.jpg","1","1","1","1","0","0","0.511306200176477","0.457531400490552","0.599165900610387","1","1","1","1","1","1","1","1","1"
"260059","img/object_images/knit01.jpg","img/object_images/helmet04.jpg","img/object_images/dog_leash01.jpg","1","1","1","0","1","0","0.599165900610387","0.511306200176477","0.491301100701094","1","1","1","1","1","1","1","1","1"
"260059","img/object_images/dog_leash01.jpg","img/object_images/knit01.jpg","img/object_images/toilet_paper_dispenser01.jpg","1","1","1","0","0","1","0.491301100701094","0.599165900610387","0.42989500053227","1","1","1","1","1","1","1","1","1"
"260059","img/object_images/toilet_paper_dispenser01.jpg","img/object_images/dog_leash01.jpg","img/object_images/pen05.jpg","1","1","1","1","0","0","0.42989500053227","0.491301100701094","0.541588700376451","1","1","1","1","1","1","1","1","1"
"260059","img/object_images/pen05.jpg","img/object_images/toilet_paper_dispenser01.jpg","img/object_images/bicycle01.jpg","1","1","1","0","1","1","0.541588700376451","0.42989500053227","0.717444300185889","1","1","1","1","1","1","1","1","1"
"260059","img/object_images/bicycle01.jpg","img/object_images/pen05.jpg","img/object_images/camera_lens01.jpg","1","1","1","1","0","1","0.717444300185889","0.541588700376451","0.40364980045706","1","1","1","1","1","1","1","1","1"
"260059","img/object_images/camera_lens01.jpg","img/object_images/bicycle01.jpg","img/object_images/tool19.jpg","1","1","1","1","1","1","0.40364980045706","0.717444300185889","0.453882800415158","1","1","1","1","1","1","1","1","1"
"260059","img/object_images/tool19.jpg","img/object_images/camera_lens01.jpg","img/object_images/boat_toy10.jpg","1","1","0","1","1","0","0.453882800415158","0.40364980045706","0.436616300139576","1","1","1","1","1","1","1","1","1"
"260059","img/object_images/boat_toy10.jpg","img/object_images/tool19.jpg",NA,"0","1",NA,"0","1",NA,"0.436616300139576","0.453882800415158",NA,"1","1",NA,"1","1",NA,"1","1",NA
"260059","img/object_images/Vest02.jpg",NA,"img/object_images/calculator01.jpg","1",NA,"1","0",NA,"1","0.524721400346607",NA,"0.468019600491971","1",NA,"1","1",NA,"1","1",NA,"1"
"260059","img/object_images/calculator01.jpg","img/object_images/Vest02.jpg","img/object_images/laptop03.jpg","1","1","1","1","0","1","0.468019600491971","0.524721400346607","0.382121100556105","1","1","1","1","1","1","1","1","1"
"260059","img/object_images/laptop03.jpg","img/object_images/calculator01.jpg","img/object_images/hair_brush02.jpg","1","1","1","1","1","0","0.382121100556105","0.468019600491971","0.567649100441486","1","1","1","1","1","1","1","1","1"
"260059","img/object_images/hair_brush02.jpg","img/object_images/laptop03.jpg","img/object_images/bucket02.jpg","1","1","1","0","1","1","0.567649100441486","0.382121100556105","0.625029200222343","1","1","1","1","1","1","1","1","1"
"260059","img/object_images/bucket02.jpg","img/object_images/hair_brush02.jpg","img/object_images/robe01.jpg","1","1","1","1","0","1","0.625029200222343","0.567649100441486","0.325687400065362","1","1","1","1","1","1","1","1","1"
"260059","img/object_images/robe01.jpg","img/object_images/bucket02.jpg","img/object_images/gift_box05.jpg","1","1","1","1","1","0","0.325687400065362","0.625029200222343","0.595694600604475","1","1","1","1","1","1","1","1","1"
"260059","img/object_images/gift_box05.jpg","img/object_images/robe01.jpg","img/object_images/jewel03.jpg","1","1","1","0","1","1","0.595694600604475","0.325687400065362","0.391321700531989","1","1","1","1","1","1","1","1","1"
"260059","img/object_images/jewel03.jpg","img/object_images/gift_box05.jpg","img/object_images/trash_can03.jpg","1","1","1","1","0","1","0.391321700531989","0.595694600604475","0.487304800190032","1","1","1","1","1","1","1","1","1"
"260059","img/object_images/trash_can03.jpg","img/object_images/jewel03.jpg","img/object_images/trash_can05.jpg","1","1","1","1","1","1","0.487304800190032","0.391321700531989","0.409092500340194","1","1","1","1","1","1","1","1","1"
"260059","img/object_images/trash_can05.jpg","img/object_images/trash_can03.jpg","img/object_images/ball02.jpg","1","1","1","1","1","1","0.409092500340194","0.487304800190032","0.415181800257415","1","1","1","1","1","1","1","1","1"
"260059","img/object_images/ball02.jpg","img/object_images/trash_can05.jpg","img/object_images/combs01.jpg","1","1","1","1","1","1","0.415181800257415","0.409092500340194","0.439757700078189","1","1","1","1","1","1","1","1","1"
"260059","img/object_images/combs01.jpg","img/object_images/ball02.jpg","img/object_images/accardion01.jpg","1","1","1","1","1","1","0.439757700078189","0.415181800257415","0.38776780012995","1","1","1","1","1","1","1","1","1"
"260059","img/object_images/accardion01.jpg","img/object_images/combs01.jpg","img/object_images/helmet02.jpg","1","1","1","1","1","0","0.38776780012995","0.439757700078189","0.475426699966192","1","1","1","1","1","1","1","1","1"
"260059","img/object_images/helmet02.jpg","img/object_images/accardion01.jpg","img/object_images/stove01.jpg","1","1","1","0","1","0","0.475426699966192","0.38776780012995","0.612997100222856","1","1","1","1","1","1","1","1","1"
"260059","img/object_images/stove01.jpg","img/object_images/helmet02.jpg","img/object_images/towels01.jpg","1","1","1","0","0","0","0.612997100222856","0.475426699966192","0.541956500615925","1","1","1","1","1","1","1","1","1"
"260059","img/object_images/towels01.jpg","img/object_images/stove01.jpg","img/object_images/chair02.jpg","1","1","1","0","0","1","0.541956500615925","0.612997100222856","0.422056900803","1","1","1","1","1","1","1","1","1"
"260059","img/object_images/chair02.jpg","img/object_images/towels01.jpg","img/object_images/toy05.jpg","1","1","1","1","0","0","0.422056900803","0.541956500615925","0.50693940045312","1","1","1","1","1","1","1","1","1"
"260059","img/object_images/toy05.jpg","img/object_images/chair02.jpg","img/object_images/microphone03.jpg","1","1","1","0","1","1","0.50693940045312","0.422056900803","0.697452300228179","1","1","1","1","1","1","1","1","1"
"260059","img/object_images/microphone03.jpg","img/object_images/toy05.jpg","img/object_images/lock01.jpg","1","1","1","1","0","0","0.697452300228179","0.50693940045312","0.550340700428933","1","1","1","1","1","1","1","1","1"
"260059","img/object_images/lock01.jpg","img/object_images/microphone03.jpg","img/object_images/backpack03.jpg","1","1","1","0","1","1","0.550340700428933","0.697452300228179","0.42027150047943","1","1","1","1","1","1","1","1","1"
"260059","img/object_images/backpack03.jpg","img/object_images/lock01.jpg","img/object_images/Lint_Roller02.jpg","1","1","1","1","0","0","0.42027150047943","0.550340700428933","0.584717400372028","1","1","1","1","1","1","1","1","1"
"260059","img/object_images/Lint_Roller02.jpg","img/object_images/backpack03.jpg","img/object_images/vase01.jpg","1","1","1","0","1","0","0.584717400372028","0.42027150047943","0.411452600266784","1","1","1","1","1","1","1","1","1"
"260059","img/object_images/vase01.jpg","img/object_images/Lint_Roller02.jpg","img/object_images/spatula02.jpg","1","1","1","0","0","1","0.411452600266784","0.584717400372028","0.366121100261807","1","1","1","1","1","1","1","1","1"
"260059","img/object_images/spatula02.jpg","img/object_images/vase01.jpg","img/object_images/surf_board01.jpg","1","1","1","1","0","1","0.366121100261807","0.411452600266784","0.586275000590831","1","1","1","1","1","1","1","1","1"
"260059","img/object_images/surf_board01.jpg","img/object_images/spatula02.jpg","img/object_images/shoes08.jpg","1","1","1","1","1","1","0.586275000590831","0.366121100261807","0.440060200169683","1","1","1","1","1","1","1","1","1"
"260059","img/object_images/shoes08.jpg","img/object_images/surf_board01.jpg","img/object_images/chess_piece01.jpg","1","1","1","1","1","0","0.440060200169683","0.586275000590831","0.512033600360155","1","1","1","1","1","1","1","1","1"
"260059","img/object_images/chess_piece01.jpg","img/object_images/shoes08.jpg","img/object_images/umbrella01.jpg","1","1","1","0","1","0","0.512033600360155","0.440060200169683","0.494175900239497","1","1","1","1","1","1","1","1","1"
"260059","img/object_images/umbrella01.jpg","img/object_images/chess_piece01.jpg","img/object_images/laptop01.jpg","1","1","1","0","0","0","0.494175900239497","0.512033600360155","0.53473660023883","1","1","1","1","1","1","1","1","1"
"260059","img/object_images/laptop01.jpg","img/object_images/umbrella01.jpg","img/object_images/hair_dryer01.jpg","1","1","0","0","0","0","0.53473660023883","0.494175900239497","0.373925400432199","1","1","1","1","1","1","1","1","1"
"260059","img/object_images/hair_dryer01.jpg","img/object_images/laptop01.jpg","img/object_images/fan04.jpg","0","1","1","0","0","0","0.373925400432199","0.53473660023883","0.549704800359905","1","1","1","1","1","1","1","1","1"
"260059","img/object_images/fan04.jpg","img/object_images/hair_dryer01.jpg","img/object_images/pitcher05.jpg","1","0","1","0","0","0","0.549704800359905","0.373925400432199","0.525642100255936","1","1","1","1","1","1","1","1","1"
"260059","img/object_images/pitcher05.jpg","img/object_images/fan04.jpg",NA,"1","1",NA,"0","0",NA,"0.525642100255936","0.549704800359905",NA,"1","1",NA,"1","1",NA,"1","1",NA
"260059","img/object_images/ear_bud01.jpg",NA,"img/object_images/knife04.jpg","1",NA,"1","1",NA,"1","0.405313600320369",NA,"0.367851900402457","1",NA,"1","1",NA,"1","1",NA,"1"
"260059","img/object_images/knife04.jpg","img/object_images/ear_bud01.jpg","img/object_images/clock02.jpg","1","1","1","1","1","0","0.367851900402457","0.405313600320369","0.533763100393116","1","1","1","1","1","1","1","1","1"
"260059","img/object_images/clock02.jpg","img/object_images/knife04.jpg","img/object_images/pitcher01.jpg","1","1","1","0","1","0","0.533763100393116","0.367851900402457","0.523967300541699","1","1","1","1","1","1","1","1","1"
"260059","img/object_images/pitcher01.jpg","img/object_images/clock02.jpg","img/object_images/floppy_disk03.jpg","1","1","1","0","0","1","0.523967300541699","0.533763100393116","0.36567800026387","1","1","1","1","1","1","1","1","1"
"260059","img/object_images/floppy_disk03.jpg","img/object_images/pitcher01.jpg","img/object_images/tv02.jpg","1","1","1","1","0","0","0.36567800026387","0.523967300541699","0.4247967004776","1","1","1","1","1","1","1","1","1"
"260059","img/object_images/tv02.jpg","img/object_images/floppy_disk03.jpg","img/object_images/lid01.jpg","1","1","1","0","1","1","0.4247967004776","0.36567800026387","0.395240900572389","1","1","1","1","1","1","1","1","1"
"260059","img/object_images/lid01.jpg","img/object_images/tv02.jpg","img/object_images/motorcycle01.jpg","1","1","1","1","0","1","0.395240900572389","0.4247967004776","0.3443045001477","1","1","1","1","1","1","1","1","1"
"260059","img/object_images/motorcycle01.jpg","img/object_images/lid01.jpg","img/object_images/tennis_racket02.jpg","1","1","1","1","1","1","0.3443045001477","0.395240900572389","0.305839900393039","1","1","1","1","1","1","1","1","1"
"260059","img/object_images/tennis_racket02.jpg","img/object_images/motorcycle01.jpg","img/object_images/paint_brush04.jpg","1","1","0","1","1","0","0.305839900393039","0.3443045001477","0.313747900538146","1","1","1","1","1","1","1","1","1"
"260059","img/object_images/paint_brush04.jpg","img/object_images/tennis_racket02.jpg","img/object_images/chess_piece02.jpg","0","1","1","0","1","1","0.313747900538146","0.305839900393039","0.323935600463301","1","1","1","1","1","1","1","1","1"
"260059","img/object_images/chess_piece02.jpg","img/object_images/paint_brush04.jpg","img/object_images/Oven01.jpg","1","0","1","1","0","1","0.323935600463301","0.313747900538146","0.356455800589174","1","1","1","1","1","1","1","1","1"
"260059","img/object_images/Oven01.jpg","img/object_images/chess_piece02.jpg","img/object_images/microscope01.jpg","1","1","1","1","1","0","0.356455800589174","0.323935600463301","0.506901600398123","1","1","1","1","1","1","1","1","1"
"260059","img/object_images/microscope01.jpg","img/object_images/Oven01.jpg","img/object_images/book03.jpg","1","1","1","0","1","1","0.506901600398123","0.356455800589174","0.373648200649768","1","1","1","1","1","1","1","1","1"
"260059","img/object_images/book03.jpg","img/object_images/microscope01.jpg","img/object_images/Staples01.jpg","1","1","1","1","0","1","0.373648200649768","0.506901600398123","0.42986600054428","1","1","1","1","1","1","1","1","1"
"260059","img/object_images/Staples01.jpg","img/object_images/book03.jpg","img/object_images/cellphone01.jpg","1","1","1","1","1","1","0.42986600054428","0.373648200649768","0.330042900051922","1","1","1","1","1","1","1","1","1"
"260059","img/object_images/cellphone01.jpg","img/object_images/Staples01.jpg","img/object_images/bottle01.jpg","1","1","1","1","1","0","0.330042900051922","0.42986600054428","0.484049000311643","1","1","1","1","1","1","1","1","1"
"260059","img/object_images/bottle01.jpg","img/object_images/cellphone01.jpg","img/object_images/clip03.jpg","1","1","1","0","1","0","0.484049000311643","0.330042900051922","0.404371800366789","1","1","1","1","1","1","1","1","2"
"260059","img/object_images/clip03.jpg","img/object_images/bottle01.jpg","img/object_images/Thermometer01.jpg","1","1","1","0","0","0","0.404371800366789","0.484049000311643","0.509748199954629","1","1","1","1","1","1","2","1","1"
"260059","img/object_images/Thermometer01.jpg","img/object_images/clip03.jpg","img/object_images/hammer03.jpg","1","1","1","0","0","1","0.509748199954629","0.404371800366789","0.395578300114721","1","1","1","1","1","1","1","2","1"
"260059","img/object_images/hammer03.jpg","img/object_images/Thermometer01.jpg","img/object_images/floppy_disk02.jpg","1","1","0","1","0","0","0.395578300114721","0.509748199954629","0.347620900254697","1","1","1","1","1","1","1","1","1"
"260059","img/object_images/floppy_disk02.jpg","img/object_images/hammer03.jpg","img/object_images/pen03.jpg","0","1","1","0","1","0","0.347620900254697","0.395578300114721","0.461166300345212","1","1","1","1","1","1","1","1","1"
"260059","img/object_images/pen03.jpg","img/object_images/floppy_disk02.jpg","img/object_images/usb02.jpg","1","0","1","0","0","0","0.461166300345212","0.347620900254697","0.376715400256217","1","1","1","1","1","1","1","1","1"
"260059","img/object_images/usb02.jpg","img/object_images/pen03.jpg","img/object_images/compass01.jpg","1","1","1","0","0","1","0.376715400256217","0.461166300345212","0.452817700337619","1","1","1","1","1","1","1","1","1"
"260059","img/object_images/compass01.jpg","img/object_images/usb02.jpg","img/object_images/knit05.jpg","1","1","1","1","0","1","0.452817700337619","0.376715400256217","0.338309300597757","1","1","1","1","1","1","1","1","1"
"260059","img/object_images/knit05.jpg","img/object_images/compass01.jpg","img/object_images/chair05.jpg","1","1","1","1","1","0","0.338309300597757","0.452817700337619","0.461593100335449","1","1","1","1","1","1","1","1","1"
"260059","img/object_images/chair05.jpg","img/object_images/knit05.jpg","img/object_images/retainer01.jpg","1","1","0","0","1","0","0.461593100335449","0.338309300597757","0.369868200272322","1","1","1","1","1","1","1","1","1"
"260059","img/object_images/retainer01.jpg","img/object_images/chair05.jpg","img/object_images/wire02.jpg","0","1","1","0","0","1","0.369868200272322","0.461593100335449","0.494229299947619","1","1","1","1","1","1","1","1","1"
"260059","img/object_images/wire02.jpg","img/object_images/retainer01.jpg","img/object_images/note_book01.jpg","1","0","1","1","0","0","0.494229299947619","0.369868200272322","0.49051250051707","1","1","1","1","1","1","1","1","1"
"260059","img/object_images/note_book01.jpg","img/object_images/wire02.jpg","img/object_images/bell02.jpg","1","1","1","0","1","0","0.49051250051707","0.494229299947619","0.447279600426555","1","1","1","1","1","1","1","1","1"
"260059","img/object_images/bell02.jpg","img/object_images/note_book01.jpg","img/object_images/crutches02.jpg","1","1","1","0","0","0","0.447279600426555","0.49051250051707","0.53377650026232","1","1","1","1","1","1","1","1","1"
"260059","img/object_images/crutches02.jpg","img/object_images/bell02.jpg","img/object_images/pillows01.jpg","1","1","1","0","0","1","0.53377650026232","0.447279600426555","0.410370600409806","1","1","1","1","1","1","1","1","1"
"260059","img/object_images/pillows01.jpg","img/object_images/crutches02.jpg",NA,"1","1",NA,"1","0",NA,"0.410370600409806","0.53377650026232",NA,"1","1",NA,"1","1",NA,"1","1",NA
"260059","img/object_images/knit03.jpg",NA,"img/object_images/knit04.jpg","0",NA,"1","1",NA,"1","0.483012300450355",NA,"0.375722800381482","1",NA,"1","1",NA,"1","1",NA,"1"
"260059","img/object_images/knit04.jpg","img/object_images/knit03.jpg","img/object_images/dresser03.jpg","1","0","1","1","1","0","0.375722800381482","0.483012300450355","0.412894000299275","1","1","1","1","1","1","1","1","1"
"260059","img/object_images/dresser03.jpg","img/object_images/knit04.jpg","img/object_images/jacket04.jpg","1","1","0","0","1","0","0.412894000299275","0.375722800381482","0.310949400532991","1","1","1","1","1","1","1","1","1"
"260059","img/object_images/jacket04.jpg","img/object_images/dresser03.jpg","img/object_images/car01.jpg","0","1","1","0","0","1","0.310949400532991","0.412894000299275","0.471975400112569","1","1","1","1","1","1","1","1","1"
"260059","img/object_images/car01.jpg","img/object_images/jacket04.jpg","img/object_images/kite01.jpg","1","0","1","1","0","1","0.471975400112569","0.310949400532991","0.404308100696653","1","1","1","1","1","1","1","1","1"
"260059","img/object_images/kite01.jpg","img/object_images/car01.jpg","img/object_images/bottle07.jpg","1","1","1","1","1","1","0.404308100696653","0.471975400112569","0.339876100420952","1","1","1","1","1","1","1","1","1"
"260059","img/object_images/bottle07.jpg","img/object_images/kite01.jpg","img/object_images/tool18.jpg","1","1","1","1","1","0","0.339876100420952","0.404308100696653","0.388614000286907","1","1","1","1","1","1","1","1","1"
"260059","img/object_images/tool18.jpg","img/object_images/bottle07.jpg","img/object_images/sponge03.jpg","1","1","1","0","1","1","0.388614000286907","0.339876100420952","0.37711640028283","1","1","1","1","1","1","1","1","1"
"260059","img/object_images/sponge03.jpg","img/object_images/tool18.jpg","img/object_images/flashlight03.jpg","1","1","1","1","0","0","0.37711640028283","0.388614000286907","0.385204800404608","1","1","1","1","1","1","1","1","1"
"260059","img/object_images/flashlight03.jpg","img/object_images/sponge03.jpg","img/object_images/mail_box01.jpg","1","1","1","0","1","0","0.385204800404608","0.37711640028283","0.533232599962503","1","1","1","1","1","1","1","1","1"
"260059","img/object_images/mail_box01.jpg","img/object_images/flashlight03.jpg","img/object_images/Statue01.jpg","1","1","1","0","0","1","0.533232599962503","0.385204800404608","0.50233510043472","1","1","1","1","1","1","1","1","1"
"260059","img/object_images/Statue01.jpg","img/object_images/mail_box01.jpg","img/object_images/paper_cup02.jpg","1","1","1","1","0","1","0.50233510043472","0.533232599962503","0.4201575005427","1","1","1","1","1","1","1","1","1"
"260059","img/object_images/paper_cup02.jpg","img/object_images/Statue01.jpg","img/object_images/curtain02.jpg","1","1","1","1","1","0","0.4201575005427","0.50233510043472","0.383224300574511","1","1","1","1","1","1","1","1","1"
"260059","img/object_images/curtain02.jpg","img/object_images/paper_cup02.jpg","img/object_images/basket04.jpg","1","1","1","0","1","1","0.383224300574511","0.4201575005427","0.296207500156015","1","1","1","1","1","1","1","1","1"
"260059","img/object_images/basket04.jpg","img/object_images/curtain02.jpg","img/object_images/keyboard02.jpg","1","1","1","1","0","1","0.296207500156015","0.383224300574511","0.428782800212502","1","1","1","1","1","1","1","1","1"
"260059","img/object_images/keyboard02.jpg","img/object_images/basket04.jpg","img/object_images/remote_controller01.jpg","1","1","1","1","1","1","0.428782800212502","0.296207500156015","0.515610900241882","1","1","1","1","1","1","1","1","1"
"260059","img/object_images/remote_controller01.jpg","img/object_images/keyboard02.jpg","img/object_images/hoverboard01.jpg","1","1","1","1","1","0","0.515610900241882","0.428782800212502","0.419927900191396","1","1","1","1","1","1","1","1","1"
"260059","img/object_images/hoverboard01.jpg","img/object_images/remote_controller01.jpg","img/object_images/hand_grip_exerciser01.jpg","1","1","1","0","1","0","0.419927900191396","0.515610900241882","0.348843600600958","1","1","1","1","1","1","1","1","1"
"260059","img/object_images/hand_grip_exerciser01.jpg","img/object_images/hoverboard01.jpg","img/object_images/gloves02.jpg","1","1","0","0","0","0","0.348843600600958","0.419927900191396","0.300188700202852","1","1","1","1","1","1","1","1","1"
"260059","img/object_images/gloves02.jpg","img/object_images/hand_grip_exerciser01.jpg","img/object_images/camera03.jpg","0","1","0","0","0","0","0.300188700202852","0.348843600600958","0.354570900090039","1","1","1","1","1","1","1","1","1"
"260059","img/object_images/camera03.jpg","img/object_images/gloves02.jpg","img/object_images/matches02.jpg","0","0","0","0","0","0","0.354570900090039","0.300188700202852","0.360971600282937","1","1","1","1","1","1","1","1","1"
"260059","img/object_images/matches02.jpg","img/object_images/camera03.jpg","img/object_images/shower_head01.jpg","0","0","1","0","0","1","0.360971600282937","0.354570900090039","0.379043100401759","1","1","1","1","1","1","1","1","1"
"260059","img/object_images/shower_head01.jpg","img/object_images/matches02.jpg","img/object_images/backpack01.jpg","1","0","1","1","0","0","0.379043100401759","0.360971600282937","0.501526800449938","1","1","1","1","1","1","1","1","1"
"260059","img/object_images/backpack01.jpg","img/object_images/shower_head01.jpg","img/object_images/toy08.jpg","1","1","1","0","1","0","0.501526800449938","0.379043100401759","0.61039960058406","1","1","1","1","1","1","1","1","1"
"260059","img/object_images/toy08.jpg","img/object_images/backpack01.jpg","img/object_images/knife02.jpg","1","1","1","0","0","0","0.61039960058406","0.501526800449938","0.34940480068326","1","1","1","1","1","1","1","1","1"
"260059","img/object_images/knife02.jpg","img/object_images/toy08.jpg","img/object_images/blender02.jpg","1","1","1","0","0","1","0.34940480068326","0.61039960058406","0.38175730034709","1","1","1","1","1","1","1","1","1"
"260059","img/object_images/blender02.jpg","img/object_images/knife02.jpg","img/object_images/remover01.jpg","1","1","1","1","0","1","0.38175730034709","0.34940480068326","0.400042400229722","1","1","1","1","1","1","1","1","1"
"260059","img/object_images/remover01.jpg","img/object_images/blender02.jpg","img/object_images/stereo02.jpg","1","1","1","1","1","0","0.400042400229722","0.38175730034709","0.408258500043303","1","1","1","1","1","1","1","1","1"
"260059","img/object_images/stereo02.jpg","img/object_images/remover01.jpg","img/object_images/boat04.jpg","1","1","1","0","1","0","0.408258500043303","0.400042400229722","0.472586400341243","1","1","1","1","1","1","1","1","1"
"260059","img/object_images/boat04.jpg","img/object_images/stereo02.jpg","img/object_images/phone02.jpg","1","1","1","0","0","1","0.472586400341243","0.408258500043303","0.419257600326091","1","1","1","1","1","1","1","1","1"
"260059","img/object_images/phone02.jpg","img/object_images/boat04.jpg","img/object_images/video_game01.jpg","1","1","1","1","0","1","0.419257600326091","0.472586400341243","0.403001900296658","1","1","1","1","1","1","1","1","1"
"260059","img/object_images/video_game01.jpg","img/object_images/phone02.jpg",NA,"1","1",NA,"1","1",NA,"0.403001900296658","0.419257600326091",NA,"1","1",NA,"1","1",NA,"1","1",NA
"260059","img/object_images/cup03.jpg",NA,"img/object_images/Traffic Sign 01.jpg","1",NA,"1","1",NA,"0","0.449925400316715",NA,"0.492571900598705","1",NA,"1","1",NA,"1","1",NA,"1"
"260059","img/object_images/Traffic Sign 01.jpg","img/object_images/cup03.jpg","img/object_images/TrashCan02.jpg","1","1","1","0","1","1","0.492571900598705","0.449925400316715","0.315237700473517","1","1","1","1","1","1","1","1","1"
"260059","img/object_images/TrashCan02.jpg","img/object_images/Traffic Sign 01.jpg","img/object_images/ring03.jpg","1","1","1","1","0","1","0.315237700473517","0.492571900598705","0.324054200202227","1","1","1","1","1","1","1","1","1"
"260059","img/object_images/ring03.jpg","img/object_images/TrashCan02.jpg","img/object_images/Sprayer01.jpg","1","1","0","1","1","0","0.324054200202227","0.315237700473517","0.350434900261462","1","1","1","1","1","1","1","1","1"
"260059","img/object_images/Sprayer01.jpg","img/object_images/ring03.jpg","img/object_images/purse01.jpg","0","1","1","0","1","1","0.350434900261462","0.324054200202227","0.355183300562203","1","1","1","1","1","1","1","1","1"
"260059","img/object_images/purse01.jpg","img/object_images/Sprayer01.jpg","img/object_images/jewelry09.jpg","1","0","1","1","0","1","0.355183300562203","0.350434900261462","0.435869400389493","1","1","1","1","1","1","1","1","1"
"260059","img/object_images/jewelry09.jpg","img/object_images/purse01.jpg","img/object_images/book01.jpg","1","1","1","1","1","1","0.435869400389493","0.355183300562203","0.461260000243783","1","1","1","1","1","1","1","1","1"
"260059","img/object_images/book01.jpg","img/object_images/jewelry09.jpg","img/object_images/Pottery01.jpg","1","1","0","1","1","0","0.461260000243783","0.435869400389493","0.337685300502926","1","1","1","1","1","1","1","1","1"
"260059","img/object_images/Pottery01.jpg","img/object_images/book01.jpg","img/object_images/projector01.jpg","0","1","1","0","1","0","0.337685300502926","0.461260000243783","0.427765200380236","1","1","1","1","1","1","1","1","1"
"260059","img/object_images/projector01.jpg","img/object_images/Pottery01.jpg","img/object_images/glasses07.jpg","1","0","1","0","0","1","0.427765200380236","0.337685300502926","0.315730000380427","1","1","1","1","1","1","1","1","1"
"260059","img/object_images/glasses07.jpg","img/object_images/projector01.jpg","img/object_images/bicycle_lock01.jpg","1","1","1","1","0","0","0.315730000380427","0.427765200380236","0.458085900172591","1","1","1","1","1","1","1","1","1"
"260059","img/object_images/bicycle_lock01.jpg","img/object_images/glasses07.jpg","img/object_images/yo_yo01.jpg","1","1","1","0","1","0","0.458085900172591","0.315730000380427","0.445082700345665","1","1","1","1","1","1","1","1","1"
"260059","img/object_images/yo_yo01.jpg","img/object_images/bicycle_lock01.jpg","img/object_images/Kitchen_Towel.jpg","1","1","0","0","0","0","0.445082700345665","0.458085900172591","0.429783200379461","1","1","1","1","1","1","1","1","1"
"260059","img/object_images/Kitchen_Towel.jpg","img/object_images/yo_yo01.jpg","img/object_images/hole_puncher01.jpg","0","1","1","0","0","1","0.429783200379461","0.445082700345665","0.433013000059873","1","1","1","1","1","1","1","1","1"
"260059","img/object_images/hole_puncher01.jpg","img/object_images/Kitchen_Towel.jpg","img/object_images/faucet01.jpg","1","0","1","1","0","0","0.433013000059873","0.429783200379461","0.58572840038687","1","1","1","1","1","1","1","1","1"
"260059","img/object_images/faucet01.jpg","img/object_images/hole_puncher01.jpg","img/object_images/cellphone02.jpg","1","1","1","0","1","1","0.58572840038687","0.433013000059873","0.416287800297141","1","1","1","1","1","1","1","1","1"
"260059","img/object_images/cellphone02.jpg","img/object_images/faucet01.jpg","img/object_images/basket02.jpg","1","1","0","1","0","0","0.416287800297141","0.58572840038687","0.402300000190735","1","1","1","1","1","1","1","1","1"
"260059","img/object_images/basket02.jpg","img/object_images/cellphone02.jpg","img/object_images/handcuffs01.jpg","0","1","1","0","1","0","0.402300000190735","0.416287800297141","0.515956400427967","1","1","1","1","1","1","1","1","1"
"260059","img/object_images/handcuffs01.jpg","img/object_images/basket02.jpg","img/object_images/glasses06.jpg","1","0","1","0","0","1","0.515956400427967","0.402300000190735","0.41426350036636","1","1","1","1","1","1","1","1","1"
"260059","img/object_images/glasses06.jpg","img/object_images/handcuffs01.jpg","img/object_images/blanket01.jpg","1","1","1","1","0","1","0.41426350036636","0.515956400427967","0.364673700649291","1","1","1","1","1","1","1","1","1"
"260059","img/object_images/blanket01.jpg","img/object_images/glasses06.jpg","img/object_images/colander01.jpg","1","1","1","1","1","0","0.364673700649291","0.41426350036636","0.51981610013172","1","1","1","1","1","1","1","1","1"
"260059","img/object_images/colander01.jpg","img/object_images/blanket01.jpg","img/object_images/tray01.jpg","1","1","1","0","1","1","0.51981610013172","0.364673700649291","0.38428150024265","1","1","1","1","1","1","1","1","1"
"260059","img/object_images/tray01.jpg","img/object_images/colander01.jpg","img/object_images/gift_box04.jpg","1","1","1","1","0","0","0.38428150024265","0.51981610013172","0.480890700593591","1","1","1","1","1","1","1","1","1"
"260059","img/object_images/gift_box04.jpg","img/object_images/tray01.jpg","img/object_images/lighter01.jpg","1","1","1","0","1","1","0.480890700593591","0.38428150024265","0.373239000327885","1","1","1","1","1","1","1","1","1"
"260059","img/object_images/lighter01.jpg","img/object_images/gift_box04.jpg","img/object_images/fire_extinguisher01.jpg","1","1","1","1","0","0","0.373239000327885","0.480890700593591","0.386904200073332","1","1","1","1","1","1","1","1","1"
"260059","img/object_images/fire_extinguisher01.jpg","img/object_images/lighter01.jpg","img/object_images/tool08.jpg","1","1","1","0","1","0","0.386904200073332","0.373239000327885","0.411436600610614","1","1","1","1","1","1","1","1","1"
"260059","img/object_images/tool08.jpg","img/object_images/fire_extinguisher01.jpg","img/object_images/tool07.jpg","1","1","1","0","0","0","0.411436600610614","0.386904200073332","0.43740830058232","1","1","1","1","1","1","1","1","1"
"260059","img/object_images/tool07.jpg","img/object_images/tool08.jpg","img/object_images/pan01.jpg","1","1","1","0","0","1","0.43740830058232","0.411436600610614","0.537637400440872","1","1","1","1","1","1","1","1","1"
"260059","img/object_images/pan01.jpg","img/object_images/tool07.jpg","img/object_images/hair_clips01.jpg","1","1","1","1","0","1","0.537637400440872","0.43740830058232","0.39592850022018","1","1","1","1","1","1","1","1","1"
"260059","img/object_images/hair_clips01.jpg","img/object_images/pan01.jpg","img/object_images/speaker01.jpg","1","1","1","1","1","1","0.39592850022018","0.537637400440872","0.3904950004071","1","1","1","1","1","1","1","1","1"
"260059","img/object_images/speaker01.jpg","img/object_images/hair_clips01.jpg","img/object_images/exfoliater_brush01.jpg","1","1","1","1","1","0","0.3904950004071","0.39592850022018","0.38025820069015","1","1","1","1","1","1","1","1","1"
"260059","img/object_images/exfoliater_brush01.jpg","img/object_images/speaker01.jpg",NA,"1","1",NA,"0","1",NA,"0.38025820069015","0.3904950004071",NA,"1","1",NA,"1","1",NA,"1","1",NA
"260059","img/object_images/toothbrush01.jpg",NA,"img/object_images/soap03.jpg","0",NA,"1","0",NA,"0","0.8804887002334",NA,"0.499648900702596","1",NA,"1","1",NA,"1","1",NA,"1"
"260059","img/object_images/soap03.jpg","img/object_images/toothbrush01.jpg","img/object_images/egg_slicer01.jpg","1","0","1","0","0","1","0.499648900702596","0.8804887002334","0.396338200196624","1","1","1","1","1","1","1","1","1"
"260059","img/object_images/egg_slicer01.jpg","img/object_images/soap03.jpg","img/object_images/skate_board01.jpg","1","1","1","1","0","0","0.396338200196624","0.499648900702596","0.493866400327533","1","1","1","1","1","1","1","1","1"
"260059","img/object_images/skate_board01.jpg","img/object_images/egg_slicer01.jpg","img/object_images/tripod01.jpg","1","1","1","0","1","1","0.493866400327533","0.396338200196624","0.366616200190037","1","1","1","1","1","1","1","1","1"
"260059","img/object_images/tripod01.jpg","img/object_images/skate_board01.jpg","img/object_images/toy01.jpg","1","1","1","1","0","1","0.366616200190037","0.493866400327533","0.447292200289667","1","1","1","1","1","1","1","1","1"
"260059","img/object_images/toy01.jpg","img/object_images/tripod01.jpg","img/object_images/book02.jpg","1","1","1","1","1","1","0.447292200289667","0.366616200190037","0.366954300086945","1","1","1","1","1","1","1","1","1"
"260059","img/object_images/book02.jpg","img/object_images/toy01.jpg","img/object_images/scarf01.jpg","1","1","1","1","1","1","0.366954300086945","0.447292200289667","0.356409400701523","1","1","1","1","1","1","1","1","1"
"260059","img/object_images/scarf01.jpg","img/object_images/book02.jpg","img/object_images/drone01.jpg","1","1","1","1","1","1","0.356409400701523","0.366954300086945","0.366081100422889","1","1","1","1","1","1","1","1","1"
"260059","img/object_images/drone01.jpg","img/object_images/scarf01.jpg","img/object_images/floss02.jpg","1","1","1","1","1","1","0.366081100422889","0.356409400701523","0.495380500331521","1","1","1","1","1","1","1","1","1"
"260059","img/object_images/floss02.jpg","img/object_images/drone01.jpg","img/object_images/chain01.jpg","1","1","1","1","1","0","0.495380500331521","0.366081100422889","0.428526500239968","1","1","1","1","1","1","1","1","1"
"260059","img/object_images/chain01.jpg","img/object_images/floss02.jpg","img/object_images/pen01.jpg","1","1","1","0","1","0","0.428526500239968","0.495380500331521","0.362218000460416","1","1","1","1","1","1","1","1","1"
"260059","img/object_images/pen01.jpg","img/object_images/chain01.jpg","img/object_images/bag_pipes01.jpg","1","1","1","0","0","1","0.362218000460416","0.428526500239968","0.412742800079286","1","1","1","1","1","1","1","1","1"
"260059","img/object_images/bag_pipes01.jpg","img/object_images/pen01.jpg","img/object_images/computer_mouse01.jpg","1","1","1","1","0","1","0.412742800079286","0.362218000460416","0.338844100479037","1","1","1","1","1","1","1","1","1"
"260059","img/object_images/computer_mouse01.jpg","img/object_images/bag_pipes01.jpg","img/object_images/airfryer02.jpg","1","1","1","1","1","1","0.338844100479037","0.412742800079286","0.265479700639844","1","1","1","1","1","1","1","1","1"
"260059","img/object_images/airfryer02.jpg","img/object_images/computer_mouse01.jpg","img/object_images/shoes12.jpg","1","1","1","1","1","1","0.265479700639844","0.338844100479037","0.346788100432604","1","1","1","1","1","1","1","1","1"
"260059","img/object_images/shoes12.jpg","img/object_images/airfryer02.jpg","img/object_images/rock02.jpg","1","1","0","1","1","0","0.346788100432604","0.265479700639844","0.338705000467598","1","1","1","1","1","1","1","1","1"
"260059","img/object_images/rock02.jpg","img/object_images/shoes12.jpg","img/object_images/Violin01.jpg","0","1","1","0","1","0","0.338705000467598","0.346788100432604","0.41245140042156","1","1","1","1","1","1","1","1","1"
"260059","img/object_images/Violin01.jpg","img/object_images/rock02.jpg","img/object_images/mail_box02.jpg","1","0","1","0","0","1","0.41245140042156","0.338705000467598","0.390228200238198","1","1","1","1","1","1","1","1","1"
"260059","img/object_images/mail_box02.jpg","img/object_images/Violin01.jpg","img/object_images/clip04.jpg","1","1","1","1","0","1","0.390228200238198","0.41245140042156","0.425177200231701","1","1","1","1","1","1","1","1","1"
"260059","img/object_images/clip04.jpg","img/object_images/mail_box02.jpg","img/object_images/Trowel01.jpg","1","1","1","1","1","0","0.425177200231701","0.390228200238198","0.465181600302458","1","1","1","1","1","1","1","1","1"
"260059","img/object_images/Trowel01.jpg","img/object_images/clip04.jpg","img/object_images/video_game03.jpg","1","1","1","0","1","1","0.465181600302458","0.425177200231701","0.379189900588244","1","1","1","1","1","1","1","1","1"
"260059","img/object_images/video_game03.jpg","img/object_images/Trowel01.jpg","img/object_images/chair06.jpg","1","1","1","1","0","0","0.379189900588244","0.465181600302458","0.41368760028854","1","1","1","1","1","1","1","1","1"
"260059","img/object_images/chair06.jpg","img/object_images/video_game03.jpg","img/object_images/couch01.jpg","1","1","0","0","1","0","0.41368760028854","0.379189900588244","0.39603970060125","1","1","1","1","1","1","1","1","1"
"260059","img/object_images/couch01.jpg","img/object_images/chair06.jpg","img/object_images/fork02.jpg","0","1","1","0","0","0","0.39603970060125","0.41368760028854","0.434436300303787","1","1","1","1","1","1","1","1","1"
"260059","img/object_images/fork02.jpg","img/object_images/couch01.jpg","img/object_images/hair_brush01.jpg","1","0","1","0","0","1","0.434436300303787","0.39603970060125","0.309061700478196","1","1","1","1","1","1","1","1","1"
"260059","img/object_images/hair_brush01.jpg","img/object_images/fork02.jpg","img/object_images/bell03.jpg","1","1","0","1","0","0","0.309061700478196","0.434436300303787","0.317351800389588","1","1","1","1","1","1","1","1","1"
"260059","img/object_images/bell03.jpg","img/object_images/hair_brush01.jpg","img/object_images/pitcher09.jpg","0","1","1","0","1","1","0.317351800389588","0.309061700478196","0.362607000395656","1","1","1","1","1","1","1","1","1"
"260059","img/object_images/pitcher09.jpg","img/object_images/bell03.jpg","img/object_images/blender01.jpg","1","0","1","1","0","0","0.362607000395656","0.317351800389588","0.463997000362724","1","1","1","1","1","1","1","1","1"
"260059","img/object_images/blender01.jpg","img/object_images/pitcher09.jpg","img/object_images/box03.jpg","1","1","1","0","1","0","0.463997000362724","0.362607000395656","0.438506700564176","1","1","1","1","1","1","1","1","1"
"260059","img/object_images/box03.jpg","img/object_images/blender01.jpg","img/object_images/tool06.jpg","1","1","1","0","0","0","0.438506700564176","0.463997000362724","0.394829200580716","1","1","1","1","1","1","1","1","1"
"260059","img/object_images/tool06.jpg","img/object_images/box03.jpg","img/object_images/computer_mouse02.jpg","1","1","1","0","0","0","0.394829200580716","0.438506700564176","0.707919800654054","1","1","1","1","1","1","1","1","1"
"260059","img/object_images/computer_mouse02.jpg","img/object_images/tool06.jpg",NA,"1","1",NA,"0","0",NA,"0.707919800654054","0.394829200580716",NA,"1","1",NA,"1","1",NA,"1","1",NA
"260059","img/object_images/razor01.jpg",NA,"img/object_images/toaster02.jpg","0",NA,"1","0",NA,"1","0.752738800365478",NA,"0.296920500230044","1",NA,"1","1",NA,"1","1",NA,"1"
"260059","img/object_images/toaster02.jpg","img/object_images/razor01.jpg","img/object_images/yarn02.jpg","1","0","0","1","0","0","0.296920500230044","0.752738800365478","0.402411800343543","1","1","1","1","1","1","1","1","1"
"260059","img/object_images/yarn02.jpg","img/object_images/toaster02.jpg","img/object_images/bag06.jpg","0","1","1","0","1","1","0.402411800343543","0.296920500230044","0.392889500129968","1","1","1","1","1","1","1","1","1"
"260059","img/object_images/bag06.jpg","img/object_images/yarn02.jpg","img/object_images/chair04.jpg","1","0","1","1","0","1","0.392889500129968","0.402411800343543","0.360221000388265","1","1","1","1","1","1","1","1","1"
"260059","img/object_images/chair04.jpg","img/object_images/bag06.jpg","img/object_images/satellite01.jpg","1","1","1","1","1","0","0.360221000388265","0.392889500129968","0.454470300115645","1","1","1","1","1","1","1","1","1"
"260059","img/object_images/satellite01.jpg","img/object_images/chair04.jpg","img/object_images/ladle02.jpg","1","1","1","0","1","0","0.454470300115645","0.360221000388265","0.324749100487679","1","1","1","1","1","1","1","1","1"
"260059","img/object_images/ladle02.jpg","img/object_images/satellite01.jpg","img/object_images/shoes10.jpg","1","1","0","0","0","0","0.324749100487679","0.454470300115645","0.340559500735253","1","1","1","1","1","1","1","1","1"
"260059","img/object_images/shoes10.jpg","img/object_images/ladle02.jpg","img/object_images/mask01.jpg","0","1","1","0","0","0","0.340559500735253","0.324749100487679","0.45371020026505","1","1","1","1","1","1","1","1","1"
"260059","img/object_images/mask01.jpg","img/object_images/shoes10.jpg","img/object_images/rock03.jpg","1","0","0","0","0","0","0.45371020026505","0.340559500735253","0.351389000192285","1","1","1","1","1","1","1","1","1"
"260059","img/object_images/rock03.jpg","img/object_images/mask01.jpg","img/object_images/cutting_board01.jpg","0","1","1","0","0","1","0.351389000192285","0.45371020026505","0.656023500021547","1","1","1","1","1","1","1","1","1"
"260059","img/object_images/cutting_board01.jpg","img/object_images/rock03.jpg","img/object_images/hair_brush05.jpg","1","0","1","1","0","1","0.656023500021547","0.351389000192285","0.39905450027436","1","1","1","1","1","1","1","1","1"
"260059","img/object_images/hair_brush05.jpg","img/object_images/cutting_board01.jpg","img/object_images/binoculars03.jpg","1","1","1","1","1","1","0.39905450027436","0.656023500021547","0.366873500403017","1","1","1","1","1","1","1","1","1"
"260059","img/object_images/binoculars03.jpg","img/object_images/hair_brush05.jpg","img/object_images/jewel01.jpg","1","1","0","1","1","0","0.366873500403017","0.39905450027436","0.375059000216424","1","1","1","1","1","1","1","1","1"
"260059","img/object_images/jewel01.jpg","img/object_images/binoculars03.jpg","img/object_images/jewelry07.jpg","0","1","1","0","1","1","0.375059000216424","0.366873500403017","0.417215400375426","1","1","1","1","1","1","1","1","1"
"260059","img/object_images/jewelry07.jpg","img/object_images/jewel01.jpg","img/object_images/tv01.jpg","1","0","1","1","0","0","0.417215400375426","0.375059000216424","0.66176940035075","1","1","1","1","1","1","1","1","1"
"260059","img/object_images/tv01.jpg","img/object_images/jewelry07.jpg","img/object_images/ribbon01.jpg","1","1","1","0","1","0","0.66176940035075","0.417215400375426","0.720851500052959","1","1","1","1","1","1","1","1","1"
"260059","img/object_images/ribbon01.jpg","img/object_images/tv01.jpg","img/object_images/key02.jpg","1","1","1","0","0","1","0.720851500052959","0.66176940035075","0.383171600289643","1","1","1","1","1","1","1","1","1"
"260059","img/object_images/key02.jpg","img/object_images/ribbon01.jpg","img/object_images/dress03.jpg","1","1","1","1","0","1","0.383171600289643","0.720851500052959","0.406800800468773","1","1","1","1","1","1","1","1","1"
"260059","img/object_images/dress03.jpg","img/object_images/key02.jpg","img/object_images/cards01.jpg","1","1","1","1","1","0","0.406800800468773","0.383171600289643","0.35500830039382","1","1","1","1","1","1","1","1","1"
"260059","img/object_images/cards01.jpg","img/object_images/dress03.jpg","img/object_images/WitchHat02.jpg","1","1","1","0","1","1","0.35500830039382","0.406800800468773","0.40493080066517","1","1","1","1","1","1","1","1","1"
"260059","img/object_images/WitchHat02.jpg","img/object_images/cards01.jpg","img/object_images/screwdriver01.jpg","1","1","0","1","0","0","0.40493080066517","0.35500830039382","0.315150100272149","1","1","1","1","1","1","1","1","1"
"260059","img/object_images/screwdriver01.jpg","img/object_images/WitchHat02.jpg","img/object_images/belt01.jpg","0","1","1","0","1","0","0.315150100272149","0.40493080066517","0.394381300546229","1","1","1","1","1","1","1","1","1"
"260059","img/object_images/belt01.jpg","img/object_images/screwdriver01.jpg","img/object_images/fan05.jpg","1","0","1","0","0","0","0.394381300546229","0.315150100272149","0.517393600195646","1","1","1","1","1","1","1","1","1"
"260059","img/object_images/fan05.jpg","img/object_images/belt01.jpg","img/object_images/lemon_squeezer02.jpg","1","1","1","0","0","1","0.517393600195646","0.394381300546229","0.399168699979782","1","1","1","1","1","1","1","1","1"
"260059","img/object_images/lemon_squeezer02.jpg","img/object_images/fan05.jpg","img/object_images/car03.jpg","1","1","1","1","0","0","0.399168699979782","0.517393600195646","0.494933500420302","1","1","1","1","1","1","1","1","1"
"260059","img/object_images/car03.jpg","img/object_images/lemon_squeezer02.jpg","img/object_images/ice_tray03.jpg","1","1","1","0","1","1","0.494933500420302","0.399168699979782","0.455342000350356","1","1","1","1","1","1","1","1","1"
"260059","img/object_images/ice_tray03.jpg","img/object_images/car03.jpg","img/object_images/MeasuringCup01.jpg","1","1","1","1","0","1","0.455342000350356","0.494933500420302","0.375584800262004","1","1","1","1","1","1","1","1","1"
"260059","img/object_images/MeasuringCup01.jpg","img/object_images/ice_tray03.jpg","img/object_images/shower_head03.jpg","1","1","1","1","1","1","0.375584800262004","0.455342000350356","0.389939300250262","1","1","1","1","1","1","1","1","1"
"260059","img/object_images/shower_head03.jpg","img/object_images/MeasuringCup01.jpg","img/object_images/car04.jpg","1","1","1","1","1","0","0.389939300250262","0.375584800262004","0.542957700323313","1","1","1","1","1","1","1","1","1"
"260059","img/object_images/car04.jpg","img/object_images/shower_head03.jpg","img/object_images/tool11.jpg","1","1","1","0","1","1","0.542957700323313","0.389939300250262","0.348068100400269","1","1","1","1","1","1","1","1","1"
"260059","img/object_images/tool11.jpg","img/object_images/car04.jpg","img/object_images/slinky_toy01.jpg","1","1","1","1","0","1","0.348068100400269","0.542957700323313","0.356416700407863","1","1","1","1","1","1","1","1","1"
"260059","img/object_images/slinky_toy01.jpg","img/object_images/tool11.jpg",NA,"1","1",NA,"1","1",NA,"0.356416700407863","0.348068100400269",NA,"1","1",NA,"1","1",NA,"1","1",NA
"260059","img/object_images/nut_cracker01.jpg",NA,"img/object_images/trumpet01.jpg","1",NA,"0","1",NA,"0","0.715950800105929",NA,"0.386968200094998","1",NA,"1","1",NA,"1","1",NA,"1"
"260059","img/object_images/trumpet01.jpg","img/object_images/nut_cracker01.jpg","img/object_images/helmet03.jpg","0","1","1","0","1","1","0.386968200094998","0.715950800105929","0.371289700269699","1","1","1","1","1","1","1","1","1"
"260059","img/object_images/helmet03.jpg","img/object_images/trumpet01.jpg","img/object_images/jewel02.jpg","1","0","1","1","0","0","0.371289700269699","0.386968200094998","0.446719700470567","1","1","1","1","1","1","1","1","1"
"260059","img/object_images/jewel02.jpg","img/object_images/helmet03.jpg","img/object_images/water_gun01.jpg","1","1","1","0","1","1","0.446719700470567","0.371289700269699","0.338364300318062","1","1","1","1","1","1","1","1","1"
"260059","img/object_images/water_gun01.jpg","img/object_images/jewel02.jpg","img/object_images/TreeSlice01.jpg","1","1","1","1","0","1","0.338364300318062","0.446719700470567","0.349804500583559","1","1","1","1","1","1","1","1","1"
"260059","img/object_images/TreeSlice01.jpg","img/object_images/water_gun01.jpg","img/object_images/origami01.jpg","1","1","1","1","1","1","0.349804500583559","0.338364300318062","0.372954900376499","1","1","1","1","1","1","1","1","1"
"260059","img/object_images/origami01.jpg","img/object_images/TreeSlice01.jpg","img/object_images/egg_basket01.jpg","1","1","1","1","1","1","0.372954900376499","0.349804500583559","0.421469100285321","1","1","1","1","1","1","1","1","1"
"260059","img/object_images/egg_basket01.jpg","img/object_images/origami01.jpg","img/object_images/badminton01.jpg","1","1","1","1","1","1","0.421469100285321","0.372954900376499","0.354705300647765","1","1","1","1","1","1","1","1","1"
"260059","img/object_images/badminton01.jpg","img/object_images/egg_basket01.jpg","img/object_images/yoga_mat01.jpg","1","1","1","1","1","0","0.354705300647765","0.421469100285321","0.488967900164425","1","1","1","1","1","1","1","1","1"
"260059","img/object_images/yoga_mat01.jpg","img/object_images/badminton01.jpg","img/object_images/Eyeliner01.jpg","1","1","1","0","1","1","0.488967900164425","0.354705300647765","0.565494700334966","1","1","1","1","1","1","1","1","1"
"260059","img/object_images/Eyeliner01.jpg","img/object_images/yoga_mat01.jpg","img/object_images/scale02.jpg","1","1","1","1","0","0","0.565494700334966","0.488967900164425","0.372879900503904","1","1","1","1","1","1","1","1","1"
"260059","img/object_images/scale02.jpg","img/object_images/Eyeliner01.jpg","img/object_images/phone04.jpg","1","1","1","0","1","1","0.372879900503904","0.565494700334966","0.356849600095302","1","1","1","1","1","1","1","1","1"
"260059","img/object_images/phone04.jpg","img/object_images/scale02.jpg","img/object_images/headset02.jpg","1","1","0","1","0","0","0.356849600095302","0.372879900503904","0.378942900337279","1","1","1","1","1","1","1","1","1"
"260059","img/object_images/headset02.jpg","img/object_images/phone04.jpg","img/object_images/piano03.jpg","0","1","1","0","1","0","0.378942900337279","0.356849600095302","0.518910200335085","1","1","1","1","1","1","1","1","1"
"260059","img/object_images/piano03.jpg","img/object_images/headset02.jpg","img/object_images/ToolBag01.jpg","1","0","1","0","0","0","0.518910200335085","0.378942900337279","0.473585600499064","1","1","1","1","1","1","1","1","1"
"260059","img/object_images/ToolBag01.jpg","img/object_images/piano03.jpg","img/object_images/Shoes05.jpg","1","1","1","0","0","0","0.473585600499064","0.518910200335085","0.427024700213224","1","1","1","1","1","1","1","1","1"
"260059","img/object_images/Shoes05.jpg","img/object_images/ToolBag01.jpg","img/object_images/lock03.jpg","1","1","1","0","0","1","0.427024700213224","0.473585600499064","0.356738000176847","1","1","1","1","1","1","1","1","1"
"260059","img/object_images/lock03.jpg","img/object_images/Shoes05.jpg","img/object_images/usb03.jpg","1","1","0","1","0","0","0.356738000176847","0.427024700213224","0.373075800482184","1","1","1","1","1","1","1","1","1"
"260059","img/object_images/usb03.jpg","img/object_images/lock03.jpg","img/object_images/joystick03.jpg","0","1","1","0","1","1","0.373075800482184","0.356738000176847","0.497895400505513","1","1","1","1","1","1","1","1","1"
"260059","img/object_images/joystick03.jpg","img/object_images/usb03.jpg","img/object_images/pitcher07.jpg","1","0","1","1","0","1","0.497895400505513","0.373075800482184","0.375146200414747","1","1","1","1","1","1","1","1","1"
"260059","img/object_images/pitcher07.jpg","img/object_images/joystick03.jpg","img/object_images/belt03.jpg","1","1","1","1","1","0","0.375146200414747","0.497895400505513","0.491186200641096","1","1","1","1","1","1","1","1","1"
"260059","img/object_images/belt03.jpg","img/object_images/pitcher07.jpg","img/object_images/frame01.jpg","1","1","1","0","1","1","0.491186200641096","0.375146200414747","0.420671500265598","1","1","1","1","1","1","1","1","1"
"260059","img/object_images/frame01.jpg","img/object_images/belt03.jpg","img/object_images/bucket01.jpg","1","1","1","1","0","1","0.420671500265598","0.491186200641096","0.396020400337875","1","1","1","1","1","1","1","1","1"
"260059","img/object_images/bucket01.jpg","img/object_images/frame01.jpg","img/object_images/Safe01.jpg","1","1","1","1","1","1","0.396020400337875","0.420671500265598","0.49609970068559","1","1","1","1","1","1","1","1","1"
"260059","img/object_images/Safe01.jpg","img/object_images/bucket01.jpg","img/object_images/shovel01.jpg","1","1","1","1","1","0","0.49609970068559","0.396020400337875","0.449526500422508","1","1","1","1","1","1","1","1","1"
"260059","img/object_images/shovel01.jpg","img/object_images/Safe01.jpg","img/object_images/bookmark01.jpg","1","1","1","0","1","0","0.449526500422508","0.49609970068559","0.719452400691807","1","1","1","1","1","1","1","1","1"
"260059","img/object_images/bookmark01.jpg","img/object_images/shovel01.jpg","img/object_images/tennis_racket01.jpg","1","1","1","0","0","1","0.719452400691807","0.449526500422508","0.461377500556409","1","1","1","1","1","1","1","1","1"
"260059","img/object_images/tennis_racket01.jpg","img/object_images/bookmark01.jpg","img/object_images/fan01.jpg","1","1","0","1","0","0","0.461377500556409","0.719452400691807","0.407898500096053","1","1","1","1","1","1","1","1","1"
"260059","img/object_images/fan01.jpg","img/object_images/tennis_racket01.jpg","img/object_images/dice01.jpg","0","1","0","0","1","0","0.407898500096053","0.461377500556409","0.416294200345874","1","1","1","1","1","1","1","1","1"
"260059","img/object_images/dice01.jpg","img/object_images/fan01.jpg","img/object_images/note_book02.jpg","0","0","1","0","0","0","0.416294200345874","0.407898500096053","0.560737400315702","1","1","1","1","1","1","1","1","1"
"260059","img/object_images/note_book02.jpg","img/object_images/dice01.jpg","img/object_images/bottle06.jpg","1","0","0","0","0","0","0.560737400315702","0.416294200345874","0.353297700639814","1","1","1","1","1","1","1","1","1"
"260059","img/object_images/bottle06.jpg","img/object_images/note_book02.jpg",NA,"0","1",NA,"0","0",NA,"0.353297700639814","0.560737400315702",NA,"1","1",NA,"1","1",NA,"1","1",NA
"260059","img/object_images/video_game06.jpg",NA,"img/object_images/brief_case02.jpg","1",NA,"1","0",NA,"1","0.625031300354749",NA,"0.399385400582105","1",NA,"1","1",NA,"1","1",NA,"1"
"260059","img/object_images/brief_case02.jpg","img/object_images/video_game06.jpg","img/object_images/chair01.jpg","1","1","1","1","0","0","0.399385400582105","0.625031300354749","0.503409500233829","1","1","1","1","1","1","1","1","1"
"260059","img/object_images/chair01.jpg","img/object_images/brief_case02.jpg","img/object_images/razor03.jpg","1","1","1","0","1","0","0.503409500233829","0.399385400582105","0.449001100379974","1","1","1","1","1","1","1","1","1"
"260059","img/object_images/razor03.jpg","img/object_images/chair01.jpg","img/object_images/cochlear_implant01.jpg","1","1","1","0","0","0","0.449001100379974","0.503409500233829","0.427082900423557","1","1","1","1","1","1","1","1","1"
"260059","img/object_images/cochlear_implant01.jpg","img/object_images/razor03.jpg","img/object_images/lamp01.jpg","1","1","1","0","0","1","0.427082900423557","0.449001100379974","0.370767800603062","1","1","1","1","1","1","1","1","1"
"260059","img/object_images/lamp01.jpg","img/object_images/cochlear_implant01.jpg","img/object_images/pot01.jpg","1","1","1","1","0","0","0.370767800603062","0.427082900423557","0.591724500525743","1","1","1","1","1","1","1","1","1"
"260059","img/object_images/pot01.jpg","img/object_images/lamp01.jpg","img/object_images/tie01.jpg","1","1","1","0","1","0","0.591724500525743","0.370767800603062","0.448248100467026","1","1","1","1","1","1","1","1","1"
"260059","img/object_images/tie01.jpg","img/object_images/pot01.jpg","img/object_images/decorative02.jpg","1","1","0","0","0","0","0.448248100467026","0.591724500525743","0.348303300794214","1","1","1","1","1","1","1","1","1"
"260059","img/object_images/decorative02.jpg","img/object_images/tie01.jpg","img/object_images/lantern01.jpg","0","1","1","0","0","1","0.348303300794214","0.448248100467026","0.495814600493759","1","1","1","1","1","1","1","1","1"
"260059","img/object_images/lantern01.jpg","img/object_images/decorative02.jpg","img/object_images/basketball_hoop02.jpg","1","0","1","1","0","0","0.495814600493759","0.348303300794214","0.470905300229788","1","1","1","1","1","1","1","1","1"
"260059","img/object_images/basketball_hoop02.jpg","img/object_images/lantern01.jpg","img/object_images/helmet05.jpg","1","1","1","0","1","1","0.470905300229788","0.495814600493759","0.428592900279909","1","1","1","1","1","1","1","1","1"
"260059","img/object_images/helmet05.jpg","img/object_images/basketball_hoop02.jpg","img/object_images/hat02.jpg","1","1","1","1","0","0","0.428592900279909","0.470905300229788","0.388574500568211","1","1","1","1","1","1","1","1","1"
"260059","img/object_images/hat02.jpg","img/object_images/helmet05.jpg","img/object_images/bottle12.jpg","1","1","1","0","1","1","0.388574500568211","0.428592900279909","0.713137000333518","1","1","1","1","1","1","1","1","1"
"260059","img/object_images/bottle12.jpg","img/object_images/hat02.jpg","img/object_images/Woopie01.jpg","1","1","1","1","0","1","0.713137000333518","0.388574500568211","0.398376000579447","1","1","1","1","1","1","1","1","1"
"260059","img/object_images/Woopie01.jpg","img/object_images/bottle12.jpg","img/object_images/gloves05.jpg","1","1","1","1","1","1","0.398376000579447","0.713137000333518","0.534398300107569","1","1","1","1","1","1","1","1","1"
"260059","img/object_images/gloves05.jpg","img/object_images/Woopie01.jpg","img/object_images/pitcher03.jpg","1","1","1","1","1","1","0.534398300107569","0.398376000579447","0.445347300730646","1","1","1","1","1","1","1","1","1"
"260059","img/object_images/pitcher03.jpg","img/object_images/gloves05.jpg","img/object_images/soap01.jpg","1","1","1","1","1","0","0.445347300730646","0.534398300107569","0.66791080031544","1","1","1","1","1","1","1","1","1"
"260059","img/object_images/soap01.jpg","img/object_images/pitcher03.jpg","img/object_images/ball01.jpg","1","1","1","0","1","1","0.66791080031544","0.445347300730646","0.388541100081056","1","1","1","1","1","1","1","1","1"
"260059","img/object_images/ball01.jpg","img/object_images/soap01.jpg","img/object_images/broom01.jpg","1","1","1","1","0","1","0.388541100081056","0.66791080031544","0.386284300126135","1","1","1","1","1","1","1","1","1"
"260059","img/object_images/broom01.jpg","img/object_images/ball01.jpg","img/object_images/car02.jpg","1","1","1","1","1","0","0.386284300126135","0.388541100081056","0.450559200718999","1","1","1","1","1","1","1","1","1"
"260059","img/object_images/car02.jpg","img/object_images/broom01.jpg","img/object_images/container01.jpg","1","1","0","0","1","0","0.450559200718999","0.386284300126135","0.380138800479472","1","1","1","1","1","1","1","1","1"
"260059","img/object_images/container01.jpg","img/object_images/car02.jpg","img/object_images/airfryer01.jpg","0","1","1","0","0","0","0.380138800479472","0.450559200718999","0.497561300173402","1","1","1","1","1","1","1","1","1"
"260059","img/object_images/airfryer01.jpg","img/object_images/container01.jpg","img/object_images/toy_train02.jpg","1","0","1","0","0","1","0.497561300173402","0.380138800479472","0.359279100317508","1","1","1","1","1","1","1","1","1"
"260059","img/object_images/toy_train02.jpg","img/object_images/airfryer01.jpg","img/object_images/ironing_table02.jpg","1","1","1","1","0","0","0.359279100317508","0.497561300173402","0.608079600147903","1","1","1","1","1","1","1","1","1"
"260059","img/object_images/ironing_table02.jpg","img/object_images/toy_train02.jpg","img/object_images/Wisk01.jpg","1","1","1","0","1","1","0.608079600147903","0.359279100317508","0.307577600236982","1","1","1","1","1","1","1","1","1"
"260059","img/object_images/Wisk01.jpg","img/object_images/ironing_table02.jpg","img/object_images/guitar01.jpg","1","1","1","1","0","1","0.307577600236982","0.608079600147903","0.346815400756896","1","1","1","1","1","1","1","1","1"
"260059","img/object_images/guitar01.jpg","img/object_images/Wisk01.jpg","img/object_images/brief_case01.jpg","1","1","1","1","1","0","0.346815400756896","0.307577600236982","0.472480000462383","1","1","1","1","1","1","1","1","1"
"260059","img/object_images/brief_case01.jpg","img/object_images/guitar01.jpg","img/object_images/drone02.jpg","1","1","1","0","1","0","0.472480000462383","0.346815400756896","0.326468500308692","1","1","1","1","1","1","1","1","1"
"260059","img/object_images/drone02.jpg","img/object_images/brief_case01.jpg","img/object_images/couch04.jpg","1","1","1","0","0","1","0.326468500308692","0.472480000462383","0.381382200401276","1","1","1","1","1","1","1","1","1"
"260059","img/object_images/couch04.jpg","img/object_images/drone02.jpg","img/object_images/Recycling01.jpg","1","1","1","1","0","1","0.381382200401276","0.326468500308692","0.408122500404716","1","1","1","1","1","1","1","1","1"
"260059","img/object_images/Recycling01.jpg","img/object_images/couch04.jpg","img/object_images/toilet_paper01.jpg","1","1","1","1","1","1","0.408122500404716","0.381382200401276","0.34811590006575","1","1","1","1","1","1","1","1","1"
"260059","img/object_images/toilet_paper01.jpg","img/object_images/Recycling01.jpg",NA,"1","1",NA,"1","1",NA,"0.34811590006575","0.408122500404716",NA,"1","1",NA,"1","1",NA,"1","1",NA
"260059","img/object_images/socks02.jpg",NA,"img/object_images/clip02.jpg","1",NA,"1","0",NA,"1","0.798388600349426",NA,"0.362362200394273","1",NA,"1","1",NA,"1","1",NA,"1"
"260059","img/object_images/clip02.jpg","img/object_images/socks02.jpg","img/object_images/grater01.jpg","1","1","1","1","0","1","0.362362200394273","0.798388600349426","0.391471800394356","1","1","1","1","1","1","1","1","1"
"260059","img/object_images/grater01.jpg","img/object_images/clip02.jpg","img/object_images/fork03.jpg","1","1","1","1","1","1","0.391471800394356","0.362362200394273","0.366745600476861","1","1","1","1","1","1","1","1","1"
"260059","img/object_images/fork03.jpg","img/object_images/grater01.jpg","img/object_images/pitcher02.jpg","1","1","1","1","1","1","0.366745600476861","0.391471800394356","0.400067000649869","1","1","1","1","1","1","1","1","1"
"260059","img/object_images/pitcher02.jpg","img/object_images/fork03.jpg","img/object_images/lock04.jpg","1","1","1","1","1","1","0.400067000649869","0.366745600476861","0.480832600500435","1","1","1","1","1","1","1","1","1"
"260059","img/object_images/lock04.jpg","img/object_images/pitcher02.jpg","img/object_images/bath_tub01.jpg","1","1","1","1","1","0","0.480832600500435","0.400067000649869","0.549060200341046","1","1","1","1","1","1","1","1","1"
"260059","img/object_images/bath_tub01.jpg","img/object_images/lock04.jpg","img/object_images/funnel01.jpg","1","1","1","0","1","0","0.549060200341046","0.480832600500435","0.557794200256467","1","1","1","1","1","1","1","1","1"
"260059","img/object_images/funnel01.jpg","img/object_images/bath_tub01.jpg","img/object_images/jacket03.jpg","1","1","1","0","0","0","0.557794200256467","0.549060200341046","0.351922600530088","1","1","1","1","1","1","1","1","1"
"260059","img/object_images/jacket03.jpg","img/object_images/funnel01.jpg","img/object_images/camera07.jpg","1","1","1","0","0","1","0.351922600530088","0.557794200256467","0.40676430054009","1","1","1","1","1","1","1","1","1"
"260059","img/object_images/camera07.jpg","img/object_images/jacket03.jpg","img/object_images/Witchhat01.jpg","1","1","1","1","0","1","0.40676430054009","0.351922600530088","0.343857500236481","1","1","1","1","1","1","1","1","1"
"260059","img/object_images/Witchhat01.jpg","img/object_images/camera07.jpg","img/object_images/golf_ball03.jpg","1","1","1","1","1","1","0.343857500236481","0.40676430054009","0.408157700672746","1","1","1","1","1","1","1","1","1"
"260059","img/object_images/golf_ball03.jpg","img/object_images/Witchhat01.jpg","img/object_images/hammer01.jpg","1","1","1","1","1","0","0.408157700672746","0.343857500236481","0.449876500293612","1","1","1","1","1","1","1","1","1"
"260059","img/object_images/hammer01.jpg","img/object_images/golf_ball03.jpg","img/object_images/gift_box01.jpg","1","1","1","0","1","1","0.449876500293612","0.408157700672746","0.347133600153029","1","1","1","1","1","1","1","1","1"
"260059","img/object_images/gift_box01.jpg","img/object_images/hammer01.jpg","img/object_images/lawn_mower01.jpg","1","1","1","1","0","1","0.347133600153029","0.449876500293612","0.391582200769335","1","1","1","1","1","1","1","1","1"
"260059","img/object_images/lawn_mower01.jpg","img/object_images/gift_box01.jpg","img/object_images/dresser04.jpg","1","1","1","1","1","0","0.391582200769335","0.347133600153029","0.354349000379443","1","1","1","1","1","1","1","1","1"
"260059","img/object_images/dresser04.jpg","img/object_images/lawn_mower01.jpg","img/object_images/bow_tie01.jpg","1","1","1","0","1","0","0.354349000379443","0.391582200769335","0.490833500400186","1","1","1","1","1","1","1","1","1"
"260059","img/object_images/bow_tie01.jpg","img/object_images/dresser04.jpg","img/object_images/balloon01.jpg","1","1","1","0","0","0","0.490833500400186","0.354349000379443","0.45410620002076","1","1","1","1","1","1","1","1","1"
"260059","img/object_images/balloon01.jpg","img/object_images/bow_tie01.jpg","img/object_images/ironing_table01.jpg","1","1","1","0","0","0","0.45410620002076","0.490833500400186","0.455426700413227","1","1","1","1","1","1","1","1","1"
"260059","img/object_images/ironing_table01.jpg","img/object_images/balloon01.jpg","img/object_images/sleeping_bag01.jpg","1","1","1","0","0","0","0.455426700413227","0.45410620002076","0.431598600465804","1","1","1","1","1","1","1","1","1"
"260059","img/object_images/sleeping_bag01.jpg","img/object_images/ironing_table01.jpg","img/object_images/paper_cup01.jpg","1","1","1","0","0","0","0.431598600465804","0.455426700413227","0.421767100691795","1","1","1","1","1","1","1","1","1"
"260059","img/object_images/paper_cup01.jpg","img/object_images/sleeping_bag01.jpg","img/object_images/wallet02.jpg","1","1","1","0","0","1","0.421767100691795","0.431598600465804","0.402652800548822","1","1","1","1","1","1","1","1","1"
"260059","img/object_images/wallet02.jpg","img/object_images/paper_cup01.jpg","img/object_images/gift_box03.jpg","1","1","0","1","0","0","0.402652800548822","0.421767100691795","0.387457700446248","1","1","1","1","1","1","1","1","1"
"260059","img/object_images/gift_box03.jpg","img/object_images/wallet02.jpg","img/object_images/couch03.jpg","0","1","1","0","1","0","0.387457700446248","0.402652800548822","0.365102500654757","1","1","1","1","1","1","1","1","1"
"260059","img/object_images/couch03.jpg","img/object_images/gift_box03.jpg","img/object_images/bow_tie02.jpg","1","0","0","0","0","0","0.365102500654757","0.387457700446248","0.387668700423092","1","1","1","1","1","1","1","1","1"
"260059","img/object_images/bow_tie02.jpg","img/object_images/couch03.jpg","img/object_images/measuring_tape02.jpg","0","1","1","0","0","1","0.387668700423092","0.365102500654757","0.431466900743544","1","1","1","1","1","1","1","1","1"
"260059","img/object_images/measuring_tape02.jpg","img/object_images/bow_tie02.jpg","img/object_images/coloring_pencil01.jpg","1","0","1","1","0","1","0.431466900743544","0.387668700423092","0.382396500092","1","1","1","1","1","1","1","1","1"
"260059","img/object_images/coloring_pencil01.jpg","img/object_images/measuring_tape02.jpg","img/object_images/vga_port 01.jpg","1","1","1","1","1","0","0.382396500092","0.431466900743544","0.487860200461","1","1","1","1","1","1","1","1","1"
"260059","img/object_images/vga_port 01.jpg","img/object_images/coloring_pencil01.jpg","img/object_images/Screws01.jpg","1","1","1","0","1","1","0.487860200461","0.382396500092","0.379683200269938","1","1","1","1","1","1","1","1","1"
"260059","img/object_images/Screws01.jpg","img/object_images/vga_port 01.jpg","img/object_images/handkerchief01.jpg","1","1","0","1","0","0","0.379683200269938","0.487860200461","0.398370900191367","1","1","1","1","1","1","1","1","1"
"260059","img/object_images/handkerchief01.jpg","img/object_images/Screws01.jpg","img/object_images/gift_box02.jpg","0","1","1","0","1","1","0.398370900191367","0.379683200269938","0.604887800291181","1","1","1","1","1","1","1","1","1"
"260059","img/object_images/gift_box02.jpg","img/object_images/handkerchief01.jpg","img/object_images/jewelry01.jpg","1","0","1","1","0","1","0.604887800291181","0.398370900191367","0.439766000490636","1","1","1","1","1","1","1","1","1"
"260059","img/object_images/jewelry01.jpg","img/object_images/gift_box02.jpg",NA,"1","1",NA,"1","1",NA,"0.439766000490636","0.604887800291181",NA,"1","1",NA,"1","1",NA,"1","1",NA
