"participant_id","current_trial_object","pre_trial_object","post_trial_object","current_trial_accuracy","pre_trial_accuracy","post_trial_accuracy","current_trial_congruency","pre_trial_congruency","post_trial_congruency","current_trial_rt","pre_trial_rt","post_trial_rt","current_trial_responded","pre_trial_responded","post_trial_responded","current_trial_legitResponse","pre_trial_legitResponse","post_trial_legitResponse","current_trial_resp_nums","pre_trial_resp_nums","post_trial_resp_nums"
"260002","img/object_images/clip02.jpg",NA,"img/object_images/vga_port 01.jpg","1",NA,"1","1",NA,"0","1.21352640003897",NA,"0.658330000005662","1",NA,"1","1",NA,"1","1",NA,"1"
"260002","img/object_images/vga_port 01.jpg","img/object_images/clip02.jpg","img/object_images/coloring_pencil01.jpg","1","1","1","0","1","1","0.658330000005662","1.21352640003897","0.728903599781916","1","1","1","1","1","1","1","1","1"
"260002","img/object_images/coloring_pencil01.jpg","img/object_images/vga_port 01.jpg","img/object_images/golf_ball03.jpg","1","1","1","1","0","1","0.728903599781916","0.658330000005662","0.755988799966872","1","1","1","1","1","1","1","1","1"
"260002","img/object_images/golf_ball03.jpg","img/object_images/coloring_pencil01.jpg","img/object_images/sleeping_bag01.jpg","1","1","1","1","1","0","0.755988799966872","0.728903599781916","0.761144199874252","1","1","1","1","1","1","1","1","1"
"260002","img/object_images/sleeping_bag01.jpg","img/object_images/golf_ball03.jpg","img/object_images/jacket03.jpg","1","1","1","0","1","0","0.761144199874252","0.755988799966872","0.661172499880195","1","1","1","1","1","1","1","1","1"
"260002","img/object_images/jacket03.jpg","img/object_images/sleeping_bag01.jpg","img/object_images/handkerchief01.jpg","1","1","1","0","0","0","0.661172499880195","0.761144199874252","0.615931200096384","1","1","1","1","1","1","1","1","1"
"260002","img/object_images/handkerchief01.jpg","img/object_images/jacket03.jpg","img/object_images/Screws01.jpg","1","1","1","0","0","1","0.615931200096384","0.661172499880195","0.566051300149411","1","1","1","1","1","1","1","1","1"
"260002","img/object_images/Screws01.jpg","img/object_images/handkerchief01.jpg","img/object_images/bath_tub01.jpg","1","1","1","1","0","0","0.566051300149411","0.615931200096384","0.612405000021681","1","1","1","1","1","1","1","1","1"
"260002","img/object_images/bath_tub01.jpg","img/object_images/Screws01.jpg","img/object_images/gift_box02.jpg","1","1","1","0","1","1","0.612405000021681","0.566051300149411","0.673792500048876","1","1","1","1","1","1","1","1","1"
"260002","img/object_images/gift_box02.jpg","img/object_images/bath_tub01.jpg","img/object_images/wallet02.jpg","1","1","1","1","0","1","0.673792500048876","0.612405000021681","0.566018200013787","1","1","1","1","1","1","1","1","1"
"260002","img/object_images/wallet02.jpg","img/object_images/gift_box02.jpg","img/object_images/fork03.jpg","1","1","1","1","1","1","0.566018200013787","0.673792500048876","0.58719260012731","1","1","1","1","1","1","1","1","1"
"260002","img/object_images/fork03.jpg","img/object_images/wallet02.jpg","img/object_images/lock04.jpg","1","1","1","1","1","1","0.58719260012731","0.566018200013787","0.65068419999443","1","1","1","1","1","1","1","1","1"
"260002","img/object_images/lock04.jpg","img/object_images/fork03.jpg","img/object_images/bow_tie02.jpg","1","1","1","1","1","0","0.65068419999443","0.58719260012731","0.569597899913788","1","1","1","1","1","1","1","1","1"
"260002","img/object_images/bow_tie02.jpg","img/object_images/lock04.jpg","img/object_images/hammer01.jpg","1","1","1","0","1","0","0.569597899913788","0.65068419999443","0.759561300044879","1","1","1","1","1","1","1","1","1"
"260002","img/object_images/hammer01.jpg","img/object_images/bow_tie02.jpg","img/object_images/gift_box03.jpg","1","1","1","0","0","0","0.759561300044879","0.569597899913788","0.679313500178978","1","1","1","1","1","1","1","1","1"
"260002","img/object_images/gift_box03.jpg","img/object_images/hammer01.jpg","img/object_images/pitcher02.jpg","1","1","1","0","0","1","0.679313500178978","0.759561300044879","0.591445100028068","1","1","1","1","1","1","1","1","1"
"260002","img/object_images/pitcher02.jpg","img/object_images/gift_box03.jpg","img/object_images/funnel01.jpg","1","1","1","1","0","0","0.591445100028068","0.679313500178978","0.647186900023371","1","1","1","1","1","1","1","1","1"
"260002","img/object_images/funnel01.jpg","img/object_images/pitcher02.jpg","img/object_images/Witchhat01.jpg","1","1","1","0","1","1","0.647186900023371","0.591445100028068","0.665845300070941","1","1","1","1","1","1","1","1","1"
"260002","img/object_images/Witchhat01.jpg","img/object_images/funnel01.jpg","img/object_images/dresser04.jpg","1","1","1","1","0","0","0.665845300070941","0.647186900023371","0.644329899922013","1","1","1","1","1","1","1","1","1"
"260002","img/object_images/dresser04.jpg","img/object_images/Witchhat01.jpg","img/object_images/ironing_table01.jpg","1","1","1","0","1","0","0.644329899922013","0.665845300070941","0.539714500075206","1","1","1","1","1","1","1","1","1"
"260002","img/object_images/ironing_table01.jpg","img/object_images/dresser04.jpg","img/object_images/paper_cup01.jpg","1","1","1","0","0","0","0.539714500075206","0.644329899922013","0.638401499949396","1","1","1","1","1","1","1","1","1"
"260002","img/object_images/paper_cup01.jpg","img/object_images/ironing_table01.jpg","img/object_images/measuring_tape02.jpg","1","1","1","0","0","1","0.638401499949396","0.539714500075206","0.57900459994562","1","1","1","1","1","1","1","1","1"
"260002","img/object_images/measuring_tape02.jpg","img/object_images/paper_cup01.jpg","img/object_images/couch03.jpg","1","1","1","1","0","0","0.57900459994562","0.638401499949396","0.668451099889353","1","1","1","1","1","1","1","1","1"
"260002","img/object_images/couch03.jpg","img/object_images/measuring_tape02.jpg","img/object_images/grater01.jpg","1","1","1","0","1","1","0.668451099889353","0.57900459994562","0.747385800117627","1","1","1","1","1","1","1","1","1"
"260002","img/object_images/grater01.jpg","img/object_images/couch03.jpg","img/object_images/camera07.jpg","1","1","1","1","0","1","0.747385800117627","0.668451099889353","0.62211070000194","1","1","1","1","1","1","1","1","1"
"260002","img/object_images/camera07.jpg","img/object_images/grater01.jpg","img/object_images/bow_tie01.jpg","1","1","1","1","1","0","0.62211070000194","0.747385800117627","0.65262069995515","1","1","1","1","1","1","1","1","1"
"260002","img/object_images/bow_tie01.jpg","img/object_images/camera07.jpg","img/object_images/balloon01.jpg","1","1","1","0","1","0","0.65262069995515","0.62211070000194","0.628848700085655","1","1","1","1","1","1","1","1","1"
"260002","img/object_images/balloon01.jpg","img/object_images/bow_tie01.jpg","img/object_images/jewelry01.jpg","1","1","1","0","0","1","0.628848700085655","0.65262069995515","0.611151299905032","1","1","1","1","1","1","1","1","1"
"260002","img/object_images/jewelry01.jpg","img/object_images/balloon01.jpg","img/object_images/gift_box01.jpg","1","1","1","1","0","1","0.611151299905032","0.628848700085655","0.566469499841332","1","1","1","1","1","1","1","1","1"
"260002","img/object_images/gift_box01.jpg","img/object_images/jewelry01.jpg","img/object_images/socks02.jpg","1","1","1","1","1","0","0.566469499841332","0.611151299905032","0.679833200061694","1","1","1","1","1","1","1","1","1"
"260002","img/object_images/socks02.jpg","img/object_images/gift_box01.jpg","img/object_images/lawn_mower01.jpg","1","1","1","0","1","1","0.679833200061694","0.566469499841332","0.675896900007501","1","1","1","1","1","1","1","1","1"
"260002","img/object_images/lawn_mower01.jpg","img/object_images/socks02.jpg",NA,"1","1",NA,"1","0",NA,"0.675896900007501","0.679833200061694",NA,"1","1",NA,"1","1",NA,"1","1",NA
"260002","img/object_images/cup03.jpg",NA,"img/object_images/jewelry09.jpg","1",NA,"1","1",NA,"1","0.646693099988624",NA,"0.48177279997617","1",NA,"1","1",NA,"1","1",NA,"1"
"260002","img/object_images/jewelry09.jpg","img/object_images/cup03.jpg","img/object_images/fire_extinguisher01.jpg","1","1","1","1","1","0","0.48177279997617","0.646693099988624","0.578566699987277","1","1","1","1","1","1","1","1","1"
"260002","img/object_images/fire_extinguisher01.jpg","img/object_images/jewelry09.jpg","img/object_images/tool08.jpg","1","1","1","0","1","0","0.578566699987277","0.48177279997617","0.388767499942333","1","1","1","1","1","1","1","1","1"
"260002","img/object_images/tool08.jpg","img/object_images/fire_extinguisher01.jpg","img/object_images/bicycle_lock01.jpg","1","1","1","0","0","0","0.388767499942333","0.578566699987277","0.400612900033593","1","1","1","1","1","1","1","1","1"
"260002","img/object_images/bicycle_lock01.jpg","img/object_images/tool08.jpg","img/object_images/glasses06.jpg","1","1","1","0","0","1","0.400612900033593","0.388767499942333","0.468411799985915","1","1","1","1","1","1","1","1","1"
"260002","img/object_images/glasses06.jpg","img/object_images/bicycle_lock01.jpg","img/object_images/tray01.jpg","1","1","1","1","0","1","0.468411799985915","0.400612900033593","0.470857999986038","1","1","1","1","1","1","1","1","1"
"260002","img/object_images/tray01.jpg","img/object_images/glasses06.jpg","img/object_images/exfoliater_brush01.jpg","1","1","1","1","1","0","0.470857999986038","0.468411799985915","0.539807200198993","1","1","1","1","1","1","1","1","1"
"260002","img/object_images/exfoliater_brush01.jpg","img/object_images/tray01.jpg","img/object_images/colander01.jpg","1","1","1","0","1","0","0.539807200198993","0.470857999986038","0.568661000113934","1","1","1","1","1","1","1","1","1"
"260002","img/object_images/colander01.jpg","img/object_images/exfoliater_brush01.jpg","img/object_images/cellphone02.jpg","1","1","1","0","0","1","0.568661000113934","0.539807200198993","0.396005499875173","1","1","1","1","1","1","1","1","1"
"260002","img/object_images/cellphone02.jpg","img/object_images/colander01.jpg","img/object_images/blanket01.jpg","1","1","1","1","0","1","0.396005499875173","0.568661000113934","0.363014600006863","1","1","1","1","1","1","1","1","1"
"260002","img/object_images/blanket01.jpg","img/object_images/cellphone02.jpg","img/object_images/speaker01.jpg","1","1","0","1","1","1","0.363014600006863","0.396005499875173","0.407901699887589","1","1","1","1","1","1","1","1","1"
"260002","img/object_images/speaker01.jpg","img/object_images/blanket01.jpg","img/object_images/TrashCan02.jpg","0","1","1","1","1","1","0.407901699887589","0.363014600006863","0.577889800071716","1","1","1","1","1","1","1","1","1"
"260002","img/object_images/TrashCan02.jpg","img/object_images/speaker01.jpg","img/object_images/book01.jpg","1","0","1","1","1","1","0.577889800071716","0.407901699887589","0.428125000093132","1","1","1","1","1","1","1","1","1"
"260002","img/object_images/book01.jpg","img/object_images/TrashCan02.jpg","img/object_images/yo_yo01.jpg","1","1","1","1","1","0","0.428125000093132","0.577889800071716","0.738823099993169","1","1","1","1","1","1","1","1","1"
"260002","img/object_images/yo_yo01.jpg","img/object_images/book01.jpg","img/object_images/handcuffs01.jpg","1","1","1","0","1","0","0.738823099993169","0.428125000093132","0.548830899875611","1","1","1","1","1","1","1","1","1"
"260002","img/object_images/handcuffs01.jpg","img/object_images/yo_yo01.jpg","img/object_images/projector01.jpg","1","1","1","0","0","0","0.548830899875611","0.738823099993169","0.584904600167647","1","1","1","1","1","1","1","1","1"
"260002","img/object_images/projector01.jpg","img/object_images/handcuffs01.jpg","img/object_images/hole_puncher01.jpg","1","1","1","0","0","1","0.584904600167647","0.548830899875611","0.549691500142217","1","1","1","1","1","1","1","1","1"
"260002","img/object_images/hole_puncher01.jpg","img/object_images/projector01.jpg","img/object_images/lighter01.jpg","1","1","1","1","0","1","0.549691500142217","0.584904600167647","0.585372400004417","1","1","1","1","1","1","1","1","1"
"260002","img/object_images/lighter01.jpg","img/object_images/hole_puncher01.jpg","img/object_images/Pottery01.jpg","1","1","1","1","1","0","0.585372400004417","0.549691500142217","0.574450899846852","1","1","1","1","1","1","1","1","1"
"260002","img/object_images/Pottery01.jpg","img/object_images/lighter01.jpg","img/object_images/hair_clips01.jpg","1","1","0","0","1","1","0.574450899846852","0.585372400004417","0.538680099882185","1","1","1","1","1","1","1","1","1"
"260002","img/object_images/hair_clips01.jpg","img/object_images/Pottery01.jpg","img/object_images/ring03.jpg","0","1","1","1","0","1","0.538680099882185","0.574450899846852","0.744274300057441","1","1","1","1","1","1","1","1","1"
"260002","img/object_images/ring03.jpg","img/object_images/hair_clips01.jpg","img/object_images/Sprayer01.jpg","1","0","0","1","1","0","0.744274300057441","0.538680099882185","0.747829800006002","1","1","1","1","1","1","1","1","1"
"260002","img/object_images/Sprayer01.jpg","img/object_images/ring03.jpg","img/object_images/pan01.jpg","0","1","1","0","1","1","0.747829800006002","0.744274300057441","0.706404199823737","1","1","1","1","1","1","1","1","1"
"260002","img/object_images/pan01.jpg","img/object_images/Sprayer01.jpg","img/object_images/purse01.jpg","1","0","1","1","0","1","0.706404199823737","0.747829800006002","0.537939599948004","1","1","1","1","1","1","1","1","1"
"260002","img/object_images/purse01.jpg","img/object_images/pan01.jpg","img/object_images/Traffic Sign 01.jpg","1","1","1","1","1","0","0.537939599948004","0.706404199823737","0.537857000017539","1","1","1","1","1","1","1","1","1"
"260002","img/object_images/Traffic Sign 01.jpg","img/object_images/purse01.jpg","img/object_images/glasses07.jpg","1","1","1","0","1","1","0.537857000017539","0.537939599948004","0.450731599936262","1","1","1","1","1","1","1","1","1"
"260002","img/object_images/glasses07.jpg","img/object_images/Traffic Sign 01.jpg","img/object_images/gift_box04.jpg","1","1","1","1","0","0","0.450731599936262","0.537857000017539","0.552002100041136","1","1","1","1","1","1","1","1","1"
"260002","img/object_images/gift_box04.jpg","img/object_images/glasses07.jpg","img/object_images/faucet01.jpg","1","1","1","0","1","0","0.552002100041136","0.450731599936262","0.648408999899402","1","1","1","1","1","1","1","1","1"
"260002","img/object_images/faucet01.jpg","img/object_images/gift_box04.jpg","img/object_images/tool07.jpg","1","1","1","0","0","0","0.648408999899402","0.552002100041136","0.643694900209084","1","1","1","1","1","1","1","1","1"
"260002","img/object_images/tool07.jpg","img/object_images/faucet01.jpg","img/object_images/Kitchen_Towel.jpg","1","1","1","0","0","0","0.643694900209084","0.648408999899402","0.740859899902716","1","1","1","1","1","1","1","1","1"
"260002","img/object_images/Kitchen_Towel.jpg","img/object_images/tool07.jpg","img/object_images/basket02.jpg","1","1","1","0","0","0","0.740859899902716","0.643694900209084","0.605821900069714","1","1","1","1","1","1","1","1","1"
"260002","img/object_images/basket02.jpg","img/object_images/Kitchen_Towel.jpg",NA,"1","1",NA,"0","0",NA,"0.605821900069714","0.740859899902716",NA,"1","1",NA,"1","1",NA,"1","1",NA
"260002","img/object_images/bottle12.jpg",NA,"img/object_images/brief_case01.jpg","1",NA,"1","1",NA,"0","0.648605599999428",NA,"0.498673999914899","1",NA,"1","1",NA,"1","1",NA,"1"
"260002","img/object_images/brief_case01.jpg","img/object_images/bottle12.jpg","img/object_images/pitcher03.jpg","1","1","1","0","1","1","0.498673999914899","0.648605599999428","0.395413199905306","1","1","1","1","1","1","1","1","1"
"260002","img/object_images/pitcher03.jpg","img/object_images/brief_case01.jpg","img/object_images/container01.jpg","1","1","1","1","0","0","0.395413199905306","0.498673999914899","0.478672300232574","1","1","1","1","1","1","1","1","1"
"260002","img/object_images/container01.jpg","img/object_images/pitcher03.jpg","img/object_images/brief_case02.jpg","1","1","1","0","1","1","0.478672300232574","0.395413199905306","0.518348299898207","1","1","1","1","1","1","1","1","1"
"260002","img/object_images/brief_case02.jpg","img/object_images/container01.jpg","img/object_images/ball01.jpg","1","1","1","1","0","1","0.518348299898207","0.478672300232574","0.400634600082412","1","1","1","1","1","1","1","1","1"
"260002","img/object_images/ball01.jpg","img/object_images/brief_case02.jpg","img/object_images/helmet05.jpg","1","1","1","1","1","1","0.400634600082412","0.518348299898207","0.384011799935251","1","1","1","1","1","1","1","1","1"
"260002","img/object_images/helmet05.jpg","img/object_images/ball01.jpg","img/object_images/decorative02.jpg","1","1","1","1","1","0","0.384011799935251","0.400634600082412","0.417980900034308","1","1","1","1","1","1","1","1","1"
"260002","img/object_images/decorative02.jpg","img/object_images/helmet05.jpg","img/object_images/Woopie01.jpg","1","1","1","0","1","1","0.417980900034308","0.384011799935251","0.480274100089446","1","1","1","1","1","1","1","1","1"
"260002","img/object_images/Woopie01.jpg","img/object_images/decorative02.jpg","img/object_images/guitar01.jpg","1","1","1","1","0","1","0.480274100089446","0.417980900034308","0.463657499989495","1","1","1","1","1","1","1","1","1"
"260002","img/object_images/guitar01.jpg","img/object_images/Woopie01.jpg","img/object_images/broom01.jpg","1","1","1","1","1","1","0.463657499989495","0.480274100089446","0.592430700082332","1","1","1","1","1","1","1","1","1"
"260002","img/object_images/broom01.jpg","img/object_images/guitar01.jpg","img/object_images/pot01.jpg","1","1","1","1","1","0","0.592430700082332","0.463657499989495","0.52528030006215","1","1","1","1","1","1","1","1","1"
"260002","img/object_images/pot01.jpg","img/object_images/broom01.jpg","img/object_images/razor03.jpg","1","1","1","0","1","0","0.52528030006215","0.592430700082332","0.546685199951753","1","1","1","1","1","1","1","1","1"
"260002","img/object_images/razor03.jpg","img/object_images/pot01.jpg","img/object_images/drone02.jpg","1","1","1","0","0","0","0.546685199951753","0.52528030006215","0.587683300022036","1","1","1","1","1","1","1","1","1"
"260002","img/object_images/drone02.jpg","img/object_images/razor03.jpg","img/object_images/ironing_table02.jpg","1","1","1","0","0","0","0.587683300022036","0.546685199951753","0.452589800115675","1","1","1","1","1","1","1","1","1"
"260002","img/object_images/ironing_table02.jpg","img/object_images/drone02.jpg","img/object_images/car02.jpg","1","1","1","0","0","0","0.452589800115675","0.587683300022036","0.569143600063398","1","1","1","1","1","1","1","1","1"
"260002","img/object_images/car02.jpg","img/object_images/ironing_table02.jpg","img/object_images/chair01.jpg","1","1","0","0","0","0","0.569143600063398","0.452589800115675","0.475381199968979","1","1","1","1","1","1","1","1","1"
"260002","img/object_images/chair01.jpg","img/object_images/car02.jpg","img/object_images/lantern01.jpg","0","1","1","0","0","1","0.475381199968979","0.569143600063398","0.385915599996224","1","1","1","1","1","1","1","1","1"
"260002","img/object_images/lantern01.jpg","img/object_images/chair01.jpg","img/object_images/Wisk01.jpg","1","0","1","1","0","1","0.385915599996224","0.475381199968979","0.448659399989992","1","1","1","1","1","1","1","1","1"
"260002","img/object_images/Wisk01.jpg","img/object_images/lantern01.jpg","img/object_images/hat02.jpg","1","1","0","1","1","0","0.448659399989992","0.385915599996224","0.543569499859586","1","1","1","1","1","1","1","1","1"
"260002","img/object_images/hat02.jpg","img/object_images/Wisk01.jpg","img/object_images/video_game06.jpg","0","1","1","0","1","0","0.543569499859586","0.448659399989992","0.547125699929893","1","1","1","1","1","1","1","1","1"
"260002","img/object_images/video_game06.jpg","img/object_images/hat02.jpg","img/object_images/cochlear_implant01.jpg","1","0","1","0","0","0","0.547125699929893","0.543569499859586","0.669384599896148","1","1","1","1","1","1","1","1","1"
"260002","img/object_images/cochlear_implant01.jpg","img/object_images/video_game06.jpg","img/object_images/basketball_hoop02.jpg","1","1","1","0","0","0","0.669384599896148","0.547125699929893","0.593218100024387","1","1","1","1","1","1","1","1","1"
"260002","img/object_images/basketball_hoop02.jpg","img/object_images/cochlear_implant01.jpg","img/object_images/airfryer01.jpg","1","1","1","0","0","0","0.593218100024387","0.669384599896148","0.536195300053805","1","1","1","1","1","1","1","1","1"
"260002","img/object_images/airfryer01.jpg","img/object_images/basketball_hoop02.jpg","img/object_images/soap01.jpg","1","1","0","0","0","0","0.536195300053805","0.593218100024387","0.517947500105947","1","1","1","1","1","1","1","1","1"
"260002","img/object_images/soap01.jpg","img/object_images/airfryer01.jpg","img/object_images/lamp01.jpg","0","1","1","0","0","1","0.517947500105947","0.536195300053805","0.412972899852321","1","1","1","1","1","1","1","1","1"
"260002","img/object_images/lamp01.jpg","img/object_images/soap01.jpg","img/object_images/Recycling01.jpg","1","0","1","1","0","1","0.412972899852321","0.517947500105947","0.648808999918401","1","1","1","1","1","1","1","1","1"
"260002","img/object_images/Recycling01.jpg","img/object_images/lamp01.jpg","img/object_images/gloves05.jpg","1","1","1","1","1","1","0.648808999918401","0.412972899852321","0.568907000124454","1","1","1","1","1","1","1","1","1"
"260002","img/object_images/gloves05.jpg","img/object_images/Recycling01.jpg","img/object_images/couch04.jpg","1","1","1","1","1","1","0.568907000124454","0.648808999918401","0.531116500031203","1","1","1","1","1","1","1","1","1"
"260002","img/object_images/couch04.jpg","img/object_images/gloves05.jpg","img/object_images/toy_train02.jpg","1","1","1","1","1","1","0.531116500031203","0.568907000124454","0.432768099941313","1","1","1","1","1","1","1","1","1"
"260002","img/object_images/toy_train02.jpg","img/object_images/couch04.jpg","img/object_images/tie01.jpg","1","1","1","1","1","0","0.432768099941313","0.531116500031203","0.543643400073051","1","1","1","1","1","1","1","1","1"
"260002","img/object_images/tie01.jpg","img/object_images/toy_train02.jpg","img/object_images/toilet_paper01.jpg","1","1","1","0","1","1","0.543643400073051","0.432768099941313","0.871499700006098","1","1","1","1","1","1","1","1","1"
"260002","img/object_images/toilet_paper01.jpg","img/object_images/tie01.jpg",NA,"1","1",NA,"1","0",NA,"0.871499700006098","0.543643400073051",NA,"1","1",NA,"1","1",NA,"1","1",NA
"260002","img/object_images/bag_pipes01.jpg",NA,"img/object_images/Violin01.jpg","1",NA,"1","1",NA,"0","0.963946399977431",NA,"0.417356199817732","1",NA,"1","1",NA,"1","1",NA,"1"
"260002","img/object_images/Violin01.jpg","img/object_images/bag_pipes01.jpg","img/object_images/shoes12.jpg","1","1","1","0","1","1","0.417356199817732","0.963946399977431","0.54296820005402","1","1","1","1","1","1","1","1","1"
"260002","img/object_images/shoes12.jpg","img/object_images/Violin01.jpg","img/object_images/pen01.jpg","1","1","1","1","0","0","0.54296820005402","0.417356199817732","0.563752299873158","1","1","1","1","1","1","1","1","1"
"260002","img/object_images/pen01.jpg","img/object_images/shoes12.jpg","img/object_images/bell03.jpg","1","1","1","0","1","0","0.563752299873158","0.54296820005402","0.484260499943048","1","1","1","1","1","1","1","1","1"
"260002","img/object_images/bell03.jpg","img/object_images/pen01.jpg","img/object_images/clip04.jpg","1","1","1","0","0","1","0.484260499943048","0.563752299873158","0.410960200009868","1","1","1","1","1","1","1","1","1"
"260002","img/object_images/clip04.jpg","img/object_images/bell03.jpg","img/object_images/blender01.jpg","1","1","1","1","0","0","0.410960200009868","0.484260499943048","0.564606399973854","1","1","1","1","1","1","1","1","1"
"260002","img/object_images/blender01.jpg","img/object_images/clip04.jpg","img/object_images/floss02.jpg","1","1","1","0","1","1","0.564606399973854","0.410960200009868","0.413371299859136","1","1","1","1","1","1","1","1","1"
"260002","img/object_images/floss02.jpg","img/object_images/blender01.jpg","img/object_images/tripod01.jpg","1","1","1","1","0","1","0.413371299859136","0.564606399973854","0.434242099989206","1","1","1","1","1","1","1","1","1"
"260002","img/object_images/tripod01.jpg","img/object_images/floss02.jpg","img/object_images/computer_mouse01.jpg","1","1","1","1","1","1","0.434242099989206","0.413371299859136","0.502802100032568","1","1","1","1","1","1","1","1","1"
"260002","img/object_images/computer_mouse01.jpg","img/object_images/tripod01.jpg","img/object_images/hair_brush01.jpg","1","1","1","1","1","1","0.502802100032568","0.434242099989206","0.367826800094917","1","1","1","1","1","1","1","1","1"
"260002","img/object_images/hair_brush01.jpg","img/object_images/computer_mouse01.jpg","img/object_images/box03.jpg","1","1","0","1","1","0","0.367826800094917","0.502802100032568","0.479137799935415","1","1","1","1","1","1","1","1","1"
"260002","img/object_images/box03.jpg","img/object_images/hair_brush01.jpg","img/object_images/couch01.jpg","0","1","1","0","1","0","0.479137799935415","0.367826800094917","0.555207900004461","1","1","1","1","1","1","1","1","1"
"260002","img/object_images/couch01.jpg","img/object_images/box03.jpg","img/object_images/toothbrush01.jpg","1","0","1","0","0","0","0.555207900004461","0.479137799935415","0.59166599996388","1","1","1","1","1","1","1","1","1"
"260002","img/object_images/toothbrush01.jpg","img/object_images/couch01.jpg","img/object_images/rock02.jpg","1","1","1","0","0","0","0.59166599996388","0.555207900004461","0.564429899910465","1","1","1","1","1","1","1","1","1"
"260002","img/object_images/rock02.jpg","img/object_images/toothbrush01.jpg","img/object_images/scarf01.jpg","1","1","1","0","0","1","0.564429899910465","0.59166599996388","0.462814499856904","1","1","1","1","1","1","1","1","1"
"260002","img/object_images/scarf01.jpg","img/object_images/rock02.jpg","img/object_images/chain01.jpg","1","1","1","1","0","0","0.462814499856904","0.564429899910465","0.590512500144541","1","1","1","1","1","1","1","1","1"
"260002","img/object_images/chain01.jpg","img/object_images/scarf01.jpg","img/object_images/toy01.jpg","1","1","1","0","1","1","0.590512500144541","0.462814499856904","0.729601799976081","1","1","1","1","1","1","1","1","1"
"260002","img/object_images/toy01.jpg","img/object_images/chain01.jpg","img/object_images/video_game03.jpg","1","1","1","1","0","1","0.729601799976081","0.590512500144541","0.568093999987468","1","1","1","1","1","1","1","1","1"
"260002","img/object_images/video_game03.jpg","img/object_images/toy01.jpg","img/object_images/computer_mouse02.jpg","1","1","1","1","1","0","0.568093999987468","0.729601799976081","0.575223500141874","1","1","1","1","1","1","1","1","1"
"260002","img/object_images/computer_mouse02.jpg","img/object_images/video_game03.jpg","img/object_images/airfryer02.jpg","1","1","1","0","1","1","0.575223500141874","0.568093999987468","0.593779799994081","1","1","1","1","1","1","1","1","1"
"260002","img/object_images/airfryer02.jpg","img/object_images/computer_mouse02.jpg","img/object_images/drone01.jpg","1","1","1","1","0","1","0.593779799994081","0.575223500141874","0.541857899865136","1","1","1","1","1","1","1","1","1"
"260002","img/object_images/drone01.jpg","img/object_images/airfryer02.jpg","img/object_images/mail_box02.jpg","1","1","1","1","1","1","0.541857899865136","0.593779799994081","0.500701599987224","1","1","1","1","1","1","1","1","1"
"260002","img/object_images/mail_box02.jpg","img/object_images/drone01.jpg","img/object_images/book02.jpg","1","1","1","1","1","1","0.500701599987224","0.541857899865136","0.484175099991262","1","1","1","1","1","1","1","1","1"
"260002","img/object_images/book02.jpg","img/object_images/mail_box02.jpg","img/object_images/egg_slicer01.jpg","1","1","1","1","1","1","0.484175099991262","0.500701599987224","0.500538399908692","1","1","1","1","1","1","1","1","1"
"260002","img/object_images/egg_slicer01.jpg","img/object_images/book02.jpg","img/object_images/skate_board01.jpg","1","1","1","1","1","0","0.500538399908692","0.484175099991262","0.624692399986088","1","1","1","1","1","1","1","1","1"
"260002","img/object_images/skate_board01.jpg","img/object_images/egg_slicer01.jpg","img/object_images/soap03.jpg","1","1","1","0","1","0","0.624692399986088","0.500538399908692","0.801559400046244","1","1","1","1","1","1","1","1","1"
"260002","img/object_images/soap03.jpg","img/object_images/skate_board01.jpg","img/object_images/chair06.jpg","1","1","1","0","0","0","0.801559400046244","0.624692399986088","0.41937640006654","1","1","1","1","1","1","1","1","1"
"260002","img/object_images/chair06.jpg","img/object_images/soap03.jpg","img/object_images/fork02.jpg","1","1","0","0","0","0","0.41937640006654","0.801559400046244","0.317874499829486","1","1","1","1","1","1","1","1","1"
"260002","img/object_images/fork02.jpg","img/object_images/chair06.jpg","img/object_images/pitcher09.jpg","0","1","1","0","0","1","0.317874499829486","0.41937640006654","0.685515799792483","1","1","1","1","1","1","1","1","1"
"260002","img/object_images/pitcher09.jpg","img/object_images/fork02.jpg","img/object_images/Trowel01.jpg","1","0","1","1","0","0","0.685515799792483","0.317874499829486","0.552983799949288","1","1","1","1","1","1","1","1","1"
"260002","img/object_images/Trowel01.jpg","img/object_images/pitcher09.jpg","img/object_images/tool06.jpg","1","1","0","0","1","0","0.552983799949288","0.685515799792483","0.494967000093311","1","1","1","1","1","1","1","1","1"
"260002","img/object_images/tool06.jpg","img/object_images/Trowel01.jpg",NA,"0","1",NA,"0","0",NA,"0.494967000093311","0.552983799949288",NA,"1","1",NA,"1","1",NA,"1","1",NA
"260002","img/object_images/watch01.jpg",NA,"img/object_images/Vacuum01.jpg","0",NA,"1","0",NA,"0","1.22941790008917",NA,"0.703440800076351","1",NA,"1","1",NA,"1","1",NA,"2"
"260002","img/object_images/Vacuum01.jpg","img/object_images/watch01.jpg","img/object_images/acoustic_capo01.jpg","1","0","1","0","0","1","0.703440800076351","1.22941790008917","0.681552699999884","1","1","1","1","1","1","2","1","1"
"260002","img/object_images/acoustic_capo01.jpg","img/object_images/Vacuum01.jpg","img/object_images/pot01 (1).jpg","1","1","0","1","0","0","0.681552699999884","0.703440800076351","0.477854499826208","1","1","1","1","1","1","1","2","1"
"260002","img/object_images/pot01 (1).jpg","img/object_images/acoustic_capo01.jpg","img/object_images/Ring02.jpg","0","1","1","0","1","0","0.477854499826208","0.681552699999884","0.320629799971357","1","1","1","1","1","1","1","1","1"
"260002","img/object_images/Ring02.jpg","img/object_images/pot01 (1).jpg","img/object_images/stapler.jpg","1","0","1","0","0","1","0.320629799971357","0.477854499826208","0.356812899932265","1","1","1","1","1","1","1","1","1"
"260002","img/object_images/stapler.jpg","img/object_images/Ring02.jpg","img/object_images/bird_house02.jpg","1","1","1","1","0","1","0.356812899932265","0.320629799971357","0.275835900101811","1","1","1","1","1","1","1","1","1"
"260002","img/object_images/bird_house02.jpg","img/object_images/stapler.jpg","img/object_images/MetalWire01.jpg","1","1","1","1","1","0","0.275835900101811","0.356812899932265","0.26867499994114","1","1","1","1","1","1","1","1","1"
"260002","img/object_images/MetalWire01.jpg","img/object_images/bird_house02.jpg","img/object_images/toy04.jpg","1","1","0","0","1","0","0.26867499994114","0.275835900101811","0.334208899876103","1","1","1","1","1","1","1","1","1"
"260002","img/object_images/toy04.jpg","img/object_images/MetalWire01.jpg","img/object_images/ornament01.jpg","0","1","1","0","0","1","0.334208899876103","0.26867499994114","0.31123029999435","1","1","1","1","1","1","1","1","1"
"260002","img/object_images/ornament01.jpg","img/object_images/toy04.jpg","img/object_images/sink01.jpg","1","0","0","1","0","0","0.31123029999435","0.334208899876103","0.379090500064194","1","1","1","1","1","1","1","1","1"
"260002","img/object_images/sink01.jpg","img/object_images/ornament01.jpg","img/object_images/bow01.jpg","0","1","1","0","1","1","0.379090500064194","0.31123029999435","0.417108600027859","1","1","1","1","1","1","1","1","1"
"260002","img/object_images/bow01.jpg","img/object_images/sink01.jpg","img/object_images/Tin01.jpg","1","0","1","1","0","1","0.417108600027859","0.379090500064194","0.275300200097263","1","1","1","1","1","1","1","1","1"
"260002","img/object_images/Tin01.jpg","img/object_images/bow01.jpg","img/object_images/towel02.jpg","1","1","1","1","1","1","0.275300200097263","0.417108600027859","0.320883299922571","1","1","1","1","1","1","1","1","1"
"260002","img/object_images/towel02.jpg","img/object_images/Tin01.jpg","img/object_images/mirror01.jpg","1","1","1","1","1","1","0.320883299922571","0.275300200097263","0.293305200058967","1","1","1","1","1","1","1","1","1"
"260002","img/object_images/mirror01.jpg","img/object_images/towel02.jpg","img/object_images/dart01.jpg","1","1","1","1","1","0","0.293305200058967","0.320883299922571","0.29181189998053","1","1","1","1","1","1","1","1","1"
"260002","img/object_images/dart01.jpg","img/object_images/mirror01.jpg","img/object_images/Stool01.jpg","1","1","0","0","1","0","0.29181189998053","0.293305200058967","0.255502499872819","1","1","1","1","1","1","1","1","1"
"260002","img/object_images/Stool01.jpg","img/object_images/dart01.jpg","img/object_images/frisbee01.jpg","0","1","1","0","0","1","0.255502499872819","0.29181189998053","0.443484400166199","1","1","1","1","1","1","1","1","1"
"260002","img/object_images/frisbee01.jpg","img/object_images/Stool01.jpg","img/object_images/toy03.jpg","1","0","1","1","0","1","0.443484400166199","0.255502499872819","0.347600399982184","1","1","1","1","1","1","1","1","1"
"260002","img/object_images/toy03.jpg","img/object_images/frisbee01.jpg","img/object_images/fridge03.jpg","1","1","1","1","1","0","0.347600399982184","0.443484400166199","0.308834800031036","1","1","1","1","1","1","1","1","1"
"260002","img/object_images/fridge03.jpg","img/object_images/toy03.jpg","img/object_images/helmet01.jpg","1","1","0","0","1","0","0.308834800031036","0.347600399982184","0.325211999937892","1","1","1","1","1","1","1","1","2"
"260002","img/object_images/helmet01.jpg","img/object_images/fridge03.jpg","img/object_images/shovel03.jpg","0","1","0","0","0","1","0.325211999937892","0.308834800031036",NA,"1","1","0","1","1","0","2","1","0"
"260002","img/object_images/shovel03.jpg","img/object_images/helmet01.jpg","img/object_images/jewel04.jpg","0","0","1","1","0","0",NA,"0.325211999937892","0.408477599965408","0","1","1","0","1","1","0","2","1"
"260002","img/object_images/jewel04.jpg","img/object_images/shovel03.jpg","img/object_images/tool09.jpg","1","0","1","0","1","1","0.408477599965408",NA,"0.37326980009675","1","0","1","1","0","1","1","0","1"
"260002","img/object_images/tool09.jpg","img/object_images/jewel04.jpg","img/object_images/crown02.jpg","1","1","1","1","0","1","0.37326980009675","0.408477599965408","0.403069199994206","1","1","1","1","1","1","1","1","1"
"260002","img/object_images/crown02.jpg","img/object_images/tool09.jpg","img/object_images/video_game07.jpg","1","1","0","1","1","1","0.403069199994206","0.37326980009675","0.441921799909323","1","1","1","1","1","1","1","1","1"
"260002","img/object_images/video_game07.jpg","img/object_images/crown02.jpg","img/object_images/guitar02.jpg","0","1","1","1","1","0","0.441921799909323","0.403069199994206","0.452935900073498","1","1","1","1","1","1","1","1","1"
"260002","img/object_images/guitar02.jpg","img/object_images/video_game07.jpg","img/object_images/judge_gavel01.jpg","1","0","1","0","1","1","0.452935900073498","0.441921799909323","0.448051000013947","1","1","1","1","1","1","1","1","1"
"260002","img/object_images/judge_gavel01.jpg","img/object_images/guitar02.jpg","img/object_images/gauze01.jpg","1","1","1","1","0","0","0.448051000013947","0.452935900073498","0.454091500025243","1","1","1","1","1","1","1","1","1"
"260002","img/object_images/gauze01.jpg","img/object_images/judge_gavel01.jpg","img/object_images/outlet01.jpg","1","1","0","0","1","0","0.454091500025243","0.448051000013947","0.666337000206113","1","1","1","1","1","1","1","1","1"
"260002","img/object_images/outlet01.jpg","img/object_images/gauze01.jpg","img/object_images/bottle05.jpg","0","1","0","0","0","0","0.666337000206113","0.454091500025243","0.523392600007355","1","1","1","1","1","1","1","1","1"
"260002","img/object_images/bottle05.jpg","img/object_images/outlet01.jpg","img/object_images/tool02.jpg","0","0","1","0","0","1","0.523392600007355","0.666337000206113","0.71868470008485","1","1","1","1","1","1","1","1","1"
"260002","img/object_images/tool02.jpg","img/object_images/bottle05.jpg",NA,"1","0",NA,"1","0",NA,"0.71868470008485","0.523392600007355",NA,"1","1",NA,"1","1",NA,"1","1",NA
"260002","img/object_images/boat04.jpg",NA,"img/object_images/camera03.jpg","0",NA,"1","0",NA,"0","0.928053900133818",NA,"0.548162899911404","1",NA,"1","1",NA,"1","1",NA,"1"
"260002","img/object_images/camera03.jpg","img/object_images/boat04.jpg","img/object_images/basket04.jpg","1","0","1","0","0","1","0.548162899911404","0.928053900133818","0.407698099967092","1","1","1","1","1","1","1","1","1"
"260002","img/object_images/basket04.jpg","img/object_images/camera03.jpg","img/object_images/knife02.jpg","1","1","0","1","0","0","0.407698099967092","0.548162899911404","0.534146899823099","1","1","1","1","1","1","1","1","1"
"260002","img/object_images/knife02.jpg","img/object_images/basket04.jpg","img/object_images/remote_controller01.jpg","0","1","1","0","1","1","0.534146899823099","0.407698099967092","0.451803699834272","1","1","1","1","1","1","1","1","1"
"260002","img/object_images/remote_controller01.jpg","img/object_images/knife02.jpg","img/object_images/blender02.jpg","1","0","1","1","0","1","0.451803699834272","0.534146899823099","0.393838099902496","1","1","1","1","1","1","1","1","1"
"260002","img/object_images/blender02.jpg","img/object_images/remote_controller01.jpg","img/object_images/paper_cup02.jpg","1","1","1","1","1","1","0.393838099902496","0.451803699834272","0.439166900003329","1","1","1","1","1","1","1","1","1"
"260002","img/object_images/paper_cup02.jpg","img/object_images/blender02.jpg","img/object_images/toy08.jpg","1","1","1","1","1","0","0.439166900003329","0.393838099902496","0.484605300007388","1","1","1","1","1","1","1","1","1"
"260002","img/object_images/toy08.jpg","img/object_images/paper_cup02.jpg","img/object_images/bottle07.jpg","1","1","0","0","1","1","0.484605300007388","0.439166900003329","0.528243200154975","1","1","1","1","1","1","1","1","2"
"260002","img/object_images/bottle07.jpg","img/object_images/toy08.jpg","img/object_images/hand_grip_exerciser01.jpg","0","1","1","1","0","0","0.528243200154975","0.484605300007388","0.597227399935946","1","1","1","1","1","1","2","1","1"
"260002","img/object_images/hand_grip_exerciser01.jpg","img/object_images/bottle07.jpg","img/object_images/tool18.jpg","1","0","1","0","1","0","0.597227399935946","0.528243200154975","0.616525399964303","1","1","1","1","1","1","1","2","1"
"260002","img/object_images/tool18.jpg","img/object_images/hand_grip_exerciser01.jpg","img/object_images/matches02.jpg","1","1","0","0","0","0","0.616525399964303","0.597227399935946","0.499142799992114","1","1","1","1","1","1","1","1","1"
"260002","img/object_images/matches02.jpg","img/object_images/tool18.jpg","img/object_images/dresser03.jpg","0","1","1","0","0","0","0.499142799992114","0.616525399964303","0.626115400111303","1","1","1","1","1","1","1","1","1"
"260002","img/object_images/dresser03.jpg","img/object_images/matches02.jpg","img/object_images/jacket04.jpg","1","0","1","0","0","0","0.626115400111303","0.499142799992114","0.551332500064746","1","1","1","1","1","1","1","1","1"
"260002","img/object_images/jacket04.jpg","img/object_images/dresser03.jpg","img/object_images/stereo02.jpg","1","1","1","0","0","0","0.551332500064746","0.626115400111303","0.46221479983069","1","1","1","1","1","1","1","1","1"
"260002","img/object_images/stereo02.jpg","img/object_images/jacket04.jpg","img/object_images/hoverboard01.jpg","1","1","1","0","0","0","0.46221479983069","0.551332500064746","0.509141199989244","1","1","1","1","1","1","1","1","1"
"260002","img/object_images/hoverboard01.jpg","img/object_images/stereo02.jpg","img/object_images/Statue01.jpg","1","1","1","0","0","1","0.509141199989244","0.46221479983069","0.424799800151959","1","1","1","1","1","1","1","1","1"
"260002","img/object_images/Statue01.jpg","img/object_images/hoverboard01.jpg","img/object_images/sponge03.jpg","1","1","1","1","0","1","0.424799800151959","0.509141199989244","0.49692100007087","1","1","1","1","1","1","1","1","1"
"260002","img/object_images/sponge03.jpg","img/object_images/Statue01.jpg","img/object_images/kite01.jpg","1","1","1","1","1","1","0.49692100007087","0.424799800151959","0.375219400040805","1","1","1","1","1","1","1","1","1"
"260002","img/object_images/kite01.jpg","img/object_images/sponge03.jpg","img/object_images/flashlight03.jpg","1","1","1","1","1","0","0.375219400040805","0.49692100007087","0.500467000063509","1","1","1","1","1","1","1","1","1"
"260002","img/object_images/flashlight03.jpg","img/object_images/kite01.jpg","img/object_images/curtain02.jpg","1","1","1","0","1","0","0.500467000063509","0.375219400040805","0.710563500178978","1","1","1","1","1","1","1","1","1"
"260002","img/object_images/curtain02.jpg","img/object_images/flashlight03.jpg","img/object_images/video_game01.jpg","1","1","1","0","0","1","0.710563500178978","0.500467000063509","0.578643799992278","1","1","1","1","1","1","1","1","1"
"260002","img/object_images/video_game01.jpg","img/object_images/curtain02.jpg","img/object_images/gloves02.jpg","1","1","1","1","0","0","0.578643799992278","0.710563500178978","0.486922499956563","1","1","1","1","1","1","1","1","1"
"260002","img/object_images/gloves02.jpg","img/object_images/video_game01.jpg","img/object_images/car01.jpg","1","1","1","0","1","1","0.486922499956563","0.578643799992278","0.399974300060421","1","1","1","1","1","1","1","1","1"
"260002","img/object_images/car01.jpg","img/object_images/gloves02.jpg","img/object_images/backpack01.jpg","1","1","1","1","0","0","0.399974300060421","0.486922499956563","0.466744899982587","1","1","1","1","1","1","1","1","1"
"260002","img/object_images/backpack01.jpg","img/object_images/car01.jpg","img/object_images/knit04.jpg","1","1","1","0","1","1","0.466744899982587","0.399974300060421","0.559915200108662","1","1","1","1","1","1","1","1","1"
"260002","img/object_images/knit04.jpg","img/object_images/backpack01.jpg","img/object_images/remover01.jpg","1","1","0","1","0","1","0.559915200108662","0.466744899982587","0.488861300051212","1","1","1","1","1","1","1","1","1"
"260002","img/object_images/remover01.jpg","img/object_images/knit04.jpg","img/object_images/shower_head01.jpg","0","1","1","1","1","1","0.488861300051212","0.559915200108662","0.605598299996927","1","1","1","1","1","1","1","1","1"
"260002","img/object_images/shower_head01.jpg","img/object_images/remover01.jpg","img/object_images/phone02.jpg","1","0","1","1","1","1","0.605598299996927","0.488861300051212","0.466699799988419","1","1","1","1","1","1","1","1","1"
"260002","img/object_images/phone02.jpg","img/object_images/shower_head01.jpg","img/object_images/mail_box01.jpg","1","1","1","1","1","0","0.466699799988419","0.605598299996927","0.752817600034177","1","1","1","1","1","1","1","1","1"
"260002","img/object_images/mail_box01.jpg","img/object_images/phone02.jpg","img/object_images/keyboard02.jpg","1","1","1","0","1","1","0.752817600034177","0.466699799988419","0.543353700079024","1","1","1","1","1","1","1","1","1"
"260002","img/object_images/keyboard02.jpg","img/object_images/mail_box01.jpg","img/object_images/knit03.jpg","1","1","1","1","0","1","0.543353700079024","0.752817600034177","0.601976700127125","1","1","1","1","1","1","1","1","1"
"260002","img/object_images/knit03.jpg","img/object_images/keyboard02.jpg",NA,"1","1",NA,"1","1",NA,"0.601976700127125","0.543353700079024",NA,"1","1",NA,"1","1",NA,"1","1",NA
"260002","img/object_images/satellite01.jpg",NA,"img/object_images/chair04.jpg","0",NA,"1","0",NA,"1","0.871957199880853",NA,"0.392532600089908","1",NA,"1","1",NA,"1","1",NA,"1"
"260002","img/object_images/chair04.jpg","img/object_images/satellite01.jpg","img/object_images/rock03.jpg","1","0","0","1","0","0","0.392532600089908","0.871957199880853","0.443865600042045","1","1","1","1","1","1","1","1","1"
"260002","img/object_images/rock03.jpg","img/object_images/chair04.jpg","img/object_images/ice_tray03.jpg","0","1","1","0","1","1","0.443865600042045","0.392532600089908","0.435928999911994","1","1","1","1","1","1","1","1","1"
"260002","img/object_images/ice_tray03.jpg","img/object_images/rock03.jpg","img/object_images/jewel01.jpg","1","0","1","1","0","0","0.435928999911994","0.443865600042045","0.48804480000399","1","1","1","1","1","1","1","1","1"
"260002","img/object_images/jewel01.jpg","img/object_images/ice_tray03.jpg","img/object_images/razor01.jpg","1","1","1","0","1","0","0.48804480000399","0.435928999911994","0.511218500090763","1","1","1","1","1","1","1","1","1"
"260002","img/object_images/razor01.jpg","img/object_images/jewel01.jpg","img/object_images/tool11.jpg","1","1","1","0","0","1","0.511218500090763","0.48804480000399","0.43102450016886","1","1","1","1","1","1","1","1","1"
"260002","img/object_images/tool11.jpg","img/object_images/razor01.jpg","img/object_images/shoes10.jpg","1","1","1","1","0","0","0.43102450016886","0.511218500090763","0.500569999916479","1","1","1","1","1","1","1","1","1"
"260002","img/object_images/shoes10.jpg","img/object_images/tool11.jpg","img/object_images/bag06.jpg","1","1","1","0","1","1","0.500569999916479","0.43102450016886","0.42766849999316","1","1","1","1","1","1","1","1","1"
"260002","img/object_images/bag06.jpg","img/object_images/shoes10.jpg","img/object_images/belt01.jpg","1","1","1","1","0","0","0.42766849999316","0.500569999916479","0.343319499865174","1","1","1","1","1","1","1","1","1"
"260002","img/object_images/belt01.jpg","img/object_images/bag06.jpg","img/object_images/screwdriver01.jpg","1","1","1","0","1","0","0.343319499865174","0.42766849999316","0.499572600005195","1","1","1","1","1","1","1","1","1"
"260002","img/object_images/screwdriver01.jpg","img/object_images/belt01.jpg","img/object_images/car04.jpg","1","1","1","0","0","0","0.499572600005195","0.343319499865174","0.591607599984854","1","1","1","1","1","1","1","1","1"
"260002","img/object_images/car04.jpg","img/object_images/screwdriver01.jpg","img/object_images/jewelry07.jpg","1","1","1","0","0","1","0.591607599984854","0.499572600005195","0.378301699878648","1","1","1","1","1","1","1","1","1"
"260002","img/object_images/jewelry07.jpg","img/object_images/car04.jpg","img/object_images/mask01.jpg","1","1","1","1","0","0","0.378301699878648","0.591607599984854","0.43852819991298","1","1","1","1","1","1","1","1","1"
"260002","img/object_images/mask01.jpg","img/object_images/jewelry07.jpg","img/object_images/cards01.jpg","1","1","1","0","1","0","0.43852819991298","0.378301699878648","0.519334399839863","1","1","1","1","1","1","1","1","1"
"260002","img/object_images/cards01.jpg","img/object_images/mask01.jpg","img/object_images/ribbon01.jpg","1","1","1","0","0","0","0.519334399839863","0.43852819991298","0.389060700079426","1","1","1","1","1","1","1","1","1"
"260002","img/object_images/ribbon01.jpg","img/object_images/cards01.jpg","img/object_images/fan05.jpg","1","1","1","0","0","0","0.389060700079426","0.519334399839863","0.494575399905443","1","1","1","1","1","1","1","1","1"
"260002","img/object_images/fan05.jpg","img/object_images/ribbon01.jpg","img/object_images/dress03.jpg","1","1","1","0","0","1","0.494575399905443","0.389060700079426","0.624068500008434","1","1","1","1","1","1","1","1","1"
"260002","img/object_images/dress03.jpg","img/object_images/fan05.jpg","img/object_images/slinky_toy01.jpg","1","1","1","1","0","1","0.624068500008434","0.494575399905443","0.595942700048909","1","1","1","1","1","1","1","1","1"
"260002","img/object_images/slinky_toy01.jpg","img/object_images/dress03.jpg","img/object_images/WitchHat02.jpg","1","1","1","1","1","1","0.595942700048909","0.624068500008434","0.477532699937001","1","1","1","1","1","1","1","1","1"
"260002","img/object_images/WitchHat02.jpg","img/object_images/slinky_toy01.jpg","img/object_images/MeasuringCup01.jpg","1","1","1","1","1","1","0.477532699937001","0.595942700048909","0.595095100114122","1","1","1","1","1","1","1","1","1"
"260002","img/object_images/MeasuringCup01.jpg","img/object_images/WitchHat02.jpg","img/object_images/cutting_board01.jpg","1","1","1","1","1","1","0.595095100114122","0.477532699937001","0.408567900070921","1","1","1","1","1","1","1","1","1"
"260002","img/object_images/cutting_board01.jpg","img/object_images/MeasuringCup01.jpg","img/object_images/hair_brush05.jpg","1","1","1","1","1","1","0.408567900070921","0.595095100114122","0.306344300042838","1","1","1","1","1","1","1","1","1"
"260002","img/object_images/hair_brush05.jpg","img/object_images/cutting_board01.jpg","img/object_images/toaster02.jpg","1","1","1","1","1","1","0.306344300042838","0.408567900070921","0.43287599994801","1","1","1","1","1","1","1","1","1"
"260002","img/object_images/toaster02.jpg","img/object_images/hair_brush05.jpg","img/object_images/lemon_squeezer02.jpg","1","1","1","1","1","1","0.43287599994801","0.306344300042838","0.471933899912983","1","1","1","1","1","1","1","1","1"
"260002","img/object_images/lemon_squeezer02.jpg","img/object_images/toaster02.jpg","img/object_images/car03.jpg","1","1","0","1","1","0","0.471933899912983","0.43287599994801","0.419529699953273","1","1","1","1","1","1","1","1","1"
"260002","img/object_images/car03.jpg","img/object_images/lemon_squeezer02.jpg","img/object_images/shower_head03.jpg","0","1","1","0","1","1","0.419529699953273","0.471933899912983","0.696494200034067","1","1","1","1","1","1","1","1","1"
"260002","img/object_images/shower_head03.jpg","img/object_images/car03.jpg","img/object_images/ladle02.jpg","1","0","1","1","0","0","0.696494200034067","0.419529699953273","0.539549000095576","1","1","1","1","1","1","1","1","1"
"260002","img/object_images/ladle02.jpg","img/object_images/shower_head03.jpg","img/object_images/key02.jpg","1","1","1","0","1","1","0.539549000095576","0.696494200034067","0.425149000016972","1","1","1","1","1","1","1","1","1"
"260002","img/object_images/key02.jpg","img/object_images/ladle02.jpg","img/object_images/binoculars03.jpg","1","1","1","1","0","1","0.425149000016972","0.539549000095576","0.4390436001122","1","1","1","1","1","1","1","1","1"
"260002","img/object_images/binoculars03.jpg","img/object_images/key02.jpg","img/object_images/yarn02.jpg","1","1","1","1","1","0","0.4390436001122","0.425149000016972","0.630042999982834","1","1","1","1","1","1","1","1","1"
"260002","img/object_images/yarn02.jpg","img/object_images/binoculars03.jpg","img/object_images/tv01.jpg","1","1","1","0","1","0","0.630042999982834","0.4390436001122","0.622403299901634","1","1","1","1","1","1","1","1","1"
"260002","img/object_images/tv01.jpg","img/object_images/yarn02.jpg",NA,"1","1",NA,"0","0",NA,"0.622403299901634","0.630042999982834",NA,"1","1",NA,"1","1",NA,"1","1",NA
"260002","img/object_images/lock01.jpg",NA,"img/object_images/trash_can03.jpg","0",NA,"1","0",NA,"1","0.447582999942824",NA,"0.388543300097808","1",NA,"1","1",NA,"1","1",NA,"1"
"260002","img/object_images/trash_can03.jpg","img/object_images/lock01.jpg","img/object_images/combs01.jpg","1","0","1","1","0","1","0.388543300097808","0.447582999942824","0.377845600014552","1","1","1","1","1","1","1","1","1"
"260002","img/object_images/combs01.jpg","img/object_images/trash_can03.jpg","img/object_images/stove01.jpg","1","1","1","1","1","0","0.377845600014552","0.388543300097808","0.489334400044754","1","1","1","1","1","1","1","1","1"
"260002","img/object_images/stove01.jpg","img/object_images/combs01.jpg","img/object_images/hair_dryer01.jpg","1","1","0","0","1","0","0.489334400044754","0.377845600014552","0.499239899916574","1","1","1","1","1","1","1","1","1"
"260002","img/object_images/hair_dryer01.jpg","img/object_images/stove01.jpg","img/object_images/backpack03.jpg","0","1","1","0","0","1","0.499239899916574","0.489334400044754","0.364916500169784","1","1","1","1","1","1","1","1","1"
"260002","img/object_images/backpack03.jpg","img/object_images/hair_dryer01.jpg","img/object_images/Vest02.jpg","1","0","1","1","0","0","0.364916500169784","0.499239899916574","0.637433500029147","1","1","1","1","1","1","1","1","1"
"260002","img/object_images/Vest02.jpg","img/object_images/backpack03.jpg","img/object_images/gift_box05.jpg","1","1","1","0","1","0","0.637433500029147","0.364916500169784","0.666874899994582","1","1","1","1","1","1","1","1","1"
"260002","img/object_images/gift_box05.jpg","img/object_images/Vest02.jpg","img/object_images/towels01.jpg","1","1","1","0","0","0","0.666874899994582","0.637433500029147","0.515192900085822","1","1","1","1","1","1","1","1","1"
"260002","img/object_images/towels01.jpg","img/object_images/gift_box05.jpg","img/object_images/toy05.jpg","1","1","1","0","0","0","0.515192900085822","0.666874899994582","0.546264000004157","1","1","1","1","1","1","1","1","1"
"260002","img/object_images/toy05.jpg","img/object_images/towels01.jpg","img/object_images/fan04.jpg","1","1","1","0","0","0","0.546264000004157","0.515192900085822","0.529005199903622","1","1","1","1","1","1","1","1","1"
"260002","img/object_images/fan04.jpg","img/object_images/toy05.jpg","img/object_images/helmet02.jpg","1","1","1","0","0","0","0.529005199903622","0.546264000004157","0.522478199796751","1","1","1","1","1","1","1","1","1"
"260002","img/object_images/helmet02.jpg","img/object_images/fan04.jpg","img/object_images/spatula02.jpg","1","1","1","0","0","1","0.522478199796751","0.529005199903622","0.468180899973959","1","1","1","1","1","1","1","1","1"
"260002","img/object_images/spatula02.jpg","img/object_images/helmet02.jpg","img/object_images/robe01.jpg","1","1","1","1","0","1","0.468180899973959","0.522478199796751","0.403232499957085","1","1","1","1","1","1","1","1","1"
"260002","img/object_images/robe01.jpg","img/object_images/spatula02.jpg","img/object_images/microphone03.jpg","1","1","1","1","1","1","0.403232499957085","0.468180899973959","0.400321600027382","1","1","1","1","1","1","1","1","1"
"260002","img/object_images/microphone03.jpg","img/object_images/robe01.jpg","img/object_images/accardion01.jpg","1","1","1","1","1","1","0.400321600027382","0.403232499957085","0.660036299843341","1","1","1","1","1","1","1","1","1"
"260002","img/object_images/accardion01.jpg","img/object_images/microphone03.jpg","img/object_images/umbrella01.jpg","1","1","1","1","1","0","0.660036299843341","0.400321600027382","0.366609600139782","1","1","1","1","1","1","1","1","1"
"260002","img/object_images/umbrella01.jpg","img/object_images/accardion01.jpg","img/object_images/vase01.jpg","1","1","1","0","1","0","0.366609600139782","0.660036299843341","0.592754800105467","1","1","1","1","1","1","1","1","1"
"260002","img/object_images/vase01.jpg","img/object_images/umbrella01.jpg","img/object_images/ball02.jpg","1","1","1","0","0","1","0.592754800105467","0.366609600139782","0.329488500021398","1","1","1","1","1","1","1","1","1"
"260002","img/object_images/ball02.jpg","img/object_images/vase01.jpg","img/object_images/pitcher05.jpg","1","1","1","1","0","0","0.329488500021398","0.592754800105467","0.572127100080252","1","1","1","1","1","1","1","1","1"
"260002","img/object_images/pitcher05.jpg","img/object_images/ball02.jpg","img/object_images/jewel03.jpg","1","1","1","0","1","1","0.572127100080252","0.329488500021398","0.311134400079027","1","1","1","1","1","1","1","1","1"
"260002","img/object_images/jewel03.jpg","img/object_images/pitcher05.jpg","img/object_images/shoes08.jpg","1","1","1","1","0","1","0.311134400079027","0.572127100080252","0.424784099915996","1","1","1","1","1","1","1","1","1"
"260002","img/object_images/shoes08.jpg","img/object_images/jewel03.jpg","img/object_images/laptop03.jpg","1","1","1","1","1","1","0.424784099915996","0.311134400079027","0.50170150003396","1","1","1","1","1","1","1","1","1"
"260002","img/object_images/laptop03.jpg","img/object_images/shoes08.jpg","img/object_images/surf_board01.jpg","1","1","1","1","1","1","0.50170150003396","0.424784099915996","0.57884359988384","1","1","1","1","1","1","1","1","1"
"260002","img/object_images/surf_board01.jpg","img/object_images/laptop03.jpg","img/object_images/Lint_Roller02.jpg","1","1","1","1","1","0","0.57884359988384","0.50170150003396","0.50888179987669","1","1","1","1","1","1","1","1","1"
"260002","img/object_images/Lint_Roller02.jpg","img/object_images/surf_board01.jpg","img/object_images/chess_piece01.jpg","1","1","0","0","1","0","0.50888179987669","0.57884359988384","0.452249699970707","1","1","1","1","1","1","1","1","1"
"260002","img/object_images/chess_piece01.jpg","img/object_images/Lint_Roller02.jpg","img/object_images/hair_brush02.jpg","0","1","1","0","0","0","0.452249699970707","0.50888179987669","0.506742300000042","1","1","1","1","1","1","1","1","1"
"260002","img/object_images/hair_brush02.jpg","img/object_images/chess_piece01.jpg","img/object_images/chair02.jpg","1","0","1","0","0","1","0.506742300000042","0.452249699970707","0.646396599942818","1","1","1","1","1","1","1","1","1"
"260002","img/object_images/chair02.jpg","img/object_images/hair_brush02.jpg","img/object_images/calculator01.jpg","1","1","1","1","0","1","0.646396599942818","0.506742300000042","0.511138400062919","1","1","1","1","1","1","1","1","1"
"260002","img/object_images/calculator01.jpg","img/object_images/chair02.jpg","img/object_images/laptop01.jpg","1","1","1","1","1","0","0.511138400062919","0.646396599942818","0.620464599924162","1","1","1","1","1","1","1","1","1"
"260002","img/object_images/laptop01.jpg","img/object_images/calculator01.jpg","img/object_images/trash_can05.jpg","1","1","1","0","1","1","0.620464599924162","0.511138400062919","0.814401099923998","1","1","1","1","1","1","1","1","1"
"260002","img/object_images/trash_can05.jpg","img/object_images/laptop01.jpg","img/object_images/bucket02.jpg","1","1","1","1","0","1","0.814401099923998","0.620464599924162","0.454233599826694","1","1","1","1","1","1","1","1","1"
"260002","img/object_images/bucket02.jpg","img/object_images/trash_can05.jpg",NA,"1","1",NA,"1","1",NA,"0.454233599826694","0.814401099923998",NA,"1","1",NA,"1","1",NA,"1","1",NA
"260002","img/object_images/floppy_disk02.jpg",NA,"img/object_images/wire02.jpg","1",NA,"1","0",NA,"1","0.748721400042996",NA,"0.442367899930105","1",NA,"1","1",NA,"1","2",NA,"1"
"260002","img/object_images/wire02.jpg","img/object_images/floppy_disk02.jpg","img/object_images/chess_piece02.jpg","1","1","1","1","0","1","0.442367899930105","0.748721400042996","0.451895900070667","1","1","1","1","1","1","1","2","1"
"260002","img/object_images/chess_piece02.jpg","img/object_images/wire02.jpg","img/object_images/knife04.jpg","1","1","1","1","1","1","0.451895900070667","0.442367899930105","0.420923100085929","1","1","1","1","1","1","1","1","1"
"260002","img/object_images/knife04.jpg","img/object_images/chess_piece02.jpg","img/object_images/pitcher01.jpg","1","1","0","1","1","0","0.420923100085929","0.451895900070667","0.426093100104481","1","1","1","1","1","1","1","1","1"
"260002","img/object_images/pitcher01.jpg","img/object_images/knife04.jpg","img/object_images/knit05.jpg","0","1","1","0","1","1","0.426093100104481","0.420923100085929","0.49824390001595","1","1","1","1","1","1","1","1","1"
"260002","img/object_images/knit05.jpg","img/object_images/pitcher01.jpg","img/object_images/chair05.jpg","1","0","0","1","0","0","0.49824390001595","0.426093100104481","0.476112100062892","1","1","1","1","1","1","1","1","1"
"260002","img/object_images/chair05.jpg","img/object_images/knit05.jpg","img/object_images/tennis_racket02.jpg","0","1","1","0","1","1","0.476112100062892","0.49824390001595","0.568162600044161","1","1","1","1","1","1","1","1","1"
"260002","img/object_images/tennis_racket02.jpg","img/object_images/chair05.jpg","img/object_images/crutches02.jpg","1","0","1","1","0","0","0.568162600044161","0.476112100062892","0.433498800033703","1","1","1","1","1","1","1","1","1"
"260002","img/object_images/crutches02.jpg","img/object_images/tennis_racket02.jpg","img/object_images/compass01.jpg","1","1","1","0","1","1","0.433498800033703","0.568162600044161","0.47380829998292","1","1","1","1","1","1","1","1","1"
"260002","img/object_images/compass01.jpg","img/object_images/crutches02.jpg","img/object_images/clock02.jpg","1","1","1","1","0","0","0.47380829998292","0.433498800033703","0.645662399940193","1","1","1","1","1","1","1","1","1"
"260002","img/object_images/clock02.jpg","img/object_images/compass01.jpg","img/object_images/bell02.jpg","1","1","1","0","1","0","0.645662399940193","0.47380829998292","0.51923150010407","1","1","1","1","1","1","1","1","1"
"260002","img/object_images/bell02.jpg","img/object_images/clock02.jpg","img/object_images/bottle01.jpg","1","1","0","0","0","0","0.51923150010407","0.645662399940193","0.351506699807942","1","1","1","1","1","1","1","1","1"
"260002","img/object_images/bottle01.jpg","img/object_images/bell02.jpg","img/object_images/pillows01.jpg","0","1","1","0","0","1","0.351506699807942","0.51923150010407","0.475462300004438","1","1","1","1","1","1","1","1","1"
"260002","img/object_images/pillows01.jpg","img/object_images/bottle01.jpg","img/object_images/ear_bud01.jpg","1","0","1","1","0","1","0.475462300004438","0.351506699807942","0.393838299904019","1","1","1","1","1","1","1","1","1"
"260002","img/object_images/ear_bud01.jpg","img/object_images/pillows01.jpg","img/object_images/microscope01.jpg","1","1","1","1","1","0","0.393838299904019","0.475462300004438","0.459051900077611","1","1","1","1","1","1","1","1","1"
"260002","img/object_images/microscope01.jpg","img/object_images/ear_bud01.jpg","img/object_images/floppy_disk03.jpg","1","1","1","0","1","1","0.459051900077611","0.393838299904019","0.503301899880171","1","1","1","1","1","1","1","1","1"
"260002","img/object_images/floppy_disk03.jpg","img/object_images/microscope01.jpg","img/object_images/motorcycle01.jpg","1","1","1","1","0","1","0.503301899880171","0.459051900077611","0.45703629986383","1","1","1","1","1","1","1","1","1"
"260002","img/object_images/motorcycle01.jpg","img/object_images/floppy_disk03.jpg","img/object_images/tv02.jpg","1","1","0","1","1","0","0.45703629986383","0.503301899880171","0.461697399849072","1","1","1","1","1","1","1","1","1"
"260002","img/object_images/tv02.jpg","img/object_images/motorcycle01.jpg","img/object_images/hammer03.jpg","0","1","1","0","1","1","0.461697399849072","0.45703629986383","0.494978599948809","1","1","1","1","1","1","1","1","1"
"260002","img/object_images/hammer03.jpg","img/object_images/tv02.jpg","img/object_images/Staples01.jpg","1","0","1","1","0","1","0.494978599948809","0.461697399849072","0.523703600047156","1","1","1","1","1","1","1","1","1"
"260002","img/object_images/Staples01.jpg","img/object_images/hammer03.jpg","img/object_images/clip03.jpg","1","1","1","1","1","0","0.523703600047156","0.494978599948809","0.547694100067019","1","1","1","1","1","1","1","1","1"
"260002","img/object_images/clip03.jpg","img/object_images/Staples01.jpg","img/object_images/lid01.jpg","1","1","1","0","1","1","0.547694100067019","0.523703600047156","0.51687949988991","1","1","1","1","1","1","1","1","1"
"260002","img/object_images/lid01.jpg","img/object_images/clip03.jpg","img/object_images/retainer01.jpg","1","1","1","1","0","0","0.51687949988991","0.547694100067019","0.70177930011414","1","1","1","1","1","1","1","1","1"
"260002","img/object_images/retainer01.jpg","img/object_images/lid01.jpg","img/object_images/paint_brush04.jpg","1","1","1","0","1","0","0.70177930011414","0.51687949988991","0.519905799999833","1","1","1","1","1","1","1","1","1"
"260002","img/object_images/paint_brush04.jpg","img/object_images/retainer01.jpg","img/object_images/note_book01.jpg","1","1","1","0","0","0","0.519905799999833","0.70177930011414","0.790809500031173","1","1","1","1","1","1","1","1","1"
"260002","img/object_images/note_book01.jpg","img/object_images/paint_brush04.jpg","img/object_images/usb02.jpg","1","1","1","0","0","0","0.790809500031173","0.519905799999833","0.588792299851775","1","1","1","1","1","1","1","1","1"
"260002","img/object_images/usb02.jpg","img/object_images/note_book01.jpg","img/object_images/cellphone01.jpg","1","1","1","0","0","1","0.588792299851775","0.790809500031173","0.460418100003153","1","1","1","1","1","1","1","1","1"
"260002","img/object_images/cellphone01.jpg","img/object_images/usb02.jpg","img/object_images/book03.jpg","1","1","1","1","0","1","0.460418100003153","0.588792299851775","0.460487799951807","1","1","1","1","1","1","1","1","1"
"260002","img/object_images/book03.jpg","img/object_images/cellphone01.jpg","img/object_images/Oven01.jpg","1","1","1","1","1","1","0.460487799951807","0.460418100003153","0.628899700008333","1","1","1","1","1","1","1","1","1"
"260002","img/object_images/Oven01.jpg","img/object_images/book03.jpg","img/object_images/Thermometer01.jpg","1","1","1","1","1","0","0.628899700008333","0.460487799951807","0.579769700067118","1","1","1","1","1","1","1","1","1"
"260002","img/object_images/Thermometer01.jpg","img/object_images/Oven01.jpg","img/object_images/pen03.jpg","1","1","0","0","1","0","0.579769700067118","0.628899700008333","0.502635800046846","1","1","1","1","1","1","1","1","1"
"260002","img/object_images/pen03.jpg","img/object_images/Thermometer01.jpg",NA,"0","1",NA,"0","0",NA,"0.502635800046846","0.579769700067118",NA,"1","1",NA,"1","1",NA,"1","1",NA
"260002","img/object_images/bottle02.jpg",NA,"img/object_images/WoodBox01.jpg","1",NA,"1","1",NA,"0","1.17482080007903",NA,"0.531960000051185","1",NA,"1","1",NA,"1","1",NA,"1"
"260002","img/object_images/WoodBox01.jpg","img/object_images/bottle02.jpg","img/object_images/coloring_pencil02.jpg","1","1","1","0","1","0","0.531960000051185","1.17482080007903","0.478419699938968","1","1","1","1","1","1","1","1","1"
"260002","img/object_images/coloring_pencil02.jpg","img/object_images/WoodBox01.jpg","img/object_images/chair03.jpg","1","1","1","0","0","0","0.478419699938968","0.531960000051185","0.472031999845058","1","1","1","1","1","1","1","1","1"
"260002","img/object_images/chair03.jpg","img/object_images/coloring_pencil02.jpg","img/object_images/bicycle01.jpg","1","1","1","0","0","1","0.472031999845058","0.478419699938968","0.426420099800453","1","1","1","1","1","1","1","1","2"
"260002","img/object_images/bicycle01.jpg","img/object_images/chair03.jpg","img/object_images/helmet04.jpg","1","1","0","1","0","1","0.426420099800453","0.472031999845058",NA,"1","1","0","1","1","0","2","1","0"
"260002","img/object_images/helmet04.jpg","img/object_images/bicycle01.jpg","img/object_images/perfume02.jpg","0","1","1","1","1","0",NA,"0.426420099800453","0.619721899973229","0","1","1","0","1","1","0","2","1"
"260002","img/object_images/perfume02.jpg","img/object_images/helmet04.jpg","img/object_images/tool19.jpg","1","0","1","0","1","1","0.619721899973229",NA,"0.478979300009087","1","0","1","1","0","1","1","0","1"
"260002","img/object_images/tool19.jpg","img/object_images/perfume02.jpg","img/object_images/tie02.jpg","1","1","1","1","0","0","0.478979300009087","0.619721899973229","0.60757779981941","1","1","1","1","1","1","1","1","1"
"260002","img/object_images/tie02.jpg","img/object_images/tool19.jpg","img/object_images/dog_leash01.jpg","1","1","1","0","1","0","0.60757779981941","0.478979300009087","0.55077620013617","1","1","1","1","1","1","1","1","1"
"260002","img/object_images/dog_leash01.jpg","img/object_images/tie02.jpg","img/object_images/fan02.jpg","1","1","1","0","0","0","0.55077620013617","0.60757779981941","0.553548599826172","1","1","1","1","1","1","1","1","1"
"260002","img/object_images/fan02.jpg","img/object_images/dog_leash01.jpg","img/object_images/hot_air_balloon02.jpg","1","1","1","0","0","0","0.553548599826172","0.55077620013617","0.497555899899453","1","1","1","1","1","1","1","1","1"
"260002","img/object_images/hot_air_balloon02.jpg","img/object_images/fan02.jpg","img/object_images/pen05.jpg","1","1","0","0","0","0","0.497555899899453","0.553548599826172","0.521674399962649","1","1","1","1","1","1","1","1","1"
"260002","img/object_images/pen05.jpg","img/object_images/hot_air_balloon02.jpg","img/object_images/bottle09.jpg","0","1","1","0","0","0","0.521674399962649","0.497555899899453","0.472261799965054","1","1","1","1","1","1","1","1","1"
"260002","img/object_images/bottle09.jpg","img/object_images/pen05.jpg","img/object_images/hat06.jpg","1","0","1","0","0","0","0.472261799965054","0.521674399962649","0.478311399929225","1","1","1","1","1","1","1","1","1"
"260002","img/object_images/hat06.jpg","img/object_images/bottle09.jpg","img/object_images/wagon_cart03.jpg","1","1","0","0","0","1","0.478311399929225","0.472261799965054","0.47878919984214","1","1","1","1","1","1","1","1","1"
"260002","img/object_images/wagon_cart03.jpg","img/object_images/hat06.jpg","img/object_images/bottle10.jpg","0","1","1","1","0","1","0.47878919984214","0.478311399929225","0.545204899972305","1","1","1","1","1","1","1","1","1"
"260002","img/object_images/bottle10.jpg","img/object_images/wagon_cart03.jpg","img/object_images/toilet_paper_dispenser01.jpg","1","0","1","1","1","1","0.545204899972305","0.47878919984214","0.444272000109777","1","1","1","1","1","1","1","1","1"
"260002","img/object_images/toilet_paper_dispenser01.jpg","img/object_images/bottle10.jpg","img/object_images/piggy_bank01.jpg","1","1","1","1","1","1","0.444272000109777","0.545204899972305","0.489135599927977","1","1","1","1","1","1","1","1","1"
"260002","img/object_images/piggy_bank01.jpg","img/object_images/toilet_paper_dispenser01.jpg","img/object_images/toaster01.jpg","1","1","1","1","1","1","0.489135599927977","0.444272000109777","0.488142000045627","1","1","1","1","1","1","1","1","2"
"260002","img/object_images/toaster01.jpg","img/object_images/piggy_bank01.jpg","img/object_images/camera_lens01.jpg","1","1","1","1","1","1","0.488142000045627","0.489135599927977","0.568047400098294","1","1","1","1","1","1","2","1","1"
"260002","img/object_images/camera_lens01.jpg","img/object_images/toaster01.jpg","img/object_images/boat_toy10.jpg","1","1","1","1","1","0","0.568047400098294","0.488142000045627","0.615703099872917","1","1","1","1","1","1","1","2","1"
"260002","img/object_images/boat_toy10.jpg","img/object_images/camera_lens01.jpg","img/object_images/shoes07.jpg","1","1","1","0","1","0","0.615703099872917","0.568047400098294","0.57496239989996","1","1","1","1","1","1","1","1","1"
"260002","img/object_images/shoes07.jpg","img/object_images/boat_toy10.jpg","img/object_images/water_scooter01.jpg","1","1","1","0","0","1","0.57496239989996","0.615703099872917","0.459141899831593","1","1","1","1","1","1","1","1","1"
"260002","img/object_images/water_scooter01.jpg","img/object_images/shoes07.jpg","img/object_images/scoreboard01.jpg","1","1","1","1","0","1","0.459141899831593","0.57496239989996","0.534943500068039","1","1","1","1","1","1","1","1","1"
"260002","img/object_images/scoreboard01.jpg","img/object_images/water_scooter01.jpg","img/object_images/boat02.jpg","1","1","1","1","1","1","0.534943500068039","0.459141899831593","0.515767300035805","1","1","1","1","1","1","1","1","1"
"260002","img/object_images/boat02.jpg","img/object_images/scoreboard01.jpg","img/object_images/flask01.jpg","1","1","1","1","1","0","0.515767300035805","0.534943500068039","0.48269629990682","1","1","1","1","1","1","1","1","1"
"260002","img/object_images/flask01.jpg","img/object_images/boat02.jpg","img/object_images/purse04.jpg","1","1","1","0","1","1","0.48269629990682","0.515767300035805","0.412447900045663","1","1","1","1","1","1","1","1","1"
"260002","img/object_images/purse04.jpg","img/object_images/flask01.jpg","img/object_images/knit01.jpg","1","1","1","1","0","0","0.412447900045663","0.48269629990682","0.458028299966827","1","1","1","1","1","1","1","1","1"
"260002","img/object_images/knit01.jpg","img/object_images/purse04.jpg","img/object_images/audio_port01.jpg","1","1","1","0","1","1","0.458028299966827","0.412447900045663","0.430318200029433","1","1","1","1","1","1","1","1","1"
"260002","img/object_images/audio_port01.jpg","img/object_images/knit01.jpg","img/object_images/cellphone03.jpg","1","1","1","1","0","0","0.430318200029433","0.458028299966827","0.577627900056541","1","1","1","1","1","1","1","1","1"
"260002","img/object_images/cellphone03.jpg","img/object_images/audio_port01.jpg","img/object_images/bean_bag02.jpg","1","1","1","0","1","1","0.577627900056541","0.430318200029433","0.436038400046527","1","1","1","1","1","1","1","1","1"
"260002","img/object_images/bean_bag02.jpg","img/object_images/cellphone03.jpg",NA,"1","1",NA,"1","0",NA,"0.436038400046527","0.577627900056541",NA,"1","1",NA,"1","1",NA,"1","1",NA
"260002","img/object_images/frame01.jpg",NA,"img/object_images/Safe01.jpg","1",NA,"1","1",NA,"1","0.637584600131959",NA,"0.575369699858129","1",NA,"1","1",NA,"1","1",NA,"1"
"260002","img/object_images/Safe01.jpg","img/object_images/frame01.jpg","img/object_images/bookmark01.jpg","1","1","0","1","1","0","0.575369699858129","0.637584600131959","0.481040999991819","1","1","1","1","1","1","1","1","1"
"260002","img/object_images/bookmark01.jpg","img/object_images/Safe01.jpg","img/object_images/pitcher07.jpg","0","1","1","0","1","1","0.481040999991819","0.575369699858129","0.344039399875328","1","1","1","1","1","1","1","1","1"
"260002","img/object_images/pitcher07.jpg","img/object_images/bookmark01.jpg","img/object_images/helmet03.jpg","1","0","1","1","0","1","0.344039399875328","0.481040999991819","0.470917300088331","1","1","1","1","1","1","1","1","1"
"260002","img/object_images/helmet03.jpg","img/object_images/pitcher07.jpg","img/object_images/shovel01.jpg","1","1","0","1","1","0","0.470917300088331","0.344039399875328","0.406154000200331","1","1","1","1","1","1","1","1","1"
"260002","img/object_images/shovel01.jpg","img/object_images/helmet03.jpg","img/object_images/scale02.jpg","0","1","1","0","1","0","0.406154000200331","0.470917300088331","0.500029099872336","1","1","1","1","1","1","1","1","1"
"260002","img/object_images/scale02.jpg","img/object_images/shovel01.jpg","img/object_images/jewel02.jpg","1","0","1","0","0","0","0.500029099872336","0.406154000200331","0.513040999881923","1","1","1","1","1","1","1","1","1"
"260002","img/object_images/jewel02.jpg","img/object_images/scale02.jpg","img/object_images/usb03.jpg","1","1","1","0","0","0","0.513040999881923","0.500029099872336","0.363066100049764","1","1","1","1","1","1","1","1","1"
"260002","img/object_images/usb03.jpg","img/object_images/jewel02.jpg","img/object_images/bottle06.jpg","1","1","1","0","0","0","0.363066100049764","0.513040999881923","0.54389790003188","1","1","1","1","1","1","1","1","1"
"260002","img/object_images/bottle06.jpg","img/object_images/usb03.jpg","img/object_images/dice01.jpg","1","1","1","0","0","0","0.54389790003188","0.363066100049764","0.432306999806315","1","1","1","1","1","1","1","1","1"
"260002","img/object_images/dice01.jpg","img/object_images/bottle06.jpg","img/object_images/origami01.jpg","1","1","1","0","0","1","0.432306999806315","0.54389790003188","0.652291199890897","1","1","1","1","1","1","1","1","1"
"260002","img/object_images/origami01.jpg","img/object_images/dice01.jpg","img/object_images/trumpet01.jpg","1","1","1","1","0","0","0.652291199890897","0.432306999806315","0.607384100090712","1","1","1","1","1","1","1","1","1"
"260002","img/object_images/trumpet01.jpg","img/object_images/origami01.jpg","img/object_images/tennis_racket01.jpg","1","1","1","0","1","1","0.607384100090712","0.652291199890897","0.47123060002923","1","1","1","1","1","1","1","1","1"
"260002","img/object_images/tennis_racket01.jpg","img/object_images/trumpet01.jpg","img/object_images/joystick03.jpg","1","1","1","1","0","1","0.47123060002923","0.607384100090712","0.626061100047082","1","1","1","1","1","1","1","1","1"
"260002","img/object_images/joystick03.jpg","img/object_images/tennis_racket01.jpg","img/object_images/phone04.jpg","1","1","1","1","1","1","0.626061100047082","0.47123060002923","0.466286199865863","1","1","1","1","1","1","1","1","1"
"260002","img/object_images/phone04.jpg","img/object_images/joystick03.jpg","img/object_images/water_gun01.jpg","1","1","1","1","1","1","0.466286199865863","0.626061100047082","0.396778000053018","1","1","1","1","1","1","1","1","1"
"260002","img/object_images/water_gun01.jpg","img/object_images/phone04.jpg","img/object_images/headset02.jpg","1","1","0","1","1","0","0.396778000053018","0.466286199865863","0.390281799947843","1","1","1","1","1","1","1","1","1"
"260002","img/object_images/headset02.jpg","img/object_images/water_gun01.jpg","img/object_images/bucket01.jpg","0","1","1","0","1","1","0.390281799947843","0.396778000053018","0.461901000002399","1","1","1","1","1","1","1","1","1"
"260002","img/object_images/bucket01.jpg","img/object_images/headset02.jpg","img/object_images/egg_basket01.jpg","1","0","1","1","0","1","0.461901000002399","0.390281799947843","0.530749399913475","1","1","1","1","1","1","1","1","1"
"260002","img/object_images/egg_basket01.jpg","img/object_images/bucket01.jpg","img/object_images/belt03.jpg","1","1","1","1","1","0","0.530749399913475","0.461901000002399","0.583465500036255","1","1","1","1","1","1","1","1","1"
"260002","img/object_images/belt03.jpg","img/object_images/egg_basket01.jpg","img/object_images/Eyeliner01.jpg","1","1","1","0","1","1","0.583465500036255","0.530749399913475","0.524670000188053","1","1","1","1","1","1","1","1","1"
"260002","img/object_images/Eyeliner01.jpg","img/object_images/belt03.jpg","img/object_images/fan01.jpg","1","1","1","1","0","0","0.524670000188053","0.583465500036255","0.628041499992833","1","1","1","1","1","1","1","1","1"
"260002","img/object_images/fan01.jpg","img/object_images/Eyeliner01.jpg","img/object_images/nut_cracker01.jpg","1","1","1","0","1","1","0.628041499992833","0.524670000188053","0.4435519000981","1","1","1","1","1","1","1","1","1"
"260002","img/object_images/nut_cracker01.jpg","img/object_images/fan01.jpg","img/object_images/lock03.jpg","1","1","1","1","0","1","0.4435519000981","0.628041499992833","0.420938099967316","1","1","1","1","1","1","1","1","1"
"260002","img/object_images/lock03.jpg","img/object_images/nut_cracker01.jpg","img/object_images/TreeSlice01.jpg","1","1","1","1","1","1","0.420938099967316","0.4435519000981","0.423856999957934","1","1","1","1","1","1","1","1","1"
"260002","img/object_images/TreeSlice01.jpg","img/object_images/lock03.jpg","img/object_images/ToolBag01.jpg","1","1","1","1","1","0","0.423856999957934","0.420938099967316","0.474181300029159","1","1","1","1","1","1","1","1","1"
"260002","img/object_images/ToolBag01.jpg","img/object_images/TreeSlice01.jpg","img/object_images/badminton01.jpg","1","1","1","0","1","1","0.474181300029159","0.423856999957934","0.377747300080955","1","1","1","1","1","1","1","1","1"
"260002","img/object_images/badminton01.jpg","img/object_images/ToolBag01.jpg","img/object_images/Shoes05.jpg","1","1","0","1","0","0","0.377747300080955","0.474181300029159","0.500277500133961","1","1","1","1","1","1","1","1","1"
"260002","img/object_images/Shoes05.jpg","img/object_images/badminton01.jpg","img/object_images/note_book02.jpg","0","1","1","0","1","0","0.500277500133961","0.377747300080955","0.608441299991682","1","1","1","1","1","1","1","1","1"
"260002","img/object_images/note_book02.jpg","img/object_images/Shoes05.jpg","img/object_images/piano03.jpg","1","0","0","0","0","0","0.608441299991682","0.500277500133961","0.587829099968076","1","1","1","1","1","1","1","1","1"
"260002","img/object_images/piano03.jpg","img/object_images/note_book02.jpg","img/object_images/yoga_mat01.jpg","0","1","0","0","0","0","0.587829099968076","0.608441299991682","0.475651499815285","1","1","1","1","1","1","1","1","1"
"260002","img/object_images/yoga_mat01.jpg","img/object_images/piano03.jpg",NA,"0","0",NA,"0","0",NA,"0.475651499815285","0.587829099968076",NA,"1","1",NA,"1","1",NA,"1","1",NA
"260002","img/object_images/razor02.jpg",NA,"img/object_images/lemon_squeezer01.jpg","1",NA,"1","1",NA,"1","0.934092599898577",NA,"0.747779800090939","1",NA,"1","1",NA,"1","1",NA,"1"
"260002","img/object_images/lemon_squeezer01.jpg","img/object_images/razor02.jpg","img/object_images/dust_pan01.jpg","1","1","1","1","1","1","0.747779800090939","0.934092599898577","0.475073199952021","1","1","1","1","1","1","1","1","1"
"260002","img/object_images/dust_pan01.jpg","img/object_images/lemon_squeezer01.jpg","img/object_images/tool20.jpg","1","1","1","1","1","0","0.475073199952021","0.747779800090939","0.464962000027299","1","1","1","1","1","1","1","1","1"
"260002","img/object_images/tool20.jpg","img/object_images/dust_pan01.jpg","img/object_images/video_game02.jpg","1","1","1","0","1","1","0.464962000027299","0.475073199952021","0.425149499904364","1","1","1","1","1","1","1","1","1"
"260002","img/object_images/video_game02.jpg","img/object_images/tool20.jpg","img/object_images/ruler02.jpg","1","1","1","1","0","1","0.425149499904364","0.464962000027299","0.393320900155231","1","1","1","1","1","1","1","1","1"
"260002","img/object_images/ruler02.jpg","img/object_images/video_game02.jpg","img/object_images/camera05.jpg","1","1","0","1","1","0","0.393320900155231","0.425149499904364","0.386442200047895","1","1","1","1","1","1","1","1","1"
"260002","img/object_images/camera05.jpg","img/object_images/ruler02.jpg","img/object_images/knife01.jpg","0","1","1","0","1","1","0.386442200047895","0.393320900155231","0.418365699937567","1","1","1","1","1","1","1","1","1"
"260002","img/object_images/knife01.jpg","img/object_images/camera05.jpg","img/object_images/pen06.jpg","1","0","1","1","0","0","0.418365699937567","0.386442200047895","0.541481700027362","1","1","1","1","1","1","1","1","1"
"260002","img/object_images/pen06.jpg","img/object_images/knife01.jpg","img/object_images/duster01.jpg","1","1","1","0","1","0","0.541481700027362","0.418365699937567","0.488631200045347","1","1","1","1","1","1","1","1","1"
"260002","img/object_images/duster01.jpg","img/object_images/pen06.jpg","img/object_images/sign02.jpg","1","1","0","0","0","0","0.488631200045347","0.541481700027362","0.506176199996844","1","1","1","1","1","1","1","1","1"
"260002","img/object_images/sign02.jpg","img/object_images/duster01.jpg","img/object_images/Candle_Holder01.jpg","0","1","1","0","0","0","0.506176199996844","0.488631200045347","0.56462059984915","1","1","1","1","1","1","1","1","1"
"260002","img/object_images/Candle_Holder01.jpg","img/object_images/sign02.jpg","img/object_images/cup01.jpg","1","0","1","0","0","0","0.56462059984915","0.506176199996844","0.509855300188065","1","1","1","1","1","1","1","1","1"
"260002","img/object_images/cup01.jpg","img/object_images/Candle_Holder01.jpg","img/object_images/spray_can01.jpg","1","1","1","0","0","0","0.509855300188065","0.56462059984915","0.50798420002684","1","1","1","1","1","1","1","1","1"
"260002","img/object_images/spray_can01.jpg","img/object_images/cup01.jpg","img/object_images/candle02.jpg","1","1","1","0","0","0","0.50798420002684","0.509855300188065","0.465999600011855","1","1","1","1","1","1","1","1","1"
"260002","img/object_images/candle02.jpg","img/object_images/spray_can01.jpg","img/object_images/hammer02.jpg","1","1","0","0","0","0","0.465999600011855","0.50798420002684","0.676298700040206","1","1","1","1","1","1","1","1","1"
"260002","img/object_images/hammer02.jpg","img/object_images/candle02.jpg","img/object_images/bag04.jpg","0","1","1","0","0","0","0.676298700040206","0.465999600011855","0.503686599899083","1","1","1","1","1","1","1","1","1"
"260002","img/object_images/bag04.jpg","img/object_images/hammer02.jpg","img/object_images/sink_filter01 (1).jpg","1","0","1","0","0","0","0.503686599899083","0.676298700040206","0.46189729985781","1","1","1","1","1","1","1","1","1"
"260002","img/object_images/sink_filter01 (1).jpg","img/object_images/bag04.jpg","img/object_images/hat13.jpg","1","1","1","0","0","1","0.46189729985781","0.503686599899083","0.368794200010598","1","1","1","1","1","1","1","1","1"
"260002","img/object_images/hat13.jpg","img/object_images/sink_filter01 (1).jpg","img/object_images/board01.jpg","1","1","1","1","0","1","0.368794200010598","0.46189729985781","0.526948299957439","1","1","1","1","1","1","1","1","1"
"260002","img/object_images/board01.jpg","img/object_images/hat13.jpg","img/object_images/pan03.jpg","1","1","1","1","1","1","0.526948299957439","0.368794200010598","0.594236899865791","1","1","1","1","1","1","1","1","1"
"260002","img/object_images/pan03.jpg","img/object_images/board01.jpg","img/object_images/vase02.jpg","1","1","1","1","1","1","0.594236899865791","0.526948299957439","0.401046199956909","1","1","1","1","1","1","1","1","1"
"260002","img/object_images/vase02.jpg","img/object_images/pan03.jpg","img/object_images/bow_tie03.jpg","1","1","1","1","1","1","0.401046199956909","0.594236899865791","0.535256600007415","1","1","1","1","1","1","1","1","1"
"260002","img/object_images/bow_tie03.jpg","img/object_images/vase02.jpg","img/object_images/perfume01.jpg","1","1","0","1","1","0","0.535256600007415","0.401046199956909","0.534924099920318","1","1","1","1","1","1","1","1","1"
"260002","img/object_images/perfume01.jpg","img/object_images/bow_tie03.jpg","img/object_images/glasses03.jpg","0","1","1","0","1","0","0.534924099920318","0.535256600007415","0.578425100073218","1","1","1","1","1","1","1","1","1"
"260002","img/object_images/glasses03.jpg","img/object_images/perfume01.jpg","img/object_images/socks01.jpg","1","0","1","0","0","1","0.578425100073218","0.534924099920318","0.435351699823514","1","1","1","1","1","1","1","1","1"
"260002","img/object_images/socks01.jpg","img/object_images/glasses03.jpg","img/object_images/tool13.jpg","1","1","1","1","0","1","0.435351699823514","0.578425100073218","0.455526399891824","1","1","1","1","1","1","1","1","1"
"260002","img/object_images/tool13.jpg","img/object_images/socks01.jpg","img/object_images/clipboard01.jpg","1","1","1","1","1","1","0.455526399891824","0.435351699823514","0.458802700042725","1","1","1","1","1","1","1","1","1"
"260002","img/object_images/clipboard01.jpg","img/object_images/tool13.jpg","img/object_images/floss01.jpg","1","1","1","1","1","1","0.458802700042725","0.455526399891824","0.53400529990904","1","1","1","1","1","1","1","1","1"
"260002","img/object_images/floss01.jpg","img/object_images/clipboard01.jpg","img/object_images/hat09.jpg","1","1","0","1","1","0","0.53400529990904","0.458802700042725","0.489133699797094","1","1","1","1","1","1","1","1","1"
"260002","img/object_images/hat09.jpg","img/object_images/floss01.jpg","img/object_images/Confetti 01.jpg","0","1","1","0","1","0","0.489133699797094","0.53400529990904","0.654159400146455","1","1","1","1","1","1","1","1","1"
"260002","img/object_images/Confetti 01.jpg","img/object_images/hat09.jpg","img/object_images/office_supplies01.jpg","1","0","1","0","0","1","0.654159400146455","0.489133699797094","0.434484299970791","1","1","1","1","1","1","1","1","1"
"260002","img/object_images/office_supplies01.jpg","img/object_images/Confetti 01.jpg",NA,"1","1",NA,"1","0",NA,"0.434484299970791","0.654159400146455",NA,"1","1",NA,"1","1",NA,"1","1",NA
