"participant_id","current_trial_object","pre_trial_object","post_trial_object","current_trial_accuracy","pre_trial_accuracy","post_trial_accuracy","current_trial_congruency","pre_trial_congruency","post_trial_congruency","current_trial_rt","pre_trial_rt","post_trial_rt","current_trial_responded","pre_trial_responded","post_trial_responded","current_trial_legitResponse","pre_trial_legitResponse","post_trial_legitResponse","current_trial_resp_nums","pre_trial_resp_nums","post_trial_resp_nums"
"260048","img/object_images/joystick03.jpg",NA,"img/object_images/lock03.jpg","1",NA,"1","1",NA,"1","0.767618199810386",NA,"0.991858899826184","1",NA,"1","1",NA,"1","1",NA,"1"
"260048","img/object_images/lock03.jpg","img/object_images/joystick03.jpg","img/object_images/water_gun01.jpg","1","1","1","1","1","1","0.991858899826184","0.767618199810386","0.84400529996492","1","1","1","1","1","1","1","1","1"
"260048","img/object_images/water_gun01.jpg","img/object_images/lock03.jpg","img/object_images/TreeSlice01.jpg","1","1","1","1","1","1","0.84400529996492","0.991858899826184","0.744658800074831","1","1","1","1","1","1","1","1","1"
"260048","img/object_images/TreeSlice01.jpg","img/object_images/water_gun01.jpg","img/object_images/fan01.jpg","1","1","1","1","1","0","0.744658800074831","0.84400529996492","0.870991799980402","1","1","1","1","1","1","1","1","1"
"260048","img/object_images/fan01.jpg","img/object_images/TreeSlice01.jpg","img/object_images/helmet03.jpg","1","1","1","0","1","1","0.870991799980402","0.744658800074831","0.597650300012901","1","1","1","1","1","1","1","1","1"
"260048","img/object_images/helmet03.jpg","img/object_images/fan01.jpg","img/object_images/pitcher07.jpg","1","1","1","1","0","1","0.597650300012901","0.870991799980402","0.505913899978623","1","1","1","1","1","1","1","1","1"
"260048","img/object_images/pitcher07.jpg","img/object_images/helmet03.jpg","img/object_images/shovel01.jpg","1","1","1","1","1","0","0.505913899978623","0.597650300012901","0.520670099882409","1","1","1","1","1","1","1","1","1"
"260048","img/object_images/shovel01.jpg","img/object_images/pitcher07.jpg","img/object_images/jewel02.jpg","1","1","1","0","1","0","0.520670099882409","0.505913899978623","0.59746600012295","1","1","1","1","1","1","1","1","1"
"260048","img/object_images/jewel02.jpg","img/object_images/shovel01.jpg","img/object_images/egg_basket01.jpg","1","1","1","0","0","1","0.59746600012295","0.520670099882409","0.803923799889162","1","1","1","1","1","1","1","1","1"
"260048","img/object_images/egg_basket01.jpg","img/object_images/jewel02.jpg","img/object_images/frame01.jpg","1","1","1","1","0","1","0.803923799889162","0.59746600012295","0.671740600140765","1","1","1","1","1","1","1","1","1"
"260048","img/object_images/frame01.jpg","img/object_images/egg_basket01.jpg","img/object_images/note_book02.jpg","1","1","1","1","1","0","0.671740600140765","0.803923799889162","0.582420199876651","1","1","1","1","1","1","1","1","1"
"260048","img/object_images/note_book02.jpg","img/object_images/frame01.jpg","img/object_images/ToolBag01.jpg","1","1","1","0","1","0","0.582420199876651","0.671740600140765","0.608292700024322","1","1","1","1","1","1","1","1","1"
"260048","img/object_images/ToolBag01.jpg","img/object_images/note_book02.jpg","img/object_images/Shoes05.jpg","1","1","1","0","0","0","0.608292700024322","0.582420199876651","0.579011900117621","1","1","1","1","1","1","1","1","1"
"260048","img/object_images/Shoes05.jpg","img/object_images/ToolBag01.jpg","img/object_images/tennis_racket01.jpg","1","1","1","0","0","1","0.579011900117621","0.608292700024322","0.523038399871439","1","1","1","1","1","1","1","1","1"
"260048","img/object_images/tennis_racket01.jpg","img/object_images/Shoes05.jpg","img/object_images/scale02.jpg","1","1","1","1","0","0","0.523038399871439","0.579011900117621","0.578051100019366","1","1","1","1","1","1","1","1","1"
"260048","img/object_images/scale02.jpg","img/object_images/tennis_racket01.jpg","img/object_images/belt03.jpg","1","1","1","0","1","0","0.578051100019366","0.523038399871439","0.660739999962971","1","1","1","1","1","1","1","1","1"
"260048","img/object_images/belt03.jpg","img/object_images/scale02.jpg","img/object_images/origami01.jpg","1","1","1","0","0","1","0.660739999962971","0.578051100019366","0.612201899988577","1","1","1","1","1","1","1","1","1"
"260048","img/object_images/origami01.jpg","img/object_images/belt03.jpg","img/object_images/Eyeliner01.jpg","1","1","1","1","0","1","0.612201899988577","0.660739999962971","0.642876700032502","1","1","1","1","1","1","1","1","1"
"260048","img/object_images/Eyeliner01.jpg","img/object_images/origami01.jpg","img/object_images/bucket01.jpg","1","1","1","1","1","1","0.642876700032502","0.612201899988577","0.657321500126272","1","1","1","1","1","1","1","1","1"
"260048","img/object_images/bucket01.jpg","img/object_images/Eyeliner01.jpg","img/object_images/badminton01.jpg","1","1","1","1","1","1","0.657321500126272","0.642876700032502","0.501568000065163","1","1","1","1","1","1","1","1","1"
"260048","img/object_images/badminton01.jpg","img/object_images/bucket01.jpg","img/object_images/bottle06.jpg","1","1","1","1","1","0","0.501568000065163","0.657321500126272","0.589403100078925","1","1","1","1","1","1","1","1","1"
"260048","img/object_images/bottle06.jpg","img/object_images/badminton01.jpg","img/object_images/yoga_mat01.jpg","1","1","1","0","1","0","0.589403100078925","0.501568000065163","0.49228459992446","1","1","1","1","1","1","1","1","1"
"260048","img/object_images/yoga_mat01.jpg","img/object_images/bottle06.jpg","img/object_images/dice01.jpg","1","1","1","0","0","0","0.49228459992446","0.589403100078925","0.520806400105357","1","1","1","1","1","1","1","1","1"
"260048","img/object_images/dice01.jpg","img/object_images/yoga_mat01.jpg","img/object_images/usb03.jpg","1","1","1","0","0","0","0.520806400105357","0.49228459992446","0.705580999841914","1","1","1","1","1","1","1","1","1"
"260048","img/object_images/usb03.jpg","img/object_images/dice01.jpg","img/object_images/phone04.jpg","1","1","1","0","0","1","0.705580999841914","0.520806400105357","0.589790700003505","1","1","1","1","1","1","1","1","1"
"260048","img/object_images/phone04.jpg","img/object_images/usb03.jpg","img/object_images/Safe01.jpg","1","1","1","1","0","1","0.589790700003505","0.705580999841914","0.508383800042793","1","1","1","1","1","1","1","1","1"
"260048","img/object_images/Safe01.jpg","img/object_images/phone04.jpg","img/object_images/piano03.jpg","1","1","1","1","1","0","0.508383800042793","0.589790700003505","0.523513699881732","1","1","1","1","1","1","1","1","1"
"260048","img/object_images/piano03.jpg","img/object_images/Safe01.jpg","img/object_images/bookmark01.jpg","1","1","0","0","1","0","0.523513699881732","0.508383800042793","0.430003100074828","1","1","1","1","1","1","1","1","1"
"260048","img/object_images/bookmark01.jpg","img/object_images/piano03.jpg","img/object_images/nut_cracker01.jpg","0","1","0","0","0","1","0.430003100074828","0.523513699881732","0.5592310000211","1","1","1","1","1","1","1","1","1"
"260048","img/object_images/nut_cracker01.jpg","img/object_images/bookmark01.jpg","img/object_images/trumpet01.jpg","0","0","1","1","0","0","0.5592310000211","0.430003100074828","0.742169899865985","1","1","1","1","1","1","1","1","1"
"260048","img/object_images/trumpet01.jpg","img/object_images/nut_cracker01.jpg","img/object_images/headset02.jpg","1","0","1","0","1","0","0.742169899865985","0.5592310000211","0.597601999994367","1","1","1","1","1","1","1","1","1"
"260048","img/object_images/headset02.jpg","img/object_images/trumpet01.jpg",NA,"1","1",NA,"0","0",NA,"0.597601999994367","0.742169899865985",NA,"1","1",NA,"1","1",NA,"1","1",NA
"260048","img/object_images/sleeping_bag01.jpg",NA,"img/object_images/gift_box01.jpg","1",NA,"1","0",NA,"1","1.06083430000581",NA,"0.64357509999536","1",NA,"1","1",NA,"1","1",NA,"1"
"260048","img/object_images/gift_box01.jpg","img/object_images/sleeping_bag01.jpg","img/object_images/grater01.jpg","1","1","0","1","0","1","0.64357509999536","1.06083430000581","0.684968100162223","1","1","1","1","1","1","1","1","1"
"260048","img/object_images/grater01.jpg","img/object_images/gift_box01.jpg","img/object_images/Witchhat01.jpg","0","1","1","1","1","1","0.684968100162223","0.64357509999536","0.634819299913943","1","1","1","1","1","1","1","1","1"
"260048","img/object_images/Witchhat01.jpg","img/object_images/grater01.jpg","img/object_images/lock04.jpg","1","0","1","1","1","1","0.634819299913943","0.684968100162223","0.592544999904931","1","1","1","1","1","1","1","1","1"
"260048","img/object_images/lock04.jpg","img/object_images/Witchhat01.jpg","img/object_images/handkerchief01.jpg","1","1","0","1","1","0","0.592544999904931","0.634819299913943","0.41256899992004","1","1","1","1","1","1","1","1","1"
"260048","img/object_images/handkerchief01.jpg","img/object_images/lock04.jpg","img/object_images/lawn_mower01.jpg","0","1","1","0","1","1","0.41256899992004","0.592544999904931","0.386835899902508","1","1","1","1","1","1","1","1","1"
"260048","img/object_images/lawn_mower01.jpg","img/object_images/handkerchief01.jpg","img/object_images/gift_box02.jpg","1","0","1","1","0","1","0.386835899902508","0.41256899992004","0.54183020000346","1","1","1","1","1","1","1","1","1"
"260048","img/object_images/gift_box02.jpg","img/object_images/lawn_mower01.jpg","img/object_images/measuring_tape02.jpg","1","1","1","1","1","1","0.54183020000346","0.386835899902508","0.493262899806723","1","1","1","1","1","1","1","1","1"
"260048","img/object_images/measuring_tape02.jpg","img/object_images/gift_box02.jpg","img/object_images/wallet02.jpg","1","1","1","1","1","1","0.493262899806723","0.54183020000346","0.479832499986515","1","1","1","1","1","1","1","1","1"
"260048","img/object_images/wallet02.jpg","img/object_images/measuring_tape02.jpg","img/object_images/camera07.jpg","1","1","1","1","1","1","0.479832499986515","0.493262899806723","0.561453999951482","1","1","1","1","1","1","1","1","1"
"260048","img/object_images/camera07.jpg","img/object_images/wallet02.jpg","img/object_images/funnel01.jpg","1","1","1","1","1","0","0.561453999951482","0.479832499986515","0.568943099817261","1","1","1","1","1","1","1","1","1"
"260048","img/object_images/funnel01.jpg","img/object_images/camera07.jpg","img/object_images/paper_cup01.jpg","1","1","1","0","1","0","0.568943099817261","0.561453999951482","0.609591900138184","1","1","1","1","1","1","1","1","1"
"260048","img/object_images/paper_cup01.jpg","img/object_images/funnel01.jpg","img/object_images/Screws01.jpg","1","1","1","0","0","1","0.609591900138184","0.568943099817261","0.562397700035945","1","1","1","1","1","1","1","1","1"
"260048","img/object_images/Screws01.jpg","img/object_images/paper_cup01.jpg","img/object_images/jewelry01.jpg","1","1","1","1","0","1","0.562397700035945","0.609591900138184","0.693304599961266","1","1","1","1","1","1","1","1","1"
"260048","img/object_images/jewelry01.jpg","img/object_images/Screws01.jpg","img/object_images/golf_ball03.jpg","1","1","1","1","1","1","0.693304599961266","0.562397700035945","0.608524499926716","1","1","1","1","1","1","1","1","1"
"260048","img/object_images/golf_ball03.jpg","img/object_images/jewelry01.jpg","img/object_images/coloring_pencil01.jpg","1","1","1","1","1","1","0.608524499926716","0.693304599961266","0.523182400036603","1","1","1","1","1","1","1","1","1"
"260048","img/object_images/coloring_pencil01.jpg","img/object_images/golf_ball03.jpg","img/object_images/bath_tub01.jpg","1","1","1","1","1","0","0.523182400036603","0.608524499926716","0.627986999927089","1","1","1","1","1","1","1","1","1"
"260048","img/object_images/bath_tub01.jpg","img/object_images/coloring_pencil01.jpg","img/object_images/balloon01.jpg","1","1","0","0","1","0","0.627986999927089","0.523182400036603","0.546284800162539","1","1","1","1","1","1","1","1","1"
"260048","img/object_images/balloon01.jpg","img/object_images/bath_tub01.jpg","img/object_images/clip02.jpg","0","1","1","0","0","1","0.546284800162539","0.627986999927089","0.850128200137988","1","1","1","1","1","1","1","1","1"
"260048","img/object_images/clip02.jpg","img/object_images/balloon01.jpg","img/object_images/socks02.jpg","1","0","1","1","0","0","0.850128200137988","0.546284800162539","0.583869899855927","1","1","1","1","1","1","1","1","1"
"260048","img/object_images/socks02.jpg","img/object_images/clip02.jpg","img/object_images/hammer01.jpg","1","1","1","0","1","0","0.583869899855927","0.850128200137988","0.665317500010133","1","1","1","1","1","1","1","1","1"
"260048","img/object_images/hammer01.jpg","img/object_images/socks02.jpg","img/object_images/bow_tie02.jpg","1","1","1","0","0","0","0.665317500010133","0.583869899855927","0.562745000002906","1","1","1","1","1","1","1","1","1"
"260048","img/object_images/bow_tie02.jpg","img/object_images/hammer01.jpg","img/object_images/jacket03.jpg","1","1","1","0","0","0","0.562745000002906","0.665317500010133","0.549428900005296","1","1","1","1","1","1","1","1","1"
"260048","img/object_images/jacket03.jpg","img/object_images/bow_tie02.jpg","img/object_images/gift_box03.jpg","1","1","0","0","0","0","0.549428900005296","0.562745000002906","0.60517599992454","1","1","1","1","1","1","1","1","1"
"260048","img/object_images/gift_box03.jpg","img/object_images/jacket03.jpg","img/object_images/vga_port 01.jpg","0","1","0","0","0","0","0.60517599992454","0.549428900005296","0.483824100112543","1","1","1","1","1","1","1","1","1"
"260048","img/object_images/vga_port 01.jpg","img/object_images/gift_box03.jpg","img/object_images/fork03.jpg","0","0","1","0","0","1","0.483824100112543","0.60517599992454","0.656527400016785","1","1","1","1","1","1","1","1","1"
"260048","img/object_images/fork03.jpg","img/object_images/vga_port 01.jpg","img/object_images/dresser04.jpg","1","0","1","1","0","0","0.656527400016785","0.483824100112543","0.656574300024658","1","1","1","1","1","1","1","1","1"
"260048","img/object_images/dresser04.jpg","img/object_images/fork03.jpg","img/object_images/pitcher02.jpg","1","1","1","0","1","1","0.656574300024658","0.656527400016785","0.591797700151801","1","1","1","1","1","1","1","1","1"
"260048","img/object_images/pitcher02.jpg","img/object_images/dresser04.jpg","img/object_images/couch03.jpg","1","1","1","1","0","0","0.591797700151801","0.656574300024658","0.512528599938378","1","1","1","1","1","1","1","1","1"
"260048","img/object_images/couch03.jpg","img/object_images/pitcher02.jpg","img/object_images/bow_tie01.jpg","1","1","0","0","1","0","0.512528599938378","0.591797700151801","0.463297300040722","1","1","1","1","1","1","1","1","1"
"260048","img/object_images/bow_tie01.jpg","img/object_images/couch03.jpg","img/object_images/ironing_table01.jpg","0","1","1","0","0","0","0.463297300040722","0.512528599938378","0.495975099969655","1","1","1","1","1","1","1","1","1"
"260048","img/object_images/ironing_table01.jpg","img/object_images/bow_tie01.jpg",NA,"1","0",NA,"0","0",NA,"0.495975099969655","0.463297300040722",NA,"1","1",NA,"1","1",NA,"1","1",NA
"260048","img/object_images/microphone03.jpg",NA,"img/object_images/Vest02.jpg","1",NA,"1","1",NA,"0","1.16773879993707",NA,"0.617524100001901","1",NA,"1","1",NA,"1","1",NA,"1"
"260048","img/object_images/Vest02.jpg","img/object_images/microphone03.jpg","img/object_images/fan04.jpg","1","1","0","0","1","0","0.617524100001901","1.16773879993707","0.681730800075457","1","1","1","1","1","1","1","1","1"
"260048","img/object_images/fan04.jpg","img/object_images/Vest02.jpg","img/object_images/laptop03.jpg","0","1","1","0","0","1","0.681730800075457","0.617524100001901","0.546093699987978","1","1","1","1","1","1","1","1","1"
"260048","img/object_images/laptop03.jpg","img/object_images/fan04.jpg","img/object_images/pitcher05.jpg","1","0","1","1","0","0","0.546093699987978","0.681730800075457","0.691358299925923","1","1","1","1","1","1","1","1","1"
"260048","img/object_images/pitcher05.jpg","img/object_images/laptop03.jpg","img/object_images/towels01.jpg","1","1","0","0","1","0","0.691358299925923","0.546093699987978","0.471827300032601","1","1","1","1","1","1","1","1","1"
"260048","img/object_images/towels01.jpg","img/object_images/pitcher05.jpg","img/object_images/helmet02.jpg","0","1","0","0","0","0","0.471827300032601","0.691358299925923","0.777609599987045","1","1","1","1","1","1","1","1","1"
"260048","img/object_images/helmet02.jpg","img/object_images/towels01.jpg","img/object_images/shoes08.jpg","0","0","1","0","0","1","0.777609599987045","0.471827300032601","0.7552285999991","1","1","1","1","1","1","1","1","1"
"260048","img/object_images/shoes08.jpg","img/object_images/helmet02.jpg","img/object_images/gift_box05.jpg","1","0","1","1","0","0","0.7552285999991","0.777609599987045","0.660418699961156","1","1","1","1","1","1","1","1","1"
"260048","img/object_images/gift_box05.jpg","img/object_images/shoes08.jpg","img/object_images/Lint_Roller02.jpg","1","1","0","0","1","0","0.660418699961156","0.7552285999991","0.760441199876368","1","1","1","1","1","1","1","1","1"
"260048","img/object_images/Lint_Roller02.jpg","img/object_images/gift_box05.jpg","img/object_images/robe01.jpg","0","1","1","0","0","1","0.760441199876368","0.660418699961156","0.564686600118876","1","1","1","1","1","1","1","1","1"
"260048","img/object_images/robe01.jpg","img/object_images/Lint_Roller02.jpg","img/object_images/umbrella01.jpg","1","0","1","1","0","0","0.564686600118876","0.760441199876368","0.487642300082371","1","1","1","1","1","1","1","1","1"
"260048","img/object_images/umbrella01.jpg","img/object_images/robe01.jpg","img/object_images/stove01.jpg","1","1","0","0","1","0","0.487642300082371","0.564686600118876","0.445498799905181","1","1","1","1","1","1","1","1","1"
"260048","img/object_images/stove01.jpg","img/object_images/umbrella01.jpg","img/object_images/chess_piece01.jpg","0","1","1","0","0","0","0.445498799905181","0.487642300082371","0.695695400005206","1","1","1","1","1","1","1","1","1"
"260048","img/object_images/chess_piece01.jpg","img/object_images/stove01.jpg","img/object_images/hair_dryer01.jpg","1","0","1","0","0","0","0.695695400005206","0.445498799905181","0.592693999875337","1","1","1","1","1","1","1","1","1"
"260048","img/object_images/hair_dryer01.jpg","img/object_images/chess_piece01.jpg","img/object_images/toy05.jpg","1","1","0","0","0","0","0.592693999875337","0.695695400005206","0.552598899928853","1","1","1","1","1","1","1","1","1"
"260048","img/object_images/toy05.jpg","img/object_images/hair_dryer01.jpg","img/object_images/surf_board01.jpg","0","1","1","0","0","1","0.552598899928853","0.592693999875337","0.706986799836159","1","1","1","1","1","1","1","1","1"
"260048","img/object_images/surf_board01.jpg","img/object_images/toy05.jpg","img/object_images/accardion01.jpg","1","0","1","1","0","1","0.706986799836159","0.552598899928853","0.667843099916354","1","1","1","1","1","1","1","1","1"
"260048","img/object_images/accardion01.jpg","img/object_images/surf_board01.jpg","img/object_images/bucket02.jpg","1","1","1","1","1","1","0.667843099916354","0.706986799836159","0.533494400093332","1","1","1","1","1","1","1","1","1"
"260048","img/object_images/bucket02.jpg","img/object_images/accardion01.jpg","img/object_images/spatula02.jpg","1","1","1","1","1","1","0.533494400093332","0.667843099916354","0.470033599995077","1","1","1","1","1","1","1","1","1"
"260048","img/object_images/spatula02.jpg","img/object_images/bucket02.jpg","img/object_images/laptop01.jpg","1","1","1","1","1","0","0.470033599995077","0.533494400093332","0.790476800175384","1","1","1","1","1","1","1","1","1"
"260048","img/object_images/laptop01.jpg","img/object_images/spatula02.jpg","img/object_images/backpack03.jpg","1","1","1","0","1","1","0.790476800175384","0.470033599995077","0.766883499920368","1","1","1","1","1","1","1","1","1"
"260048","img/object_images/backpack03.jpg","img/object_images/laptop01.jpg","img/object_images/combs01.jpg","1","1","1","1","0","1","0.766883499920368","0.790476800175384","0.515221800189465","1","1","1","1","1","1","1","1","1"
"260048","img/object_images/combs01.jpg","img/object_images/backpack03.jpg","img/object_images/jewel03.jpg","1","1","1","1","1","1","0.515221800189465","0.766883499920368","0.737910599913448","1","1","1","1","1","1","1","1","1"
"260048","img/object_images/jewel03.jpg","img/object_images/combs01.jpg","img/object_images/trash_can03.jpg","1","1","1","1","1","1","0.737910599913448","0.515221800189465","0.758652299875394","1","1","1","1","1","1","1","1","1"
"260048","img/object_images/trash_can03.jpg","img/object_images/jewel03.jpg","img/object_images/ball02.jpg","1","1","1","1","1","1","0.758652299875394","0.737910599913448","0.784869800088927","1","1","1","1","1","1","1","1","1"
"260048","img/object_images/ball02.jpg","img/object_images/trash_can03.jpg","img/object_images/vase01.jpg","1","1","1","1","1","0","0.784869800088927","0.758652299875394","0.969092899933457","1","1","1","1","1","1","1","1","1"
"260048","img/object_images/vase01.jpg","img/object_images/ball02.jpg","img/object_images/lock01.jpg","1","1","1","0","1","0","0.969092899933457","0.784869800088927","0.685934700071812","1","1","1","1","1","1","1","1","1"
"260048","img/object_images/lock01.jpg","img/object_images/vase01.jpg","img/object_images/hair_brush02.jpg","1","1","1","0","0","0","0.685934700071812","0.969092899933457","0.640871800016612","1","1","1","1","1","1","1","1","1"
"260048","img/object_images/hair_brush02.jpg","img/object_images/lock01.jpg","img/object_images/calculator01.jpg","1","1","0","0","0","1","0.640871800016612","0.685934700071812","1.59108059993014","1","1","1","1","1","1","1","1","1"
"260048","img/object_images/calculator01.jpg","img/object_images/hair_brush02.jpg","img/object_images/trash_can05.jpg","0","1","1","1","0","1","1.59108059993014","0.640871800016612","0.561275899875909","1","1","1","1","1","1","1","1","1"
"260048","img/object_images/trash_can05.jpg","img/object_images/calculator01.jpg","img/object_images/chair02.jpg","1","0","1","1","1","1","0.561275899875909","1.59108059993014","0.507256599841639","1","1","1","1","1","1","1","1","1"
"260048","img/object_images/chair02.jpg","img/object_images/trash_can05.jpg",NA,"1","1",NA,"1","1",NA,"0.507256599841639","0.561275899875909",NA,"1","1",NA,"1","1",NA,"1","1",NA
"260048","img/object_images/ladle02.jpg",NA,"img/object_images/razor01.jpg","1",NA,"1","0",NA,"0","1.19184320000932",NA,"0.740133400075138","1",NA,"1","1",NA,"1","1",NA,"1"
"260048","img/object_images/razor01.jpg","img/object_images/ladle02.jpg","img/object_images/car03.jpg","1","1","1","0","0","0","0.740133400075138","1.19184320000932","0.485019200015813","1","1","1","1","1","1","1","1","1"
"260048","img/object_images/car03.jpg","img/object_images/razor01.jpg","img/object_images/ice_tray03.jpg","1","1","1","0","0","1","0.485019200015813","0.740133400075138","0.736421899870038","1","1","1","1","1","1","1","1","1"
"260048","img/object_images/ice_tray03.jpg","img/object_images/car03.jpg","img/object_images/mask01.jpg","1","1","1","1","0","0","0.736421899870038","0.485019200015813","0.520770200062543","1","1","1","1","1","1","1","1","1"
"260048","img/object_images/mask01.jpg","img/object_images/ice_tray03.jpg","img/object_images/chair04.jpg","1","1","1","0","1","1","0.520770200062543","0.736421899870038","0.517251600045711","1","1","1","1","1","1","1","1","1"
"260048","img/object_images/chair04.jpg","img/object_images/mask01.jpg","img/object_images/dress03.jpg","1","1","1","1","0","1","0.517251600045711","0.520770200062543","0.506404699990526","1","1","1","1","1","1","1","1","1"
"260048","img/object_images/dress03.jpg","img/object_images/chair04.jpg","img/object_images/belt01.jpg","1","1","1","1","1","0","0.506404699990526","0.517251600045711","0.705228799954057","1","1","1","1","1","1","1","1","1"
"260048","img/object_images/belt01.jpg","img/object_images/dress03.jpg","img/object_images/screwdriver01.jpg","1","1","1","0","1","0","0.705228799954057","0.506404699990526","0.611174499848858","1","1","1","1","1","1","1","1","1"
"260048","img/object_images/screwdriver01.jpg","img/object_images/belt01.jpg","img/object_images/ribbon01.jpg","1","1","1","0","0","0","0.611174499848858","0.705228799954057","0.507527899928391","1","1","1","1","1","1","1","1","1"
"260048","img/object_images/ribbon01.jpg","img/object_images/screwdriver01.jpg","img/object_images/jewelry07.jpg","1","1","0","0","0","1","0.507527899928391","0.611174499848858","0.511968200094998","1","1","1","1","1","1","1","1","1"
"260048","img/object_images/jewelry07.jpg","img/object_images/ribbon01.jpg","img/object_images/car04.jpg","0","1","1","1","0","0","0.511968200094998","0.507527899928391","0.531385799869895","1","1","1","1","1","1","1","1","1"
"260048","img/object_images/car04.jpg","img/object_images/jewelry07.jpg","img/object_images/cutting_board01.jpg","1","0","1","0","1","1","0.531385799869895","0.511968200094998","0.36619700002484","1","1","1","1","1","1","1","1","1"
"260048","img/object_images/cutting_board01.jpg","img/object_images/car04.jpg","img/object_images/binoculars03.jpg","1","1","1","1","0","1","0.36619700002484","0.531385799869895","0.669449500041083","1","1","1","1","1","1","1","1","1"
"260048","img/object_images/binoculars03.jpg","img/object_images/cutting_board01.jpg","img/object_images/satellite01.jpg","1","1","1","1","1","0","0.669449500041083","0.36619700002484","0.619612599955872","1","1","1","1","1","1","1","1","1"
"260048","img/object_images/satellite01.jpg","img/object_images/binoculars03.jpg","img/object_images/shoes10.jpg","1","1","1","0","1","0","0.619612599955872","0.669449500041083","0.671775200171396","1","1","1","1","1","1","1","1","1"
"260048","img/object_images/shoes10.jpg","img/object_images/satellite01.jpg","img/object_images/MeasuringCup01.jpg","1","1","1","0","0","1","0.671775200171396","0.619612599955872","0.536999099887908","1","1","1","1","1","1","1","1","1"
"260048","img/object_images/MeasuringCup01.jpg","img/object_images/shoes10.jpg","img/object_images/shower_head03.jpg","1","1","1","1","0","1","0.536999099887908","0.671775200171396","0.708281100029126","1","1","1","1","1","1","1","1","1"
"260048","img/object_images/shower_head03.jpg","img/object_images/MeasuringCup01.jpg","img/object_images/tool11.jpg","1","1","1","1","1","1","0.708281100029126","0.536999099887908","0.670278100064024","1","1","1","1","1","1","1","1","1"
"260048","img/object_images/tool11.jpg","img/object_images/shower_head03.jpg","img/object_images/yarn02.jpg","1","1","0","1","1","0","0.670278100064024","0.708281100029126","0.622153799980879","1","1","1","1","1","1","1","1","1"
"260048","img/object_images/yarn02.jpg","img/object_images/tool11.jpg","img/object_images/WitchHat02.jpg","0","1","1","0","1","1","0.622153799980879","0.670278100064024","0.618010599864647","1","1","1","1","1","1","1","1","1"
"260048","img/object_images/WitchHat02.jpg","img/object_images/yarn02.jpg","img/object_images/key02.jpg","1","0","1","1","0","1","0.618010599864647","0.622153799980879","0.541147399926558","1","1","1","1","1","1","1","1","1"
"260048","img/object_images/key02.jpg","img/object_images/WitchHat02.jpg","img/object_images/jewel01.jpg","1","1","1","1","1","0","0.541147399926558","0.618010599864647","0.688778500072658","1","1","1","1","1","1","1","1","1"
"260048","img/object_images/jewel01.jpg","img/object_images/key02.jpg","img/object_images/tv01.jpg","1","1","1","0","1","0","0.688778500072658","0.541147399926558","0.532915299991146","1","1","1","1","1","1","1","1","1"
"260048","img/object_images/tv01.jpg","img/object_images/jewel01.jpg","img/object_images/fan05.jpg","1","1","1","0","0","0","0.532915299991146","0.688778500072658","0.56824789987877","1","1","1","1","1","1","1","1","1"
"260048","img/object_images/fan05.jpg","img/object_images/tv01.jpg","img/object_images/lemon_squeezer02.jpg","1","1","1","0","0","1","0.56824789987877","0.532915299991146","0.678158499998972","1","1","1","1","1","1","1","1","1"
"260048","img/object_images/lemon_squeezer02.jpg","img/object_images/fan05.jpg","img/object_images/rock03.jpg","1","1","1","1","0","0","0.678158499998972","0.56824789987877","0.591683299979195","1","1","1","1","1","1","1","1","1"
"260048","img/object_images/rock03.jpg","img/object_images/lemon_squeezer02.jpg","img/object_images/cards01.jpg","1","1","1","0","1","0","0.591683299979195","0.678158499998972","0.750104999868199","1","1","1","1","1","1","1","1","1"
"260048","img/object_images/cards01.jpg","img/object_images/rock03.jpg","img/object_images/hair_brush05.jpg","1","1","1","0","0","1","0.750104999868199","0.591683299979195","0.685440300032496","1","1","1","1","1","1","1","1","1"
"260048","img/object_images/hair_brush05.jpg","img/object_images/cards01.jpg","img/object_images/bag06.jpg","1","1","1","1","0","1","0.685440300032496","0.750104999868199","0.762613900005817","1","1","1","1","1","1","1","1","1"
"260048","img/object_images/bag06.jpg","img/object_images/hair_brush05.jpg","img/object_images/toaster02.jpg","1","1","1","1","1","1","0.762613900005817","0.685440300032496","0.590425600064918","1","1","1","1","1","1","1","1","1"
"260048","img/object_images/toaster02.jpg","img/object_images/bag06.jpg","img/object_images/slinky_toy01.jpg","1","1","1","1","1","1","0.590425600064918","0.762613900005817","0.657645499799401","1","1","1","1","1","1","1","1","1"
"260048","img/object_images/slinky_toy01.jpg","img/object_images/toaster02.jpg",NA,"1","1",NA,"1","1",NA,"0.657645499799401","0.590425600064918",NA,"1","1",NA,"1","1",NA,"1","1",NA
"260048","img/object_images/toilet_paper01.jpg",NA,"img/object_images/brief_case01.jpg","1",NA,"0","1",NA,"0","1.60606719995849",NA,"0.856103800004348","1",NA,"1","1",NA,"1","1",NA,"1"
"260048","img/object_images/brief_case01.jpg","img/object_images/toilet_paper01.jpg","img/object_images/razor03.jpg","0","1","1","0","1","0","0.856103800004348","1.60606719995849","0.673205399885774","1","1","1","1","1","1","1","1","1"
"260048","img/object_images/razor03.jpg","img/object_images/brief_case01.jpg","img/object_images/Wisk01.jpg","1","0","1","0","0","1","0.673205399885774","0.856103800004348","0.591335800010711","1","1","1","1","1","1","1","1","1"
"260048","img/object_images/Wisk01.jpg","img/object_images/razor03.jpg","img/object_images/airfryer01.jpg","1","1","1","1","0","0","0.591335800010711","0.673205399885774","0.600836500059813","1","1","1","1","1","1","1","1","1"
"260048","img/object_images/airfryer01.jpg","img/object_images/Wisk01.jpg","img/object_images/container01.jpg","1","1","1","0","1","0","0.600836500059813","0.591335800010711","0.583197199972346","1","1","1","1","1","1","1","1","1"
"260048","img/object_images/container01.jpg","img/object_images/airfryer01.jpg","img/object_images/guitar01.jpg","1","1","1","0","0","1","0.583197199972346","0.600836500059813","0.522271600086242","1","1","1","1","1","1","1","1","1"
"260048","img/object_images/guitar01.jpg","img/object_images/container01.jpg","img/object_images/cochlear_implant01.jpg","1","1","1","1","0","0","0.522271600086242","0.583197199972346","0.659148100065067","1","1","1","1","1","1","1","1","1"
"260048","img/object_images/cochlear_implant01.jpg","img/object_images/guitar01.jpg","img/object_images/couch04.jpg","1","1","1","0","1","1","0.659148100065067","0.522271600086242","0.588579199975356","1","1","1","1","1","1","1","1","1"
"260048","img/object_images/couch04.jpg","img/object_images/cochlear_implant01.jpg","img/object_images/video_game06.jpg","1","1","1","1","0","0","0.588579199975356","0.659148100065067","0.634620700031519","1","1","1","1","1","1","1","1","1"
"260048","img/object_images/video_game06.jpg","img/object_images/couch04.jpg","img/object_images/helmet05.jpg","1","1","1","0","1","1","0.634620700031519","0.588579199975356","0.611824200022966","1","1","1","1","1","1","1","1","1"
"260048","img/object_images/helmet05.jpg","img/object_images/video_game06.jpg","img/object_images/ironing_table02.jpg","1","1","1","1","0","0","0.611824200022966","0.634620700031519","0.491587499855086","1","1","1","1","1","1","1","1","1"
"260048","img/object_images/ironing_table02.jpg","img/object_images/helmet05.jpg","img/object_images/decorative02.jpg","1","1","1","0","1","0","0.491587499855086","0.611824200022966","0.546809599967673","1","1","1","1","1","1","1","1","1"
"260048","img/object_images/decorative02.jpg","img/object_images/ironing_table02.jpg","img/object_images/tie01.jpg","1","1","1","0","0","0","0.546809599967673","0.491587499855086","0.754903699969873","1","1","1","1","1","1","1","1","1"
"260048","img/object_images/tie01.jpg","img/object_images/decorative02.jpg","img/object_images/ball01.jpg","1","1","1","0","0","1","0.754903699969873","0.546809599967673","0.713327500037849","1","1","1","1","1","1","1","1","1"
"260048","img/object_images/ball01.jpg","img/object_images/tie01.jpg","img/object_images/soap01.jpg","1","1","1","1","0","0","0.713327500037849","0.754903699969873","0.751398199936375","1","1","1","1","1","1","1","1","1"
"260048","img/object_images/soap01.jpg","img/object_images/ball01.jpg","img/object_images/brief_case02.jpg","1","1","1","0","1","1","0.751398199936375","0.713327500037849","0.738656800007448","1","1","1","1","1","1","1","1","1"
"260048","img/object_images/brief_case02.jpg","img/object_images/soap01.jpg","img/object_images/gloves05.jpg","1","1","1","1","0","1","0.738656800007448","0.751398199936375","0.490106099983677","1","1","1","1","1","1","1","1","1"
"260048","img/object_images/gloves05.jpg","img/object_images/brief_case02.jpg","img/object_images/Recycling01.jpg","1","1","1","1","1","1","0.490106099983677","0.738656800007448","0.547510799951851","1","1","1","1","1","1","1","1","1"
"260048","img/object_images/Recycling01.jpg","img/object_images/gloves05.jpg","img/object_images/lamp01.jpg","1","1","1","1","1","1","0.547510799951851","0.490106099983677","0.440527200000361","1","1","1","1","1","1","1","1","1"
"260048","img/object_images/lamp01.jpg","img/object_images/Recycling01.jpg","img/object_images/drone02.jpg","1","1","1","1","1","0","0.440527200000361","0.547510799951851","0.667801799951121","1","1","1","1","1","1","1","1","1"
"260048","img/object_images/drone02.jpg","img/object_images/lamp01.jpg","img/object_images/car02.jpg","1","1","1","0","1","0","0.667801799951121","0.440527200000361","0.653819599887356","1","1","1","1","1","1","1","1","1"
"260048","img/object_images/car02.jpg","img/object_images/drone02.jpg","img/object_images/pot01.jpg","1","1","1","0","0","0","0.653819599887356","0.667801799951121","0.733196899993345","1","1","1","1","1","1","1","1","1"
"260048","img/object_images/pot01.jpg","img/object_images/car02.jpg","img/object_images/basketball_hoop02.jpg","1","1","1","0","0","0","0.733196899993345","0.653819599887356","0.594047900056466","1","1","1","1","1","1","1","1","1"
"260048","img/object_images/basketball_hoop02.jpg","img/object_images/pot01.jpg","img/object_images/toy_train02.jpg","1","1","1","0","0","1","0.594047900056466","0.733196899993345","0.592614700086415","1","1","1","1","1","1","1","1","1"
"260048","img/object_images/toy_train02.jpg","img/object_images/basketball_hoop02.jpg","img/object_images/chair01.jpg","1","1","1","1","0","0","0.592614700086415","0.594047900056466","0.60514419991523","1","1","1","1","1","1","1","1","1"
"260048","img/object_images/chair01.jpg","img/object_images/toy_train02.jpg","img/object_images/pitcher03.jpg","1","1","1","0","1","1","0.60514419991523","0.592614700086415","0.677192299859598","1","1","1","1","1","1","1","1","1"
"260048","img/object_images/pitcher03.jpg","img/object_images/chair01.jpg","img/object_images/bottle12.jpg","1","1","1","1","0","1","0.677192299859598","0.60514419991523","0.549211899982765","1","1","1","1","1","1","1","1","1"
"260048","img/object_images/bottle12.jpg","img/object_images/pitcher03.jpg","img/object_images/lantern01.jpg","1","1","1","1","1","1","0.549211899982765","0.677192299859598","0.490161299938336","1","1","1","1","1","1","1","1","1"
"260048","img/object_images/lantern01.jpg","img/object_images/bottle12.jpg","img/object_images/hat02.jpg","1","1","0","1","1","0","0.490161299938336","0.549211899982765","0.676456300076097","1","1","1","1","1","1","1","1","1"
"260048","img/object_images/hat02.jpg","img/object_images/lantern01.jpg","img/object_images/broom01.jpg","0","1","1","0","1","1","0.676456300076097","0.490161299938336","1.60318490001373","1","1","1","1","1","1","1","1","1"
"260048","img/object_images/broom01.jpg","img/object_images/hat02.jpg","img/object_images/Woopie01.jpg","1","0","1","1","0","1","1.60318490001373","0.676456300076097","0.67894300003536","1","1","1","1","1","1","1","1","1"
"260048","img/object_images/Woopie01.jpg","img/object_images/broom01.jpg",NA,"1","1",NA,"1","1",NA,"0.67894300003536","1.60318490001373",NA,"1","1",NA,"1","1",NA,"1","1",NA
"260048","img/object_images/knife01.jpg",NA,"img/object_images/vase02.jpg","1",NA,"1","1",NA,"1","1.12372309993953",NA,"0.627152599859983","1",NA,"1","1",NA,"1","1",NA,"1"
"260048","img/object_images/vase02.jpg","img/object_images/knife01.jpg","img/object_images/pen06.jpg","1","1","1","1","1","0","0.627152599859983","1.12372309993953","0.477557800011709","1","1","1","1","1","1","1","1","1"
"260048","img/object_images/pen06.jpg","img/object_images/vase02.jpg","img/object_images/pan03.jpg","1","1","1","0","1","1","0.477557800011709","0.627152599859983","0.462155999848619","1","1","1","1","1","1","1","1","1"
"260048","img/object_images/pan03.jpg","img/object_images/pen06.jpg","img/object_images/Candle_Holder01.jpg","1","1","0","1","0","0","0.462155999848619","0.477557800011709","0.532105900114402","1","1","1","1","1","1","1","1","1"
"260048","img/object_images/Candle_Holder01.jpg","img/object_images/pan03.jpg","img/object_images/hat09.jpg","0","1","0","0","1","0","0.532105900114402","0.462155999848619","0.354657200165093","1","1","1","1","1","1","1","1","1"
"260048","img/object_images/hat09.jpg","img/object_images/Candle_Holder01.jpg","img/object_images/board01.jpg","0","0","1","0","0","1","0.354657200165093","0.532105900114402","0.601184700150043","1","1","1","1","1","1","1","1","1"
"260048","img/object_images/board01.jpg","img/object_images/hat09.jpg","img/object_images/ruler02.jpg","1","0","1","1","0","1","0.601184700150043","0.354657200165093","0.517435800051317","1","1","1","1","1","1","1","1","1"
"260048","img/object_images/ruler02.jpg","img/object_images/board01.jpg","img/object_images/video_game02.jpg","1","1","1","1","1","1","0.517435800051317","0.601184700150043","0.490079800132662","1","1","1","1","1","1","1","1","1"
"260048","img/object_images/video_game02.jpg","img/object_images/ruler02.jpg","img/object_images/floss01.jpg","1","1","1","1","1","1","0.490079800132662","0.517435800051317","0.490761200198904","1","1","1","1","1","1","1","1","1"
"260048","img/object_images/floss01.jpg","img/object_images/video_game02.jpg","img/object_images/clipboard01.jpg","1","1","1","1","1","1","0.490761200198904","0.490079800132662","0.378815100062639","1","1","1","1","1","1","1","1","1"
"260048","img/object_images/clipboard01.jpg","img/object_images/floss01.jpg","img/object_images/dust_pan01.jpg","1","1","1","1","1","1","0.378815100062639","0.490761200198904","0.658053899882361","1","1","1","1","1","1","1","1","1"
"260048","img/object_images/dust_pan01.jpg","img/object_images/clipboard01.jpg","img/object_images/perfume01.jpg","1","1","0","1","1","0","0.658053899882361","0.378815100062639","0.757203500019386","1","1","1","1","1","1","1","1","1"
"260048","img/object_images/perfume01.jpg","img/object_images/dust_pan01.jpg","img/object_images/bag04.jpg","0","1","0","0","1","0","0.757203500019386","0.658053899882361","0.570465500000864","1","1","1","1","1","1","1","1","1"
"260048","img/object_images/bag04.jpg","img/object_images/perfume01.jpg","img/object_images/hammer02.jpg","0","0","0","0","0","0","0.570465500000864","0.757203500019386","0.330755000002682","1","1","1","1","1","1","1","1","1"
"260048","img/object_images/hammer02.jpg","img/object_images/bag04.jpg","img/object_images/hat13.jpg","0","0","1","0","0","1","0.330755000002682","0.570465500000864","0.395490699913353","1","1","1","1","1","1","1","1","1"
"260048","img/object_images/hat13.jpg","img/object_images/hammer02.jpg","img/object_images/tool13.jpg","1","0","1","1","0","1","0.395490699913353","0.330755000002682","0.541527699911967","1","1","1","1","1","1","1","1","1"
"260048","img/object_images/tool13.jpg","img/object_images/hat13.jpg","img/object_images/sink_filter01 (1).jpg","1","1","1","1","1","0","0.541527699911967","0.395490699913353","0.470482000149786","1","1","1","1","1","1","1","1","1"
"260048","img/object_images/sink_filter01 (1).jpg","img/object_images/tool13.jpg","img/object_images/cup01.jpg","1","1","1","0","1","0","0.470482000149786","0.541527699911967","0.53094940003939","1","1","1","1","1","1","1","1","1"
"260048","img/object_images/cup01.jpg","img/object_images/sink_filter01 (1).jpg","img/object_images/razor02.jpg","1","1","1","0","0","1","0.53094940003939","0.470482000149786","0.774362900061533","1","1","1","1","1","1","1","1","1"
"260048","img/object_images/razor02.jpg","img/object_images/cup01.jpg","img/object_images/camera05.jpg","1","1","1","1","0","0","0.774362900061533","0.53094940003939","0.523665999993682","1","1","1","1","1","1","1","1","1"
"260048","img/object_images/camera05.jpg","img/object_images/razor02.jpg","img/object_images/glasses03.jpg","1","1","0","0","1","0","0.523665999993682","0.774362900061533","0.60577020002529","1","1","1","1","1","1","1","1","2"
"260048","img/object_images/glasses03.jpg","img/object_images/camera05.jpg","img/object_images/candle02.jpg","0","1","1","0","0","0","0.60577020002529","0.523665999993682","0.535820200107992","1","1","1","1","1","1","2","1","1"
"260048","img/object_images/candle02.jpg","img/object_images/glasses03.jpg","img/object_images/lemon_squeezer01.jpg","1","0","1","0","0","1","0.535820200107992","0.60577020002529","0.590844699880108","1","1","1","1","1","1","1","2","1"
"260048","img/object_images/lemon_squeezer01.jpg","img/object_images/candle02.jpg","img/object_images/bow_tie03.jpg","1","1","1","1","0","1","0.590844699880108","0.535820200107992","0.547895799856633","1","1","1","1","1","1","1","1","1"
"260048","img/object_images/bow_tie03.jpg","img/object_images/lemon_squeezer01.jpg","img/object_images/office_supplies01.jpg","1","1","1","1","1","1","0.547895799856633","0.590844699880108","0.455487699946389","1","1","1","1","1","1","1","1","1"
"260048","img/object_images/office_supplies01.jpg","img/object_images/bow_tie03.jpg","img/object_images/duster01.jpg","1","1","0","1","1","0","0.455487699946389","0.547895799856633","0.348137699998915","1","1","1","1","1","1","1","1","1"
"260048","img/object_images/duster01.jpg","img/object_images/office_supplies01.jpg","img/object_images/tool20.jpg","0","1","0","0","1","0","0.348137699998915","0.455487699946389","0.4815920998808","1","1","1","1","1","1","1","1","1"
"260048","img/object_images/tool20.jpg","img/object_images/duster01.jpg","img/object_images/Confetti 01.jpg","0","0","1","0","0","0","0.4815920998808","0.348137699998915","0.847289300058037","1","1","1","1","1","1","1","1","1"
"260048","img/object_images/Confetti 01.jpg","img/object_images/tool20.jpg","img/object_images/sign02.jpg","1","0","0","0","0","0","0.847289300058037","0.4815920998808","0.44382379995659","1","1","1","1","1","1","1","1","1"
"260048","img/object_images/sign02.jpg","img/object_images/Confetti 01.jpg","img/object_images/socks01.jpg","0","1","1","0","0","1","0.44382379995659","0.847289300058037","0.48750720010139","1","1","1","1","1","1","1","1","1"
"260048","img/object_images/socks01.jpg","img/object_images/sign02.jpg","img/object_images/spray_can01.jpg","1","0","0","1","0","0","0.48750720010139","0.44382379995659","0.698456000071019","1","1","1","1","1","1","1","1","1"
"260048","img/object_images/spray_can01.jpg","img/object_images/socks01.jpg",NA,"0","1",NA,"0","1",NA,"0.698456000071019","0.48750720010139",NA,"1","1",NA,"1","1",NA,"1","1",NA
"260048","img/object_images/knife02.jpg",NA,"img/object_images/keyboard02.jpg","0",NA,"1","0",NA,"1","0.716161399846897",NA,"0.486912100110203","1",NA,"1","1",NA,"1","1",NA,"1"
"260048","img/object_images/keyboard02.jpg","img/object_images/knife02.jpg","img/object_images/dresser03.jpg","1","0","1","1","0","0","0.486912100110203","0.716161399846897","0.5766687002033","1","1","1","1","1","1","1","1","1"
"260048","img/object_images/dresser03.jpg","img/object_images/keyboard02.jpg","img/object_images/tool18.jpg","1","1","1","0","1","0","0.5766687002033","0.486912100110203","0.434094799915329","1","1","1","1","1","1","1","1","1"
"260048","img/object_images/tool18.jpg","img/object_images/dresser03.jpg","img/object_images/video_game01.jpg","1","1","1","0","0","1","0.434094799915329","0.5766687002033","0.469418799970299","1","1","1","1","1","1","1","1","1"
"260048","img/object_images/video_game01.jpg","img/object_images/tool18.jpg","img/object_images/matches02.jpg","1","1","1","1","0","0","0.469418799970299","0.434094799915329","0.571908700047061","1","1","1","1","1","1","1","1","1"
"260048","img/object_images/matches02.jpg","img/object_images/video_game01.jpg","img/object_images/paper_cup02.jpg","1","1","1","0","1","1","0.571908700047061","0.469418799970299","0.75827750004828","1","1","1","1","1","1","1","1","1"
"260048","img/object_images/paper_cup02.jpg","img/object_images/matches02.jpg","img/object_images/bottle07.jpg","1","1","1","1","0","1","0.75827750004828","0.571908700047061","0.504813399864361","1","1","1","1","1","1","1","1","1"
"260048","img/object_images/bottle07.jpg","img/object_images/paper_cup02.jpg","img/object_images/kite01.jpg","1","1","1","1","1","1","0.504813399864361","0.75827750004828","0.484887599945068","1","1","1","1","1","1","1","1","1"
"260048","img/object_images/kite01.jpg","img/object_images/bottle07.jpg","img/object_images/flashlight03.jpg","1","1","1","1","1","0","0.484887599945068","0.504813399864361","0.550357599975541","1","1","1","1","1","1","1","1","1"
"260048","img/object_images/flashlight03.jpg","img/object_images/kite01.jpg","img/object_images/remote_controller01.jpg","1","1","1","0","1","1","0.550357599975541","0.484887599945068","0.42048650002107","1","1","1","1","1","1","1","1","1"
"260048","img/object_images/remote_controller01.jpg","img/object_images/flashlight03.jpg","img/object_images/basket04.jpg","1","1","1","1","0","1","0.42048650002107","0.550357599975541","0.616526999976486","1","1","1","1","1","1","1","1","1"
"260048","img/object_images/basket04.jpg","img/object_images/remote_controller01.jpg","img/object_images/remover01.jpg","1","1","1","1","1","1","0.616526999976486","0.42048650002107","0.607444199966267","1","1","1","1","1","1","1","1","1"
"260048","img/object_images/remover01.jpg","img/object_images/basket04.jpg","img/object_images/toy08.jpg","1","1","1","1","1","0","0.607444199966267","0.616526999976486","0.545044500147924","1","1","1","1","1","1","1","1","1"
"260048","img/object_images/toy08.jpg","img/object_images/remover01.jpg","img/object_images/backpack01.jpg","1","1","1","0","1","0","0.545044500147924","0.607444199966267","0.547367600025609","1","1","1","1","1","1","1","1","1"
"260048","img/object_images/backpack01.jpg","img/object_images/toy08.jpg","img/object_images/jacket04.jpg","1","1","1","0","0","0","0.547367600025609","0.545044500147924","0.423452600138262","1","1","1","1","1","1","1","1","1"
"260048","img/object_images/jacket04.jpg","img/object_images/backpack01.jpg","img/object_images/Statue01.jpg","1","1","1","0","0","1","0.423452600138262","0.547367600025609","0.554272399982437","1","1","1","1","1","1","1","1","1"
"260048","img/object_images/Statue01.jpg","img/object_images/jacket04.jpg","img/object_images/boat04.jpg","1","1","0","1","0","0","0.554272399982437","0.423452600138262","0.7404621001333","1","1","1","1","1","1","1","1","1"
"260048","img/object_images/boat04.jpg","img/object_images/Statue01.jpg","img/object_images/camera03.jpg","0","1","1","0","1","0","0.7404621001333","0.554272399982437","0.864209000021219","1","1","1","1","1","1","1","1","1"
"260048","img/object_images/camera03.jpg","img/object_images/boat04.jpg","img/object_images/knit04.jpg","1","0","1","0","0","1","0.864209000021219","0.7404621001333","0.526210100157186","1","1","1","1","1","1","1","1","1"
"260048","img/object_images/knit04.jpg","img/object_images/camera03.jpg","img/object_images/gloves02.jpg","1","1","0","1","0","0","0.526210100157186","0.864209000021219","0.50949260010384","1","1","1","1","1","1","1","1","1"
"260048","img/object_images/gloves02.jpg","img/object_images/knit04.jpg","img/object_images/sponge03.jpg","0","1","1","0","1","1","0.50949260010384","0.526210100157186","0.56187089998275","1","1","1","1","1","1","1","1","1"
"260048","img/object_images/sponge03.jpg","img/object_images/gloves02.jpg","img/object_images/shower_head01.jpg","1","0","1","1","0","1","0.56187089998275","0.50949260010384","0.47209809999913","1","1","1","1","1","1","1","1","1"
"260048","img/object_images/shower_head01.jpg","img/object_images/sponge03.jpg","img/object_images/knit03.jpg","1","1","1","1","1","1","0.47209809999913","0.56187089998275","0.43738600006327","1","1","1","1","1","1","1","1","1"
"260048","img/object_images/knit03.jpg","img/object_images/shower_head01.jpg","img/object_images/hoverboard01.jpg","1","1","1","1","1","0","0.43738600006327","0.47209809999913","0.620902300113812","1","1","1","1","1","1","1","1","1"
"260048","img/object_images/hoverboard01.jpg","img/object_images/knit03.jpg","img/object_images/phone02.jpg","1","1","0","0","1","1","0.620902300113812","0.43738600006327","0.918115200009197","1","1","1","1","1","1","1","1","1"
"260048","img/object_images/phone02.jpg","img/object_images/hoverboard01.jpg","img/object_images/stereo02.jpg","0","1","1","1","0","0","0.918115200009197","0.620902300113812","0.535036000190303","1","1","1","1","1","1","1","1","1"
"260048","img/object_images/stereo02.jpg","img/object_images/phone02.jpg","img/object_images/mail_box01.jpg","1","0","1","0","1","0","0.535036000190303","0.918115200009197","0.617388400016353","1","1","1","1","1","1","1","1","1"
"260048","img/object_images/mail_box01.jpg","img/object_images/stereo02.jpg","img/object_images/car01.jpg","1","1","1","0","0","1","0.617388400016353","0.535036000190303","0.511686499929056","1","1","1","1","1","1","1","1","1"
"260048","img/object_images/car01.jpg","img/object_images/mail_box01.jpg","img/object_images/blender02.jpg","1","1","1","1","0","1","0.511686499929056","0.617388400016353","0.584552000043914","1","1","1","1","1","1","1","1","1"
"260048","img/object_images/blender02.jpg","img/object_images/car01.jpg","img/object_images/hand_grip_exerciser01.jpg","1","1","1","1","1","0","0.584552000043914","0.511686499929056","0.66480699996464","1","1","1","1","1","1","1","1","1"
"260048","img/object_images/hand_grip_exerciser01.jpg","img/object_images/blender02.jpg","img/object_images/curtain02.jpg","1","1","1","0","1","0","0.66480699996464","0.584552000043914","0.633452199865133","1","1","1","1","1","1","1","1","1"
"260048","img/object_images/curtain02.jpg","img/object_images/hand_grip_exerciser01.jpg",NA,"1","1",NA,"0","0",NA,"0.633452199865133","0.66480699996464",NA,"1","1",NA,"1","1",NA,"1","1",NA
"260048","img/object_images/WoodBox01.jpg",NA,"img/object_images/tool19.jpg","1",NA,"1","0",NA,"1","0.794258000096306",NA,"0.621445399941877","1",NA,"1","1",NA,"1","1",NA,"1"
"260048","img/object_images/tool19.jpg","img/object_images/WoodBox01.jpg","img/object_images/purse04.jpg","1","1","1","1","0","1","0.621445399941877","0.794258000096306","0.414718199986964","1","1","1","1","1","1","1","1","1"
"260048","img/object_images/purse04.jpg","img/object_images/tool19.jpg","img/object_images/bean_bag02.jpg","1","1","0","1","1","1","0.414718199986964","0.621445399941877","0.446013199863955","1","1","1","1","1","1","1","1","1"
"260048","img/object_images/bean_bag02.jpg","img/object_images/purse04.jpg","img/object_images/coloring_pencil02.jpg","0","1","1","1","1","0","0.446013199863955","0.414718199986964","0.648693599971011","1","1","1","1","1","1","1","1","1"
"260048","img/object_images/coloring_pencil02.jpg","img/object_images/bean_bag02.jpg","img/object_images/piggy_bank01.jpg","1","0","1","0","1","1","0.648693599971011","0.446013199863955","0.554510699817911","1","1","1","1","1","1","1","1","1"
"260048","img/object_images/piggy_bank01.jpg","img/object_images/coloring_pencil02.jpg","img/object_images/camera_lens01.jpg","1","1","1","1","0","1","0.554510699817911","0.648693599971011","0.53735650004819","1","1","1","1","1","1","1","1","1"
"260048","img/object_images/camera_lens01.jpg","img/object_images/piggy_bank01.jpg","img/object_images/water_scooter01.jpg","1","1","0","1","1","1","0.53735650004819","0.554510699817911","0.512602600036189","1","1","1","1","1","1","1","1","1"
"260048","img/object_images/water_scooter01.jpg","img/object_images/camera_lens01.jpg","img/object_images/wagon_cart03.jpg","0","1","1","1","1","1","0.512602600036189","0.53735650004819","0.648932100040838","1","1","1","1","1","1","1","1","1"
"260048","img/object_images/wagon_cart03.jpg","img/object_images/water_scooter01.jpg","img/object_images/dog_leash01.jpg","1","0","1","1","1","0","0.648932100040838","0.512602600036189","0.625418200157583","1","1","1","1","1","1","1","1","1"
"260048","img/object_images/dog_leash01.jpg","img/object_images/wagon_cart03.jpg","img/object_images/hot_air_balloon02.jpg","1","1","1","0","1","0","0.625418200157583","0.648932100040838","0.498566399794072","1","1","1","1","1","1","1","1","1"
"260048","img/object_images/hot_air_balloon02.jpg","img/object_images/dog_leash01.jpg","img/object_images/audio_port01.jpg","1","1","1","0","0","1","0.498566399794072","0.625418200157583","0.524845600128174","1","1","1","1","1","1","1","1","1"
"260048","img/object_images/audio_port01.jpg","img/object_images/hot_air_balloon02.jpg","img/object_images/toilet_paper_dispenser01.jpg","1","1","1","1","0","1","0.524845600128174","0.498566399794072","0.475938900141046","1","1","1","1","1","1","1","1","1"
"260048","img/object_images/toilet_paper_dispenser01.jpg","img/object_images/audio_port01.jpg","img/object_images/helmet04.jpg","1","1","1","1","1","1","0.475938900141046","0.524845600128174","0.413655700162053","1","1","1","1","1","1","1","1","1"
"260048","img/object_images/helmet04.jpg","img/object_images/toilet_paper_dispenser01.jpg","img/object_images/tie02.jpg","1","1","1","1","1","0","0.413655700162053","0.475938900141046","0.596619199961424","1","1","1","1","1","1","1","1","1"
"260048","img/object_images/tie02.jpg","img/object_images/helmet04.jpg","img/object_images/shoes07.jpg","1","1","1","0","1","0","0.596619199961424","0.413655700162053","0.464458000147715","1","1","1","1","1","1","1","1","1"
"260048","img/object_images/shoes07.jpg","img/object_images/tie02.jpg","img/object_images/flask01.jpg","1","1","1","0","0","0","0.464458000147715","0.596619199961424","0.478781600017101","1","1","1","1","1","1","1","1","1"
"260048","img/object_images/flask01.jpg","img/object_images/shoes07.jpg","img/object_images/bottle02.jpg","1","1","1","0","0","1","0.478781600017101","0.464458000147715","0.576506800018251","1","1","1","1","1","1","1","1","1"
"260048","img/object_images/bottle02.jpg","img/object_images/flask01.jpg","img/object_images/cellphone03.jpg","1","1","1","1","0","0","0.576506800018251","0.478781600017101","0.518565699923784","1","1","1","1","1","1","1","1","1"
"260048","img/object_images/cellphone03.jpg","img/object_images/bottle02.jpg","img/object_images/perfume02.jpg","1","1","1","0","1","0","0.518565699923784","0.576506800018251","0.549781600013375","1","1","1","1","1","1","1","1","1"
"260048","img/object_images/perfume02.jpg","img/object_images/cellphone03.jpg","img/object_images/hat06.jpg","1","1","1","0","0","0","0.549781600013375","0.518565699923784","0.464586600195616","1","1","1","1","1","1","1","1","1"
"260048","img/object_images/hat06.jpg","img/object_images/perfume02.jpg","img/object_images/scoreboard01.jpg","1","1","1","0","0","1","0.464586600195616","0.549781600013375","0.63131479988806","1","1","1","1","1","1","1","1","1"
"260048","img/object_images/scoreboard01.jpg","img/object_images/hat06.jpg","img/object_images/bottle10.jpg","1","1","1","1","0","1","0.63131479988806","0.464586600195616","0.649900199845433","1","1","1","1","1","1","1","1","1"
"260048","img/object_images/bottle10.jpg","img/object_images/scoreboard01.jpg","img/object_images/fan02.jpg","1","1","1","1","1","0","0.649900199845433","0.63131479988806","0.594043199904263","1","1","1","1","1","1","1","1","1"
"260048","img/object_images/fan02.jpg","img/object_images/bottle10.jpg","img/object_images/chair03.jpg","1","1","1","0","1","0","0.594043199904263","0.649900199845433","0.752169599989429","1","1","1","1","1","1","1","1","1"
"260048","img/object_images/chair03.jpg","img/object_images/fan02.jpg","img/object_images/knit01.jpg","1","1","1","0","0","0","0.752169599989429","0.594043199904263","0.631415900075808","1","1","1","1","1","1","1","1","1"
"260048","img/object_images/knit01.jpg","img/object_images/chair03.jpg","img/object_images/boat02.jpg","1","1","1","0","0","1","0.631415900075808","0.752169599989429","0.809525900054723","1","1","1","1","1","1","1","1","1"
"260048","img/object_images/boat02.jpg","img/object_images/knit01.jpg","img/object_images/bicycle01.jpg","1","1","1","1","0","1","0.809525900054723","0.631415900075808","0.603803599951789","1","1","1","1","1","1","1","1","1"
"260048","img/object_images/bicycle01.jpg","img/object_images/boat02.jpg","img/object_images/boat_toy10.jpg","1","1","1","1","1","0","0.603803599951789","0.809525900054723","0.470651999814436","1","1","1","1","1","1","1","1","1"
"260048","img/object_images/boat_toy10.jpg","img/object_images/bicycle01.jpg","img/object_images/pen05.jpg","1","1","1","0","1","0","0.470651999814436","0.603803599951789","0.598577799974009","1","1","1","1","1","1","1","1","1"
"260048","img/object_images/pen05.jpg","img/object_images/boat_toy10.jpg","img/object_images/toaster01.jpg","1","1","1","0","0","1","0.598577799974009","0.470651999814436","0.519522000104189","1","1","1","1","1","1","1","1","1"
"260048","img/object_images/toaster01.jpg","img/object_images/pen05.jpg","img/object_images/bottle09.jpg","1","1","1","1","0","0","0.519522000104189","0.598577799974009","0.529677999904379","1","1","1","1","1","1","1","1","1"
"260048","img/object_images/bottle09.jpg","img/object_images/toaster01.jpg",NA,"1","1",NA,"0","1",NA,"0.529677999904379","0.519522000104189",NA,"1","1",NA,"1","1",NA,"1","1",NA
"260048","img/object_images/tool02.jpg",NA,"img/object_images/bottle05.jpg","0",NA,"0","1",NA,"0",NA,NA,"0.00222030002623796","0",NA,"1","0",NA,"0","0",NA,"2"
"260048","img/object_images/bottle05.jpg","img/object_images/tool02.jpg","img/object_images/Ring02.jpg","0","0","1","0","1","0","0.00222030002623796",NA,"0.625681299949065","1","0","1","0","0","1","2","0","1"
"260048","img/object_images/Ring02.jpg","img/object_images/bottle05.jpg","img/object_images/bow01.jpg","1","0","1","0","0","1","0.625681299949065","0.00222030002623796","0.426085900049657","1","1","1","1","0","1","1","2","1"
"260048","img/object_images/bow01.jpg","img/object_images/Ring02.jpg","img/object_images/mirror01.jpg","1","1","1","1","0","1","0.426085900049657","0.625681299949065","0.398370299953967","1","1","1","1","1","1","1","1","1"
"260048","img/object_images/mirror01.jpg","img/object_images/bow01.jpg","img/object_images/helmet01.jpg","1","1","1","1","1","0","0.398370299953967","0.426085900049657","0.414816600037739","1","1","1","1","1","1","1","1","1"
"260048","img/object_images/helmet01.jpg","img/object_images/mirror01.jpg","img/object_images/judge_gavel01.jpg","1","1","0","0","1","1","0.414816600037739","0.398370299953967","0.413577599916607","1","1","1","1","1","1","1","1","1"
"260048","img/object_images/judge_gavel01.jpg","img/object_images/helmet01.jpg","img/object_images/fridge03.jpg","0","1","0","1","0","0","0.413577599916607","0.414816600037739","0.398395899916068","1","1","1","1","1","1","1","1","1"
"260048","img/object_images/fridge03.jpg","img/object_images/judge_gavel01.jpg","img/object_images/Tin01.jpg","0","0","0","0","1","1","0.398395899916068","0.413577599916607","0.542314699850976","1","1","1","1","1","1","1","1","2"
"260048","img/object_images/Tin01.jpg","img/object_images/fridge03.jpg","img/object_images/video_game07.jpg","0","0","1","1","0","1","0.542314699850976","0.398395899916068","0.634475399972871","1","1","1","1","1","1","2","1","1"
"260048","img/object_images/video_game07.jpg","img/object_images/Tin01.jpg","img/object_images/towel02.jpg","1","0","1","1","1","1","0.634475399972871","0.542314699850976","0.49254609993659","1","1","1","1","1","1","1","2","1"
"260048","img/object_images/towel02.jpg","img/object_images/video_game07.jpg","img/object_images/dart01.jpg","1","1","0","1","1","0","0.49254609993659","0.634475399972871","0.611605999991298","1","1","1","1","1","1","1","1","1"
"260048","img/object_images/dart01.jpg","img/object_images/towel02.jpg","img/object_images/jewel04.jpg","0","1","0","0","1","0","0.611605999991298","0.49254609993659","0.433243700070307","1","1","1","1","1","1","1","1","1"
"260048","img/object_images/jewel04.jpg","img/object_images/dart01.jpg","img/object_images/ornament01.jpg","0","0","1","0","0","1","0.433243700070307","0.611605999991298","0.419854799984023","1","1","1","1","1","1","1","1","1"
"260048","img/object_images/ornament01.jpg","img/object_images/jewel04.jpg","img/object_images/MetalWire01.jpg","1","0","1","1","0","0","0.419854799984023","0.433243700070307","0.755251599941403","1","1","1","1","1","1","1","1","1"
"260048","img/object_images/MetalWire01.jpg","img/object_images/ornament01.jpg","img/object_images/bird_house02.jpg","1","1","1","0","1","1","0.755251599941403","0.419854799984023","0.672947800019756","1","1","1","1","1","1","1","1","1"
"260048","img/object_images/bird_house02.jpg","img/object_images/MetalWire01.jpg","img/object_images/guitar02.jpg","1","1","1","1","0","0","0.672947800019756","0.755251599941403","0.646962799830362","1","1","1","1","1","1","1","1","1"
"260048","img/object_images/guitar02.jpg","img/object_images/bird_house02.jpg","img/object_images/stapler.jpg","1","1","1","0","1","1","0.646962799830362","0.672947800019756","0.544912399956957","1","1","1","1","1","1","1","1","1"
"260048","img/object_images/stapler.jpg","img/object_images/guitar02.jpg","img/object_images/outlet01.jpg","1","1","1","1","0","0","0.544912399956957","0.646962799830362","0.543973899912089","1","1","1","1","1","1","1","1","1"
"260048","img/object_images/outlet01.jpg","img/object_images/stapler.jpg","img/object_images/acoustic_capo01.jpg","1","1","1","0","1","1","0.543973899912089","0.544912399956957","0.627495200140402","1","1","1","1","1","1","1","1","1"
"260048","img/object_images/acoustic_capo01.jpg","img/object_images/outlet01.jpg","img/object_images/tool09.jpg","1","1","1","1","0","1","0.627495200140402","0.543973899912089","0.520562499994412","1","1","1","1","1","1","1","1","1"
"260048","img/object_images/tool09.jpg","img/object_images/acoustic_capo01.jpg","img/object_images/pot01 (1).jpg","1","1","1","1","1","0","0.520562499994412","0.627495200140402","0.657862500054762","1","1","1","1","1","1","1","1","1"
"260048","img/object_images/pot01 (1).jpg","img/object_images/tool09.jpg","img/object_images/toy04.jpg","1","1","1","0","1","0","0.657862500054762","0.520562499994412","0.576284999959171","1","1","1","1","1","1","1","1","1"
"260048","img/object_images/toy04.jpg","img/object_images/pot01 (1).jpg","img/object_images/shovel03.jpg","1","1","1","0","0","1","0.576284999959171","0.657862500054762","0.667842699913308","1","1","1","1","1","1","1","1","1"
"260048","img/object_images/shovel03.jpg","img/object_images/toy04.jpg","img/object_images/gauze01.jpg","1","1","1","1","0","0","0.667842699913308","0.576284999959171","0.592287000035867","1","1","1","1","1","1","1","1","1"
"260048","img/object_images/gauze01.jpg","img/object_images/shovel03.jpg","img/object_images/crown02.jpg","1","1","1","0","1","1","0.592287000035867","0.667842699913308","0.476186600048095","1","1","1","1","1","1","1","1","1"
"260048","img/object_images/crown02.jpg","img/object_images/gauze01.jpg","img/object_images/Stool01.jpg","1","1","0","1","0","0","0.476186600048095","0.592287000035867","0.811297100037336","1","1","1","1","1","1","1","1","1"
"260048","img/object_images/Stool01.jpg","img/object_images/crown02.jpg","img/object_images/toy03.jpg","0","1","1","0","1","1","0.811297100037336","0.476186600048095","0.32585550006479","1","1","1","1","1","1","1","1","1"
"260048","img/object_images/toy03.jpg","img/object_images/Stool01.jpg","img/object_images/frisbee01.jpg","1","0","1","1","0","1","0.32585550006479","0.811297100037336","0.445739099988714","1","1","1","1","1","1","1","1","1"
"260048","img/object_images/frisbee01.jpg","img/object_images/toy03.jpg","img/object_images/watch01.jpg","1","1","0","1","1","0","0.445739099988714","0.32585550006479","0.61852589994669","1","1","1","1","1","1","1","1","1"
"260048","img/object_images/watch01.jpg","img/object_images/frisbee01.jpg","img/object_images/Vacuum01.jpg","0","1","1","0","1","0","0.61852589994669","0.445739099988714","0.603440799983218","1","1","1","1","1","1","1","1","1"
"260048","img/object_images/Vacuum01.jpg","img/object_images/watch01.jpg","img/object_images/sink01.jpg","1","0","0","0","0","0","0.603440799983218","0.61852589994669","0.238924100063741","1","1","1","1","1","1","1","1","1"
"260048","img/object_images/sink01.jpg","img/object_images/Vacuum01.jpg",NA,"0","1",NA,"0","0",NA,"0.238924100063741","0.603440799983218",NA,"1","1",NA,"1","1",NA,"1","1",NA
"260048","img/object_images/chess_piece02.jpg",NA,"img/object_images/clip03.jpg","1",NA,"1","1",NA,"0","1.63591669988818",NA,"0.891151699936017","1",NA,"1","1",NA,"1","1",NA,"2"
"260048","img/object_images/clip03.jpg","img/object_images/chess_piece02.jpg","img/object_images/Thermometer01.jpg","1","1","1","0","1","0","0.891151699936017","1.63591669988818","0.681432399898767","1","1","1","1","1","1","2","1","1"
"260048","img/object_images/Thermometer01.jpg","img/object_images/clip03.jpg","img/object_images/bell02.jpg","1","1","1","0","0","0","0.681432399898767","0.891151699936017","0.615373600041494","1","1","1","1","1","1","1","2","1"
"260048","img/object_images/bell02.jpg","img/object_images/Thermometer01.jpg","img/object_images/pillows01.jpg","1","1","1","0","0","1","0.615373600041494","0.681432399898767","0.574716200120747","1","1","1","1","1","1","1","1","1"
"260048","img/object_images/pillows01.jpg","img/object_images/bell02.jpg","img/object_images/pitcher01.jpg","1","1","0","1","0","0","0.574716200120747","0.615373600041494","0.378451599972323","1","1","1","1","1","1","1","1","1"
"260048","img/object_images/pitcher01.jpg","img/object_images/pillows01.jpg","img/object_images/Oven01.jpg","0","1","1","0","1","1","0.378451599972323","0.574716200120747","0.544553600018844","1","1","1","1","1","1","1","1","1"
"260048","img/object_images/Oven01.jpg","img/object_images/pitcher01.jpg","img/object_images/hammer03.jpg","1","0","1","1","0","1","0.544553600018844","0.378451599972323","0.429145700065419","1","1","1","1","1","1","1","1","1"
"260048","img/object_images/hammer03.jpg","img/object_images/Oven01.jpg","img/object_images/tv02.jpg","1","1","1","1","1","0","0.429145700065419","0.544553600018844","0.540938999969512","1","1","1","1","1","1","1","1","1"
"260048","img/object_images/tv02.jpg","img/object_images/hammer03.jpg","img/object_images/pen03.jpg","1","1","1","0","1","0","0.540938999969512","0.429145700065419","0.67372510000132","1","1","1","1","1","1","1","1","1"
"260048","img/object_images/pen03.jpg","img/object_images/tv02.jpg","img/object_images/paint_brush04.jpg","1","1","0","0","0","0","0.67372510000132","0.540938999969512","0.310943299904466","1","1","1","1","1","1","1","1","1"
"260048","img/object_images/paint_brush04.jpg","img/object_images/pen03.jpg","img/object_images/Staples01.jpg","0","1","0","0","0","1","0.310943299904466","0.67372510000132","0.342769500100985","1","1","1","1","1","1","1","1","1"
"260048","img/object_images/Staples01.jpg","img/object_images/paint_brush04.jpg","img/object_images/note_book01.jpg","0","0","1","1","0","0","0.342769500100985","0.310943299904466","0.423268900020048","1","1","1","1","1","1","1","1","1"
"260048","img/object_images/note_book01.jpg","img/object_images/Staples01.jpg","img/object_images/chair05.jpg","1","0","1","0","1","0","0.423268900020048","0.342769500100985","0.530487099895254","1","1","1","1","1","1","1","1","1"
"260048","img/object_images/chair05.jpg","img/object_images/note_book01.jpg","img/object_images/floppy_disk02.jpg","1","1","1","0","0","0","0.530487099895254","0.423268900020048","0.713359999936074","1","1","1","1","1","1","1","1","1"
"260048","img/object_images/floppy_disk02.jpg","img/object_images/chair05.jpg","img/object_images/knife04.jpg","1","1","1","0","0","1","0.713359999936074","0.530487099895254","0.494478999869898","1","1","1","1","1","1","1","1","1"
"260048","img/object_images/knife04.jpg","img/object_images/floppy_disk02.jpg","img/object_images/clock02.jpg","1","1","0","1","0","0","0.494478999869898","0.713359999936074","0.561592499958351","1","1","1","1","1","1","1","1","2"
"260048","img/object_images/clock02.jpg","img/object_images/knife04.jpg","img/object_images/bottle01.jpg","0","1","1","0","1","0","0.561592499958351","0.494478999869898","0.673089399933815","1","1","1","1","1","1","2","1","1"
"260048","img/object_images/bottle01.jpg","img/object_images/clock02.jpg","img/object_images/crutches02.jpg","1","0","1","0","0","0","0.673089399933815","0.561592499958351","0.699147200211883","1","1","1","1","1","1","1","2","1"
"260048","img/object_images/crutches02.jpg","img/object_images/bottle01.jpg","img/object_images/microscope01.jpg","1","1","0","0","0","0","0.699147200211883","0.673089399933815","0.453996299998835","1","1","1","1","1","1","1","1","1"
"260048","img/object_images/microscope01.jpg","img/object_images/crutches02.jpg","img/object_images/retainer01.jpg","0","1","1","0","0","0","0.453996299998835","0.699147200211883","0.319517700001597","1","1","1","1","1","1","1","1","1"
"260048","img/object_images/retainer01.jpg","img/object_images/microscope01.jpg","img/object_images/wire02.jpg","1","0","1","0","0","1","0.319517700001597","0.453996299998835","0.448945999844","1","1","1","1","1","1","1","1","1"
"260048","img/object_images/wire02.jpg","img/object_images/retainer01.jpg","img/object_images/book03.jpg","1","1","1","1","0","1","0.448945999844","0.319517700001597","0.423204899998382","1","1","1","1","1","1","1","1","1"
"260048","img/object_images/book03.jpg","img/object_images/wire02.jpg","img/object_images/tennis_racket02.jpg","1","1","1","1","1","1","0.423204899998382","0.448945999844","0.790629300056025","1","1","1","1","1","1","1","1","1"
"260048","img/object_images/tennis_racket02.jpg","img/object_images/book03.jpg","img/object_images/knit05.jpg","1","1","1","1","1","1","0.790629300056025","0.423204899998382","0.618356100050732","1","1","1","1","1","1","1","1","1"
"260048","img/object_images/knit05.jpg","img/object_images/tennis_racket02.jpg","img/object_images/cellphone01.jpg","1","1","1","1","1","1","0.618356100050732","0.790629300056025","0.632528799818829","1","1","1","1","1","1","1","1","1"
"260048","img/object_images/cellphone01.jpg","img/object_images/knit05.jpg","img/object_images/lid01.jpg","1","1","1","1","1","1","0.632528799818829","0.618356100050732","0.574974999995902","1","1","1","1","1","1","1","1","1"
"260048","img/object_images/lid01.jpg","img/object_images/cellphone01.jpg","img/object_images/motorcycle01.jpg","1","1","1","1","1","1","0.574974999995902","0.632528799818829","0.507796100107953","1","1","1","1","1","1","1","1","1"
"260048","img/object_images/motorcycle01.jpg","img/object_images/lid01.jpg","img/object_images/usb02.jpg","1","1","1","1","1","0","0.507796100107953","0.574974999995902","0.714426200138405","1","1","1","1","1","1","1","1","1"
"260048","img/object_images/usb02.jpg","img/object_images/motorcycle01.jpg","img/object_images/ear_bud01.jpg","1","1","1","0","1","1","0.714426200138405","0.507796100107953","0.5974871001672","1","1","1","1","1","1","1","1","1"
"260048","img/object_images/ear_bud01.jpg","img/object_images/usb02.jpg","img/object_images/compass01.jpg","1","1","1","1","0","1","0.5974871001672","0.714426200138405","0.701049499912187","1","1","1","1","1","1","1","1","1"
"260048","img/object_images/compass01.jpg","img/object_images/ear_bud01.jpg","img/object_images/floppy_disk03.jpg","1","1","1","1","1","1","0.701049499912187","0.5974871001672","0.561543999938294","1","1","1","1","1","1","1","1","1"
"260048","img/object_images/floppy_disk03.jpg","img/object_images/compass01.jpg",NA,"1","1",NA,"1","1",NA,"0.561543999938294","0.701049499912187",NA,"1","1",NA,"1","1",NA,"1","1",NA
"260048","img/object_images/speaker01.jpg",NA,"img/object_images/fire_extinguisher01.jpg","1",NA,"1","1",NA,"0","2.18342739995569",NA,"1.05178850004449","1",NA,"1","1",NA,"1","1",NA,"1"
"260048","img/object_images/fire_extinguisher01.jpg","img/object_images/speaker01.jpg","img/object_images/faucet01.jpg","1","1","1","0","1","0","1.05178850004449","2.18342739995569","0.800448799971491","1","1","1","1","1","1","1","1","1"
"260048","img/object_images/faucet01.jpg","img/object_images/fire_extinguisher01.jpg","img/object_images/cup03.jpg","1","1","1","0","0","1","0.800448799971491","1.05178850004449","0.662916299887002","1","1","1","1","1","1","1","1","1"
"260048","img/object_images/cup03.jpg","img/object_images/faucet01.jpg","img/object_images/Pottery01.jpg","1","1","0","1","0","0","0.662916299887002","0.800448799971491","0.736877699848264","1","1","1","1","1","1","1","1","1"
"260048","img/object_images/Pottery01.jpg","img/object_images/cup03.jpg","img/object_images/book01.jpg","0","1","1","0","1","1","0.736877699848264","0.662916299887002","0.849072400014848","1","1","1","1","1","1","1","1","1"
"260048","img/object_images/book01.jpg","img/object_images/Pottery01.jpg","img/object_images/tool07.jpg","1","0","0","1","0","0","0.849072400014848","0.736877699848264","0.405207599978894","1","1","1","1","1","1","1","1","1"
"260048","img/object_images/tool07.jpg","img/object_images/book01.jpg","img/object_images/yo_yo01.jpg","0","1","1","0","1","0","0.405207599978894","0.849072400014848","0.363711499841884","1","1","1","1","1","1","1","1","1"
"260048","img/object_images/yo_yo01.jpg","img/object_images/tool07.jpg","img/object_images/handcuffs01.jpg","1","0","1","0","0","0","0.363711499841884","0.405207599978894","0.546475799987093","1","1","1","1","1","1","1","1","1"
"260048","img/object_images/handcuffs01.jpg","img/object_images/yo_yo01.jpg","img/object_images/hair_clips01.jpg","1","1","1","0","0","1","0.546475799987093","0.363711499841884","0.667230399791151","1","1","1","1","1","1","1","1","1"
"260048","img/object_images/hair_clips01.jpg","img/object_images/handcuffs01.jpg","img/object_images/basket02.jpg","1","1","1","1","0","0","0.667230399791151","0.546475799987093","0.630823099985719","1","1","1","1","1","1","1","1","1"
"260048","img/object_images/basket02.jpg","img/object_images/hair_clips01.jpg","img/object_images/glasses07.jpg","1","1","1","0","1","1","0.630823099985719","0.667230399791151","0.590814399998635","1","1","1","1","1","1","1","1","1"
"260048","img/object_images/glasses07.jpg","img/object_images/basket02.jpg","img/object_images/Sprayer01.jpg","1","1","1","1","0","0","0.590814399998635","0.630823099985719","0.666494000004604","1","1","1","1","1","1","1","1","1"
"260048","img/object_images/Sprayer01.jpg","img/object_images/glasses07.jpg","img/object_images/tray01.jpg","1","1","1","0","1","1","0.666494000004604","0.590814399998635","0.578421600162983","1","1","1","1","1","1","1","1","1"
"260048","img/object_images/tray01.jpg","img/object_images/Sprayer01.jpg","img/object_images/pan01.jpg","1","1","1","1","0","1","0.578421600162983","0.666494000004604","0.688373300014064","1","1","1","1","1","1","1","1","1"
"260048","img/object_images/pan01.jpg","img/object_images/tray01.jpg","img/object_images/glasses06.jpg","1","1","1","1","1","1","0.688373300014064","0.578421600162983","0.500120700104162","1","1","1","1","1","1","1","1","1"
"260048","img/object_images/glasses06.jpg","img/object_images/pan01.jpg","img/object_images/jewelry09.jpg","1","1","1","1","1","1","0.500120700104162","0.688373300014064","0.562030999921262","1","1","1","1","1","1","1","1","1"
"260048","img/object_images/jewelry09.jpg","img/object_images/glasses06.jpg","img/object_images/colander01.jpg","1","1","1","1","1","0","0.562030999921262","0.500120700104162","0.708465600153431","1","1","1","1","1","1","1","1","1"
"260048","img/object_images/colander01.jpg","img/object_images/jewelry09.jpg","img/object_images/ring03.jpg","1","1","1","0","1","1","0.708465600153431","0.562030999921262","0.69636070006527","1","1","1","1","1","1","1","1","1"
"260048","img/object_images/ring03.jpg","img/object_images/colander01.jpg","img/object_images/hole_puncher01.jpg","1","1","1","1","0","1","0.69636070006527","0.708465600153431","0.577394399791956","1","1","1","1","1","1","1","1","1"
"260048","img/object_images/hole_puncher01.jpg","img/object_images/ring03.jpg","img/object_images/projector01.jpg","1","1","1","1","1","0","0.577394399791956","0.69636070006527","0.56926010013558","1","1","1","1","1","1","1","1","1"
"260048","img/object_images/projector01.jpg","img/object_images/hole_puncher01.jpg","img/object_images/cellphone02.jpg","1","1","0","0","1","1","0.56926010013558","0.577394399791956",NA,"1","1","0","1","1","0","1","1","0"
"260048","img/object_images/cellphone02.jpg","img/object_images/projector01.jpg","img/object_images/blanket01.jpg","0","1","1","1","0","1",NA,"0.56926010013558","0.803462699986994","0","1","1","0","1","1","0","1","1"
"260048","img/object_images/blanket01.jpg","img/object_images/cellphone02.jpg","img/object_images/lighter01.jpg","1","0","1","1","1","1","0.803462699986994",NA,"1.210882200161","1","0","1","1","0","1","1","0","1"
"260048","img/object_images/lighter01.jpg","img/object_images/blanket01.jpg","img/object_images/Traffic Sign 01.jpg","1","1","1","1","1","0","1.210882200161","0.803462699986994","1.27849940001033","1","1","1","1","1","1","1","1","2"
"260048","img/object_images/Traffic Sign 01.jpg","img/object_images/lighter01.jpg","img/object_images/bicycle_lock01.jpg","1","1","1","0","1","0","1.27849940001033","1.210882200161","0.702814500080422","1","1","1","1","1","1","2","1","1"
"260048","img/object_images/bicycle_lock01.jpg","img/object_images/Traffic Sign 01.jpg","img/object_images/tool08.jpg","1","1","1","0","0","0","0.702814500080422","1.27849940001033","0.651611400069669","1","1","1","1","1","1","1","2","1"
"260048","img/object_images/tool08.jpg","img/object_images/bicycle_lock01.jpg","img/object_images/gift_box04.jpg","1","1","1","0","0","0","0.651611400069669","0.702814500080422","0.64227469987236","1","1","1","1","1","1","1","1","1"
"260048","img/object_images/gift_box04.jpg","img/object_images/tool08.jpg","img/object_images/Kitchen_Towel.jpg","1","1","0","0","0","0","0.64227469987236","0.651611400069669","2.19850090006366","1","1","1","1","1","1","1","1","2"
"260048","img/object_images/Kitchen_Towel.jpg","img/object_images/gift_box04.jpg","img/object_images/TrashCan02.jpg","0","1","1","0","0","1","2.19850090006366","0.64227469987236","0.994406699901447","1","1","1","1","1","1","2","1","1"
"260048","img/object_images/TrashCan02.jpg","img/object_images/Kitchen_Towel.jpg","img/object_images/purse01.jpg","1","0","1","1","0","1","0.994406699901447","2.19850090006366","0.608947000000626","1","1","1","1","1","1","1","2","1"
"260048","img/object_images/purse01.jpg","img/object_images/TrashCan02.jpg","img/object_images/exfoliater_brush01.jpg","1","1","1","1","1","0","0.608947000000626","0.994406699901447","0.828568299999461","1","1","1","1","1","1","1","1","1"
"260048","img/object_images/exfoliater_brush01.jpg","img/object_images/purse01.jpg",NA,"1","1",NA,"0","1",NA,"0.828568299999461","0.608947000000626",NA,"1","1",NA,"1","1",NA,"1","1",NA
"260048","img/object_images/fork02.jpg",NA,"img/object_images/drone01.jpg","1",NA,"1","0",NA,"1","0.833773300051689",NA,"0.671267400030047","1",NA,"1","1",NA,"1","1",NA,"1"
"260048","img/object_images/drone01.jpg","img/object_images/fork02.jpg","img/object_images/Violin01.jpg","1","1","1","1","0","0","0.671267400030047","0.833773300051689","0.589665599865839","1","1","1","1","1","1","1","1","1"
"260048","img/object_images/Violin01.jpg","img/object_images/drone01.jpg","img/object_images/toothbrush01.jpg","1","1","1","0","1","0","0.589665599865839","0.671267400030047","0.575773400021717","1","1","1","1","1","1","1","1","1"
"260048","img/object_images/toothbrush01.jpg","img/object_images/Violin01.jpg","img/object_images/tool06.jpg","1","1","1","0","0","0","0.575773400021717","0.589665599865839","0.886839200044051","1","1","1","1","1","1","1","1","1"
"260048","img/object_images/tool06.jpg","img/object_images/toothbrush01.jpg","img/object_images/video_game03.jpg","1","1","1","0","0","1","0.886839200044051","0.575773400021717","0.479174799984321","1","1","1","1","1","1","1","1","1"
"260048","img/object_images/video_game03.jpg","img/object_images/tool06.jpg","img/object_images/hair_brush01.jpg","1","1","1","1","0","1","0.479174799984321","0.886839200044051","0.303892099997029","1","1","1","1","1","1","1","1","1"
"260048","img/object_images/hair_brush01.jpg","img/object_images/video_game03.jpg","img/object_images/chain01.jpg","1","1","0","1","1","0","0.303892099997029","0.479174799984321","0.353484499966726","1","1","1","1","1","1","1","1","1"
"260048","img/object_images/chain01.jpg","img/object_images/hair_brush01.jpg","img/object_images/toy01.jpg","0","1","1","0","1","1","0.353484499966726","0.303892099997029","0.586341300047934","1","1","1","1","1","1","1","1","1"
"260048","img/object_images/toy01.jpg","img/object_images/chain01.jpg","img/object_images/mail_box02.jpg","1","0","1","1","0","1","0.586341300047934","0.353484499966726","0.501826500054449","1","1","1","1","1","1","1","1","1"
"260048","img/object_images/mail_box02.jpg","img/object_images/toy01.jpg","img/object_images/pen01.jpg","1","1","1","1","1","0","0.501826500054449","0.586341300047934","0.625397199997678","1","1","1","1","1","1","1","1","1"
"260048","img/object_images/pen01.jpg","img/object_images/mail_box02.jpg","img/object_images/couch01.jpg","1","1","1","0","1","0","0.625397199997678","0.501826500054449","0.658813900081441","1","1","1","1","1","1","1","1","1"
"260048","img/object_images/couch01.jpg","img/object_images/pen01.jpg","img/object_images/soap03.jpg","1","1","0","0","0","0","0.658813900081441","0.625397199997678","0.408181600039825","1","1","1","1","1","1","1","1","1"
"260048","img/object_images/soap03.jpg","img/object_images/couch01.jpg","img/object_images/scarf01.jpg","0","1","1","0","0","1","0.408181600039825","0.658813900081441","0.489568199962378","1","1","1","1","1","1","1","1","1"
"260048","img/object_images/scarf01.jpg","img/object_images/soap03.jpg","img/object_images/rock02.jpg","1","0","0","1","0","0","0.489568199962378","0.408181600039825","0.486798499943689","1","1","1","1","1","1","1","1","1"
"260048","img/object_images/rock02.jpg","img/object_images/scarf01.jpg","img/object_images/pitcher09.jpg","0","1","0","0","1","1","0.486798499943689","0.489568199962378","0.596809400012717","1","1","1","1","1","1","1","1","2"
"260048","img/object_images/pitcher09.jpg","img/object_images/rock02.jpg","img/object_images/shoes12.jpg","0","0","1","1","0","1","0.596809400012717","0.486798499943689","0.451640600105748","1","1","1","1","1","1","2","1","2"
"260048","img/object_images/shoes12.jpg","img/object_images/pitcher09.jpg","img/object_images/computer_mouse02.jpg","1","0","1","1","1","0","0.451640600105748","0.596809400012717","0.428313500015065","1","1","1","1","1","1","2","2","1"
"260048","img/object_images/computer_mouse02.jpg","img/object_images/shoes12.jpg","img/object_images/box03.jpg","1","1","0","0","1","0","0.428313500015065","0.451640600105748","0.45388779998757","1","1","1","1","1","1","1","2","1"
"260048","img/object_images/box03.jpg","img/object_images/computer_mouse02.jpg","img/object_images/book02.jpg","0","1","1","0","0","1","0.45388779998757","0.428313500015065","0.589620500104502","1","1","1","1","1","1","1","1","1"
"260048","img/object_images/book02.jpg","img/object_images/box03.jpg","img/object_images/tripod01.jpg","1","0","1","1","0","1","0.589620500104502","0.45388779998757","0.588593699969351","1","1","1","1","1","1","1","1","1"
"260048","img/object_images/tripod01.jpg","img/object_images/book02.jpg","img/object_images/blender01.jpg","1","1","1","1","1","0","0.588593699969351","0.589620500104502","0.587244899943471","1","1","1","1","1","1","1","1","1"
"260048","img/object_images/blender01.jpg","img/object_images/tripod01.jpg","img/object_images/floss02.jpg","1","1","1","0","1","1","0.587244899943471","0.588593699969351","0.55112799978815","1","1","1","1","1","1","1","1","1"
"260048","img/object_images/floss02.jpg","img/object_images/blender01.jpg","img/object_images/airfryer02.jpg","1","1","1","1","0","1","0.55112799978815","0.587244899943471","0.518420299980789","1","1","1","1","1","1","1","1","1"
"260048","img/object_images/airfryer02.jpg","img/object_images/floss02.jpg","img/object_images/Trowel01.jpg","1","1","1","1","1","0","0.518420299980789","0.55112799978815","0.585656699957326","1","1","1","1","1","1","1","1","1"
"260048","img/object_images/Trowel01.jpg","img/object_images/airfryer02.jpg","img/object_images/bag_pipes01.jpg","1","1","1","0","1","1","0.585656699957326","0.518420299980789","0.53000729996711","1","1","1","1","1","1","1","1","1"
"260048","img/object_images/bag_pipes01.jpg","img/object_images/Trowel01.jpg","img/object_images/egg_slicer01.jpg","1","1","1","1","0","1","0.53000729996711","0.585656699957326","0.564896600088105","1","1","1","1","1","1","1","1","1"
"260048","img/object_images/egg_slicer01.jpg","img/object_images/bag_pipes01.jpg","img/object_images/chair06.jpg","1","1","1","1","1","0","0.564896600088105","0.53000729996711","0.710100500145927","1","1","1","1","1","1","1","1","1"
"260048","img/object_images/chair06.jpg","img/object_images/egg_slicer01.jpg","img/object_images/computer_mouse01.jpg","1","1","0","0","1","1","0.710100500145927","0.564896600088105",NA,"1","1","0","1","1","0","1","1","0"
"260048","img/object_images/computer_mouse01.jpg","img/object_images/chair06.jpg","img/object_images/clip04.jpg","0","1","0","1","0","1",NA,"0.710100500145927",NA,"0","1","0","0","1","0","0","1","0"
"260048","img/object_images/clip04.jpg","img/object_images/computer_mouse01.jpg","img/object_images/skate_board01.jpg","0","0","1","1","1","0",NA,NA,"0.597706099972129","0","0","1","0","0","1","0","0","1"
"260048","img/object_images/skate_board01.jpg","img/object_images/clip04.jpg","img/object_images/bell03.jpg","1","0","1","0","1","0","0.597706099972129",NA,"0.650442099897191","1","0","1","1","0","1","1","0","1"
"260048","img/object_images/bell03.jpg","img/object_images/skate_board01.jpg",NA,"1","1",NA,"0","0",NA,"0.650442099897191","0.597706099972129",NA,"1","1",NA,"1","1",NA,"1","1",NA
