"participant_id","current_trial_object","pre_trial_object","post_trial_object","current_trial_accuracy","pre_trial_accuracy","post_trial_accuracy","current_trial_congruency","pre_trial_congruency","post_trial_congruency","current_trial_rt","pre_trial_rt","post_trial_rt","current_trial_responded","pre_trial_responded","post_trial_responded","current_trial_legitResponse","pre_trial_legitResponse","post_trial_legitResponse","current_trial_resp_nums","pre_trial_resp_nums","post_trial_resp_nums"
"260035","img/object_images/box03.jpg",NA,"img/object_images/tripod01.jpg","1",NA,"1","0",NA,"1","0.48184819999733",NA,"0.667026400013128","1",NA,"1","1",NA,"1","1",NA,"1"
"260035","img/object_images/tripod01.jpg","img/object_images/box03.jpg","img/object_images/toothbrush01.jpg","1","1","0","1","0","0","0.667026400013128","0.48184819999733","0.462525199982338","1","1","1","1","1","1","1","1","2"
"260035","img/object_images/toothbrush01.jpg","img/object_images/tripod01.jpg","img/object_images/drone01.jpg","0","1","1","0","1","1","0.462525199982338","0.667026400013128","0.387227600003826","1","1","1","1","1","1","2","1","1"
"260035","img/object_images/drone01.jpg","img/object_images/toothbrush01.jpg","img/object_images/couch01.jpg","1","0","1","1","0","0","0.387227600003826","0.462525199982338","0.515264599991497","1","1","1","1","1","1","1","2","1"
"260035","img/object_images/couch01.jpg","img/object_images/drone01.jpg","img/object_images/pitcher09.jpg","1","1","1","0","1","1","0.515264599991497","0.387227600003826","0.346827600005781","1","1","1","1","1","1","1","1","1"
"260035","img/object_images/pitcher09.jpg","img/object_images/couch01.jpg","img/object_images/rock02.jpg","1","1","1","1","0","0","0.346827600005781","0.515264599991497","0.564703900017776","1","1","1","1","1","1","1","1","1"
"260035","img/object_images/rock02.jpg","img/object_images/pitcher09.jpg","img/object_images/computer_mouse01.jpg","1","1","1","0","1","1","0.564703900017776","0.346827600005781","0.422637000010582","1","1","1","1","1","1","1","1","1"
"260035","img/object_images/computer_mouse01.jpg","img/object_images/rock02.jpg","img/object_images/floss02.jpg","1","1","1","1","0","1","0.422637000010582","0.564703900017776","0.418704799987609","1","1","1","1","1","1","1","1","1"
"260035","img/object_images/floss02.jpg","img/object_images/computer_mouse01.jpg","img/object_images/computer_mouse02.jpg","1","1","1","1","1","0","0.418704799987609","0.422637000010582","0.469006600003922","1","1","1","1","1","1","1","1","1"
"260035","img/object_images/computer_mouse02.jpg","img/object_images/floss02.jpg","img/object_images/toy01.jpg","1","1","1","0","1","1","0.469006600003922","0.418704799987609","0.638518799998565","1","1","1","1","1","1","1","1","1"
"260035","img/object_images/toy01.jpg","img/object_images/computer_mouse02.jpg","img/object_images/blender01.jpg","1","1","1","1","0","0","0.638518799998565","0.469006600003922","0.687410599988652","1","1","1","1","1","1","1","1","1"
"260035","img/object_images/blender01.jpg","img/object_images/toy01.jpg","img/object_images/chair06.jpg","1","1","1","0","1","0","0.687410599988652","0.638518799998565","0.522684299998218","1","1","1","1","1","1","1","1","1"
"260035","img/object_images/chair06.jpg","img/object_images/blender01.jpg","img/object_images/pen01.jpg","1","1","1","0","0","0","0.522684299998218","0.687410599988652","0.547699300019303","1","1","1","1","1","1","1","1","1"
"260035","img/object_images/pen01.jpg","img/object_images/chair06.jpg","img/object_images/fork02.jpg","1","1","1","0","0","0","0.547699300019303","0.522684299998218","0.695006099995226","1","1","1","1","1","1","1","1","1"
"260035","img/object_images/fork02.jpg","img/object_images/pen01.jpg","img/object_images/bell03.jpg","1","1","1","0","0","0","0.695006099995226","0.547699300019303","0.529611700010719","1","1","1","1","1","1","1","1","1"
"260035","img/object_images/bell03.jpg","img/object_images/fork02.jpg","img/object_images/airfryer02.jpg","1","1","1","0","0","1","0.529611700010719","0.695006099995226","0.482455899997149","1","1","1","1","1","1","1","1","1"
"260035","img/object_images/airfryer02.jpg","img/object_images/bell03.jpg","img/object_images/clip04.jpg","1","1","1","1","0","1","0.482455899997149","0.529611700010719","0.486600699980045","1","1","1","1","1","1","1","1","1"
"260035","img/object_images/clip04.jpg","img/object_images/airfryer02.jpg","img/object_images/Violin01.jpg","1","1","1","1","1","0","0.486600699980045","0.482455899997149","0.445059800025774","1","1","1","1","1","1","1","1","1"
"260035","img/object_images/Violin01.jpg","img/object_images/clip04.jpg","img/object_images/shoes12.jpg","1","1","1","0","1","1","0.445059800025774","0.486600699980045","0.486494400014635","1","1","1","1","1","1","1","1","1"
"260035","img/object_images/shoes12.jpg","img/object_images/Violin01.jpg","img/object_images/tool06.jpg","1","1","1","1","0","0","0.486494400014635","0.445059800025774","0.586019900016254","1","1","1","1","1","1","1","1","1"
"260035","img/object_images/tool06.jpg","img/object_images/shoes12.jpg","img/object_images/video_game03.jpg","1","1","1","0","1","1","0.586019900016254","0.486494400014635","0.531679200008512","1","1","1","1","1","1","1","1","1"
"260035","img/object_images/video_game03.jpg","img/object_images/tool06.jpg","img/object_images/soap03.jpg","1","1","1","1","0","0","0.531679200008512","0.586019900016254","0.610467499995138","1","1","1","1","1","1","1","1","1"
"260035","img/object_images/soap03.jpg","img/object_images/video_game03.jpg","img/object_images/skate_board01.jpg","1","1","1","0","1","0","0.610467499995138","0.531679200008512","0.420132600003853","1","1","1","1","1","1","1","1","1"
"260035","img/object_images/skate_board01.jpg","img/object_images/soap03.jpg","img/object_images/chain01.jpg","1","1","1","0","0","0","0.420132600003853","0.610467499995138","0.500733699998818","1","1","1","1","1","1","1","1","1"
"260035","img/object_images/chain01.jpg","img/object_images/skate_board01.jpg","img/object_images/egg_slicer01.jpg","1","1","1","0","0","1","0.500733699998818","0.420132600003853","0.487751400010893","1","1","1","1","1","1","1","1","1"
"260035","img/object_images/egg_slicer01.jpg","img/object_images/chain01.jpg","img/object_images/scarf01.jpg","1","1","1","1","0","1","0.487751400010893","0.500733699998818","0.453036899998551","1","1","1","1","1","1","1","1","1"
"260035","img/object_images/scarf01.jpg","img/object_images/egg_slicer01.jpg","img/object_images/mail_box02.jpg","1","1","1","1","1","1","0.453036899998551","0.487751400010893","0.40138530000695","1","1","1","1","1","1","1","1","1"
"260035","img/object_images/mail_box02.jpg","img/object_images/scarf01.jpg","img/object_images/Trowel01.jpg","1","1","1","1","1","0","0.40138530000695","0.453036899998551","0.465000299998792","1","1","1","1","1","1","1","1","1"
"260035","img/object_images/Trowel01.jpg","img/object_images/mail_box02.jpg","img/object_images/hair_brush01.jpg","1","1","1","0","1","1","0.465000299998792","0.40138530000695","0.488891799992416","1","1","1","1","1","1","1","1","1"
"260035","img/object_images/hair_brush01.jpg","img/object_images/Trowel01.jpg","img/object_images/bag_pipes01.jpg","1","1","1","1","0","1","0.488891799992416","0.465000299998792","0.500543399975868","1","1","1","1","1","1","1","1","1"
"260035","img/object_images/bag_pipes01.jpg","img/object_images/hair_brush01.jpg","img/object_images/book02.jpg","1","1","1","1","1","1","0.500543399975868","0.488891799992416","0.35789900002419","1","1","1","1","1","1","1","1","1"
"260035","img/object_images/book02.jpg","img/object_images/bag_pipes01.jpg",NA,"1","1",NA,"1","1",NA,"0.35789900002419","0.500543399975868",NA,"1","1",NA,"1","1",NA,"1","1",NA
"260035","img/object_images/stapler.jpg",NA,"img/object_images/ornament01.jpg","1",NA,"1","1",NA,"1","0.347179800010053",NA,"0.36256300000241","1",NA,"1","1",NA,"1","1",NA,"1"
"260035","img/object_images/ornament01.jpg","img/object_images/stapler.jpg","img/object_images/outlet01.jpg","1","1","0","1","1","0","0.36256300000241","0.347179800010053","0.3304093000188","1","1","1","1","1","1","1","1","1"
"260035","img/object_images/outlet01.jpg","img/object_images/ornament01.jpg","img/object_images/bird_house02.jpg","0","1","0","0","1","1","0.3304093000188","0.36256300000241","0.306994400016265","1","1","1","1","1","1","1","1","1"
"260035","img/object_images/bird_house02.jpg","img/object_images/outlet01.jpg","img/object_images/frisbee01.jpg","0","0","1","1","0","1","0.306994400016265","0.3304093000188","0.359643000003416","1","1","1","1","1","1","1","1","1"
"260035","img/object_images/frisbee01.jpg","img/object_images/bird_house02.jpg","img/object_images/tool02.jpg","1","0","1","1","1","1","0.359643000003416","0.306994400016265","0.317840999981854","1","1","1","1","1","1","1","1","1"
"260035","img/object_images/tool02.jpg","img/object_images/frisbee01.jpg","img/object_images/towel02.jpg","1","1","1","1","1","1","0.317840999981854","0.359643000003416","0.393594599998323","1","1","1","1","1","1","1","1","1"
"260035","img/object_images/towel02.jpg","img/object_images/tool02.jpg","img/object_images/helmet01.jpg","1","1","0","1","1","0","0.393594599998323","0.317840999981854","0.463361299975077","1","1","1","1","1","1","1","1","1"
"260035","img/object_images/helmet01.jpg","img/object_images/towel02.jpg","img/object_images/tool09.jpg","0","1","1","0","1","1","0.463361299975077","0.393594599998323","0.443793299986282","1","1","1","1","1","1","1","1","1"
"260035","img/object_images/tool09.jpg","img/object_images/helmet01.jpg","img/object_images/gauze01.jpg","1","0","1","1","0","0","0.443793299986282","0.463361299975077","0.328020399989327","1","1","1","1","1","1","1","1","1"
"260035","img/object_images/gauze01.jpg","img/object_images/tool09.jpg","img/object_images/judge_gavel01.jpg","1","1","1","0","1","1","0.328020399989327","0.443793299986282","0.384829300019192","1","1","1","1","1","1","1","1","1"
"260035","img/object_images/judge_gavel01.jpg","img/object_images/gauze01.jpg","img/object_images/Vacuum01.jpg","1","1","1","1","0","0","0.384829300019192","0.328020399989327","0.323414999991655","1","1","1","1","1","1","1","1","1"
"260035","img/object_images/Vacuum01.jpg","img/object_images/judge_gavel01.jpg","img/object_images/fridge03.jpg","1","1","1","0","1","0","0.323414999991655","0.384829300019192","0.525699399993755","1","1","1","1","1","1","1","1","1"
"260035","img/object_images/fridge03.jpg","img/object_images/Vacuum01.jpg","img/object_images/pot01 (1).jpg","1","1","1","0","0","0","0.525699399993755","0.323414999991655","0.434385300002759","1","1","1","1","1","1","1","1","1"
"260035","img/object_images/pot01 (1).jpg","img/object_images/fridge03.jpg","img/object_images/bow01.jpg","1","1","1","0","0","1","0.434385300002759","0.525699399993755","0.406622199981939","1","1","1","1","1","1","1","1","1"
"260035","img/object_images/bow01.jpg","img/object_images/pot01 (1).jpg","img/object_images/bottle05.jpg","1","1","1","1","0","0","0.406622199981939","0.434385300002759","0.283609200007049","1","1","1","1","1","1","1","1","1"
"260035","img/object_images/bottle05.jpg","img/object_images/bow01.jpg","img/object_images/mirror01.jpg","1","1","1","0","1","1","0.283609200007049","0.406622199981939","0.338925799995195","1","1","1","1","1","1","1","1","1"
"260035","img/object_images/mirror01.jpg","img/object_images/bottle05.jpg","img/object_images/toy04.jpg","1","1","0","1","0","0","0.338925799995195","0.283609200007049","0.330707099987194","1","1","1","1","1","1","1","1","1"
"260035","img/object_images/toy04.jpg","img/object_images/mirror01.jpg","img/object_images/shovel03.jpg","0","1","1","0","1","1","0.330707099987194","0.338925799995195","0.334888199984562","1","1","1","1","1","1","1","1","1"
"260035","img/object_images/shovel03.jpg","img/object_images/toy04.jpg","img/object_images/Ring02.jpg","1","0","1","1","0","0","0.334888199984562","0.330707099987194","0.406454000010854","1","1","1","1","1","1","1","1","1"
"260035","img/object_images/Ring02.jpg","img/object_images/shovel03.jpg","img/object_images/sink01.jpg","1","1","1","0","1","0","0.406454000010854","0.334888199984562","0.404770399996778","1","1","1","1","1","1","1","1","1"
"260035","img/object_images/sink01.jpg","img/object_images/Ring02.jpg","img/object_images/MetalWire01.jpg","1","1","1","0","0","0","0.404770399996778","0.406454000010854","0.502955700008897","1","1","1","1","1","1","1","1","1"
"260035","img/object_images/MetalWire01.jpg","img/object_images/sink01.jpg","img/object_images/crown02.jpg","1","1","1","0","0","1","0.502955700008897","0.404770399996778","0.388825000001816","1","1","1","1","1","1","1","1","1"
"260035","img/object_images/crown02.jpg","img/object_images/MetalWire01.jpg","img/object_images/toy03.jpg","1","1","1","1","0","1","0.388825000001816","0.502955700008897","0.386815400008345","1","1","1","1","1","1","1","1","1"
"260035","img/object_images/toy03.jpg","img/object_images/crown02.jpg","img/object_images/acoustic_capo01.jpg","1","1","1","1","1","1","0.386815400008345","0.388825000001816","0.415776500012726","1","1","1","1","1","1","1","1","1"
"260035","img/object_images/acoustic_capo01.jpg","img/object_images/toy03.jpg","img/object_images/Tin01.jpg","1","1","1","1","1","1","0.415776500012726","0.386815400008345","0.322627899993677","1","1","1","1","1","1","1","1","1"
"260035","img/object_images/Tin01.jpg","img/object_images/acoustic_capo01.jpg","img/object_images/video_game07.jpg","1","1","1","1","1","1","0.322627899993677","0.415776500012726","0.4019835999934","1","1","1","1","1","1","1","1","1"
"260035","img/object_images/video_game07.jpg","img/object_images/Tin01.jpg","img/object_images/jewel04.jpg","1","1","1","1","1","0","0.4019835999934","0.322627899993677","0.364441000012448","1","1","1","1","1","1","1","1","1"
"260035","img/object_images/jewel04.jpg","img/object_images/video_game07.jpg","img/object_images/guitar02.jpg","1","1","0","0","1","0","0.364441000012448","0.4019835999934","0.319808500004001","1","1","1","1","1","1","1","1","1"
"260035","img/object_images/guitar02.jpg","img/object_images/jewel04.jpg","img/object_images/watch01.jpg","0","1","1","0","0","0","0.319808500004001","0.364441000012448","0.450519300007727","1","1","1","1","1","1","1","1","1"
"260035","img/object_images/watch01.jpg","img/object_images/guitar02.jpg","img/object_images/Stool01.jpg","1","0","1","0","0","0","0.450519300007727","0.319808500004001","0.442661699984455","1","1","1","1","1","1","1","1","1"
"260035","img/object_images/Stool01.jpg","img/object_images/watch01.jpg","img/object_images/dart01.jpg","1","1","1","0","0","0","0.442661699984455","0.450519300007727","0.35529239999596","1","1","1","1","1","1","1","1","1"
"260035","img/object_images/dart01.jpg","img/object_images/Stool01.jpg",NA,"1","1",NA,"0","0",NA,"0.35529239999596","0.442661699984455",NA,"1","1",NA,"1","1",NA,"1","1",NA
"260035","img/object_images/Safe01.jpg",NA,"img/object_images/bookmark01.jpg","1",NA,"1","1",NA,"0","0.368051900004502",NA,"0.523064199980581","1",NA,"1","1",NA,"1","1",NA,"1"
"260035","img/object_images/bookmark01.jpg","img/object_images/Safe01.jpg","img/object_images/origami01.jpg","1","1","1","0","1","1","0.523064199980581","0.368051900004502","0.372028999991016","1","1","1","1","1","1","1","1","1"
"260035","img/object_images/origami01.jpg","img/object_images/bookmark01.jpg","img/object_images/belt03.jpg","1","1","0","1","0","0","0.372028999991016","0.523064199980581","0.417970400012564","1","1","1","1","1","1","1","1","1"
"260035","img/object_images/belt03.jpg","img/object_images/origami01.jpg","img/object_images/Shoes05.jpg","0","1","1","0","1","0","0.417970400012564","0.372028999991016","0.463464400003431","1","1","1","1","1","1","1","1","1"
"260035","img/object_images/Shoes05.jpg","img/object_images/belt03.jpg","img/object_images/ToolBag01.jpg","1","0","1","0","0","0","0.463464400003431","0.417970400012564","0.405595199990785","1","1","1","1","1","1","1","1","1"
"260035","img/object_images/ToolBag01.jpg","img/object_images/Shoes05.jpg","img/object_images/bucket01.jpg","1","1","1","0","0","1","0.405595199990785","0.463464400003431","0.37432400000398","1","1","1","1","1","1","1","1","1"
"260035","img/object_images/bucket01.jpg","img/object_images/ToolBag01.jpg","img/object_images/dice01.jpg","1","1","1","1","0","0","0.37432400000398","0.405595199990785","0.485233100014739","1","1","1","1","1","1","1","1","1"
"260035","img/object_images/dice01.jpg","img/object_images/bucket01.jpg","img/object_images/shovel01.jpg","1","1","1","0","1","0","0.485233100014739","0.37432400000398","0.422613000002457","1","1","1","1","1","1","1","1","1"
"260035","img/object_images/shovel01.jpg","img/object_images/dice01.jpg","img/object_images/pitcher07.jpg","1","1","1","0","0","1","0.422613000002457","0.485233100014739","0.361801299994113","1","1","1","1","1","1","1","1","1"
"260035","img/object_images/pitcher07.jpg","img/object_images/shovel01.jpg","img/object_images/water_gun01.jpg","1","1","1","1","0","1","0.361801299994113","0.422613000002457","0.380489000002854","1","1","1","1","1","1","1","1","1"
"260035","img/object_images/water_gun01.jpg","img/object_images/pitcher07.jpg","img/object_images/helmet03.jpg","1","1","1","1","1","1","0.380489000002854","0.361801299994113","0.549711100000422","1","1","1","1","1","1","1","1","1"
"260035","img/object_images/helmet03.jpg","img/object_images/water_gun01.jpg","img/object_images/tennis_racket01.jpg","1","1","1","1","1","1","0.549711100000422","0.380489000002854","0.374676499981433","1","1","1","1","1","1","1","1","1"
"260035","img/object_images/tennis_racket01.jpg","img/object_images/helmet03.jpg","img/object_images/headset02.jpg","1","1","1","1","1","0","0.374676499981433","0.549711100000422","0.38978140000836","1","1","1","1","1","1","1","1","1"
"260035","img/object_images/headset02.jpg","img/object_images/tennis_racket01.jpg","img/object_images/fan01.jpg","1","1","1","0","1","0","0.38978140000836","0.374676499981433","0.483755200024461","1","1","1","1","1","1","1","1","1"
"260035","img/object_images/fan01.jpg","img/object_images/headset02.jpg","img/object_images/nut_cracker01.jpg","1","1","1","0","0","1","0.483755200024461","0.38978140000836","0.416309799998999","1","1","1","1","1","1","1","1","1"
"260035","img/object_images/nut_cracker01.jpg","img/object_images/fan01.jpg","img/object_images/phone04.jpg","1","1","1","1","0","1","0.416309799998999","0.483755200024461","0.471217200014507","1","1","1","1","1","1","1","1","1"
"260035","img/object_images/phone04.jpg","img/object_images/nut_cracker01.jpg","img/object_images/joystick03.jpg","1","1","1","1","1","1","0.471217200014507","0.416309799998999","0.396306600014213","1","1","1","1","1","1","1","1","1"
"260035","img/object_images/joystick03.jpg","img/object_images/phone04.jpg","img/object_images/usb03.jpg","1","1","1","1","1","0","0.396306600014213","0.471217200014507","0.502064800006337","1","1","1","1","1","1","1","1","1"
"260035","img/object_images/usb03.jpg","img/object_images/joystick03.jpg","img/object_images/frame01.jpg","1","1","1","0","1","1","0.502064800006337","0.396306600014213","0.412105700001121","1","1","1","1","1","1","1","1","1"
"260035","img/object_images/frame01.jpg","img/object_images/usb03.jpg","img/object_images/trumpet01.jpg","1","1","1","1","0","0","0.412105700001121","0.502064800006337","0.532604200008791","1","1","1","1","1","1","1","1","1"
"260035","img/object_images/trumpet01.jpg","img/object_images/frame01.jpg","img/object_images/bottle06.jpg","1","1","0","0","1","0","0.532604200008791","0.412105700001121","0.340886599995429","1","1","1","1","1","1","1","1","1"
"260035","img/object_images/bottle06.jpg","img/object_images/trumpet01.jpg","img/object_images/piano03.jpg","0","1","1","0","0","0","0.340886599995429","0.532604200008791","0.489442299993243","1","1","1","1","1","1","1","1","1"
"260035","img/object_images/piano03.jpg","img/object_images/bottle06.jpg","img/object_images/Eyeliner01.jpg","1","0","1","0","0","1","0.489442299993243","0.340886599995429","0.374018100003013","1","1","1","1","1","1","1","1","1"
"260035","img/object_images/Eyeliner01.jpg","img/object_images/piano03.jpg","img/object_images/scale02.jpg","1","1","1","1","0","0","0.374018100003013","0.489442299993243","0.416248199995607","1","1","1","1","1","1","1","1","1"
"260035","img/object_images/scale02.jpg","img/object_images/Eyeliner01.jpg","img/object_images/lock03.jpg","1","1","1","0","1","1","0.416248199995607","0.374018100003013","0.329512299998896","1","1","1","1","1","1","1","1","1"
"260035","img/object_images/lock03.jpg","img/object_images/scale02.jpg","img/object_images/yoga_mat01.jpg","1","1","0","1","0","0","0.329512299998896","0.416248199995607","0.362038199993549","1","1","1","1","1","1","1","1","1"
"260035","img/object_images/yoga_mat01.jpg","img/object_images/lock03.jpg","img/object_images/badminton01.jpg","0","1","1","0","1","1","0.362038199993549","0.329512299998896","0.47136130000581","1","1","1","1","1","1","1","1","1"
"260035","img/object_images/badminton01.jpg","img/object_images/yoga_mat01.jpg","img/object_images/jewel02.jpg","1","0","1","1","0","0","0.47136130000581","0.362038199993549","0.386547999980394","1","1","1","1","1","1","1","1","1"
"260035","img/object_images/jewel02.jpg","img/object_images/badminton01.jpg","img/object_images/egg_basket01.jpg","1","1","1","0","1","1","0.386547999980394","0.47136130000581","0.418227899994235","1","1","1","1","1","1","1","1","1"
"260035","img/object_images/egg_basket01.jpg","img/object_images/jewel02.jpg","img/object_images/TreeSlice01.jpg","1","1","1","1","0","1","0.418227899994235","0.386547999980394","0.368716099997982","1","1","1","1","1","1","1","1","1"
"260035","img/object_images/TreeSlice01.jpg","img/object_images/egg_basket01.jpg","img/object_images/note_book02.jpg","1","1","1","1","1","0","0.368716099997982","0.418227899994235","0.676379100012127","1","1","1","1","1","1","1","1","1"
"260035","img/object_images/note_book02.jpg","img/object_images/TreeSlice01.jpg",NA,"1","1",NA,"0","1",NA,"0.676379100012127","0.368716099997982",NA,"1","1",NA,"1","1",NA,"1","1",NA
"260035","img/object_images/cutting_board01.jpg",NA,"img/object_images/ladle02.jpg","1",NA,"1","1",NA,"0","0.428529199998593",NA,"0.668437599990284","1",NA,"1","1",NA,"1","1",NA,"1"
"260035","img/object_images/ladle02.jpg","img/object_images/cutting_board01.jpg","img/object_images/screwdriver01.jpg","1","1","1","0","1","0","0.668437599990284","0.428529199998593","0.436831099999836","1","1","1","1","1","1","1","1","1"
"260035","img/object_images/screwdriver01.jpg","img/object_images/ladle02.jpg","img/object_images/cards01.jpg","1","1","1","0","0","0","0.436831099999836","0.668437599990284","0.438898099993821","1","1","1","1","1","1","1","1","1"
"260035","img/object_images/cards01.jpg","img/object_images/screwdriver01.jpg","img/object_images/car03.jpg","1","1","1","0","0","0","0.438898099993821","0.436831099999836","0.434901200002059","1","1","1","1","1","1","1","1","1"
"260035","img/object_images/car03.jpg","img/object_images/cards01.jpg","img/object_images/toaster02.jpg","1","1","1","0","0","1","0.434901200002059","0.438898099993821","0.335165399999823","1","1","1","1","1","1","1","1","1"
"260035","img/object_images/toaster02.jpg","img/object_images/car03.jpg","img/object_images/satellite01.jpg","1","1","1","1","0","0","0.335165399999823","0.434901200002059","0.36950479997904","1","1","1","1","1","1","1","1","1"
"260035","img/object_images/satellite01.jpg","img/object_images/toaster02.jpg","img/object_images/ice_tray03.jpg","1","1","1","0","1","1","0.36950479997904","0.335165399999823","0.405956000002334","1","1","1","1","1","1","1","1","1"
"260035","img/object_images/ice_tray03.jpg","img/object_images/satellite01.jpg","img/object_images/razor01.jpg","1","1","1","1","0","0","0.405956000002334","0.36950479997904","0.414936699991813","1","1","1","1","1","1","1","1","1"
"260035","img/object_images/razor01.jpg","img/object_images/ice_tray03.jpg","img/object_images/belt01.jpg","1","1","1","0","1","0","0.414936699991813","0.405956000002334","0.447127899999032","1","1","1","1","1","1","1","1","1"
"260035","img/object_images/belt01.jpg","img/object_images/razor01.jpg","img/object_images/slinky_toy01.jpg","1","1","1","0","0","1","0.447127899999032","0.414936699991813","0.450690400000894","1","1","1","1","1","1","1","1","1"
"260035","img/object_images/slinky_toy01.jpg","img/object_images/belt01.jpg","img/object_images/hair_brush05.jpg","1","1","1","1","0","1","0.450690400000894","0.447127899999032","0.410681200010004","1","1","1","1","1","1","1","1","1"
"260035","img/object_images/hair_brush05.jpg","img/object_images/slinky_toy01.jpg","img/object_images/tool11.jpg","1","1","1","1","1","1","0.410681200010004","0.450690400000894","0.403845100023318","1","1","1","1","1","1","1","1","1"
"260035","img/object_images/tool11.jpg","img/object_images/hair_brush05.jpg","img/object_images/yarn02.jpg","1","1","1","1","1","0","0.403845100023318","0.410681200010004","0.506443500024034","1","1","1","1","1","1","1","1","1"
"260035","img/object_images/yarn02.jpg","img/object_images/tool11.jpg","img/object_images/key02.jpg","1","1","1","0","1","1","0.506443500024034","0.403845100023318","0.394919199985452","1","1","1","1","1","1","1","1","1"
"260035","img/object_images/key02.jpg","img/object_images/yarn02.jpg","img/object_images/WitchHat02.jpg","1","1","1","1","0","1","0.394919199985452","0.506443500024034","0.405711300001713","1","1","1","1","1","1","1","1","1"
"260035","img/object_images/WitchHat02.jpg","img/object_images/key02.jpg","img/object_images/shower_head03.jpg","1","1","1","1","1","1","0.405711300001713","0.394919199985452","0.337225499999477","1","1","1","1","1","1","1","1","1"
"260035","img/object_images/shower_head03.jpg","img/object_images/WitchHat02.jpg","img/object_images/shoes10.jpg","1","1","0","1","1","0","0.337225499999477","0.405711300001713","0.302098899992416","1","1","1","1","1","1","1","1","1"
"260035","img/object_images/shoes10.jpg","img/object_images/shower_head03.jpg","img/object_images/binoculars03.jpg","0","1","1","0","1","1","0.302098899992416","0.337225499999477","0.474545400007628","1","1","1","1","1","1","1","1","1"
"260035","img/object_images/binoculars03.jpg","img/object_images/shoes10.jpg","img/object_images/car04.jpg","1","0","1","1","0","0","0.474545400007628","0.302098899992416","0.347423900006106","1","1","1","1","1","1","1","1","1"
"260035","img/object_images/car04.jpg","img/object_images/binoculars03.jpg","img/object_images/jewelry07.jpg","1","1","1","0","1","1","0.347423900006106","0.474545400007628","0.457815799978562","1","1","1","1","1","1","1","1","1"
"260035","img/object_images/jewelry07.jpg","img/object_images/car04.jpg","img/object_images/ribbon01.jpg","1","1","0","1","0","0","0.457815799978562","0.347423900006106","0.558355399989523","1","1","1","1","1","1","1","1","1"
"260035","img/object_images/ribbon01.jpg","img/object_images/jewelry07.jpg","img/object_images/jewel01.jpg","0","1","1","0","1","0","0.558355399989523","0.457815799978562","0.624590699997498","1","1","1","1","1","1","1","1","1"
"260035","img/object_images/jewel01.jpg","img/object_images/ribbon01.jpg","img/object_images/tv01.jpg","1","0","1","0","0","0","0.624590699997498","0.558355399989523","0.581713199993828","1","1","1","1","1","1","1","1","1"
"260035","img/object_images/tv01.jpg","img/object_images/jewel01.jpg","img/object_images/fan05.jpg","1","1","1","0","0","0","0.581713199993828","0.624590699997498","0.442882999981521","1","1","1","1","1","1","1","1","1"
"260035","img/object_images/fan05.jpg","img/object_images/tv01.jpg","img/object_images/mask01.jpg","1","1","1","0","0","0","0.442882999981521","0.581713199993828","0.475818700011587","1","1","1","1","1","1","1","1","1"
"260035","img/object_images/mask01.jpg","img/object_images/fan05.jpg","img/object_images/lemon_squeezer02.jpg","1","1","1","0","0","1","0.475818700011587","0.442882999981521","0.42711569997482","1","1","1","1","1","1","1","1","1"
"260035","img/object_images/lemon_squeezer02.jpg","img/object_images/mask01.jpg","img/object_images/MeasuringCup01.jpg","1","1","1","1","0","1","0.42711569997482","0.475818700011587","0.438680999999633","1","1","1","1","1","1","1","1","1"
"260035","img/object_images/MeasuringCup01.jpg","img/object_images/lemon_squeezer02.jpg","img/object_images/bag06.jpg","1","1","1","1","1","1","0.438680999999633","0.42711569997482","0.450324800011003","1","1","1","1","1","1","1","1","1"
"260035","img/object_images/bag06.jpg","img/object_images/MeasuringCup01.jpg","img/object_images/rock03.jpg","1","1","1","1","1","0","0.450324800011003","0.438680999999633","0.471422700007679","1","1","1","1","1","1","1","1","1"
"260035","img/object_images/rock03.jpg","img/object_images/bag06.jpg","img/object_images/dress03.jpg","1","1","1","0","1","1","0.471422700007679","0.450324800011003","0.375393299997086","1","1","1","1","1","1","1","1","1"
"260035","img/object_images/dress03.jpg","img/object_images/rock03.jpg","img/object_images/chair04.jpg","1","1","1","1","0","1","0.375393299997086","0.471422700007679","0.348995400010608","1","1","1","1","1","1","1","1","1"
"260035","img/object_images/chair04.jpg","img/object_images/dress03.jpg",NA,"1","1",NA,"1","1",NA,"0.348995400010608","0.375393299997086",NA,"1","1",NA,"1","1",NA,"1","1",NA
"260035","img/object_images/jacket03.jpg",NA,"img/object_images/sleeping_bag01.jpg","1",NA,"0","0",NA,"0","0.441167300014058",NA,"0.444187599990983","1",NA,"1","1",NA,"1","1",NA,"1"
"260035","img/object_images/sleeping_bag01.jpg","img/object_images/jacket03.jpg","img/object_images/vga_port 01.jpg","0","1","1","0","0","0","0.444187599990983","0.441167300014058","0.375540199980605","1","1","1","1","1","1","1","1","1"
"260035","img/object_images/vga_port 01.jpg","img/object_images/sleeping_bag01.jpg","img/object_images/lawn_mower01.jpg","1","0","1","0","0","1","0.375540199980605","0.444187599990983","0.337589100003242","1","1","1","1","1","1","1","1","1"
"260035","img/object_images/lawn_mower01.jpg","img/object_images/vga_port 01.jpg","img/object_images/bow_tie01.jpg","1","1","0","1","0","0","0.337589100003242","0.375540199980605","0.333496900013415","1","1","1","1","1","1","1","1","1"
"260035","img/object_images/bow_tie01.jpg","img/object_images/lawn_mower01.jpg","img/object_images/couch03.jpg","0","1","1","0","1","0","0.333496900013415","0.337589100003242","0.405289499991341","1","1","1","1","1","1","1","1","1"
"260035","img/object_images/couch03.jpg","img/object_images/bow_tie01.jpg","img/object_images/funnel01.jpg","1","0","1","0","0","0","0.405289499991341","0.333496900013415","0.602224000002025","1","1","1","1","1","1","1","1","1"
"260035","img/object_images/funnel01.jpg","img/object_images/couch03.jpg","img/object_images/pitcher02.jpg","1","1","1","0","0","1","0.602224000002025","0.405289499991341","0.309573300008196","1","1","1","1","1","1","1","1","1"
"260035","img/object_images/pitcher02.jpg","img/object_images/funnel01.jpg","img/object_images/ironing_table01.jpg","1","1","1","1","0","0","0.309573300008196","0.602224000002025","0.408045899996068","1","1","1","1","1","1","1","1","1"
"260035","img/object_images/ironing_table01.jpg","img/object_images/pitcher02.jpg","img/object_images/fork03.jpg","1","1","1","0","1","1","0.408045899996068","0.309573300008196","0.394862300017849","1","1","1","1","1","1","1","1","1"
"260035","img/object_images/fork03.jpg","img/object_images/ironing_table01.jpg","img/object_images/bath_tub01.jpg","1","1","1","1","0","0","0.394862300017849","0.408045899996068","0.423107300011907","1","1","1","1","1","1","1","1","1"
"260035","img/object_images/bath_tub01.jpg","img/object_images/fork03.jpg","img/object_images/wallet02.jpg","1","1","1","0","1","1","0.423107300011907","0.394862300017849","0.380329500010703","1","1","1","1","1","1","1","1","1"
"260035","img/object_images/wallet02.jpg","img/object_images/bath_tub01.jpg","img/object_images/socks02.jpg","1","1","1","1","0","0","0.380329500010703","0.423107300011907","0.46891009999672","1","1","1","1","1","1","1","1","1"
"260035","img/object_images/socks02.jpg","img/object_images/wallet02.jpg","img/object_images/dresser04.jpg","1","1","1","0","1","0","0.46891009999672","0.380329500010703","0.480640900001163","1","1","1","1","1","1","1","1","1"
"260035","img/object_images/dresser04.jpg","img/object_images/socks02.jpg","img/object_images/gift_box03.jpg","1","1","1","0","0","0","0.480640900001163","0.46891009999672","0.49605800001882","1","1","1","1","1","1","1","1","1"
"260035","img/object_images/gift_box03.jpg","img/object_images/dresser04.jpg","img/object_images/Screws01.jpg","1","1","1","0","0","1","0.49605800001882","0.480640900001163","0.429331799998181","1","1","1","1","1","1","1","1","1"
"260035","img/object_images/Screws01.jpg","img/object_images/gift_box03.jpg","img/object_images/handkerchief01.jpg","1","1","1","1","0","0","0.429331799998181","0.49605800001882","0.412992099998519","1","1","1","1","1","1","1","1","1"
"260035","img/object_images/handkerchief01.jpg","img/object_images/Screws01.jpg","img/object_images/gift_box01.jpg","1","1","1","0","1","1","0.412992099998519","0.429331799998181","0.412682099995436","1","1","1","1","1","1","1","1","1"
"260035","img/object_images/gift_box01.jpg","img/object_images/handkerchief01.jpg","img/object_images/coloring_pencil01.jpg","1","1","1","1","0","1","0.412682099995436","0.412992099998519","0.448918200010667","1","1","1","1","1","1","1","1","1"
"260035","img/object_images/coloring_pencil01.jpg","img/object_images/gift_box01.jpg","img/object_images/golf_ball03.jpg","1","1","1","1","1","1","0.448918200010667","0.412682099995436","0.359701899986248","1","1","1","1","1","1","1","1","1"
"260035","img/object_images/golf_ball03.jpg","img/object_images/coloring_pencil01.jpg","img/object_images/lock04.jpg","1","1","1","1","1","1","0.359701899986248","0.448918200010667","0.474856400018325","1","1","1","1","1","1","1","1","1"
"260035","img/object_images/lock04.jpg","img/object_images/golf_ball03.jpg","img/object_images/gift_box02.jpg","1","1","1","1","1","1","0.474856400018325","0.359701899986248","0.38379160000477","1","1","1","1","1","1","1","1","1"
"260035","img/object_images/gift_box02.jpg","img/object_images/lock04.jpg","img/object_images/measuring_tape02.jpg","1","1","1","1","1","1","0.38379160000477","0.474856400018325","0.439711399987573","1","1","1","1","1","1","1","1","1"
"260035","img/object_images/measuring_tape02.jpg","img/object_images/gift_box02.jpg","img/object_images/hammer01.jpg","1","1","1","1","1","0","0.439711399987573","0.38379160000477","0.430575299978955","1","1","1","1","1","1","1","1","1"
"260035","img/object_images/hammer01.jpg","img/object_images/measuring_tape02.jpg","img/object_images/grater01.jpg","1","1","1","0","1","1","0.430575299978955","0.439711399987573","0.369075299997348","1","1","1","1","1","1","1","1","1"
"260035","img/object_images/grater01.jpg","img/object_images/hammer01.jpg","img/object_images/camera07.jpg","1","1","1","1","0","1","0.369075299997348","0.430575299978955","0.320014299999457","1","1","1","1","1","1","1","1","1"
"260035","img/object_images/camera07.jpg","img/object_images/grater01.jpg","img/object_images/jewelry01.jpg","1","1","1","1","1","1","0.320014299999457","0.369075299997348","0.348749900003895","1","1","1","1","1","1","1","1","1"
"260035","img/object_images/jewelry01.jpg","img/object_images/camera07.jpg","img/object_images/paper_cup01.jpg","1","1","0","1","1","0","0.348749900003895","0.320014299999457","0.37598790001357","1","1","1","1","1","1","1","1","2"
"260035","img/object_images/paper_cup01.jpg","img/object_images/jewelry01.jpg","img/object_images/bow_tie02.jpg","0","1","1","0","1","0","0.37598790001357","0.348749900003895","0.428177299996605","1","1","1","1","1","1","2","1","1"
"260035","img/object_images/bow_tie02.jpg","img/object_images/paper_cup01.jpg","img/object_images/Witchhat01.jpg","1","0","1","0","0","1","0.428177299996605","0.37598790001357","0.348899400007213","1","1","1","1","1","1","1","2","1"
"260035","img/object_images/Witchhat01.jpg","img/object_images/bow_tie02.jpg","img/object_images/clip02.jpg","1","1","1","1","0","1","0.348899400007213","0.428177299996605","0.32906789999106","1","1","1","1","1","1","1","1","1"
"260035","img/object_images/clip02.jpg","img/object_images/Witchhat01.jpg","img/object_images/balloon01.jpg","1","1","1","1","1","0","0.32906789999106","0.348899400007213","0.480172000010498","1","1","1","1","1","1","1","1","1"
"260035","img/object_images/balloon01.jpg","img/object_images/clip02.jpg",NA,"1","1",NA,"0","1",NA,"0.480172000010498","0.32906789999106",NA,"1","1",NA,"1","1",NA,"1","1",NA
"260035","img/object_images/cup01.jpg",NA,"img/object_images/duster01.jpg","1",NA,"0","0",NA,"0","0.41293229997973",NA,"0.332334900012938","1",NA,"1","1",NA,"1","1",NA,"1"
"260035","img/object_images/duster01.jpg","img/object_images/cup01.jpg","img/object_images/tool20.jpg","0","1","1","0","0","0","0.332334900012938","0.41293229997973","0.366429000016069","1","1","1","1","1","1","1","1","1"
"260035","img/object_images/tool20.jpg","img/object_images/duster01.jpg","img/object_images/camera05.jpg","1","0","1","0","0","0","0.366429000016069","0.332334900012938","0.383640100015327","1","1","1","1","1","1","1","1","1"
"260035","img/object_images/camera05.jpg","img/object_images/tool20.jpg","img/object_images/perfume01.jpg","1","1","0","0","0","0","0.383640100015327","0.366429000016069","0.328898600011598","1","1","1","1","1","1","1","1","1"
"260035","img/object_images/perfume01.jpg","img/object_images/camera05.jpg","img/object_images/hammer02.jpg","0","1","1","0","0","0","0.328898600011598","0.383640100015327","0.423777399992105","1","1","1","1","1","1","1","1","1"
"260035","img/object_images/hammer02.jpg","img/object_images/perfume01.jpg","img/object_images/lemon_squeezer01.jpg","1","0","1","0","0","1","0.423777399992105","0.328898600011598","0.199264799972298","1","1","1","1","1","1","1","1","1"
"260035","img/object_images/lemon_squeezer01.jpg","img/object_images/hammer02.jpg","img/object_images/glasses03.jpg","1","1","0","1","0","0","0.199264799972298","0.423777399992105","0.353333899984136","1","1","1","1","1","1","1","1","1"
"260035","img/object_images/glasses03.jpg","img/object_images/lemon_squeezer01.jpg","img/object_images/Confetti 01.jpg","0","1","1","0","1","0","0.353333899984136","0.199264799972298","0.472234800021397","1","1","1","1","1","1","1","1","1"
"260035","img/object_images/Confetti 01.jpg","img/object_images/glasses03.jpg","img/object_images/board01.jpg","1","0","1","0","0","1","0.472234800021397","0.353333899984136","0.462787399999797","1","1","1","1","1","1","1","1","1"
"260035","img/object_images/board01.jpg","img/object_images/Confetti 01.jpg","img/object_images/video_game02.jpg","1","1","1","1","0","1","0.462787399999797","0.472234800021397","0.402960200008238","1","1","1","1","1","1","1","1","1"
"260035","img/object_images/video_game02.jpg","img/object_images/board01.jpg","img/object_images/bag04.jpg","1","1","1","1","1","0","0.402960200008238","0.462787399999797","0.390233100013575","1","1","1","1","1","1","1","1","1"
"260035","img/object_images/bag04.jpg","img/object_images/video_game02.jpg","img/object_images/vase02.jpg","1","1","0","0","1","1","0.390233100013575","0.402960200008238","0.337747900019167","1","1","1","1","1","1","1","1","1"
"260035","img/object_images/vase02.jpg","img/object_images/bag04.jpg","img/object_images/hat09.jpg","0","1","1","1","0","0","0.337747900019167","0.390233100013575","0.456922500015935","1","1","1","1","1","1","1","1","1"
"260035","img/object_images/hat09.jpg","img/object_images/vase02.jpg","img/object_images/tool13.jpg","1","0","1","0","1","1","0.456922500015935","0.337747900019167","0.360663700004807","1","1","1","1","1","1","1","1","1"
"260035","img/object_images/tool13.jpg","img/object_images/hat09.jpg","img/object_images/socks01.jpg","1","1","1","1","0","1","0.360663700004807","0.456922500015935","0.442335200001253","1","1","1","1","1","1","1","1","1"
"260035","img/object_images/socks01.jpg","img/object_images/tool13.jpg","img/object_images/spray_can01.jpg","1","1","1","1","1","0","0.442335200001253","0.360663700004807","0.450940299982904","1","1","1","1","1","1","1","1","1"
"260035","img/object_images/spray_can01.jpg","img/object_images/socks01.jpg","img/object_images/sign02.jpg","1","1","0","0","1","0","0.450940299982904","0.442335200001253","0.299080199998571","1","1","1","1","1","1","1","1","1"
"260035","img/object_images/sign02.jpg","img/object_images/spray_can01.jpg","img/object_images/ruler02.jpg","0","1","1","0","0","1","0.299080199998571","0.450940299982904","0.459579399990616","1","1","1","1","1","1","1","1","1"
"260035","img/object_images/ruler02.jpg","img/object_images/sign02.jpg","img/object_images/Candle_Holder01.jpg","1","0","0","1","0","0","0.459579399990616","0.299080199998571","0.409621500002686","1","1","1","1","1","1","1","1","1"
"260035","img/object_images/Candle_Holder01.jpg","img/object_images/ruler02.jpg","img/object_images/pan03.jpg","0","1","1","0","1","1","0.409621500002686","0.459579399990616","0.433610200008843","1","1","1","1","1","1","1","1","1"
"260035","img/object_images/pan03.jpg","img/object_images/Candle_Holder01.jpg","img/object_images/sink_filter01 (1).jpg","1","0","1","1","0","0","0.433610200008843","0.409621500002686","0.505247699999018","1","1","1","1","1","1","1","1","1"
"260035","img/object_images/sink_filter01 (1).jpg","img/object_images/pan03.jpg","img/object_images/clipboard01.jpg","1","1","1","0","1","1","0.505247699999018","0.433610200008843","0.373376900010044","1","1","1","1","1","1","1","1","1"
"260035","img/object_images/clipboard01.jpg","img/object_images/sink_filter01 (1).jpg","img/object_images/pen06.jpg","1","1","1","1","0","0","0.373376900010044","0.505247699999018","0.418035800015787","1","1","1","1","1","1","1","1","1"
"260035","img/object_images/pen06.jpg","img/object_images/clipboard01.jpg","img/object_images/bow_tie03.jpg","1","1","1","0","1","1","0.418035800015787","0.373376900010044","0.35372680000728","1","1","1","1","1","1","1","1","1"
"260035","img/object_images/bow_tie03.jpg","img/object_images/pen06.jpg","img/object_images/knife01.jpg","1","1","1","1","0","1","0.35372680000728","0.418035800015787","0.322279299987713","1","1","1","1","1","1","1","1","1"
"260035","img/object_images/knife01.jpg","img/object_images/bow_tie03.jpg","img/object_images/hat13.jpg","1","1","1","1","1","1","0.322279299987713","0.35372680000728","0.466937099990901","1","1","1","1","1","1","1","1","1"
"260035","img/object_images/hat13.jpg","img/object_images/knife01.jpg","img/object_images/floss01.jpg","1","1","1","1","1","1","0.466937099990901","0.322279299987713","0.443399200012209","1","1","1","1","1","1","1","1","1"
"260035","img/object_images/floss01.jpg","img/object_images/hat13.jpg","img/object_images/razor02.jpg","1","1","1","1","1","1","0.443399200012209","0.466937099990901","0.362350799987325","1","1","1","1","1","1","1","1","1"
"260035","img/object_images/razor02.jpg","img/object_images/floss01.jpg","img/object_images/dust_pan01.jpg","1","1","1","1","1","1","0.362350799987325","0.443399200012209","0.324079600017285","1","1","1","1","1","1","1","1","1"
"260035","img/object_images/dust_pan01.jpg","img/object_images/razor02.jpg","img/object_images/office_supplies01.jpg","1","1","1","1","1","1","0.324079600017285","0.362350799987325","0.382976799999597","1","1","1","1","1","1","1","1","1"
"260035","img/object_images/office_supplies01.jpg","img/object_images/dust_pan01.jpg","img/object_images/candle02.jpg","1","1","1","1","1","0","0.382976799999597","0.324079600017285","0.390050699992571","1","1","1","1","1","1","1","1","1"
"260035","img/object_images/candle02.jpg","img/object_images/office_supplies01.jpg",NA,"1","1",NA,"0","1",NA,"0.390050699992571","0.382976799999597",NA,"1","1",NA,"1","1",NA,"1","1",NA
"260035","img/object_images/brief_case02.jpg",NA,"img/object_images/lantern01.jpg","1",NA,"1","1",NA,"1","0.396242899994832",NA,"0.310196899983566","1",NA,"1","1",NA,"1","1",NA,"1"
"260035","img/object_images/lantern01.jpg","img/object_images/brief_case02.jpg","img/object_images/helmet05.jpg","1","1","1","1","1","1","0.310196899983566","0.396242899994832","0.423933300015051","1","1","1","1","1","1","1","1","1"
"260035","img/object_images/helmet05.jpg","img/object_images/lantern01.jpg","img/object_images/video_game06.jpg","1","1","1","1","1","0","0.423933300015051","0.310196899983566","0.405655100010335","1","1","1","1","1","1","1","1","1"
"260035","img/object_images/video_game06.jpg","img/object_images/helmet05.jpg","img/object_images/drone02.jpg","1","1","1","0","1","0","0.405655100010335","0.423933300015051","0.46509669997613","1","1","1","1","1","1","1","1","1"
"260035","img/object_images/drone02.jpg","img/object_images/video_game06.jpg","img/object_images/pot01.jpg","1","1","1","0","0","0","0.46509669997613","0.405655100010335","0.329534499993315","1","1","1","1","1","1","1","1","1"
"260035","img/object_images/pot01.jpg","img/object_images/drone02.jpg","img/object_images/guitar01.jpg","1","1","1","0","0","1","0.329534499993315","0.46509669997613","0.299639400007436","1","1","1","1","1","1","1","1","1"
"260035","img/object_images/guitar01.jpg","img/object_images/pot01.jpg","img/object_images/toilet_paper01.jpg","1","1","1","1","0","1","0.299639400007436","0.329534499993315","0.411931899987394","1","1","1","1","1","1","1","1","1"
"260035","img/object_images/toilet_paper01.jpg","img/object_images/guitar01.jpg","img/object_images/soap01.jpg","1","1","1","1","1","0","0.411931899987394","0.299639400007436","0.4701849000121","1","1","1","1","1","1","1","1","1"
"260035","img/object_images/soap01.jpg","img/object_images/toilet_paper01.jpg","img/object_images/basketball_hoop02.jpg","1","1","1","0","1","0","0.4701849000121","0.411931899987394","0.393456200021319","1","1","1","1","1","1","1","1","1"
"260035","img/object_images/basketball_hoop02.jpg","img/object_images/soap01.jpg","img/object_images/tie01.jpg","1","1","1","0","0","0","0.393456200021319","0.4701849000121","0.26715040000272","1","1","1","1","1","1","1","1","1"
"260035","img/object_images/tie01.jpg","img/object_images/basketball_hoop02.jpg","img/object_images/gloves05.jpg","1","1","1","0","0","1","0.26715040000272","0.393456200021319","0.348482900008094","1","1","1","1","1","1","1","1","1"
"260035","img/object_images/gloves05.jpg","img/object_images/tie01.jpg","img/object_images/broom01.jpg","1","1","1","1","0","1","0.348482900008094","0.26715040000272","0.427666899980977","1","1","1","1","1","1","1","1","1"
"260035","img/object_images/broom01.jpg","img/object_images/gloves05.jpg","img/object_images/cochlear_implant01.jpg","1","1","1","1","1","0","0.427666899980977","0.348482900008094","0.43778450001264","1","1","1","1","1","1","1","1","1"
"260035","img/object_images/cochlear_implant01.jpg","img/object_images/broom01.jpg","img/object_images/toy_train02.jpg","1","1","1","0","1","1","0.43778450001264","0.427666899980977","0.446558700001333","1","1","1","1","1","1","1","1","1"
"260035","img/object_images/toy_train02.jpg","img/object_images/cochlear_implant01.jpg","img/object_images/lamp01.jpg","1","1","1","1","0","1","0.446558700001333","0.43778450001264","0.347650100011379","1","1","1","1","1","1","1","1","1"
"260035","img/object_images/lamp01.jpg","img/object_images/toy_train02.jpg","img/object_images/airfryer01.jpg","1","1","0","1","1","0","0.347650100011379","0.446558700001333","0.34382470001583","1","1","1","1","1","1","1","1","1"
"260035","img/object_images/airfryer01.jpg","img/object_images/lamp01.jpg","img/object_images/Recycling01.jpg","0","1","1","0","1","1","0.34382470001583","0.347650100011379","0.449276100000134","1","1","1","1","1","1","1","1","1"
"260035","img/object_images/Recycling01.jpg","img/object_images/airfryer01.jpg","img/object_images/ball01.jpg","1","0","1","1","0","1","0.449276100000134","0.34382470001583","0.482549400010612","1","1","1","1","1","1","1","1","1"
"260035","img/object_images/ball01.jpg","img/object_images/Recycling01.jpg","img/object_images/brief_case01.jpg","1","1","1","1","1","0","0.482549400010612","0.449276100000134","0.273771900014253","1","1","1","1","1","1","1","1","1"
"260035","img/object_images/brief_case01.jpg","img/object_images/ball01.jpg","img/object_images/hat02.jpg","1","1","0","0","1","0","0.273771900014253","0.482549400010612","0.362479700008407","1","1","1","1","1","1","1","1","1"
"260035","img/object_images/hat02.jpg","img/object_images/brief_case01.jpg","img/object_images/car02.jpg","0","1","1","0","0","0","0.362479700008407","0.273771900014253","0.429812300018966","1","1","1","1","1","1","1","1","1"
"260035","img/object_images/car02.jpg","img/object_images/hat02.jpg","img/object_images/decorative02.jpg","1","0","1","0","0","0","0.429812300018966","0.362479700008407","0.361881299992092","1","1","1","1","1","1","1","1","1"
"260035","img/object_images/decorative02.jpg","img/object_images/car02.jpg","img/object_images/container01.jpg","1","1","1","0","0","0","0.361881299992092","0.429812300018966","0.404627499985509","1","1","1","1","1","1","1","1","1"
"260035","img/object_images/container01.jpg","img/object_images/decorative02.jpg","img/object_images/couch04.jpg","1","1","1","0","0","1","0.404627499985509","0.361881299992092","0.362496499990812","1","1","1","1","1","1","1","1","1"
"260035","img/object_images/couch04.jpg","img/object_images/container01.jpg","img/object_images/bottle12.jpg","1","1","0","1","0","1","0.362496499990812","0.404627499985509","0.426007399975788","1","1","1","1","1","1","1","1","1"
"260035","img/object_images/bottle12.jpg","img/object_images/couch04.jpg","img/object_images/Woopie01.jpg","0","1","1","1","1","1","0.426007399975788","0.362496499990812","0.438361799984705","1","1","1","1","1","1","1","1","1"
"260035","img/object_images/Woopie01.jpg","img/object_images/bottle12.jpg","img/object_images/chair01.jpg","1","0","1","1","1","0","0.438361799984705","0.426007399975788","0.355118300009053","1","1","1","1","1","1","1","1","1"
"260035","img/object_images/chair01.jpg","img/object_images/Woopie01.jpg","img/object_images/Wisk01.jpg","1","1","0","0","1","1","0.355118300009053","0.438361799984705","0.284082300000591","1","1","1","1","1","1","1","1","1"
"260035","img/object_images/Wisk01.jpg","img/object_images/chair01.jpg","img/object_images/ironing_table02.jpg","0","1","1","1","0","0","0.284082300000591","0.355118300009053","0.334601900016423","1","1","1","1","1","1","1","1","1"
"260035","img/object_images/ironing_table02.jpg","img/object_images/Wisk01.jpg","img/object_images/razor03.jpg","1","0","1","0","1","0","0.334601900016423","0.284082300000591","0.403999100002693","1","1","1","1","1","1","1","1","1"
"260035","img/object_images/razor03.jpg","img/object_images/ironing_table02.jpg","img/object_images/pitcher03.jpg","1","1","1","0","0","1","0.403999100002693","0.334601900016423","0.455107999994652","1","1","1","1","1","1","1","1","1"
"260035","img/object_images/pitcher03.jpg","img/object_images/razor03.jpg",NA,"1","1",NA,"1","0",NA,"0.455107999994652","0.403999100002693",NA,"1","1",NA,"1","1",NA,"1","1",NA
"260035","img/object_images/laptop03.jpg",NA,"img/object_images/laptop01.jpg","1",NA,"1","1",NA,"0","0.465619900001911",NA,"0.508251799998106","1",NA,"1","1",NA,"1","1",NA,"1"
"260035","img/object_images/laptop01.jpg","img/object_images/laptop03.jpg","img/object_images/combs01.jpg","1","1","1","0","1","1","0.508251799998106","0.465619900001911","0.381996000010986","1","1","1","1","1","1","1","1","1"
"260035","img/object_images/combs01.jpg","img/object_images/laptop01.jpg","img/object_images/hair_dryer01.jpg","1","1","1","1","0","0","0.381996000010986","0.508251799998106","0.39750640001148","1","1","1","1","1","1","1","1","1"
"260035","img/object_images/hair_dryer01.jpg","img/object_images/combs01.jpg","img/object_images/chair02.jpg","1","1","1","0","1","1","0.39750640001148","0.381996000010986","0.333568600006402","1","1","1","1","1","1","1","1","1"
"260035","img/object_images/chair02.jpg","img/object_images/hair_dryer01.jpg","img/object_images/stove01.jpg","1","1","1","1","0","0","0.333568600006402","0.39750640001148","0.355024199991021","1","1","1","1","1","1","1","1","1"
"260035","img/object_images/stove01.jpg","img/object_images/chair02.jpg","img/object_images/Lint_Roller02.jpg","1","1","0","0","1","0","0.355024199991021","0.333568600006402","0.337750800012145","1","1","1","1","1","1","1","1","2"
"260035","img/object_images/Lint_Roller02.jpg","img/object_images/stove01.jpg","img/object_images/helmet02.jpg","0","1","1","0","0","0","0.337750800012145","0.355024199991021","0.310106499993708","1","1","1","1","1","1","2","1","1"
"260035","img/object_images/helmet02.jpg","img/object_images/Lint_Roller02.jpg","img/object_images/bucket02.jpg","1","0","1","0","0","1","0.310106499993708","0.337750800012145","0.384687499987194","1","1","1","1","1","1","1","2","1"
"260035","img/object_images/bucket02.jpg","img/object_images/helmet02.jpg","img/object_images/vase01.jpg","1","1","1","1","0","0","0.384687499987194","0.310106499993708","0.405996999994386","1","1","1","1","1","1","1","1","1"
"260035","img/object_images/vase01.jpg","img/object_images/bucket02.jpg","img/object_images/towels01.jpg","1","1","1","0","1","0","0.405996999994386","0.384687499987194","0.44731160000083","1","1","1","1","1","1","1","1","1"
"260035","img/object_images/towels01.jpg","img/object_images/vase01.jpg","img/object_images/microphone03.jpg","1","1","1","0","0","1","0.44731160000083","0.405996999994386","0.364233100001002","1","1","1","1","1","1","1","1","1"
"260035","img/object_images/microphone03.jpg","img/object_images/towels01.jpg","img/object_images/spatula02.jpg","1","1","1","1","0","1","0.364233100001002","0.44731160000083","0.367397200025152","1","1","1","1","1","1","1","1","1"
"260035","img/object_images/spatula02.jpg","img/object_images/microphone03.jpg","img/object_images/jewel03.jpg","1","1","1","1","1","1","0.367397200025152","0.364233100001002","0.350945399986813","1","1","1","1","1","1","1","1","1"
"260035","img/object_images/jewel03.jpg","img/object_images/spatula02.jpg","img/object_images/surf_board01.jpg","1","1","0","1","1","1","0.350945399986813","0.367397200025152","0.335593800002243","1","1","1","1","1","1","1","1","2"
"260035","img/object_images/surf_board01.jpg","img/object_images/jewel03.jpg","img/object_images/calculator01.jpg","0","1","1","1","1","1","0.335593800002243","0.350945399986813","0.461725900007877","1","1","1","1","1","1","2","1","1"
"260035","img/object_images/calculator01.jpg","img/object_images/surf_board01.jpg","img/object_images/fan04.jpg","1","0","1","1","1","0","0.461725900007877","0.335593800002243","0.518465100001777","1","1","1","1","1","1","1","2","1"
"260035","img/object_images/fan04.jpg","img/object_images/calculator01.jpg","img/object_images/umbrella01.jpg","1","1","1","0","1","0","0.518465100001777","0.461725900007877","0.512083500012523","1","1","1","1","1","1","1","1","1"
"260035","img/object_images/umbrella01.jpg","img/object_images/fan04.jpg","img/object_images/toy05.jpg","1","1","1","0","0","0","0.512083500012523","0.518465100001777","0.459376200014958","1","1","1","1","1","1","1","1","1"
"260035","img/object_images/toy05.jpg","img/object_images/umbrella01.jpg","img/object_images/Vest02.jpg","1","1","1","0","0","0","0.459376200014958","0.512083500012523","0.546761700010393","1","1","1","1","1","1","1","1","1"
"260035","img/object_images/Vest02.jpg","img/object_images/toy05.jpg","img/object_images/accardion01.jpg","1","1","1","0","0","1","0.546761700010393","0.459376200014958","0.440541799995117","1","1","1","1","1","1","1","1","1"
"260035","img/object_images/accardion01.jpg","img/object_images/Vest02.jpg","img/object_images/backpack03.jpg","1","1","1","1","0","1","0.440541799995117","0.546761700010393","0.367452000005869","1","1","1","1","1","1","1","1","1"
"260035","img/object_images/backpack03.jpg","img/object_images/accardion01.jpg","img/object_images/chess_piece01.jpg","1","1","1","1","1","0","0.367452000005869","0.440541799995117","0.367681999981869","1","1","1","1","1","1","1","1","1"
"260035","img/object_images/chess_piece01.jpg","img/object_images/backpack03.jpg","img/object_images/trash_can03.jpg","1","1","1","0","1","1","0.367681999981869","0.367452000005869","0.417631399992388","1","1","1","1","1","1","1","1","1"
"260035","img/object_images/trash_can03.jpg","img/object_images/chess_piece01.jpg","img/object_images/lock01.jpg","1","1","1","1","0","0","0.417631399992388","0.367681999981869","0.352207599993562","1","1","1","1","1","1","1","1","1"
"260035","img/object_images/lock01.jpg","img/object_images/trash_can03.jpg","img/object_images/gift_box05.jpg","1","1","1","0","1","0","0.352207599993562","0.417631399992388","0.334898900007829","1","1","1","1","1","1","1","1","1"
"260035","img/object_images/gift_box05.jpg","img/object_images/lock01.jpg","img/object_images/shoes08.jpg","1","1","1","0","0","1","0.334898900007829","0.352207599993562","0.273521199997049","1","1","1","1","1","1","1","1","1"
"260035","img/object_images/shoes08.jpg","img/object_images/gift_box05.jpg","img/object_images/ball02.jpg","1","1","1","1","0","1","0.273521199997049","0.334898900007829","0.352297300007194","1","1","1","1","1","1","1","1","1"
"260035","img/object_images/ball02.jpg","img/object_images/shoes08.jpg","img/object_images/trash_can05.jpg","1","1","1","1","1","1","0.352297300007194","0.273521199997049","0.340444900008151","1","1","1","1","1","1","1","1","1"
"260035","img/object_images/trash_can05.jpg","img/object_images/ball02.jpg","img/object_images/hair_brush02.jpg","1","1","0","1","1","0","0.340444900008151","0.352297300007194","0.34227589998045","1","1","1","1","1","1","1","1","1"
"260035","img/object_images/hair_brush02.jpg","img/object_images/trash_can05.jpg","img/object_images/robe01.jpg","0","1","1","0","1","1","0.34227589998045","0.340444900008151","0.550214599992614","1","1","1","1","1","1","1","1","1"
"260035","img/object_images/robe01.jpg","img/object_images/hair_brush02.jpg","img/object_images/pitcher05.jpg","1","0","1","1","0","0","0.550214599992614","0.34227589998045","0.424809999996796","1","1","1","1","1","1","1","1","1"
"260035","img/object_images/pitcher05.jpg","img/object_images/robe01.jpg",NA,"1","1",NA,"0","1",NA,"0.424809999996796","0.550214599992614",NA,"1","1",NA,"1","1",NA,"1","1",NA
"260035","img/object_images/Kitchen_Towel.jpg",NA,"img/object_images/ring03.jpg","1",NA,"1","0",NA,"1","0.380206000001635",NA,"0.301287600013893","1",NA,"1","1",NA,"1","1",NA,"1"
"260035","img/object_images/ring03.jpg","img/object_images/Kitchen_Towel.jpg","img/object_images/cellphone02.jpg","1","1","1","1","0","1","0.301287600013893","0.380206000001635","0.316711999999825","1","1","1","1","1","1","1","1","1"
"260035","img/object_images/cellphone02.jpg","img/object_images/ring03.jpg","img/object_images/pan01.jpg","1","1","1","1","1","1","0.316711999999825","0.301287600013893","0.323590900021372","1","1","1","1","1","1","1","1","1"
"260035","img/object_images/pan01.jpg","img/object_images/cellphone02.jpg","img/object_images/exfoliater_brush01.jpg","1","1","1","1","1","0","0.323590900021372","0.316711999999825","0.327274799987208","1","1","1","1","1","1","1","1","1"
"260035","img/object_images/exfoliater_brush01.jpg","img/object_images/pan01.jpg","img/object_images/Sprayer01.jpg","1","1","1","0","1","0","0.327274799987208","0.323590900021372","0.287434099998791","1","1","1","1","1","1","1","1","1"
"260035","img/object_images/Sprayer01.jpg","img/object_images/exfoliater_brush01.jpg","img/object_images/glasses07.jpg","1","1","1","0","0","1","0.287434099998791","0.327274799987208","0.415595400001621","1","1","1","1","1","1","1","1","1"
"260035","img/object_images/glasses07.jpg","img/object_images/Sprayer01.jpg","img/object_images/faucet01.jpg","1","1","0","1","0","0","0.415595400001621","0.287434099998791","0.432461300020805","1","1","1","1","1","1","1","1","2"
"260035","img/object_images/faucet01.jpg","img/object_images/glasses07.jpg","img/object_images/lighter01.jpg","0","1","1","0","1","1","0.432461300020805","0.415595400001621","0.274949500017101","1","1","1","1","1","1","2","1","1"
"260035","img/object_images/lighter01.jpg","img/object_images/faucet01.jpg","img/object_images/tool07.jpg","1","0","1","1","0","0","0.274949500017101","0.432461300020805","0.462370900000678","1","1","1","1","1","1","1","2","1"
"260035","img/object_images/tool07.jpg","img/object_images/lighter01.jpg","img/object_images/purse01.jpg","1","1","1","0","1","1","0.462370900000678","0.274949500017101","0.272230500006117","1","1","1","1","1","1","1","1","1"
"260035","img/object_images/purse01.jpg","img/object_images/tool07.jpg","img/object_images/basket02.jpg","1","1","1","1","0","0","0.272230500006117","0.462370900000678","0.37109210001654","1","1","1","1","1","1","1","1","1"
"260035","img/object_images/basket02.jpg","img/object_images/purse01.jpg","img/object_images/hole_puncher01.jpg","1","1","1","0","1","1","0.37109210001654","0.272230500006117","0.363583099999232","1","1","1","1","1","1","1","1","1"
"260035","img/object_images/hole_puncher01.jpg","img/object_images/basket02.jpg","img/object_images/glasses06.jpg","1","1","0","1","0","1","0.363583099999232","0.37109210001654","0.311859900015406","1","1","1","1","1","1","1","1","1"
"260035","img/object_images/glasses06.jpg","img/object_images/hole_puncher01.jpg","img/object_images/TrashCan02.jpg","0","1","0","1","1","1","0.311859900015406","0.363583099999232","0.309539100009715","1","1","1","1","1","1","1","1","1"
"260035","img/object_images/TrashCan02.jpg","img/object_images/glasses06.jpg","img/object_images/colander01.jpg","0","0","1","1","1","0","0.309539100009715","0.311859900015406","0.44492770000943","1","1","1","1","1","1","1","1","1"
"260035","img/object_images/colander01.jpg","img/object_images/TrashCan02.jpg","img/object_images/hair_clips01.jpg","1","0","1","0","1","1","0.44492770000943","0.309539100009715","0.336666699993657","1","1","1","1","1","1","1","1","1"
"260035","img/object_images/hair_clips01.jpg","img/object_images/colander01.jpg","img/object_images/fire_extinguisher01.jpg","1","1","1","1","0","0","0.336666699993657","0.44492770000943","0.37851129999035","1","1","1","1","1","1","1","1","1"
"260035","img/object_images/fire_extinguisher01.jpg","img/object_images/hair_clips01.jpg","img/object_images/Traffic Sign 01.jpg","1","1","1","0","1","0","0.37851129999035","0.336666699993657","0.476661699998658","1","1","1","1","1","1","1","1","1"
"260035","img/object_images/Traffic Sign 01.jpg","img/object_images/fire_extinguisher01.jpg","img/object_images/cup03.jpg","1","1","1","0","0","1","0.476661699998658","0.37851129999035","0.441550000017742","1","1","1","1","1","1","1","1","1"
"260035","img/object_images/cup03.jpg","img/object_images/Traffic Sign 01.jpg","img/object_images/book01.jpg","1","1","1","1","0","1","0.441550000017742","0.476661699998658","0.447740799980238","1","1","1","1","1","1","1","1","1"
"260035","img/object_images/book01.jpg","img/object_images/cup03.jpg","img/object_images/bicycle_lock01.jpg","1","1","1","1","1","0","0.447740799980238","0.441550000017742","0.416008700005477","1","1","1","1","1","1","1","1","1"
"260035","img/object_images/bicycle_lock01.jpg","img/object_images/book01.jpg","img/object_images/yo_yo01.jpg","1","1","1","0","1","0","0.416008700005477","0.447740799980238","0.436839200003306","1","1","1","1","1","1","1","1","1"
"260035","img/object_images/yo_yo01.jpg","img/object_images/bicycle_lock01.jpg","img/object_images/blanket01.jpg","1","1","1","0","0","1","0.436839200003306","0.416008700005477","0.40587940000114","1","1","1","1","1","1","1","1","1"
"260035","img/object_images/blanket01.jpg","img/object_images/yo_yo01.jpg","img/object_images/speaker01.jpg","1","1","1","1","0","1","0.40587940000114","0.436839200003306","0.406430600007298","1","1","1","1","1","1","1","1","1"
"260035","img/object_images/speaker01.jpg","img/object_images/blanket01.jpg","img/object_images/tray01.jpg","1","1","1","1","1","1","0.406430600007298","0.40587940000114","0.457908499985933","1","1","1","1","1","1","1","1","1"
"260035","img/object_images/tray01.jpg","img/object_images/speaker01.jpg","img/object_images/jewelry09.jpg","1","1","1","1","1","1","0.457908499985933","0.406430600007298","0.422388800012413","1","1","1","1","1","1","1","1","1"
"260035","img/object_images/jewelry09.jpg","img/object_images/tray01.jpg","img/object_images/gift_box04.jpg","1","1","1","1","1","0","0.422388800012413","0.457908499985933","0.388922200014349","1","1","1","1","1","1","1","1","1"
"260035","img/object_images/gift_box04.jpg","img/object_images/jewelry09.jpg","img/object_images/Pottery01.jpg","1","1","1","0","1","0","0.388922200014349","0.422388800012413","0.391979199979687","1","1","1","1","1","1","1","1","1"
"260035","img/object_images/Pottery01.jpg","img/object_images/gift_box04.jpg","img/object_images/projector01.jpg","1","1","0","0","0","0","0.391979199979687","0.388922200014349","0.401778800005559","1","1","1","1","1","1","1","1","1"
"260035","img/object_images/projector01.jpg","img/object_images/Pottery01.jpg","img/object_images/tool08.jpg","0","1","1","0","0","0","0.401778800005559","0.391979199979687","0.413168500002939","1","1","1","1","1","1","1","1","1"
"260035","img/object_images/tool08.jpg","img/object_images/projector01.jpg","img/object_images/handcuffs01.jpg","1","0","0","0","0","0","0.413168500002939","0.401778800005559","0.473971600004006","1","1","1","1","1","1","1","1","1"
"260035","img/object_images/handcuffs01.jpg","img/object_images/tool08.jpg",NA,"0","1",NA,"0","0",NA,"0.473971600004006","0.413168500002939",NA,"1","1",NA,"1","1",NA,"1","1",NA
"260035","img/object_images/camera03.jpg",NA,"img/object_images/sponge03.jpg","1",NA,"1","0",NA,"1","0.566955000016605",NA,"0.400411900016479","1",NA,"1","1",NA,"1","1",NA,"1"
"260035","img/object_images/sponge03.jpg","img/object_images/camera03.jpg","img/object_images/keyboard02.jpg","1","1","1","1","0","1","0.400411900016479","0.566955000016605","0.339673000009498","1","1","1","1","1","1","1","1","1"
"260035","img/object_images/keyboard02.jpg","img/object_images/sponge03.jpg","img/object_images/remover01.jpg","1","1","1","1","1","1","0.339673000009498","0.400411900016479","0.52876240000478","1","1","1","1","1","1","1","1","1"
"260035","img/object_images/remover01.jpg","img/object_images/keyboard02.jpg","img/object_images/kite01.jpg","1","1","1","1","1","1","0.52876240000478","0.339673000009498","0.377364999993006","1","1","1","1","1","1","1","1","1"
"260035","img/object_images/kite01.jpg","img/object_images/remover01.jpg","img/object_images/Statue01.jpg","1","1","1","1","1","1","0.377364999993006","0.52876240000478","0.384359800023958","1","1","1","1","1","1","1","1","1"
"260035","img/object_images/Statue01.jpg","img/object_images/kite01.jpg","img/object_images/knit03.jpg","1","1","0","1","1","1","0.384359800023958","0.377364999993006","0.354445900011342","1","1","1","1","1","1","1","1","1"
"260035","img/object_images/knit03.jpg","img/object_images/Statue01.jpg","img/object_images/tool18.jpg","0","1","1","1","1","0","0.354445900011342","0.384359800023958","0.337520300003234","1","1","1","1","1","1","1","1","1"
"260035","img/object_images/tool18.jpg","img/object_images/knit03.jpg","img/object_images/toy08.jpg","1","0","1","0","1","0","0.337520300003234","0.354445900011342","0.354577999998583","1","1","1","1","1","1","1","1","1"
"260035","img/object_images/toy08.jpg","img/object_images/tool18.jpg","img/object_images/paper_cup02.jpg","1","1","1","0","0","1","0.354577999998583","0.337520300003234","0.520384299976286","1","1","1","1","1","1","1","1","1"
"260035","img/object_images/paper_cup02.jpg","img/object_images/toy08.jpg","img/object_images/boat04.jpg","1","1","1","1","0","0","0.520384299976286","0.354577999998583","0.391808500018669","1","1","1","1","1","1","1","1","1"
"260035","img/object_images/boat04.jpg","img/object_images/paper_cup02.jpg","img/object_images/flashlight03.jpg","1","1","1","0","1","0","0.391808500018669","0.520384299976286","0.410647399985464","1","1","1","1","1","1","1","1","1"
"260035","img/object_images/flashlight03.jpg","img/object_images/boat04.jpg","img/object_images/stereo02.jpg","1","1","0","0","0","0","0.410647399985464","0.391808500018669","0.414177999977255","1","1","1","1","1","1","1","1","1"
"260035","img/object_images/stereo02.jpg","img/object_images/flashlight03.jpg","img/object_images/remote_controller01.jpg","0","1","1","0","0","1","0.414177999977255","0.410647399985464","0.426726300007431","1","1","1","1","1","1","1","1","1"
"260035","img/object_images/remote_controller01.jpg","img/object_images/stereo02.jpg","img/object_images/mail_box01.jpg","1","0","1","1","0","0","0.426726300007431","0.414177999977255","0.600129699974786","1","1","1","1","1","1","1","1","1"
"260035","img/object_images/mail_box01.jpg","img/object_images/remote_controller01.jpg","img/object_images/video_game01.jpg","1","1","1","0","1","1","0.600129699974786","0.426726300007431","0.41340640000999","1","1","1","1","1","1","1","1","1"
"260035","img/object_images/video_game01.jpg","img/object_images/mail_box01.jpg","img/object_images/phone02.jpg","1","1","1","1","0","1","0.41340640000999","0.600129699974786","0.344604900019476","1","1","1","1","1","1","1","1","1"
"260035","img/object_images/phone02.jpg","img/object_images/video_game01.jpg","img/object_images/basket04.jpg","1","1","1","1","1","1","0.344604900019476","0.41340640000999","0.389004199998453","1","1","1","1","1","1","1","1","1"
"260035","img/object_images/basket04.jpg","img/object_images/phone02.jpg","img/object_images/jacket04.jpg","1","1","1","1","1","0","0.389004199998453","0.344604900019476","0.495824299985543","1","1","1","1","1","1","1","1","1"
"260035","img/object_images/jacket04.jpg","img/object_images/basket04.jpg","img/object_images/car01.jpg","1","1","1","0","1","1","0.495824299985543","0.389004199998453","0.396045599976787","1","1","1","1","1","1","1","1","1"
"260035","img/object_images/car01.jpg","img/object_images/jacket04.jpg","img/object_images/blender02.jpg","1","1","1","1","0","1","0.396045599976787","0.495824299985543","0.341140899981838","1","1","1","1","1","1","1","1","1"
"260035","img/object_images/blender02.jpg","img/object_images/car01.jpg","img/object_images/matches02.jpg","1","1","1","1","1","0","0.341140899981838","0.396045599976787","0.481580000021495","1","1","1","1","1","1","1","1","1"
"260035","img/object_images/matches02.jpg","img/object_images/blender02.jpg","img/object_images/knife02.jpg","1","1","1","0","1","0","0.481580000021495","0.341140899981838","0.412271000008332","1","1","1","1","1","1","1","1","1"
"260035","img/object_images/knife02.jpg","img/object_images/matches02.jpg","img/object_images/knit04.jpg","1","1","1","0","0","1","0.412271000008332","0.481580000021495","0.384563300001901","1","1","1","1","1","1","1","1","1"
"260035","img/object_images/knit04.jpg","img/object_images/knife02.jpg","img/object_images/dresser03.jpg","1","1","1","1","0","0","0.384563300001901","0.412271000008332","0.317816499999026","1","1","1","1","1","1","1","1","1"
"260035","img/object_images/dresser03.jpg","img/object_images/knit04.jpg","img/object_images/shower_head01.jpg","1","1","1","0","1","1","0.317816499999026","0.384563300001901","0.319445300003281","1","1","1","1","1","1","1","1","1"
"260035","img/object_images/shower_head01.jpg","img/object_images/dresser03.jpg","img/object_images/curtain02.jpg","1","1","1","1","0","0","0.319445300003281","0.317816499999026","0.633527800004231","1","1","1","1","1","1","1","1","1"
"260035","img/object_images/curtain02.jpg","img/object_images/shower_head01.jpg","img/object_images/bottle07.jpg","1","1","1","0","1","1","0.633527800004231","0.319445300003281","0.386884300009115","1","1","1","1","1","1","1","1","1"
"260035","img/object_images/bottle07.jpg","img/object_images/curtain02.jpg","img/object_images/gloves02.jpg","1","1","0","1","0","0","0.386884300009115","0.633527800004231","0.343781300005503","1","1","1","1","1","1","1","1","1"
"260035","img/object_images/gloves02.jpg","img/object_images/bottle07.jpg","img/object_images/hand_grip_exerciser01.jpg","0","1","1","0","1","0","0.343781300005503","0.386884300009115","0.402748000022257","1","1","1","1","1","1","1","1","1"
"260035","img/object_images/hand_grip_exerciser01.jpg","img/object_images/gloves02.jpg","img/object_images/backpack01.jpg","1","0","0","0","0","0","0.402748000022257","0.343781300005503","0.464943200000562","1","1","1","1","1","1","1","1","2"
"260035","img/object_images/backpack01.jpg","img/object_images/hand_grip_exerciser01.jpg","img/object_images/hoverboard01.jpg","0","1","1","0","0","0","0.464943200000562","0.402748000022257","0.47882310001296","1","1","1","1","1","1","2","1","1"
"260035","img/object_images/hoverboard01.jpg","img/object_images/backpack01.jpg",NA,"1","0",NA,"0","0",NA,"0.47882310001296","0.464943200000562",NA,"1","1",NA,"1","1",NA,"1","2",NA
"260035","img/object_images/hat06.jpg",NA,"img/object_images/bottle09.jpg","1",NA,"1","0",NA,"0","0.450894599984167",NA,"0.417512699990766","1",NA,"1","1",NA,"1","1",NA,"1"
"260035","img/object_images/bottle09.jpg","img/object_images/hat06.jpg","img/object_images/water_scooter01.jpg","1","1","1","0","0","1","0.417512699990766","0.450894599984167","0.380712000012863","1","1","1","1","1","1","1","1","1"
"260035","img/object_images/water_scooter01.jpg","img/object_images/bottle09.jpg","img/object_images/hot_air_balloon02.jpg","1","1","0","1","0","0","0.380712000012863","0.417512699990766","0.471833599993261","1","1","1","1","1","1","1","1","1"
"260035","img/object_images/hot_air_balloon02.jpg","img/object_images/water_scooter01.jpg","img/object_images/purse04.jpg","0","1","1","0","1","1","0.471833599993261","0.380712000012863","0.4153106000158","1","1","1","1","1","1","1","1","1"
"260035","img/object_images/purse04.jpg","img/object_images/hot_air_balloon02.jpg","img/object_images/bicycle01.jpg","1","0","1","1","0","1","0.4153106000158","0.471833599993261","0.295005500025582","1","1","1","1","1","1","1","1","1"
"260035","img/object_images/bicycle01.jpg","img/object_images/purse04.jpg","img/object_images/fan02.jpg","1","1","1","1","1","0","0.295005500025582","0.4153106000158","0.438349399977596","1","1","1","1","1","1","1","1","1"
"260035","img/object_images/fan02.jpg","img/object_images/bicycle01.jpg","img/object_images/perfume02.jpg","1","1","1","0","1","0","0.438349399977596","0.295005500025582","0.414643900003284","1","1","1","1","1","1","1","1","1"
"260035","img/object_images/perfume02.jpg","img/object_images/fan02.jpg","img/object_images/toilet_paper_dispenser01.jpg","1","1","1","0","0","1","0.414643900003284","0.438349399977596","0.38953169999877","1","1","1","1","1","1","1","1","1"
"260035","img/object_images/toilet_paper_dispenser01.jpg","img/object_images/perfume02.jpg","img/object_images/wagon_cart03.jpg","1","1","0","1","0","1","0.38953169999877","0.414643900003284","0.339149900013581","1","1","1","1","1","1","1","1","1"
"260035","img/object_images/wagon_cart03.jpg","img/object_images/toilet_paper_dispenser01.jpg","img/object_images/bottle10.jpg","0","1","1","1","1","1","0.339149900013581","0.38953169999877","0.376459099992644","1","1","1","1","1","1","1","1","1"
"260035","img/object_images/bottle10.jpg","img/object_images/wagon_cart03.jpg","img/object_images/camera_lens01.jpg","1","0","1","1","1","1","0.376459099992644","0.339149900013581","0.395542600017507","1","1","1","1","1","1","1","1","1"
"260035","img/object_images/camera_lens01.jpg","img/object_images/bottle10.jpg","img/object_images/WoodBox01.jpg","1","1","1","1","1","0","0.395542600017507","0.376459099992644","0.360566799994558","1","1","1","1","1","1","1","1","1"
"260035","img/object_images/WoodBox01.jpg","img/object_images/camera_lens01.jpg","img/object_images/chair03.jpg","1","1","0","0","1","0","0.360566799994558","0.395542600017507","0.332033499988029","1","1","1","1","1","1","1","1","1"
"260035","img/object_images/chair03.jpg","img/object_images/WoodBox01.jpg","img/object_images/bean_bag02.jpg","0","1","1","0","0","1","0.332033499988029","0.360566799994558","0.391917600005399","1","1","1","1","1","1","1","1","1"
"260035","img/object_images/bean_bag02.jpg","img/object_images/chair03.jpg","img/object_images/knit01.jpg","1","0","1","1","0","0","0.391917600005399","0.332033499988029","0.365039800002705","1","1","1","1","1","1","1","1","1"
"260035","img/object_images/knit01.jpg","img/object_images/bean_bag02.jpg","img/object_images/coloring_pencil02.jpg","1","1","1","0","1","0","0.365039800002705","0.391917600005399","0.379848999989918","1","1","1","1","1","1","1","1","1"
"260035","img/object_images/coloring_pencil02.jpg","img/object_images/knit01.jpg","img/object_images/toaster01.jpg","1","1","1","0","0","1","0.379848999989918","0.365039800002705","0.35360890001175","1","1","1","1","1","1","1","1","1"
"260035","img/object_images/toaster01.jpg","img/object_images/coloring_pencil02.jpg","img/object_images/shoes07.jpg","1","1","1","1","0","0","0.35360890001175","0.379848999989918","0.334082199988188","1","1","1","1","1","1","1","1","1"
"260035","img/object_images/shoes07.jpg","img/object_images/toaster01.jpg","img/object_images/dog_leash01.jpg","1","1","1","0","1","0","0.334082199988188","0.35360890001175","0.397051099978853","1","1","1","1","1","1","1","1","1"
"260035","img/object_images/dog_leash01.jpg","img/object_images/shoes07.jpg","img/object_images/pen05.jpg","1","1","1","0","0","0","0.397051099978853","0.334082199988188","0.40411280002445","1","1","1","1","1","1","1","1","1"
"260035","img/object_images/pen05.jpg","img/object_images/dog_leash01.jpg","img/object_images/flask01.jpg","1","1","1","0","0","0","0.40411280002445","0.397051099978853","0.315267900004983","1","1","1","1","1","1","1","1","1"
"260035","img/object_images/flask01.jpg","img/object_images/pen05.jpg","img/object_images/helmet04.jpg","1","1","1","0","0","1","0.315267900004983","0.40411280002445","0.392862300010165","1","1","1","1","1","1","1","1","1"
"260035","img/object_images/helmet04.jpg","img/object_images/flask01.jpg","img/object_images/bottle02.jpg","1","1","0","1","0","1","0.392862300010165","0.315267900004983","0.342990699980874","1","1","1","1","1","1","1","1","1"
"260035","img/object_images/bottle02.jpg","img/object_images/helmet04.jpg","img/object_images/boat_toy10.jpg","0","1","1","1","1","0","0.342990699980874","0.392862300010165","0.418127600016305","1","1","1","1","1","1","1","1","1"
"260035","img/object_images/boat_toy10.jpg","img/object_images/bottle02.jpg","img/object_images/tool19.jpg","1","0","1","0","1","1","0.418127600016305","0.342990699980874","0.410328700003447","1","1","1","1","1","1","1","1","1"
"260035","img/object_images/tool19.jpg","img/object_images/boat_toy10.jpg","img/object_images/piggy_bank01.jpg","1","1","1","1","0","1","0.410328700003447","0.418127600016305","0.366722500009928","1","1","1","1","1","1","1","1","1"
"260035","img/object_images/piggy_bank01.jpg","img/object_images/tool19.jpg","img/object_images/boat02.jpg","1","1","1","1","1","1","0.366722500009928","0.410328700003447","0.325202700012596","1","1","1","1","1","1","1","1","1"
"260035","img/object_images/boat02.jpg","img/object_images/piggy_bank01.jpg","img/object_images/audio_port01.jpg","1","1","1","1","1","1","0.325202700012596","0.366722500009928","0.356520800007274","1","1","1","1","1","1","1","1","1"
"260035","img/object_images/audio_port01.jpg","img/object_images/boat02.jpg","img/object_images/scoreboard01.jpg","1","1","0","1","1","1","0.356520800007274","0.325202700012596","0.360648999980185","1","1","1","1","1","1","1","1","1"
"260035","img/object_images/scoreboard01.jpg","img/object_images/audio_port01.jpg","img/object_images/tie02.jpg","0","1","1","1","1","0","0.360648999980185","0.356520800007274","0.540669399983017","1","1","1","1","1","1","1","1","1"
"260035","img/object_images/tie02.jpg","img/object_images/scoreboard01.jpg","img/object_images/cellphone03.jpg","1","0","1","0","1","0","0.540669399983017","0.360648999980185","0.551378900010604","1","1","1","1","1","1","1","1","1"
"260035","img/object_images/cellphone03.jpg","img/object_images/tie02.jpg",NA,"1","1",NA,"0","0",NA,"0.551378900010604","0.540669399983017",NA,"1","1",NA,"1","1",NA,"1","1",NA
"260035","img/object_images/wire02.jpg",NA,"img/object_images/floppy_disk02.jpg","1",NA,"0","1",NA,"0","0.503212999989046",NA,"0.400622600020142","1",NA,"1","1",NA,"1","1",NA,"1"
"260035","img/object_images/floppy_disk02.jpg","img/object_images/wire02.jpg","img/object_images/motorcycle01.jpg","0","1","1","0","1","1","0.400622600020142","0.503212999989046","0.427404400019441","1","1","1","1","1","1","1","1","1"
"260035","img/object_images/motorcycle01.jpg","img/object_images/floppy_disk02.jpg","img/object_images/knit05.jpg","1","0","1","1","0","1","0.427404400019441","0.400622600020142","0.311107300018193","1","1","1","1","1","1","1","1","1"
"260035","img/object_images/knit05.jpg","img/object_images/motorcycle01.jpg","img/object_images/bell02.jpg","1","1","1","1","1","0","0.311107300018193","0.427404400019441","0.281846600002609","1","1","1","1","1","1","1","1","1"
"260035","img/object_images/bell02.jpg","img/object_images/knit05.jpg","img/object_images/crutches02.jpg","1","1","1","0","1","0","0.281846600002609","0.311107300018193","0.378000400000019","1","1","1","1","1","1","1","1","1"
"260035","img/object_images/crutches02.jpg","img/object_images/bell02.jpg","img/object_images/hammer03.jpg","1","1","1","0","0","1","0.378000400000019","0.281846600002609","0.376523600018118","1","1","1","1","1","1","1","1","1"
"260035","img/object_images/hammer03.jpg","img/object_images/crutches02.jpg","img/object_images/knife04.jpg","1","1","1","1","0","1","0.376523600018118","0.378000400000019","0.39055000001099","1","1","1","1","1","1","1","1","1"
"260035","img/object_images/knife04.jpg","img/object_images/hammer03.jpg","img/object_images/note_book01.jpg","1","1","1","1","1","0","0.39055000001099","0.376523600018118","0.46801760001108","1","1","1","1","1","1","1","1","1"
"260035","img/object_images/note_book01.jpg","img/object_images/knife04.jpg","img/object_images/book03.jpg","1","1","1","0","1","1","0.46801760001108","0.39055000001099","0.336681399989175","1","1","1","1","1","1","1","1","1"
"260035","img/object_images/book03.jpg","img/object_images/note_book01.jpg","img/object_images/tv02.jpg","1","1","1","1","0","0","0.336681399989175","0.46801760001108","0.37787539997953","1","1","1","1","1","1","1","1","1"
"260035","img/object_images/tv02.jpg","img/object_images/book03.jpg","img/object_images/pitcher01.jpg","1","1","1","0","1","0","0.37787539997953","0.336681399989175","0.432365399989067","1","1","1","1","1","1","1","1","1"
"260035","img/object_images/pitcher01.jpg","img/object_images/tv02.jpg","img/object_images/clock02.jpg","1","1","0","0","0","0","0.432365399989067","0.37787539997953","0.380409700010205","1","1","1","1","1","1","1","1","1"
"260035","img/object_images/clock02.jpg","img/object_images/pitcher01.jpg","img/object_images/ear_bud01.jpg","0","1","1","0","0","1","0.380409700010205","0.432365399989067","0.391607500001555","1","1","1","1","1","1","1","1","1"
"260035","img/object_images/ear_bud01.jpg","img/object_images/clock02.jpg","img/object_images/clip03.jpg","1","0","1","1","0","0","0.391607500001555","0.380409700010205","0.38589370000409","1","1","1","1","1","1","1","1","1"
"260035","img/object_images/clip03.jpg","img/object_images/ear_bud01.jpg","img/object_images/retainer01.jpg","1","1","1","0","1","0","0.38589370000409","0.391607500001555","0.465971199999331","1","1","1","1","1","1","1","1","1"
"260035","img/object_images/retainer01.jpg","img/object_images/clip03.jpg","img/object_images/chess_piece02.jpg","1","1","1","0","0","1","0.465971199999331","0.38589370000409","0.516702799999621","1","1","1","1","1","1","1","1","1"
"260035","img/object_images/chess_piece02.jpg","img/object_images/retainer01.jpg","img/object_images/Thermometer01.jpg","1","1","1","1","0","0","0.516702799999621","0.465971199999331","0.501525300001958","1","1","1","1","1","1","1","1","1"
"260035","img/object_images/Thermometer01.jpg","img/object_images/chess_piece02.jpg","img/object_images/Oven01.jpg","1","1","1","0","1","1","0.501525300001958","0.516702799999621","0.498578900005668","1","1","1","1","1","1","1","1","1"
"260035","img/object_images/Oven01.jpg","img/object_images/Thermometer01.jpg","img/object_images/Staples01.jpg","1","1","1","1","0","1","0.498578900005668","0.501525300001958","0.485203399992315","1","1","1","1","1","1","1","1","1"
"260035","img/object_images/Staples01.jpg","img/object_images/Oven01.jpg","img/object_images/lid01.jpg","1","1","1","1","1","1","0.485203399992315","0.498578900005668","0.362368799978867","1","1","1","1","1","1","1","1","1"
"260035","img/object_images/lid01.jpg","img/object_images/Staples01.jpg","img/object_images/chair05.jpg","1","1","0","1","1","0","0.362368799978867","0.485203399992315","0.513015700009419","1","1","1","1","1","1","1","1","2"
"260035","img/object_images/chair05.jpg","img/object_images/lid01.jpg","img/object_images/pillows01.jpg","0","1","1","0","1","1","0.513015700009419","0.362368799978867","0.382104799995432","1","1","1","1","1","1","2","1","1"
"260035","img/object_images/pillows01.jpg","img/object_images/chair05.jpg","img/object_images/bottle01.jpg","1","0","0","1","0","0","0.382104799995432","0.513015700009419","0.699558300024364","1","1","1","1","1","1","1","2","1"
"260035","img/object_images/bottle01.jpg","img/object_images/pillows01.jpg","img/object_images/compass01.jpg","0","1","1","0","1","1","0.699558300024364","0.382104799995432","0.450047999998787","1","1","1","1","1","1","1","1","1"
"260035","img/object_images/compass01.jpg","img/object_images/bottle01.jpg","img/object_images/paint_brush04.jpg","1","0","1","1","0","0","0.450047999998787","0.699558300024364","0.423553000000538","1","1","1","1","1","1","1","1","1"
"260035","img/object_images/paint_brush04.jpg","img/object_images/compass01.jpg","img/object_images/microscope01.jpg","1","1","1","0","1","0","0.423553000000538","0.450047999998787","0.382699100009631","1","1","1","1","1","1","1","1","1"
"260035","img/object_images/microscope01.jpg","img/object_images/paint_brush04.jpg","img/object_images/cellphone01.jpg","1","1","1","0","0","1","0.382699100009631","0.423553000000538","0.345473699999275","1","1","1","1","1","1","1","1","1"
"260035","img/object_images/cellphone01.jpg","img/object_images/microscope01.jpg","img/object_images/floppy_disk03.jpg","1","1","1","1","0","1","0.345473699999275","0.382699100009631","0.35672079998767","1","1","1","1","1","1","1","1","1"
"260035","img/object_images/floppy_disk03.jpg","img/object_images/cellphone01.jpg","img/object_images/pen03.jpg","1","1","0","1","1","0","0.35672079998767","0.345473699999275","0.270947899989551","1","1","1","1","1","1","1","1","1"
"260035","img/object_images/pen03.jpg","img/object_images/floppy_disk03.jpg","img/object_images/tennis_racket02.jpg","0","1","0","0","1","1","0.270947899989551","0.35672079998767","0.290207100013504","1","1","1","1","1","1","1","1","1"
"260035","img/object_images/tennis_racket02.jpg","img/object_images/pen03.jpg","img/object_images/usb02.jpg","0","0","1","1","0","0","0.290207100013504","0.270947899989551","0.428819900000235","1","1","1","1","1","1","1","1","1"
"260035","img/object_images/usb02.jpg","img/object_images/tennis_racket02.jpg",NA,"1","0",NA,"0","1",NA,"0.428819900000235","0.290207100013504",NA,"1","1",NA,"1","1",NA,"1","1",NA
