"participant_id","current_trial_object","pre_trial_object","post_trial_object","current_trial_accuracy","pre_trial_accuracy","post_trial_accuracy","current_trial_congruency","pre_trial_congruency","post_trial_congruency","current_trial_rt","pre_trial_rt","post_trial_rt","current_trial_responded","pre_trial_responded","post_trial_responded","current_trial_legitResponse","pre_trial_legitResponse","post_trial_legitResponse","current_trial_resp_nums","pre_trial_resp_nums","post_trial_resp_nums"
"260024","img/object_images/toothbrush01.jpg",NA,"img/object_images/scarf01.jpg","1",NA,"1","0",NA,"1","0.541162799927406",NA,"0.511888799956068","1",NA,"1","1",NA,"1","1",NA,"1"
"260024","img/object_images/scarf01.jpg","img/object_images/toothbrush01.jpg","img/object_images/chair06.jpg","1","1","1","1","0","0","0.511888799956068","0.541162799927406","0.49980480002705","1","1","1","1","1","1","1","1","1"
"260024","img/object_images/chair06.jpg","img/object_images/scarf01.jpg","img/object_images/airfryer02.jpg","1","1","1","0","1","1","0.49980480002705","0.511888799956068","0.750659300014377","1","1","1","1","1","1","1","1","1"
"260024","img/object_images/airfryer02.jpg","img/object_images/chair06.jpg","img/object_images/fork02.jpg","1","1","1","1","0","0","0.750659300014377","0.49980480002705","0.482675699982792","1","1","1","1","1","1","1","1","1"
"260024","img/object_images/fork02.jpg","img/object_images/airfryer02.jpg","img/object_images/computer_mouse01.jpg","1","1","1","0","1","1","0.482675699982792","0.750659300014377","0.433069100021385","1","1","1","1","1","1","1","1","1"
"260024","img/object_images/computer_mouse01.jpg","img/object_images/fork02.jpg","img/object_images/drone01.jpg","1","1","1","1","0","1","0.433069100021385","0.482675699982792","0.457535499939695","1","1","1","1","1","1","1","1","1"
"260024","img/object_images/drone01.jpg","img/object_images/computer_mouse01.jpg","img/object_images/computer_mouse02.jpg","1","1","1","1","1","0","0.457535499939695","0.433069100021385","0.536717299954034","1","1","1","1","1","1","1","1","1"
"260024","img/object_images/computer_mouse02.jpg","img/object_images/drone01.jpg","img/object_images/rock02.jpg","1","1","1","0","1","0","0.536717299954034","0.457535499939695","0.542148999986239","1","1","1","1","1","1","1","1","1"
"260024","img/object_images/rock02.jpg","img/object_images/computer_mouse02.jpg","img/object_images/shoes12.jpg","1","1","1","0","0","1","0.542148999986239","0.536717299954034","0.455584999988787","1","1","1","1","1","1","1","1","1"
"260024","img/object_images/shoes12.jpg","img/object_images/rock02.jpg","img/object_images/hair_brush01.jpg","1","1","1","1","0","1","0.455584999988787","0.542148999986239","0.431604699930176","1","1","1","1","1","1","1","1","1"
"260024","img/object_images/hair_brush01.jpg","img/object_images/shoes12.jpg","img/object_images/pen01.jpg","1","1","1","1","1","0","0.431604699930176","0.455584999988787","0.492116500041448","1","1","1","1","1","1","1","1","1"
"260024","img/object_images/pen01.jpg","img/object_images/hair_brush01.jpg","img/object_images/Trowel01.jpg","1","1","1","0","1","0","0.492116500041448","0.431604699930176","0.609185099950992","1","1","1","1","1","1","1","1","1"
"260024","img/object_images/Trowel01.jpg","img/object_images/pen01.jpg","img/object_images/floss02.jpg","1","1","1","0","0","1","0.609185099950992","0.492116500041448","0.510902400012128","1","1","1","1","1","1","1","1","1"
"260024","img/object_images/floss02.jpg","img/object_images/Trowel01.jpg","img/object_images/soap03.jpg","1","1","1","1","0","0","0.510902400012128","0.609185099950992","0.509057699935511","1","1","1","1","1","1","1","1","1"
"260024","img/object_images/soap03.jpg","img/object_images/floss02.jpg","img/object_images/toy01.jpg","1","1","1","0","1","1","0.509057699935511","0.510902400012128","0.445358600001782","1","1","1","1","1","1","1","1","1"
"260024","img/object_images/toy01.jpg","img/object_images/soap03.jpg","img/object_images/egg_slicer01.jpg","1","1","1","1","0","1","0.445358600001782","0.509057699935511","0.527663800050505","1","1","1","1","1","1","1","1","1"
"260024","img/object_images/egg_slicer01.jpg","img/object_images/toy01.jpg","img/object_images/skate_board01.jpg","1","1","1","1","1","0","0.527663800050505","0.445358600001782","0.609101300011389","1","1","1","1","1","1","1","1","1"
"260024","img/object_images/skate_board01.jpg","img/object_images/egg_slicer01.jpg","img/object_images/tool06.jpg","1","1","1","0","1","0","0.609101300011389","0.527663800050505","0.531462699989788","1","1","1","1","1","1","1","1","1"
"260024","img/object_images/tool06.jpg","img/object_images/skate_board01.jpg","img/object_images/chain01.jpg","1","1","1","0","0","0","0.531462699989788","0.609101300011389","0.417156400042586","1","1","1","1","1","1","1","1","1"
"260024","img/object_images/chain01.jpg","img/object_images/tool06.jpg","img/object_images/tripod01.jpg","1","1","1","0","0","1","0.417156400042586","0.531462699989788","0.511190199991688","1","1","1","1","1","1","1","1","1"
"260024","img/object_images/tripod01.jpg","img/object_images/chain01.jpg","img/object_images/bell03.jpg","1","1","1","1","0","0","0.511190199991688","0.417156400042586","0.521509399986826","1","1","1","1","1","1","1","1","1"
"260024","img/object_images/bell03.jpg","img/object_images/tripod01.jpg","img/object_images/pitcher09.jpg","1","1","1","0","1","1","0.521509399986826","0.511190199991688","0.442251099972054","1","1","1","1","1","1","1","1","1"
"260024","img/object_images/pitcher09.jpg","img/object_images/bell03.jpg","img/object_images/mail_box02.jpg","1","1","1","1","0","1","0.442251099972054","0.521509399986826","0.49338010000065","1","1","1","1","1","1","1","1","1"
"260024","img/object_images/mail_box02.jpg","img/object_images/pitcher09.jpg","img/object_images/Violin01.jpg","1","1","1","1","1","0","0.49338010000065","0.442251099972054","0.531181799946353","1","1","1","1","1","1","1","1","1"
"260024","img/object_images/Violin01.jpg","img/object_images/mail_box02.jpg","img/object_images/blender01.jpg","1","1","1","0","1","0","0.531181799946353","0.49338010000065","0.469950399943627","1","1","1","1","1","1","1","1","1"
"260024","img/object_images/blender01.jpg","img/object_images/Violin01.jpg","img/object_images/video_game03.jpg","1","1","1","0","0","1","0.469950399943627","0.531181799946353","0.476273500011302","1","1","1","1","1","1","1","1","1"
"260024","img/object_images/video_game03.jpg","img/object_images/blender01.jpg","img/object_images/couch01.jpg","1","1","1","1","0","0","0.476273500011302","0.469950399943627","0.527573799947277","1","1","1","1","1","1","1","1","1"
"260024","img/object_images/couch01.jpg","img/object_images/video_game03.jpg","img/object_images/box03.jpg","1","1","1","0","1","0","0.527573799947277","0.476273500011302","0.46979680005461","1","1","1","1","1","1","1","1","1"
"260024","img/object_images/box03.jpg","img/object_images/couch01.jpg","img/object_images/clip04.jpg","1","1","1","0","0","1","0.46979680005461","0.527573799947277","0.455212699947879","1","1","1","1","1","1","1","1","1"
"260024","img/object_images/clip04.jpg","img/object_images/box03.jpg","img/object_images/bag_pipes01.jpg","1","1","1","1","0","1","0.455212699947879","0.46979680005461","0.490609799977392","1","1","1","1","1","1","1","1","1"
"260024","img/object_images/bag_pipes01.jpg","img/object_images/clip04.jpg","img/object_images/book02.jpg","1","1","1","1","1","1","0.490609799977392","0.455212699947879","0.47079529997427","1","1","1","1","1","1","1","1","1"
"260024","img/object_images/book02.jpg","img/object_images/bag_pipes01.jpg",NA,"1","1",NA,"1","1",NA,"0.47079529997427","0.490609799977392",NA,"1","1",NA,"1","1",NA,"1","1",NA
"260024","img/object_images/Thermometer01.jpg",NA,"img/object_images/hammer03.jpg","1",NA,"1","0",NA,"1","0.504597899969667",NA,"0.442346099996939","1",NA,"1","1",NA,"1","1",NA,"1"
"260024","img/object_images/hammer03.jpg","img/object_images/Thermometer01.jpg","img/object_images/paint_brush04.jpg","1","1","1","1","0","0","0.442346099996939","0.504597899969667","0.445389900007285","1","1","1","1","1","1","1","1","1"
"260024","img/object_images/paint_brush04.jpg","img/object_images/hammer03.jpg","img/object_images/note_book01.jpg","1","1","1","0","1","0","0.445389900007285","0.442346099996939","0.462773200008087","1","1","1","1","1","1","1","1","1"
"260024","img/object_images/note_book01.jpg","img/object_images/paint_brush04.jpg","img/object_images/book03.jpg","1","1","1","0","0","1","0.462773200008087","0.445389900007285","0.361598999937996","1","1","1","1","1","1","1","1","1"
"260024","img/object_images/book03.jpg","img/object_images/note_book01.jpg","img/object_images/Oven01.jpg","1","1","1","1","0","1","0.361598999937996","0.462773200008087","0.390570000046864","1","1","1","1","1","1","1","1","1"
"260024","img/object_images/Oven01.jpg","img/object_images/book03.jpg","img/object_images/clock02.jpg","1","1","1","1","1","0","0.390570000046864","0.361598999937996","0.545542000094429","1","1","1","1","1","1","1","1","1"
"260024","img/object_images/clock02.jpg","img/object_images/Oven01.jpg","img/object_images/bell02.jpg","1","1","1","0","1","0","0.545542000094429","0.390570000046864","0.464688100037165","1","1","1","1","1","1","1","1","1"
"260024","img/object_images/bell02.jpg","img/object_images/clock02.jpg","img/object_images/floppy_disk03.jpg","1","1","1","0","0","1","0.464688100037165","0.545542000094429","0.471658500027843","1","1","1","1","1","1","1","1","1"
"260024","img/object_images/floppy_disk03.jpg","img/object_images/bell02.jpg","img/object_images/pen03.jpg","1","1","1","1","0","0","0.471658500027843","0.464688100037165","0.374966699979268","1","1","1","1","1","1","1","1","1"
"260024","img/object_images/pen03.jpg","img/object_images/floppy_disk03.jpg","img/object_images/compass01.jpg","1","1","1","0","1","1","0.374966699979268","0.471658500027843","0.341098599950783","1","1","1","1","1","1","1","1","1"
"260024","img/object_images/compass01.jpg","img/object_images/pen03.jpg","img/object_images/chair05.jpg","1","1","1","1","0","0","0.341098599950783","0.374966699979268","0.443375600036234","1","1","1","1","1","1","1","1","1"
"260024","img/object_images/chair05.jpg","img/object_images/compass01.jpg","img/object_images/knit05.jpg","1","1","1","0","1","1","0.443375600036234","0.341098599950783","0.446744999964722","1","1","1","1","1","1","1","1","1"
"260024","img/object_images/knit05.jpg","img/object_images/chair05.jpg","img/object_images/lid01.jpg","1","1","1","1","0","1","0.446744999964722","0.443375600036234","0.372323399991728","1","1","1","1","1","1","1","1","1"
"260024","img/object_images/lid01.jpg","img/object_images/knit05.jpg","img/object_images/crutches02.jpg","1","1","1","1","1","0","0.372323399991728","0.446744999964722","0.462770999991335","1","1","1","1","1","1","1","1","1"
"260024","img/object_images/crutches02.jpg","img/object_images/lid01.jpg","img/object_images/pillows01.jpg","1","1","1","0","1","1","0.462770999991335","0.372323399991728","0.39934300002642","1","1","1","1","1","1","1","1","1"
"260024","img/object_images/pillows01.jpg","img/object_images/crutches02.jpg","img/object_images/floppy_disk02.jpg","1","1","1","1","0","0","0.39934300002642","0.462770999991335","0.462332500028424","1","1","1","1","1","1","1","1","1"
"260024","img/object_images/floppy_disk02.jpg","img/object_images/pillows01.jpg","img/object_images/Staples01.jpg","1","1","1","0","1","1","0.462332500028424","0.39934300002642","0.407797300023958","1","1","1","1","1","1","1","1","1"
"260024","img/object_images/Staples01.jpg","img/object_images/floppy_disk02.jpg","img/object_images/clip03.jpg","1","1","1","1","0","0","0.407797300023958","0.462332500028424","0.413561100023799","1","1","1","1","1","1","1","1","1"
"260024","img/object_images/clip03.jpg","img/object_images/Staples01.jpg","img/object_images/chess_piece02.jpg","1","1","1","0","1","1","0.413561100023799","0.407797300023958","0.436286699958146","1","1","1","1","1","1","1","1","1"
"260024","img/object_images/chess_piece02.jpg","img/object_images/clip03.jpg","img/object_images/microscope01.jpg","1","1","1","1","0","0","0.436286699958146","0.413561100023799","0.416411199956201","1","1","1","1","1","1","1","1","1"
"260024","img/object_images/microscope01.jpg","img/object_images/chess_piece02.jpg","img/object_images/knife04.jpg","1","1","1","0","1","1","0.416411199956201","0.436286699958146","0.346585999941453","1","1","1","1","1","1","1","1","1"
"260024","img/object_images/knife04.jpg","img/object_images/microscope01.jpg","img/object_images/wire02.jpg","1","1","1","1","0","1","0.346585999941453","0.416411199956201","0.503854000009596","1","1","1","1","1","1","1","1","1"
"260024","img/object_images/wire02.jpg","img/object_images/knife04.jpg","img/object_images/usb02.jpg","1","1","1","1","1","0","0.503854000009596","0.346585999941453","0.447904600063339","1","1","1","1","1","1","1","1","1"
"260024","img/object_images/usb02.jpg","img/object_images/wire02.jpg","img/object_images/pitcher01.jpg","1","1","1","0","1","0","0.447904600063339","0.503854000009596","0.504770200001076","1","1","1","1","1","1","1","1","1"
"260024","img/object_images/pitcher01.jpg","img/object_images/usb02.jpg","img/object_images/cellphone01.jpg","1","1","1","0","0","1","0.504770200001076","0.447904600063339","0.397486799978651","1","1","1","1","1","1","1","1","1"
"260024","img/object_images/cellphone01.jpg","img/object_images/pitcher01.jpg","img/object_images/tennis_racket02.jpg","1","1","1","1","0","1","0.397486799978651","0.504770200001076","0.377861200016923","1","1","1","1","1","1","1","1","1"
"260024","img/object_images/tennis_racket02.jpg","img/object_images/cellphone01.jpg","img/object_images/motorcycle01.jpg","1","1","1","1","1","1","0.377861200016923","0.397486799978651","0.407734700012952","1","1","1","1","1","1","1","1","1"
"260024","img/object_images/motorcycle01.jpg","img/object_images/tennis_racket02.jpg","img/object_images/tv02.jpg","1","1","1","1","1","0","0.407734700012952","0.377861200016923","0.430605300003663","1","1","1","1","1","1","1","1","1"
"260024","img/object_images/tv02.jpg","img/object_images/motorcycle01.jpg","img/object_images/retainer01.jpg","1","1","1","0","1","0","0.430605300003663","0.407734700012952","0.428551099961624","1","1","1","1","1","1","1","1","1"
"260024","img/object_images/retainer01.jpg","img/object_images/tv02.jpg","img/object_images/ear_bud01.jpg","1","1","1","0","0","1","0.428551099961624","0.430605300003663","0.386250599985942","1","1","1","1","1","1","1","1","1"
"260024","img/object_images/ear_bud01.jpg","img/object_images/retainer01.jpg","img/object_images/bottle01.jpg","1","1","1","1","0","0","0.386250599985942","0.428551099961624","0.459261499927379","1","1","1","1","1","1","1","1","1"
"260024","img/object_images/bottle01.jpg","img/object_images/ear_bud01.jpg",NA,"1","1",NA,"0","1",NA,"0.459261499927379","0.386250599985942",NA,"1","1",NA,"1","1",NA,"1","1",NA
"260024","img/object_images/pan03.jpg",NA,"img/object_images/tool20.jpg","1",NA,"1","1",NA,"0","0.438464100006968",NA,"0.522646600031294","1",NA,"1","1",NA,"1","1",NA,"1"
"260024","img/object_images/tool20.jpg","img/object_images/pan03.jpg","img/object_images/spray_can01.jpg","1","1","1","0","1","0","0.522646600031294","0.438464100006968","0.398417399963364","1","1","1","1","1","1","1","1","1"
"260024","img/object_images/spray_can01.jpg","img/object_images/tool20.jpg","img/object_images/candle02.jpg","1","1","1","0","0","0","0.398417399963364","0.522646600031294","0.38556329999119","1","1","1","1","1","1","1","1","1"
"260024","img/object_images/candle02.jpg","img/object_images/spray_can01.jpg","img/object_images/hammer02.jpg","1","1","1","0","0","0","0.38556329999119","0.398417399963364","0.4894035999896","1","1","1","1","1","1","1","1","1"
"260024","img/object_images/hammer02.jpg","img/object_images/candle02.jpg","img/object_images/pen06.jpg","1","1","1","0","0","0","0.4894035999896","0.38556329999119","0.478518299991265","1","1","1","1","1","1","1","1","1"
"260024","img/object_images/pen06.jpg","img/object_images/hammer02.jpg","img/object_images/floss01.jpg","1","1","1","0","0","1","0.478518299991265","0.4894035999896","0.348664400051348","1","1","1","1","1","1","1","1","1"
"260024","img/object_images/floss01.jpg","img/object_images/pen06.jpg","img/object_images/office_supplies01.jpg","1","1","1","1","0","1","0.348664400051348","0.478518299991265","0.343797000008635","1","1","1","1","1","1","1","1","1"
"260024","img/object_images/office_supplies01.jpg","img/object_images/floss01.jpg","img/object_images/cup01.jpg","1","1","1","1","1","0","0.343797000008635","0.348664400051348","0.570834899903275","1","1","1","1","1","1","1","1","1"
"260024","img/object_images/cup01.jpg","img/object_images/office_supplies01.jpg","img/object_images/bag04.jpg","1","1","1","0","1","0","0.570834899903275","0.343797000008635","0.440320500056259","1","1","1","1","1","1","1","1","1"
"260024","img/object_images/bag04.jpg","img/object_images/cup01.jpg","img/object_images/sink_filter01 (1).jpg","1","1","1","0","0","0","0.440320500056259","0.570834899903275","0.44648679997772","1","1","1","1","1","1","1","1","1"
"260024","img/object_images/sink_filter01 (1).jpg","img/object_images/bag04.jpg","img/object_images/board01.jpg","1","1","1","0","0","1","0.44648679997772","0.440320500056259","0.344567499938421","1","1","1","1","1","1","1","1","1"
"260024","img/object_images/board01.jpg","img/object_images/sink_filter01 (1).jpg","img/object_images/camera05.jpg","1","1","1","1","0","0","0.344567499938421","0.44648679997772","0.410453399992548","1","1","1","1","1","1","1","1","1"
"260024","img/object_images/camera05.jpg","img/object_images/board01.jpg","img/object_images/video_game02.jpg","1","1","1","0","1","1","0.410453399992548","0.344567499938421","0.497814600006677","1","1","1","1","1","1","1","1","1"
"260024","img/object_images/video_game02.jpg","img/object_images/camera05.jpg","img/object_images/razor02.jpg","1","1","1","1","0","1","0.497814600006677","0.410453399992548","0.509725199895911","1","1","1","1","1","1","1","1","1"
"260024","img/object_images/razor02.jpg","img/object_images/video_game02.jpg","img/object_images/hat13.jpg","1","1","1","1","1","1","0.509725199895911","0.497814600006677","0.453063299995847","1","1","1","1","1","1","1","1","1"
"260024","img/object_images/hat13.jpg","img/object_images/razor02.jpg","img/object_images/clipboard01.jpg","1","1","1","1","1","1","0.453063299995847","0.509725199895911","0.338728999951854","1","1","1","1","1","1","1","1","1"
"260024","img/object_images/clipboard01.jpg","img/object_images/hat13.jpg","img/object_images/socks01.jpg","1","1","1","1","1","1","0.338728999951854","0.453063299995847","0.345986100030132","1","1","1","1","1","1","1","1","1"
"260024","img/object_images/socks01.jpg","img/object_images/clipboard01.jpg","img/object_images/duster01.jpg","1","1","1","1","1","0","0.345986100030132","0.338728999951854","0.460274199955165","1","1","1","1","1","1","1","1","1"
"260024","img/object_images/duster01.jpg","img/object_images/socks01.jpg","img/object_images/knife01.jpg","1","1","1","0","1","1","0.460274199955165","0.345986100030132","0.442300700000487","1","1","1","1","1","1","1","1","1"
"260024","img/object_images/knife01.jpg","img/object_images/duster01.jpg","img/object_images/hat09.jpg","1","1","1","1","0","0","0.442300700000487","0.460274199955165","0.468248600023799","1","1","1","1","1","1","1","1","1"
"260024","img/object_images/hat09.jpg","img/object_images/knife01.jpg","img/object_images/glasses03.jpg","1","1","1","0","1","0","0.468248600023799","0.442300700000487","0.428791500045918","1","1","1","1","1","1","1","1","1"
"260024","img/object_images/glasses03.jpg","img/object_images/hat09.jpg","img/object_images/bow_tie03.jpg","1","1","1","0","0","1","0.428791500045918","0.468248600023799","0.354440800030716","1","1","1","1","1","1","1","1","1"
"260024","img/object_images/bow_tie03.jpg","img/object_images/glasses03.jpg","img/object_images/dust_pan01.jpg","1","1","1","1","0","1","0.354440800030716","0.428791500045918","0.421772500034422","1","1","1","1","1","1","1","1","1"
"260024","img/object_images/dust_pan01.jpg","img/object_images/bow_tie03.jpg","img/object_images/tool13.jpg","1","1","1","1","1","1","0.421772500034422","0.354440800030716","0.38602690002881","1","1","1","1","1","1","1","1","1"
"260024","img/object_images/tool13.jpg","img/object_images/dust_pan01.jpg","img/object_images/Candle_Holder01.jpg","1","1","1","1","1","0","0.38602690002881","0.421772500034422","0.428394499933347","1","1","1","1","1","1","1","1","1"
"260024","img/object_images/Candle_Holder01.jpg","img/object_images/tool13.jpg","img/object_images/sign02.jpg","1","1","1","0","1","0","0.428394499933347","0.38602690002881","0.439767000032589","1","1","1","1","1","1","1","1","1"
"260024","img/object_images/sign02.jpg","img/object_images/Candle_Holder01.jpg","img/object_images/Confetti 01.jpg","1","1","1","0","0","0","0.439767000032589","0.428394499933347","0.455149500048719","1","1","1","1","1","1","1","1","1"
"260024","img/object_images/Confetti 01.jpg","img/object_images/sign02.jpg","img/object_images/vase02.jpg","1","1","1","0","0","1","0.455149500048719","0.439767000032589","0.410182600026019","1","1","1","1","1","1","1","1","1"
"260024","img/object_images/vase02.jpg","img/object_images/Confetti 01.jpg","img/object_images/perfume01.jpg","1","1","1","1","0","0","0.410182600026019","0.455149500048719","0.489521400071681","1","1","1","1","1","1","1","1","1"
"260024","img/object_images/perfume01.jpg","img/object_images/vase02.jpg","img/object_images/lemon_squeezer01.jpg","1","1","1","0","1","1","0.489521400071681","0.410182600026019","0.450273099937476","1","1","1","1","1","1","1","1","1"
"260024","img/object_images/lemon_squeezer01.jpg","img/object_images/perfume01.jpg","img/object_images/ruler02.jpg","1","1","1","1","0","1","0.450273099937476","0.489521400071681","0.362848899909295","1","1","1","1","1","1","1","1","1"
"260024","img/object_images/ruler02.jpg","img/object_images/lemon_squeezer01.jpg",NA,"1","1",NA,"1","1",NA,"0.362848899909295","0.450273099937476",NA,"1","1",NA,"1","1",NA,"1","1",NA
"260024","img/object_images/guitar02.jpg",NA,"img/object_images/helmet01.jpg","1",NA,"1","0",NA,"0","0.57326330000069",NA,"0.472989100031555","1",NA,"1","1",NA,"1","1",NA,"1"
"260024","img/object_images/helmet01.jpg","img/object_images/guitar02.jpg","img/object_images/sink01.jpg","1","1","1","0","0","0","0.472989100031555","0.57326330000069","0.451749500003643","1","1","1","1","1","1","1","1","1"
"260024","img/object_images/sink01.jpg","img/object_images/helmet01.jpg","img/object_images/outlet01.jpg","1","1","1","0","0","0","0.451749500003643","0.472989100031555","0.596999099943787","1","1","1","1","1","1","1","1","1"
"260024","img/object_images/outlet01.jpg","img/object_images/sink01.jpg","img/object_images/pot01 (1).jpg","1","1","1","0","0","0","0.596999099943787","0.451749500003643","0.415784599957988","1","1","1","1","1","1","1","1","1"
"260024","img/object_images/pot01 (1).jpg","img/object_images/outlet01.jpg","img/object_images/Tin01.jpg","1","1","1","0","0","1","0.415784599957988","0.596999099943787","0.343288199976087","1","1","1","1","1","1","1","1","1"
"260024","img/object_images/Tin01.jpg","img/object_images/pot01 (1).jpg","img/object_images/jewel04.jpg","1","1","1","1","0","0","0.343288199976087","0.415784599957988","0.50320059992373","1","1","1","1","1","1","1","1","1"
"260024","img/object_images/jewel04.jpg","img/object_images/Tin01.jpg","img/object_images/fridge03.jpg","1","1","1","0","1","0","0.50320059992373","0.343288199976087","0.443173700012267","1","1","1","1","1","1","1","1","1"
"260024","img/object_images/fridge03.jpg","img/object_images/jewel04.jpg","img/object_images/judge_gavel01.jpg","1","1","1","0","0","1","0.443173700012267","0.50320059992373","0.344184199930169","1","1","1","1","1","1","1","1","1"
"260024","img/object_images/judge_gavel01.jpg","img/object_images/fridge03.jpg","img/object_images/ornament01.jpg","1","1","1","1","0","1","0.344184199930169","0.443173700012267","0.355625299969688","1","1","1","1","1","1","1","1","1"
"260024","img/object_images/ornament01.jpg","img/object_images/judge_gavel01.jpg","img/object_images/frisbee01.jpg","1","1","1","1","1","1","0.355625299969688","0.344184199930169","0.321425200090744","1","1","1","1","1","1","1","1","1"
"260024","img/object_images/frisbee01.jpg","img/object_images/ornament01.jpg","img/object_images/shovel03.jpg","1","1","1","1","1","1","0.321425200090744","0.355625299969688","0.445754999993369","1","1","1","1","1","1","1","1","1"
"260024","img/object_images/shovel03.jpg","img/object_images/frisbee01.jpg","img/object_images/toy04.jpg","1","1","1","1","1","0","0.445754999993369","0.321425200090744","0.432089900015853","1","1","1","1","1","1","1","1","1"
"260024","img/object_images/toy04.jpg","img/object_images/shovel03.jpg","img/object_images/tool02.jpg","1","1","1","0","1","1","0.432089900015853","0.445754999993369","0.378059800015763","1","1","1","1","1","1","1","1","1"
"260024","img/object_images/tool02.jpg","img/object_images/toy04.jpg","img/object_images/tool09.jpg","1","1","1","1","0","1","0.378059800015763","0.432089900015853","0.378971099969931","1","1","1","1","1","1","1","1","1"
"260024","img/object_images/tool09.jpg","img/object_images/tool02.jpg","img/object_images/Vacuum01.jpg","1","1","1","1","1","0","0.378971099969931","0.378059800015763","0.425768900080584","1","1","1","1","1","1","1","1","1"
"260024","img/object_images/Vacuum01.jpg","img/object_images/tool09.jpg","img/object_images/stapler.jpg","1","1","1","0","1","1","0.425768900080584","0.378971099969931","0.370890599908307","1","1","1","1","1","1","1","1","1"
"260024","img/object_images/stapler.jpg","img/object_images/Vacuum01.jpg","img/object_images/Stool01.jpg","1","1","1","1","0","0","0.370890599908307","0.425768900080584","0.544607599964365","1","1","1","1","1","1","1","1","1"
"260024","img/object_images/Stool01.jpg","img/object_images/stapler.jpg","img/object_images/bottle05.jpg","1","1","1","0","1","0","0.544607599964365","0.370890599908307","0.425485700019635","1","1","1","1","1","1","1","1","1"
"260024","img/object_images/bottle05.jpg","img/object_images/Stool01.jpg","img/object_images/video_game07.jpg","1","1","1","0","0","1","0.425485700019635","0.544607599964365","0.397712699952535","1","1","1","1","1","1","1","1","1"
"260024","img/object_images/video_game07.jpg","img/object_images/bottle05.jpg","img/object_images/acoustic_capo01.jpg","1","1","1","1","0","1","0.397712699952535","0.425485700019635","0.328936900012195","1","1","1","1","1","1","1","1","1"
"260024","img/object_images/acoustic_capo01.jpg","img/object_images/video_game07.jpg","img/object_images/toy03.jpg","1","1","1","1","1","1","0.328936900012195","0.397712699952535","0.393519500037655","1","1","1","1","1","1","1","1","1"
"260024","img/object_images/toy03.jpg","img/object_images/acoustic_capo01.jpg","img/object_images/bow01.jpg","1","1","1","1","1","1","0.393519500037655","0.328936900012195","0.396576800034382","1","1","1","1","1","1","1","1","1"
"260024","img/object_images/bow01.jpg","img/object_images/toy03.jpg","img/object_images/crown02.jpg","1","1","1","1","1","1","0.396576800034382","0.393519500037655","0.408103200024925","1","1","1","1","1","1","1","1","1"
"260024","img/object_images/crown02.jpg","img/object_images/bow01.jpg","img/object_images/gauze01.jpg","1","1","0","1","1","0","0.408103200024925","0.396576800034382","0.344056700007059","1","1","1","1","1","1","1","1","1"
"260024","img/object_images/gauze01.jpg","img/object_images/crown02.jpg","img/object_images/MetalWire01.jpg","0","1","1","0","1","0","0.344056700007059","0.408103200024925","0.661582699976861","1","1","1","1","1","1","1","1","1"
"260024","img/object_images/MetalWire01.jpg","img/object_images/gauze01.jpg","img/object_images/dart01.jpg","1","0","1","0","0","0","0.661582699976861","0.344056700007059","0.436017200001515","1","1","1","1","1","1","1","1","1"
"260024","img/object_images/dart01.jpg","img/object_images/MetalWire01.jpg","img/object_images/watch01.jpg","1","1","1","0","0","0","0.436017200001515","0.661582699976861","0.406619400018826","1","1","1","1","1","1","1","1","1"
"260024","img/object_images/watch01.jpg","img/object_images/dart01.jpg","img/object_images/bird_house02.jpg","1","1","1","0","0","1","0.406619400018826","0.436017200001515","0.468204099917784","1","1","1","1","1","1","1","1","1"
"260024","img/object_images/bird_house02.jpg","img/object_images/watch01.jpg","img/object_images/Ring02.jpg","1","1","1","1","0","0","0.468204099917784","0.406619400018826","0.405334000010043","1","1","1","1","1","1","1","1","1"
"260024","img/object_images/Ring02.jpg","img/object_images/bird_house02.jpg","img/object_images/mirror01.jpg","1","1","1","0","1","1","0.405334000010043","0.468204099917784","0.389515100046992","1","1","1","1","1","1","1","1","1"
"260024","img/object_images/mirror01.jpg","img/object_images/Ring02.jpg","img/object_images/towel02.jpg","1","1","1","1","0","1","0.389515100046992","0.405334000010043","0.410378100001253","1","1","1","1","1","1","1","1","1"
"260024","img/object_images/towel02.jpg","img/object_images/mirror01.jpg",NA,"1","1",NA,"1","1",NA,"0.410378100001253","0.389515100046992",NA,"1","1",NA,"1","1",NA,"1","1",NA
"260024","img/object_images/faucet01.jpg",NA,"img/object_images/blanket01.jpg","1",NA,"1","0",NA,"1","0.566422500065528",NA,"0.522862700046971","1",NA,"1","1",NA,"1","1",NA,"1"
"260024","img/object_images/blanket01.jpg","img/object_images/faucet01.jpg","img/object_images/bicycle_lock01.jpg","1","1","1","1","0","0","0.522862700046971","0.566422500065528","0.458623999962583","1","1","1","1","1","1","1","1","1"
"260024","img/object_images/bicycle_lock01.jpg","img/object_images/blanket01.jpg","img/object_images/gift_box04.jpg","1","1","1","0","1","0","0.458623999962583","0.522862700046971","0.481789899989963","1","1","1","1","1","1","1","1","1"
"260024","img/object_images/gift_box04.jpg","img/object_images/bicycle_lock01.jpg","img/object_images/book01.jpg","1","1","1","0","0","1","0.481789899989963","0.458623999962583","0.37628730002325","1","1","1","1","1","1","1","1","1"
"260024","img/object_images/book01.jpg","img/object_images/gift_box04.jpg","img/object_images/basket02.jpg","1","1","1","1","0","0","0.37628730002325","0.481789899989963","0.433644699980505","1","1","1","1","1","1","1","1","1"
"260024","img/object_images/basket02.jpg","img/object_images/book01.jpg","img/object_images/Pottery01.jpg","1","1","1","0","1","0","0.433644699980505","0.37628730002325","0.53268860001117","1","1","1","1","1","1","1","1","1"
"260024","img/object_images/Pottery01.jpg","img/object_images/basket02.jpg","img/object_images/Sprayer01.jpg","1","1","1","0","0","0","0.53268860001117","0.433644699980505","0.408381200046279","1","1","1","1","1","1","1","1","1"
"260024","img/object_images/Sprayer01.jpg","img/object_images/Pottery01.jpg","img/object_images/colander01.jpg","1","1","1","0","0","0","0.408381200046279","0.53268860001117","0.5815763999708","1","1","1","1","1","1","1","1","1"
"260024","img/object_images/colander01.jpg","img/object_images/Sprayer01.jpg","img/object_images/Traffic Sign 01.jpg","1","1","1","0","0","0","0.5815763999708","0.408381200046279","0.497981099993922","1","1","1","1","1","1","1","1","1"
"260024","img/object_images/Traffic Sign 01.jpg","img/object_images/colander01.jpg","img/object_images/exfoliater_brush01.jpg","1","1","1","0","0","0","0.497981099993922","0.5815763999708","0.459692199947312","1","1","1","1","1","1","1","1","1"
"260024","img/object_images/exfoliater_brush01.jpg","img/object_images/Traffic Sign 01.jpg","img/object_images/tool07.jpg","1","1","1","0","0","0","0.459692199947312","0.497981099993922","0.487037600018084","1","1","1","1","1","1","1","1","1"
"260024","img/object_images/tool07.jpg","img/object_images/exfoliater_brush01.jpg","img/object_images/Kitchen_Towel.jpg","1","1","1","0","0","0","0.487037600018084","0.459692199947312","0.643948199925944","1","1","1","1","1","1","1","1","1"
"260024","img/object_images/Kitchen_Towel.jpg","img/object_images/tool07.jpg","img/object_images/pan01.jpg","1","1","1","0","0","1","0.643948199925944","0.487037600018084","0.408272899920121","1","1","1","1","1","1","1","1","1"
"260024","img/object_images/pan01.jpg","img/object_images/Kitchen_Towel.jpg","img/object_images/ring03.jpg","1","1","1","1","0","1","0.408272899920121","0.643948199925944","0.370347000076436","1","1","1","1","1","1","1","1","1"
"260024","img/object_images/ring03.jpg","img/object_images/pan01.jpg","img/object_images/hair_clips01.jpg","1","1","1","1","1","1","0.370347000076436","0.408272899920121","0.38346929999534","1","1","1","1","1","1","1","1","1"
"260024","img/object_images/hair_clips01.jpg","img/object_images/ring03.jpg","img/object_images/TrashCan02.jpg","1","1","1","1","1","1","0.38346929999534","0.370347000076436","0.359279399970546","1","1","1","1","1","1","1","1","1"
"260024","img/object_images/TrashCan02.jpg","img/object_images/hair_clips01.jpg","img/object_images/glasses06.jpg","1","1","1","1","1","1","0.359279399970546","0.38346929999534","0.386050099972636","1","1","1","1","1","1","1","1","1"
"260024","img/object_images/glasses06.jpg","img/object_images/TrashCan02.jpg","img/object_images/cellphone02.jpg","1","1","1","1","1","1","0.386050099972636","0.359279399970546","0.430106400046498","1","1","1","1","1","1","1","1","1"
"260024","img/object_images/cellphone02.jpg","img/object_images/glasses06.jpg","img/object_images/tool08.jpg","1","1","1","1","1","0","0.430106400046498","0.386050099972636","0.424971999949776","1","1","1","1","1","1","1","1","1"
"260024","img/object_images/tool08.jpg","img/object_images/cellphone02.jpg","img/object_images/tray01.jpg","1","1","1","0","1","1","0.424971999949776","0.430106400046498","0.429936800035648","1","1","1","1","1","1","1","1","1"
"260024","img/object_images/tray01.jpg","img/object_images/tool08.jpg","img/object_images/handcuffs01.jpg","1","1","1","1","0","0","0.429936800035648","0.424971999949776","0.433808399946429","1","1","1","1","1","1","1","1","1"
"260024","img/object_images/handcuffs01.jpg","img/object_images/tray01.jpg","img/object_images/projector01.jpg","1","1","1","0","1","0","0.433808399946429","0.429936800035648","0.471744299982674","1","1","1","1","1","1","1","1","1"
"260024","img/object_images/projector01.jpg","img/object_images/handcuffs01.jpg","img/object_images/yo_yo01.jpg","1","1","0","0","0","0","0.471744299982674","0.433808399946429","0.411789499921724","1","1","1","1","1","1","1","1","1"
"260024","img/object_images/yo_yo01.jpg","img/object_images/projector01.jpg","img/object_images/cup03.jpg","0","1","1","0","0","1","0.411789499921724","0.471744299982674","0.428517600055784","1","1","1","1","1","1","1","1","1"
"260024","img/object_images/cup03.jpg","img/object_images/yo_yo01.jpg","img/object_images/hole_puncher01.jpg","1","0","1","1","0","1","0.428517600055784","0.411789499921724","0.396766899968498","1","1","1","1","1","1","1","1","1"
"260024","img/object_images/hole_puncher01.jpg","img/object_images/cup03.jpg","img/object_images/fire_extinguisher01.jpg","1","1","1","1","1","0","0.396766899968498","0.428517600055784","0.44893980002962","1","1","1","1","1","1","1","1","1"
"260024","img/object_images/fire_extinguisher01.jpg","img/object_images/hole_puncher01.jpg","img/object_images/glasses07.jpg","1","1","1","0","1","1","0.44893980002962","0.396766899968498","0.436346800066531","1","1","1","1","1","1","1","1","1"
"260024","img/object_images/glasses07.jpg","img/object_images/fire_extinguisher01.jpg","img/object_images/speaker01.jpg","1","1","1","1","0","1","0.436346800066531","0.44893980002962","0.506126399966888","1","1","1","1","1","1","1","1","1"
"260024","img/object_images/speaker01.jpg","img/object_images/glasses07.jpg","img/object_images/jewelry09.jpg","1","1","1","1","1","1","0.506126399966888","0.436346800066531","0.418622700031847","1","1","1","1","1","1","1","1","1"
"260024","img/object_images/jewelry09.jpg","img/object_images/speaker01.jpg","img/object_images/lighter01.jpg","1","1","1","1","1","1","0.418622700031847","0.506126399966888","0.45371819997672","1","1","1","1","1","1","1","1","1"
"260024","img/object_images/lighter01.jpg","img/object_images/jewelry09.jpg","img/object_images/purse01.jpg","1","1","1","1","1","1","0.45371819997672","0.418622700031847","0.413243500050157","1","1","1","1","1","1","1","1","1"
"260024","img/object_images/purse01.jpg","img/object_images/lighter01.jpg",NA,"1","1",NA,"1","1",NA,"0.413243500050157","0.45371819997672",NA,"1","1",NA,"1","1",NA,"1","1",NA
"260024","img/object_images/guitar01.jpg",NA,"img/object_images/bottle12.jpg","1",NA,"1","1",NA,"1","0.743756400072016",NA,"0.435810800059699","1",NA,"1","1",NA,"1","1",NA,"1"
"260024","img/object_images/bottle12.jpg","img/object_images/guitar01.jpg","img/object_images/hat02.jpg","1","1","1","1","1","0","0.435810800059699","0.743756400072016","0.416413800092414","1","1","1","1","1","1","1","1","1"
"260024","img/object_images/hat02.jpg","img/object_images/bottle12.jpg","img/object_images/brief_case01.jpg","1","1","1","0","1","0","0.416413800092414","0.435810800059699","0.758599199936725","1","1","1","1","1","1","1","1","1"
"260024","img/object_images/brief_case01.jpg","img/object_images/hat02.jpg","img/object_images/soap01.jpg","1","1","1","0","0","0","0.758599199936725","0.416413800092414","0.43892790004611","1","1","1","1","1","1","1","1","1"
"260024","img/object_images/soap01.jpg","img/object_images/brief_case01.jpg","img/object_images/decorative02.jpg","1","1","1","0","0","0","0.43892790004611","0.758599199936725","0.490602100035176","1","1","1","1","1","1","1","1","1"
"260024","img/object_images/decorative02.jpg","img/object_images/soap01.jpg","img/object_images/razor03.jpg","1","1","1","0","0","0","0.490602100035176","0.43892790004611","0.429662699927576","1","1","1","1","1","1","1","1","1"
"260024","img/object_images/razor03.jpg","img/object_images/decorative02.jpg","img/object_images/brief_case02.jpg","1","1","1","0","0","1","0.429662699927576","0.490602100035176","0.39246889995411","1","1","1","1","1","1","1","1","1"
"260024","img/object_images/brief_case02.jpg","img/object_images/razor03.jpg","img/object_images/pot01.jpg","1","1","1","1","0","0","0.39246889995411","0.429662699927576","0.438726700027473","1","1","1","1","1","1","1","1","1"
"260024","img/object_images/pot01.jpg","img/object_images/brief_case02.jpg","img/object_images/Wisk01.jpg","1","1","1","0","1","1","0.438726700027473","0.39246889995411","0.356296199955977","1","1","1","1","1","1","1","1","1"
"260024","img/object_images/Wisk01.jpg","img/object_images/pot01.jpg","img/object_images/ironing_table02.jpg","1","1","1","1","0","0","0.356296199955977","0.438726700027473","0.428095099981874","1","1","1","1","1","1","1","1","1"
"260024","img/object_images/ironing_table02.jpg","img/object_images/Wisk01.jpg","img/object_images/cochlear_implant01.jpg","1","1","1","0","1","0","0.428095099981874","0.356296199955977","0.545941299991682","1","1","1","1","1","1","1","1","1"
"260024","img/object_images/cochlear_implant01.jpg","img/object_images/ironing_table02.jpg","img/object_images/toy_train02.jpg","1","1","1","0","0","1","0.545941299991682","0.428095099981874","0.556210400070995","1","1","1","1","1","1","1","1","1"
"260024","img/object_images/toy_train02.jpg","img/object_images/cochlear_implant01.jpg","img/object_images/lamp01.jpg","1","1","1","1","0","1","0.556210400070995","0.545941299991682","0.511374299996532","1","1","1","1","1","1","1","1","1"
"260024","img/object_images/lamp01.jpg","img/object_images/toy_train02.jpg","img/object_images/Recycling01.jpg","1","1","1","1","1","1","0.511374299996532","0.556210400070995","0.414087500073947","1","1","1","1","1","1","1","1","1"
"260024","img/object_images/Recycling01.jpg","img/object_images/lamp01.jpg","img/object_images/basketball_hoop02.jpg","1","1","1","1","1","0","0.414087500073947","0.511374299996532","0.456103000091389","1","1","1","1","1","1","1","1","1"
"260024","img/object_images/basketball_hoop02.jpg","img/object_images/Recycling01.jpg","img/object_images/drone02.jpg","1","1","1","0","1","0","0.456103000091389","0.414087500073947","0.512452999944799","1","1","1","1","1","1","1","1","1"
"260024","img/object_images/drone02.jpg","img/object_images/basketball_hoop02.jpg","img/object_images/toilet_paper01.jpg","1","1","1","0","0","1","0.512452999944799","0.456103000091389","0.415006200084463","1","1","1","1","1","1","1","1","1"
"260024","img/object_images/toilet_paper01.jpg","img/object_images/drone02.jpg","img/object_images/chair01.jpg","1","1","1","1","0","0","0.415006200084463","0.512452999944799","0.494233899982646","1","1","1","1","1","1","1","1","1"
"260024","img/object_images/chair01.jpg","img/object_images/toilet_paper01.jpg","img/object_images/couch04.jpg","1","1","1","0","1","1","0.494233899982646","0.415006200084463","0.381496999994852","1","1","1","1","1","1","1","1","1"
"260024","img/object_images/couch04.jpg","img/object_images/chair01.jpg","img/object_images/Woopie01.jpg","1","1","1","1","0","1","0.381496999994852","0.494233899982646","0.474309199955314","1","1","1","1","1","1","1","1","1"
"260024","img/object_images/Woopie01.jpg","img/object_images/couch04.jpg","img/object_images/ball01.jpg","1","1","1","1","1","1","0.474309199955314","0.381496999994852","0.359074300038628","1","1","1","1","1","1","1","1","1"
"260024","img/object_images/ball01.jpg","img/object_images/Woopie01.jpg","img/object_images/video_game06.jpg","1","1","1","1","1","0","0.359074300038628","0.474309199955314","0.513649100088514","1","1","1","1","1","1","1","1","1"
"260024","img/object_images/video_game06.jpg","img/object_images/ball01.jpg","img/object_images/broom01.jpg","1","1","1","0","1","1","0.513649100088514","0.359074300038628","0.42549469997175","1","1","1","1","1","1","1","1","1"
"260024","img/object_images/broom01.jpg","img/object_images/video_game06.jpg","img/object_images/container01.jpg","1","1","1","1","0","0","0.42549469997175","0.513649100088514","0.515707000042312","1","1","1","1","1","1","1","1","1"
"260024","img/object_images/container01.jpg","img/object_images/broom01.jpg","img/object_images/tie01.jpg","1","1","1","0","1","0","0.515707000042312","0.42549469997175","0.490477700019255","1","1","1","1","1","1","1","1","1"
"260024","img/object_images/tie01.jpg","img/object_images/container01.jpg","img/object_images/lantern01.jpg","1","1","1","0","0","1","0.490477700019255","0.515707000042312","0.435037599992938","1","1","1","1","1","1","1","1","1"
"260024","img/object_images/lantern01.jpg","img/object_images/tie01.jpg","img/object_images/pitcher03.jpg","1","1","1","1","0","1","0.435037599992938","0.490477700019255","0.380741700064391","1","1","1","1","1","1","1","1","1"
"260024","img/object_images/pitcher03.jpg","img/object_images/lantern01.jpg","img/object_images/gloves05.jpg","1","1","1","1","1","1","0.380741700064391","0.435037599992938","0.326520100003108","1","1","1","1","1","1","1","1","1"
"260024","img/object_images/gloves05.jpg","img/object_images/pitcher03.jpg","img/object_images/airfryer01.jpg","1","1","1","1","1","0","0.326520100003108","0.380741700064391","0.458752600010484","1","1","1","1","1","1","1","1","1"
"260024","img/object_images/airfryer01.jpg","img/object_images/gloves05.jpg","img/object_images/helmet05.jpg","1","1","1","0","1","1","0.458752600010484","0.326520100003108","0.427294500055723","1","1","1","1","1","1","1","1","1"
"260024","img/object_images/helmet05.jpg","img/object_images/airfryer01.jpg","img/object_images/car02.jpg","1","1","1","1","0","0","0.427294500055723","0.458752600010484","0.436715999967419","1","1","1","1","1","1","1","1","1"
"260024","img/object_images/car02.jpg","img/object_images/helmet05.jpg",NA,"1","1",NA,"0","1",NA,"0.436715999967419","0.427294500055723",NA,"1","1",NA,"1","1",NA,"1","1",NA
"260024","img/object_images/backpack03.jpg",NA,"img/object_images/laptop01.jpg","1",NA,"0","1",NA,"0","0.538304899935611",NA,"0.425697900005616","1",NA,"1","1",NA,"1","1",NA,"1"
"260024","img/object_images/laptop01.jpg","img/object_images/backpack03.jpg","img/object_images/accardion01.jpg","0","1","1","0","1","1","0.425697900005616","0.538304899935611","0.431055900058709","1","1","1","1","1","1","1","1","1"
"260024","img/object_images/accardion01.jpg","img/object_images/laptop01.jpg","img/object_images/lock01.jpg","1","0","1","1","0","0","0.431055900058709","0.425697900005616","0.552835899987258","1","1","1","1","1","1","1","1","1"
"260024","img/object_images/lock01.jpg","img/object_images/accardion01.jpg","img/object_images/fan04.jpg","1","1","1","0","1","0","0.552835899987258","0.431055900058709","0.371910699992441","1","1","1","1","1","1","1","1","1"
"260024","img/object_images/fan04.jpg","img/object_images/lock01.jpg","img/object_images/umbrella01.jpg","1","1","1","0","0","0","0.371910699992441","0.552835899987258","0.530860400060192","1","1","1","1","1","1","1","1","1"
"260024","img/object_images/umbrella01.jpg","img/object_images/fan04.jpg","img/object_images/robe01.jpg","1","1","1","0","0","1","0.530860400060192","0.371910699992441","0.403460099943914","1","1","1","1","1","1","1","1","1"
"260024","img/object_images/robe01.jpg","img/object_images/umbrella01.jpg","img/object_images/chess_piece01.jpg","1","1","1","1","0","0","0.403460099943914","0.530860400060192","0.38753499998711","1","1","1","1","1","1","1","1","1"
"260024","img/object_images/chess_piece01.jpg","img/object_images/robe01.jpg","img/object_images/shoes08.jpg","1","1","1","0","1","1","0.38753499998711","0.403460099943914","0.411939600016922","1","1","1","1","1","1","1","1","1"
"260024","img/object_images/shoes08.jpg","img/object_images/chess_piece01.jpg","img/object_images/bucket02.jpg","1","1","1","1","0","1","0.411939600016922","0.38753499998711","0.468041199957952","1","1","1","1","1","1","1","1","1"
"260024","img/object_images/bucket02.jpg","img/object_images/shoes08.jpg","img/object_images/trash_can03.jpg","1","1","1","1","1","1","0.468041199957952","0.411939600016922","0.358236100059003","1","1","1","1","1","1","1","1","1"
"260024","img/object_images/trash_can03.jpg","img/object_images/bucket02.jpg","img/object_images/laptop03.jpg","1","1","1","1","1","1","0.358236100059003","0.468041199957952","0.369709399994463","1","1","1","1","1","1","1","1","1"
"260024","img/object_images/laptop03.jpg","img/object_images/trash_can03.jpg","img/object_images/ball02.jpg","1","1","1","1","1","1","0.369709399994463","0.358236100059003","0.476514799986035","1","1","1","1","1","1","1","1","1"
"260024","img/object_images/ball02.jpg","img/object_images/laptop03.jpg","img/object_images/microphone03.jpg","1","1","1","1","1","1","0.476514799986035","0.369709399994463","0.39781359990593","1","1","1","1","1","1","1","1","1"
"260024","img/object_images/microphone03.jpg","img/object_images/ball02.jpg","img/object_images/pitcher05.jpg","1","1","1","1","1","0","0.39781359990593","0.476514799986035","0.501432200078852","1","1","1","1","1","1","1","1","1"
"260024","img/object_images/pitcher05.jpg","img/object_images/microphone03.jpg","img/object_images/gift_box05.jpg","1","1","1","0","1","0","0.501432200078852","0.39781359990593","0.44159020006191","1","1","1","1","1","1","1","1","1"
"260024","img/object_images/gift_box05.jpg","img/object_images/pitcher05.jpg","img/object_images/chair02.jpg","1","1","1","0","0","1","0.44159020006191","0.501432200078852","0.498813700047322","1","1","1","1","1","1","1","1","1"
"260024","img/object_images/chair02.jpg","img/object_images/gift_box05.jpg","img/object_images/calculator01.jpg","1","1","1","1","0","1","0.498813700047322","0.44159020006191","0.567097499966621","1","1","1","1","1","1","1","1","1"
"260024","img/object_images/calculator01.jpg","img/object_images/chair02.jpg","img/object_images/towels01.jpg","1","1","1","1","1","0","0.567097499966621","0.498813700047322","0.533244599937461","1","1","1","1","1","1","1","1","1"
"260024","img/object_images/towels01.jpg","img/object_images/calculator01.jpg","img/object_images/hair_dryer01.jpg","1","1","0","0","1","0","0.533244599937461","0.567097499966621","0.741347100003622","1","1","1","1","1","1","1","1","1"
"260024","img/object_images/hair_dryer01.jpg","img/object_images/towels01.jpg","img/object_images/Vest02.jpg","0","1","1","0","0","0","0.741347100003622","0.533244599937461","0.461915399995632","1","1","1","1","1","1","1","1","1"
"260024","img/object_images/Vest02.jpg","img/object_images/hair_dryer01.jpg","img/object_images/hair_brush02.jpg","1","0","1","0","0","0","0.461915399995632","0.741347100003622","0.449764199904166","1","1","1","1","1","1","1","1","1"
"260024","img/object_images/hair_brush02.jpg","img/object_images/Vest02.jpg","img/object_images/spatula02.jpg","1","1","1","0","0","1","0.449764199904166","0.461915399995632","0.395164399989881","1","1","1","1","1","1","1","1","1"
"260024","img/object_images/spatula02.jpg","img/object_images/hair_brush02.jpg","img/object_images/toy05.jpg","1","1","1","1","0","0","0.395164399989881","0.449764199904166","0.467310599982738","1","1","1","1","1","1","1","1","1"
"260024","img/object_images/toy05.jpg","img/object_images/spatula02.jpg","img/object_images/Lint_Roller02.jpg","1","1","1","0","1","0","0.467310599982738","0.395164399989881","0.485682499944232","1","1","1","1","1","1","1","1","1"
"260024","img/object_images/Lint_Roller02.jpg","img/object_images/toy05.jpg","img/object_images/surf_board01.jpg","1","1","1","0","0","1","0.485682499944232","0.467310599982738","0.393045700038783","1","1","1","1","1","1","1","1","1"
"260024","img/object_images/surf_board01.jpg","img/object_images/Lint_Roller02.jpg","img/object_images/combs01.jpg","1","1","1","1","0","1","0.393045700038783","0.485682499944232","0.390292799915187","1","1","1","1","1","1","1","1","1"
"260024","img/object_images/combs01.jpg","img/object_images/surf_board01.jpg","img/object_images/trash_can05.jpg","1","1","1","1","1","1","0.390292799915187","0.393045700038783","0.348518599988893","1","1","1","1","1","1","1","1","1"
"260024","img/object_images/trash_can05.jpg","img/object_images/combs01.jpg","img/object_images/vase01.jpg","1","1","1","1","1","0","0.348518599988893","0.390292799915187","0.59673119999934","1","1","1","1","1","1","1","1","1"
"260024","img/object_images/vase01.jpg","img/object_images/trash_can05.jpg","img/object_images/stove01.jpg","1","1","1","0","1","0","0.59673119999934","0.348518599988893","0.473651900072582","1","1","1","1","1","1","1","1","1"
"260024","img/object_images/stove01.jpg","img/object_images/vase01.jpg","img/object_images/jewel03.jpg","1","1","1","0","0","1","0.473651900072582","0.59673119999934","0.366636699996889","1","1","1","1","1","1","1","1","1"
"260024","img/object_images/jewel03.jpg","img/object_images/stove01.jpg","img/object_images/helmet02.jpg","1","1","1","1","0","0","0.366636699996889","0.473651900072582","0.457468200009316","1","1","1","1","1","1","1","1","1"
"260024","img/object_images/helmet02.jpg","img/object_images/jewel03.jpg",NA,"1","1",NA,"0","1",NA,"0.457468200009316","0.366636699996889",NA,"1","1",NA,"1","1",NA,"1","1",NA
"260024","img/object_images/scale02.jpg",NA,"img/object_images/belt03.jpg","1",NA,"1","0",NA,"0","0.476036500069313",NA,"0.459656699909829","1",NA,"1","1",NA,"1","1",NA,"1"
"260024","img/object_images/belt03.jpg","img/object_images/scale02.jpg","img/object_images/pitcher07.jpg","1","1","1","0","0","1","0.459656699909829","0.476036500069313","0.290680000092834","1","1","1","1","1","1","1","1","1"
"260024","img/object_images/pitcher07.jpg","img/object_images/belt03.jpg","img/object_images/shovel01.jpg","1","1","1","1","0","0","0.290680000092834","0.459656699909829","0.414939900045283","1","1","1","1","1","1","1","1","1"
"260024","img/object_images/shovel01.jpg","img/object_images/pitcher07.jpg","img/object_images/phone04.jpg","1","1","1","0","1","1","0.414939900045283","0.290680000092834","0.535571500076912","1","1","1","1","1","1","1","1","1"
"260024","img/object_images/phone04.jpg","img/object_images/shovel01.jpg","img/object_images/Eyeliner01.jpg","1","1","1","1","0","1","0.535571500076912","0.414939900045283","0.378809400019236","1","1","1","1","1","1","1","1","1"
"260024","img/object_images/Eyeliner01.jpg","img/object_images/phone04.jpg","img/object_images/TreeSlice01.jpg","1","1","1","1","1","1","0.378809400019236","0.535571500076912","0.331190200056881","1","1","1","1","1","1","1","1","1"
"260024","img/object_images/TreeSlice01.jpg","img/object_images/Eyeliner01.jpg","img/object_images/yoga_mat01.jpg","1","1","0","1","1","0","0.331190200056881","0.378809400019236","0.317109099938534","1","1","1","1","1","1","1","1","1"
"260024","img/object_images/yoga_mat01.jpg","img/object_images/TreeSlice01.jpg","img/object_images/usb03.jpg","0","1","1","0","1","0","0.317109099938534","0.331190200056881","0.48952930001542","1","1","1","1","1","1","1","1","1"
"260024","img/object_images/usb03.jpg","img/object_images/yoga_mat01.jpg","img/object_images/tennis_racket01.jpg","1","0","1","0","0","1","0.48952930001542","0.317109099938534","0.428777200053446","1","1","1","1","1","1","1","1","1"
"260024","img/object_images/tennis_racket01.jpg","img/object_images/usb03.jpg","img/object_images/frame01.jpg","1","1","1","1","0","1","0.428777200053446","0.48952930001542","0.367962899967097","1","1","1","1","1","1","1","1","1"
"260024","img/object_images/frame01.jpg","img/object_images/tennis_racket01.jpg","img/object_images/egg_basket01.jpg","1","1","1","1","1","1","0.367962899967097","0.428777200053446","0.404679800034501","1","1","1","1","1","1","1","1","1"
"260024","img/object_images/egg_basket01.jpg","img/object_images/frame01.jpg","img/object_images/headset02.jpg","1","1","1","1","1","0","0.404679800034501","0.367962899967097","0.500256500090472","1","1","1","1","1","1","1","1","1"
"260024","img/object_images/headset02.jpg","img/object_images/egg_basket01.jpg","img/object_images/dice01.jpg","1","1","1","0","1","0","0.500256500090472","0.404679800034501","0.445545499911532","1","1","1","1","1","1","1","1","1"
"260024","img/object_images/dice01.jpg","img/object_images/headset02.jpg","img/object_images/Shoes05.jpg","1","1","1","0","0","0","0.445545499911532","0.500256500090472","0.41147309995722","1","1","1","1","1","1","1","1","1"
"260024","img/object_images/Shoes05.jpg","img/object_images/dice01.jpg","img/object_images/lock03.jpg","1","1","1","0","0","1","0.41147309995722","0.445545499911532","0.413815599982627","1","1","1","1","1","1","1","1","1"
"260024","img/object_images/lock03.jpg","img/object_images/Shoes05.jpg","img/object_images/note_book02.jpg","1","1","1","1","0","0","0.413815599982627","0.41147309995722","0.515138000017032","1","1","1","1","1","1","1","1","1"
"260024","img/object_images/note_book02.jpg","img/object_images/lock03.jpg","img/object_images/nut_cracker01.jpg","1","1","1","0","1","1","0.515138000017032","0.413815599982627","0.393135900027119","1","1","1","1","1","1","1","1","1"
"260024","img/object_images/nut_cracker01.jpg","img/object_images/note_book02.jpg","img/object_images/trumpet01.jpg","1","1","1","1","0","0","0.393135900027119","0.515138000017032","0.482258299947716","1","1","1","1","1","1","1","1","1"
"260024","img/object_images/trumpet01.jpg","img/object_images/nut_cracker01.jpg","img/object_images/helmet03.jpg","1","1","1","0","1","1","0.482258299947716","0.393135900027119","0.485704699996859","1","1","1","1","1","1","1","1","1"
"260024","img/object_images/helmet03.jpg","img/object_images/trumpet01.jpg","img/object_images/joystick03.jpg","1","1","1","1","0","1","0.485704699996859","0.482258299947716","0.362063199980184","1","1","1","1","1","1","1","1","1"
"260024","img/object_images/joystick03.jpg","img/object_images/helmet03.jpg","img/object_images/fan01.jpg","1","1","1","1","1","0","0.362063199980184","0.485704699996859","0.38747279997915","1","1","1","1","1","1","1","1","1"
"260024","img/object_images/fan01.jpg","img/object_images/joystick03.jpg","img/object_images/jewel02.jpg","1","1","1","0","1","0","0.38747279997915","0.362063199980184","0.513925899984315","1","1","1","1","1","1","1","1","1"
"260024","img/object_images/jewel02.jpg","img/object_images/fan01.jpg","img/object_images/piano03.jpg","1","1","0","0","0","0","0.513925899984315","0.38747279997915","0.457181100035086","1","1","1","1","1","1","1","1","1"
"260024","img/object_images/piano03.jpg","img/object_images/jewel02.jpg","img/object_images/origami01.jpg","0","1","1","0","0","1","0.457181100035086","0.513925899984315","0.44476769992616","1","1","1","1","1","1","1","1","1"
"260024","img/object_images/origami01.jpg","img/object_images/piano03.jpg","img/object_images/badminton01.jpg","1","0","1","1","0","1","0.44476769992616","0.457181100035086","0.428008300019428","1","1","1","1","1","1","1","1","1"
"260024","img/object_images/badminton01.jpg","img/object_images/origami01.jpg","img/object_images/bookmark01.jpg","1","1","1","1","1","0","0.428008300019428","0.44476769992616","0.398849799996242","1","1","1","1","1","1","1","1","1"
"260024","img/object_images/bookmark01.jpg","img/object_images/badminton01.jpg","img/object_images/water_gun01.jpg","1","1","1","0","1","1","0.398849799996242","0.428008300019428","0.339950599940494","1","1","1","1","1","1","1","1","1"
"260024","img/object_images/water_gun01.jpg","img/object_images/bookmark01.jpg","img/object_images/Safe01.jpg","1","1","1","1","0","1","0.339950599940494","0.398849799996242","0.357504799962044","1","1","1","1","1","1","1","1","1"
"260024","img/object_images/Safe01.jpg","img/object_images/water_gun01.jpg","img/object_images/bottle06.jpg","1","1","1","1","1","0","0.357504799962044","0.339950599940494","0.498948600026779","1","1","1","1","1","1","1","1","1"
"260024","img/object_images/bottle06.jpg","img/object_images/Safe01.jpg","img/object_images/bucket01.jpg","1","1","1","0","1","1","0.498948600026779","0.357504799962044","0.367008699919097","1","1","1","1","1","1","1","1","1"
"260024","img/object_images/bucket01.jpg","img/object_images/bottle06.jpg","img/object_images/ToolBag01.jpg","1","1","1","1","0","0","0.367008699919097","0.498948600026779","0.432083299965598","1","1","1","1","1","1","1","1","1"
"260024","img/object_images/ToolBag01.jpg","img/object_images/bucket01.jpg",NA,"1","1",NA,"0","1",NA,"0.432083299965598","0.367008699919097",NA,"1","1",NA,"1","1",NA,"1","1",NA
"260024","img/object_images/knife02.jpg",NA,"img/object_images/car01.jpg","1",NA,"1","0",NA,"1","0.466480599949136",NA,"0.344112399965525","1",NA,"1","1",NA,"1","1",NA,"1"
"260024","img/object_images/car01.jpg","img/object_images/knife02.jpg","img/object_images/matches02.jpg","1","1","1","1","0","0","0.344112399965525","0.466480599949136","0.507487999973819","1","1","1","1","1","1","1","1","1"
"260024","img/object_images/matches02.jpg","img/object_images/car01.jpg","img/object_images/gloves02.jpg","1","1","1","0","1","0","0.507487999973819","0.344112399965525","0.493039500084706","1","1","1","1","1","1","1","1","1"
"260024","img/object_images/gloves02.jpg","img/object_images/matches02.jpg","img/object_images/tool18.jpg","1","1","1","0","0","0","0.493039500084706","0.507487999973819","0.553788000019267","1","1","1","1","1","1","1","1","1"
"260024","img/object_images/tool18.jpg","img/object_images/gloves02.jpg","img/object_images/bottle07.jpg","1","1","1","0","0","1","0.553788000019267","0.493039500084706","0.437285299994983","1","1","1","1","1","1","1","1","1"
"260024","img/object_images/bottle07.jpg","img/object_images/tool18.jpg","img/object_images/dresser03.jpg","1","1","1","1","0","0","0.437285299994983","0.553788000019267","0.532235100050457","1","1","1","1","1","1","1","1","1"
"260024","img/object_images/dresser03.jpg","img/object_images/bottle07.jpg","img/object_images/toy08.jpg","1","1","1","0","1","0","0.532235100050457","0.437285299994983","0.472640099935234","1","1","1","1","1","1","1","1","1"
"260024","img/object_images/toy08.jpg","img/object_images/dresser03.jpg","img/object_images/Statue01.jpg","1","1","1","0","0","1","0.472640099935234","0.532235100050457","0.418263499974273","1","1","1","1","1","1","1","1","1"
"260024","img/object_images/Statue01.jpg","img/object_images/toy08.jpg","img/object_images/blender02.jpg","1","1","1","1","0","1","0.418263499974273","0.472640099935234","0.406920299981721","1","1","1","1","1","1","1","1","1"
"260024","img/object_images/blender02.jpg","img/object_images/Statue01.jpg","img/object_images/backpack01.jpg","1","1","1","1","1","0","0.406920299981721","0.418263499974273","0.43330099992454","1","1","1","1","1","1","1","1","1"
"260024","img/object_images/backpack01.jpg","img/object_images/blender02.jpg","img/object_images/stereo02.jpg","1","1","1","0","1","0","0.43330099992454","0.406920299981721","0.44916329998523","1","1","1","1","1","1","1","1","1"
"260024","img/object_images/stereo02.jpg","img/object_images/backpack01.jpg","img/object_images/remover01.jpg","1","1","1","0","0","1","0.44916329998523","0.43330099992454","0.393480899976566","1","1","1","1","1","1","1","1","1"
"260024","img/object_images/remover01.jpg","img/object_images/stereo02.jpg","img/object_images/curtain02.jpg","1","1","1","1","0","0","0.393480899976566","0.44916329998523","0.448595999972895","1","1","1","1","1","1","1","1","1"
"260024","img/object_images/curtain02.jpg","img/object_images/remover01.jpg","img/object_images/remote_controller01.jpg","1","1","1","0","1","1","0.448595999972895","0.393480899976566","0.413544899900444","1","1","1","1","1","1","1","1","1"
"260024","img/object_images/remote_controller01.jpg","img/object_images/curtain02.jpg","img/object_images/hand_grip_exerciser01.jpg","1","1","1","1","0","0","0.413544899900444","0.448595999972895","0.547890300047584","1","1","1","1","1","1","1","1","1"
"260024","img/object_images/hand_grip_exerciser01.jpg","img/object_images/remote_controller01.jpg","img/object_images/video_game01.jpg","1","1","1","0","1","1","0.547890300047584","0.413544899900444","0.422692700056359","1","1","1","1","1","1","1","1","1"
"260024","img/object_images/video_game01.jpg","img/object_images/hand_grip_exerciser01.jpg","img/object_images/kite01.jpg","1","1","1","1","0","1","0.422692700056359","0.547890300047584","0.386926099890843","1","1","1","1","1","1","1","1","1"
"260024","img/object_images/kite01.jpg","img/object_images/video_game01.jpg","img/object_images/knit03.jpg","1","1","1","1","1","1","0.386926099890843","0.422692700056359","0.536503899958916","1","1","1","1","1","1","1","1","1"
"260024","img/object_images/knit03.jpg","img/object_images/kite01.jpg","img/object_images/boat04.jpg","1","1","0","1","1","0","0.536503899958916","0.386926099890843","0.462849900010042","1","1","1","1","1","1","1","1","1"
"260024","img/object_images/boat04.jpg","img/object_images/knit03.jpg","img/object_images/mail_box01.jpg","0","1","1","0","1","0","0.462849900010042","0.536503899958916","0.526626700069755","1","1","1","1","1","1","1","1","1"
"260024","img/object_images/mail_box01.jpg","img/object_images/boat04.jpg","img/object_images/knit04.jpg","1","0","1","0","0","1","0.526626700069755","0.462849900010042","0.551333399955183","1","1","1","1","1","1","1","1","1"
"260024","img/object_images/knit04.jpg","img/object_images/mail_box01.jpg","img/object_images/phone02.jpg","1","1","1","1","0","1","0.551333399955183","0.526626700069755","0.436282999929972","1","1","1","1","1","1","1","1","1"
"260024","img/object_images/phone02.jpg","img/object_images/knit04.jpg","img/object_images/paper_cup02.jpg","1","1","1","1","1","1","0.436282999929972","0.551333399955183","0.431986700044945","1","1","1","1","1","1","1","1","1"
"260024","img/object_images/paper_cup02.jpg","img/object_images/phone02.jpg","img/object_images/basket04.jpg","1","1","1","1","1","1","0.431986700044945","0.436282999929972","0.397559100063518","1","1","1","1","1","1","1","1","1"
"260024","img/object_images/basket04.jpg","img/object_images/paper_cup02.jpg","img/object_images/keyboard02.jpg","1","1","1","1","1","1","0.397559100063518","0.431986700044945","0.444809200009331","1","1","1","1","1","1","1","1","1"
"260024","img/object_images/keyboard02.jpg","img/object_images/basket04.jpg","img/object_images/shower_head01.jpg","1","1","1","1","1","1","0.444809200009331","0.397559100063518","0.395358599955216","1","1","1","1","1","1","1","1","1"
"260024","img/object_images/shower_head01.jpg","img/object_images/keyboard02.jpg","img/object_images/hoverboard01.jpg","1","1","1","1","1","0","0.395358599955216","0.444809200009331","0.520225599990226","1","1","1","1","1","1","1","1","1"
"260024","img/object_images/hoverboard01.jpg","img/object_images/shower_head01.jpg","img/object_images/sponge03.jpg","1","1","1","0","1","1","0.520225599990226","0.395358599955216","0.5749599999981","1","1","1","1","1","1","1","1","1"
"260024","img/object_images/sponge03.jpg","img/object_images/hoverboard01.jpg","img/object_images/jacket04.jpg","1","1","1","1","0","0","0.5749599999981","0.520225599990226","0.610855400096625","1","1","1","1","1","1","1","1","1"
"260024","img/object_images/jacket04.jpg","img/object_images/sponge03.jpg","img/object_images/camera03.jpg","1","1","1","0","1","0","0.610855400096625","0.5749599999981","0.656961499946192","1","1","1","1","1","1","1","1","1"
"260024","img/object_images/camera03.jpg","img/object_images/jacket04.jpg","img/object_images/flashlight03.jpg","1","1","1","0","0","0","0.656961499946192","0.610855400096625","0.530955199967138","1","1","1","1","1","1","1","1","1"
"260024","img/object_images/flashlight03.jpg","img/object_images/camera03.jpg",NA,"1","1",NA,"0","0",NA,"0.530955199967138","0.656961499946192",NA,"1","1",NA,"1","1",NA,"1","1",NA
"260024","img/object_images/shower_head03.jpg",NA,"img/object_images/tool11.jpg","1",NA,"1","1",NA,"1","0.536578200059012",NA,"0.452094100066461","1",NA,"1","1",NA,"1","1",NA,"1"
"260024","img/object_images/tool11.jpg","img/object_images/shower_head03.jpg","img/object_images/cards01.jpg","1","1","1","1","1","0","0.452094100066461","0.536578200059012","0.423213000060059","1","1","1","1","1","1","1","1","1"
"260024","img/object_images/cards01.jpg","img/object_images/tool11.jpg","img/object_images/bag06.jpg","1","1","1","0","1","1","0.423213000060059","0.452094100066461","0.358659899909981","1","1","1","1","1","1","1","1","1"
"260024","img/object_images/bag06.jpg","img/object_images/cards01.jpg","img/object_images/chair04.jpg","1","1","1","1","0","1","0.358659899909981","0.423213000060059","0.429929599980824","1","1","1","1","1","1","1","1","1"
"260024","img/object_images/chair04.jpg","img/object_images/bag06.jpg","img/object_images/razor01.jpg","1","1","1","1","1","0","0.429929599980824","0.358659899909981","0.347657900070772","1","1","1","1","1","1","1","1","1"
"260024","img/object_images/razor01.jpg","img/object_images/chair04.jpg","img/object_images/rock03.jpg","1","1","1","0","1","0","0.347657900070772","0.429929599980824","0.45562079991214","1","1","1","1","1","1","1","1","1"
"260024","img/object_images/rock03.jpg","img/object_images/razor01.jpg","img/object_images/MeasuringCup01.jpg","1","1","1","0","0","1","0.45562079991214","0.347657900070772","0.390587100060657","1","1","1","1","1","1","1","1","1"
"260024","img/object_images/MeasuringCup01.jpg","img/object_images/rock03.jpg","img/object_images/dress03.jpg","1","1","1","1","0","1","0.390587100060657","0.45562079991214","0.492071599932387","1","1","1","1","1","1","1","1","1"
"260024","img/object_images/dress03.jpg","img/object_images/MeasuringCup01.jpg","img/object_images/screwdriver01.jpg","1","1","1","1","1","0","0.492071599932387","0.390587100060657","0.474221499986015","1","1","1","1","1","1","1","1","1"
"260024","img/object_images/screwdriver01.jpg","img/object_images/dress03.jpg","img/object_images/slinky_toy01.jpg","1","1","1","0","1","1","0.474221499986015","0.492071599932387","0.370145100052468","1","1","1","1","1","1","1","1","1"
"260024","img/object_images/slinky_toy01.jpg","img/object_images/screwdriver01.jpg","img/object_images/mask01.jpg","1","1","0","1","0","0","0.370145100052468","0.474221499986015","0.338770000031218","1","1","1","1","1","1","1","1","1"
"260024","img/object_images/mask01.jpg","img/object_images/slinky_toy01.jpg","img/object_images/shoes10.jpg","0","1","1","0","1","0","0.338770000031218","0.370145100052468","0.54176319995895","1","1","1","1","1","1","1","1","1"
"260024","img/object_images/shoes10.jpg","img/object_images/mask01.jpg","img/object_images/binoculars03.jpg","1","0","1","0","0","1","0.54176319995895","0.338770000031218","0.442277899943292","1","1","1","1","1","1","1","1","1"
"260024","img/object_images/binoculars03.jpg","img/object_images/shoes10.jpg","img/object_images/satellite01.jpg","1","1","1","1","0","0","0.442277899943292","0.54176319995895","0.357792099937797","1","1","1","1","1","1","1","1","1"
"260024","img/object_images/satellite01.jpg","img/object_images/binoculars03.jpg","img/object_images/tv01.jpg","1","1","1","0","1","0","0.357792099937797","0.442277899943292","0.512905700015835","1","1","1","1","1","1","1","1","1"
"260024","img/object_images/tv01.jpg","img/object_images/satellite01.jpg","img/object_images/yarn02.jpg","1","1","1","0","0","0","0.512905700015835","0.357792099937797","0.460802500019781","1","1","1","1","1","1","1","1","1"
"260024","img/object_images/yarn02.jpg","img/object_images/tv01.jpg","img/object_images/hair_brush05.jpg","1","1","1","0","0","1","0.460802500019781","0.512905700015835","0.323345699929632","1","1","1","1","1","1","1","1","1"
"260024","img/object_images/hair_brush05.jpg","img/object_images/yarn02.jpg","img/object_images/car03.jpg","1","1","1","1","0","0","0.323345699929632","0.460802500019781","0.491871800040826","1","1","1","1","1","1","1","1","1"
"260024","img/object_images/car03.jpg","img/object_images/hair_brush05.jpg","img/object_images/WitchHat02.jpg","1","1","1","0","1","1","0.491871800040826","0.323345699929632","0.432873200043105","1","1","1","1","1","1","1","1","1"
"260024","img/object_images/WitchHat02.jpg","img/object_images/car03.jpg","img/object_images/ribbon01.jpg","1","1","1","1","0","0","0.432873200043105","0.491871800040826","0.457503599929623","1","1","1","1","1","1","1","1","1"
"260024","img/object_images/ribbon01.jpg","img/object_images/WitchHat02.jpg","img/object_images/toaster02.jpg","1","1","1","0","1","1","0.457503599929623","0.432873200043105","0.362351600080728","1","1","1","1","1","1","1","1","1"
"260024","img/object_images/toaster02.jpg","img/object_images/ribbon01.jpg","img/object_images/ladle02.jpg","1","1","1","1","0","0","0.362351600080728","0.457503599929623","0.406626199954189","1","1","1","1","1","1","1","1","1"
"260024","img/object_images/ladle02.jpg","img/object_images/toaster02.jpg","img/object_images/belt01.jpg","1","1","1","0","1","0","0.406626199954189","0.362351600080728","0.431611499981955","1","1","1","1","1","1","1","1","1"
"260024","img/object_images/belt01.jpg","img/object_images/ladle02.jpg","img/object_images/jewel01.jpg","1","1","1","0","0","0","0.431611499981955","0.406626199954189","0.484806999913417","1","1","1","1","1","1","1","1","1"
"260024","img/object_images/jewel01.jpg","img/object_images/belt01.jpg","img/object_images/ice_tray03.jpg","1","1","1","0","0","1","0.484806999913417","0.431611499981955","0.39316850004252","1","1","1","1","1","1","1","1","1"
"260024","img/object_images/ice_tray03.jpg","img/object_images/jewel01.jpg","img/object_images/key02.jpg","1","1","1","1","0","1","0.39316850004252","0.484806999913417","0.345128400018439","1","1","1","1","1","1","1","1","1"
"260024","img/object_images/key02.jpg","img/object_images/ice_tray03.jpg","img/object_images/car04.jpg","1","1","1","1","1","0","0.345128400018439","0.39316850004252","0.462207400007173","1","1","1","1","1","1","1","1","1"
"260024","img/object_images/car04.jpg","img/object_images/key02.jpg","img/object_images/lemon_squeezer02.jpg","1","1","1","0","1","1","0.462207400007173","0.345128400018439","0.401883699931204","1","1","1","1","1","1","1","1","1"
"260024","img/object_images/lemon_squeezer02.jpg","img/object_images/car04.jpg","img/object_images/cutting_board01.jpg","1","1","1","1","0","1","0.401883699931204","0.462207400007173","0.351116699981503","1","1","1","1","1","1","1","1","1"
"260024","img/object_images/cutting_board01.jpg","img/object_images/lemon_squeezer02.jpg","img/object_images/jewelry07.jpg","1","1","1","1","1","1","0.351116699981503","0.401883699931204","0.362670200061984","1","1","1","1","1","1","1","1","1"
"260024","img/object_images/jewelry07.jpg","img/object_images/cutting_board01.jpg","img/object_images/fan05.jpg","1","1","0","1","1","0","0.362670200061984","0.351116699981503","0.393047400051728","1","1","1","1","1","1","1","1","1"
"260024","img/object_images/fan05.jpg","img/object_images/jewelry07.jpg",NA,"0","1",NA,"0","1",NA,"0.393047400051728","0.362670200061984",NA,"1","1",NA,"1","1",NA,"1","1",NA
"260024","img/object_images/perfume02.jpg",NA,"img/object_images/helmet04.jpg","1",NA,"1","0",NA,"1","0.458424200071022",NA,"0.401866000029258","1",NA,"1","1",NA,"1","1",NA,"1"
"260024","img/object_images/helmet04.jpg","img/object_images/perfume02.jpg","img/object_images/water_scooter01.jpg","1","1","1","1","0","1","0.401866000029258","0.458424200071022","0.318355099996552","1","1","1","1","1","1","1","1","1"
"260024","img/object_images/water_scooter01.jpg","img/object_images/helmet04.jpg","img/object_images/fan02.jpg","1","1","1","1","1","0","0.318355099996552","0.401866000029258","0.346714100101963","1","1","1","1","1","1","1","1","1"
"260024","img/object_images/fan02.jpg","img/object_images/water_scooter01.jpg","img/object_images/bicycle01.jpg","1","1","1","0","1","1","0.346714100101963","0.318355099996552","0.354042100021616","1","1","1","1","1","1","1","1","1"
"260024","img/object_images/bicycle01.jpg","img/object_images/fan02.jpg","img/object_images/dog_leash01.jpg","1","1","1","1","0","0","0.354042100021616","0.346714100101963","0.356957099982537","1","1","1","1","1","1","1","1","1"
"260024","img/object_images/dog_leash01.jpg","img/object_images/bicycle01.jpg","img/object_images/tool19.jpg","1","1","1","0","1","1","0.356957099982537","0.354042100021616","0.337075200048275","1","1","1","1","1","1","1","1","1"
"260024","img/object_images/tool19.jpg","img/object_images/dog_leash01.jpg","img/object_images/shoes07.jpg","1","1","0","1","0","0","0.337075200048275","0.356957099982537","0.405449900077656","1","1","1","1","1","1","1","1","1"
"260024","img/object_images/shoes07.jpg","img/object_images/tool19.jpg","img/object_images/coloring_pencil02.jpg","0","1","1","0","1","0","0.405449900077656","0.337075200048275","0.427774899988435","1","1","1","1","1","1","1","1","1"
"260024","img/object_images/coloring_pencil02.jpg","img/object_images/shoes07.jpg","img/object_images/cellphone03.jpg","1","0","1","0","0","0","0.427774899988435","0.405449900077656","0.454609300009906","1","1","1","1","1","1","1","1","1"
"260024","img/object_images/cellphone03.jpg","img/object_images/coloring_pencil02.jpg","img/object_images/hat06.jpg","1","1","1","0","0","0","0.454609300009906","0.427774899988435","0.434273699996993","1","1","1","1","1","1","1","1","1"
"260024","img/object_images/hat06.jpg","img/object_images/cellphone03.jpg","img/object_images/bean_bag02.jpg","1","1","1","0","0","1","0.434273699996993","0.454609300009906","0.395967699936591","1","1","1","1","1","1","1","1","1"
"260024","img/object_images/bean_bag02.jpg","img/object_images/hat06.jpg","img/object_images/audio_port01.jpg","1","1","1","1","0","1","0.395967699936591","0.434273699996993","0.330856499960646","1","1","1","1","1","1","1","1","1"
"260024","img/object_images/audio_port01.jpg","img/object_images/bean_bag02.jpg","img/object_images/purse04.jpg","1","1","1","1","1","1","0.330856499960646","0.395967699936591","0.355774599942379","1","1","1","1","1","1","1","1","1"
"260024","img/object_images/purse04.jpg","img/object_images/audio_port01.jpg","img/object_images/bottle10.jpg","1","1","1","1","1","1","0.355774599942379","0.330856499960646","0.51378359994851","1","1","1","1","1","1","1","1","1"
"260024","img/object_images/bottle10.jpg","img/object_images/purse04.jpg","img/object_images/scoreboard01.jpg","1","1","1","1","1","1","0.51378359994851","0.355774599942379","0.351515999995172","1","1","1","1","1","1","1","1","1"
"260024","img/object_images/scoreboard01.jpg","img/object_images/bottle10.jpg","img/object_images/pen05.jpg","1","1","1","1","1","0","0.351515999995172","0.51378359994851","0.456664699944668","1","1","1","1","1","1","1","1","1"
"260024","img/object_images/pen05.jpg","img/object_images/scoreboard01.jpg","img/object_images/knit01.jpg","1","1","1","0","1","0","0.456664699944668","0.351515999995172","0.451187600032426","1","1","1","1","1","1","1","1","1"
"260024","img/object_images/knit01.jpg","img/object_images/pen05.jpg","img/object_images/camera_lens01.jpg","1","1","1","0","0","1","0.451187600032426","0.456664699944668","0.378198300022632","1","1","1","1","1","1","1","1","1"
"260024","img/object_images/camera_lens01.jpg","img/object_images/knit01.jpg","img/object_images/bottle02.jpg","1","1","1","1","0","1","0.378198300022632","0.451187600032426","0.371321799932048","1","1","1","1","1","1","1","1","1"
"260024","img/object_images/bottle02.jpg","img/object_images/camera_lens01.jpg","img/object_images/tie02.jpg","1","1","1","1","1","0","0.371321799932048","0.378198300022632","0.495327300042845","1","1","1","1","1","1","1","1","1"
"260024","img/object_images/tie02.jpg","img/object_images/bottle02.jpg","img/object_images/toaster01.jpg","1","1","1","0","1","1","0.495327300042845","0.371321799932048","0.476041700108908","1","1","1","1","1","1","1","1","1"
"260024","img/object_images/toaster01.jpg","img/object_images/tie02.jpg","img/object_images/chair03.jpg","1","1","1","1","0","0","0.476041700108908","0.495327300042845","0.412292199907824","1","1","1","1","1","1","1","1","1"
"260024","img/object_images/chair03.jpg","img/object_images/toaster01.jpg","img/object_images/toilet_paper_dispenser01.jpg","1","1","1","0","1","1","0.412292199907824","0.476041700108908","0.373394399997778","1","1","1","1","1","1","1","1","1"
"260024","img/object_images/toilet_paper_dispenser01.jpg","img/object_images/chair03.jpg","img/object_images/WoodBox01.jpg","1","1","1","1","0","0","0.373394399997778","0.412292199907824","0.484991700039245","1","1","1","1","1","1","1","1","1"
"260024","img/object_images/WoodBox01.jpg","img/object_images/toilet_paper_dispenser01.jpg","img/object_images/boat02.jpg","1","1","1","0","1","1","0.484991700039245","0.373394399997778","0.354001399944536","1","1","1","1","1","1","1","1","1"
"260024","img/object_images/boat02.jpg","img/object_images/WoodBox01.jpg","img/object_images/bottle09.jpg","1","1","1","1","0","0","0.354001399944536","0.484991700039245","0.554636999964714","1","1","1","1","1","1","1","1","1"
"260024","img/object_images/bottle09.jpg","img/object_images/boat02.jpg","img/object_images/flask01.jpg","1","1","1","0","1","0","0.554636999964714","0.354001399944536","0.619242400047369","1","1","1","1","1","1","1","1","1"
"260024","img/object_images/flask01.jpg","img/object_images/bottle09.jpg","img/object_images/wagon_cart03.jpg","1","1","1","0","0","1","0.619242400047369","0.554636999964714","0.420927800005302","1","1","1","1","1","1","1","1","1"
"260024","img/object_images/wagon_cart03.jpg","img/object_images/flask01.jpg","img/object_images/hot_air_balloon02.jpg","1","1","1","1","0","0","0.420927800005302","0.619242400047369","0.50923760002479","1","1","1","1","1","1","1","1","1"
"260024","img/object_images/hot_air_balloon02.jpg","img/object_images/wagon_cart03.jpg","img/object_images/piggy_bank01.jpg","1","1","1","0","1","1","0.50923760002479","0.420927800005302","0.421713600051589","1","1","1","1","1","1","1","1","1"
"260024","img/object_images/piggy_bank01.jpg","img/object_images/hot_air_balloon02.jpg","img/object_images/boat_toy10.jpg","1","1","1","1","0","0","0.421713600051589","0.50923760002479","0.565440699923784","1","1","1","1","1","1","1","1","1"
"260024","img/object_images/boat_toy10.jpg","img/object_images/piggy_bank01.jpg",NA,"1","1",NA,"0","1",NA,"0.565440699923784","0.421713600051589",NA,"1","1",NA,"1","1",NA,"1","1",NA
"260024","img/object_images/gift_box03.jpg",NA,"img/object_images/socks02.jpg","1",NA,"1","0",NA,"0","0.628739299951121",NA,"0.431999800028279","1",NA,"1","1",NA,"1","1",NA,"1"
"260024","img/object_images/socks02.jpg","img/object_images/gift_box03.jpg","img/object_images/coloring_pencil01.jpg","1","1","1","0","0","1","0.431999800028279","0.628739299951121","0.399435700033791","1","1","1","1","1","1","1","1","1"
"260024","img/object_images/coloring_pencil01.jpg","img/object_images/socks02.jpg","img/object_images/pitcher02.jpg","1","1","1","1","0","1","0.399435700033791","0.431999800028279","0.343248500023037","1","1","1","1","1","1","1","1","1"
"260024","img/object_images/pitcher02.jpg","img/object_images/coloring_pencil01.jpg","img/object_images/camera07.jpg","1","1","1","1","1","1","0.343248500023037","0.399435700033791","0.382305199978873","1","1","1","1","1","1","1","1","1"
"260024","img/object_images/camera07.jpg","img/object_images/pitcher02.jpg","img/object_images/handkerchief01.jpg","1","1","1","1","1","0","0.382305199978873","0.343248500023037","0.56475809996482","1","1","1","1","1","1","1","1","1"
"260024","img/object_images/handkerchief01.jpg","img/object_images/camera07.jpg","img/object_images/sleeping_bag01.jpg","1","1","1","0","1","0","0.56475809996482","0.382305199978873","0.441671799984761","1","1","1","1","1","1","1","1","1"
"260024","img/object_images/sleeping_bag01.jpg","img/object_images/handkerchief01.jpg","img/object_images/bow_tie02.jpg","1","1","1","0","0","0","0.441671799984761","0.56475809996482","0.389699599938467","1","1","1","1","1","1","1","1","1"
"260024","img/object_images/bow_tie02.jpg","img/object_images/sleeping_bag01.jpg","img/object_images/couch03.jpg","1","1","1","0","0","0","0.389699599938467","0.441671799984761","0.633114300086163","1","1","1","1","1","1","1","1","1"
"260024","img/object_images/couch03.jpg","img/object_images/bow_tie02.jpg","img/object_images/lock04.jpg","1","1","1","0","0","1","0.633114300086163","0.389699599938467","0.42683099990245","1","1","1","1","1","1","1","1","1"
"260024","img/object_images/lock04.jpg","img/object_images/couch03.jpg","img/object_images/Screws01.jpg","1","1","1","1","0","1","0.42683099990245","0.633114300086163","0.37553200009279","1","1","1","1","1","1","1","1","1"
"260024","img/object_images/Screws01.jpg","img/object_images/lock04.jpg","img/object_images/balloon01.jpg","1","1","1","1","1","0","0.37553200009279","0.42683099990245","0.460500300046988","1","1","1","1","1","1","1","1","1"
"260024","img/object_images/balloon01.jpg","img/object_images/Screws01.jpg","img/object_images/bath_tub01.jpg","1","1","1","0","1","0","0.460500300046988","0.37553200009279","0.402098499936983","1","1","1","1","1","1","1","1","1"
"260024","img/object_images/bath_tub01.jpg","img/object_images/balloon01.jpg","img/object_images/wallet02.jpg","1","1","1","0","0","1","0.402098499936983","0.460500300046988","0.364366100053303","1","1","1","1","1","1","1","1","1"
"260024","img/object_images/wallet02.jpg","img/object_images/bath_tub01.jpg","img/object_images/dresser04.jpg","1","1","1","1","0","0","0.364366100053303","0.402098499936983","0.474802599987015","1","1","1","1","1","1","1","1","1"
"260024","img/object_images/dresser04.jpg","img/object_images/wallet02.jpg","img/object_images/gift_box01.jpg","1","1","1","0","1","1","0.474802599987015","0.364366100053303","0.432294599944726","1","1","1","1","1","1","1","1","1"
"260024","img/object_images/gift_box01.jpg","img/object_images/dresser04.jpg","img/object_images/grater01.jpg","1","1","1","1","0","1","0.432294599944726","0.474802599987015","0.423656600061804","1","1","1","1","1","1","1","1","1"
"260024","img/object_images/grater01.jpg","img/object_images/gift_box01.jpg","img/object_images/ironing_table01.jpg","1","1","1","1","1","0","0.423656600061804","0.432294599944726","0.481145899975672","1","1","1","1","1","1","1","1","1"
"260024","img/object_images/ironing_table01.jpg","img/object_images/grater01.jpg","img/object_images/jewelry01.jpg","1","1","1","0","1","1","0.481145899975672","0.423656600061804","0.466469699982554","1","1","1","1","1","1","1","1","1"
"260024","img/object_images/jewelry01.jpg","img/object_images/ironing_table01.jpg","img/object_images/measuring_tape02.jpg","1","1","1","1","0","1","0.466469699982554","0.481145899975672","0.374764300067909","1","1","1","1","1","1","1","1","1"
"260024","img/object_images/measuring_tape02.jpg","img/object_images/jewelry01.jpg","img/object_images/paper_cup01.jpg","1","1","1","1","1","0","0.374764300067909","0.466469699982554","0.459072400000878","1","1","1","1","1","1","1","1","1"
"260024","img/object_images/paper_cup01.jpg","img/object_images/measuring_tape02.jpg","img/object_images/golf_ball03.jpg","1","1","1","0","1","1","0.459072400000878","0.374764300067909","0.333676900016144","1","1","1","1","1","1","1","1","1"
"260024","img/object_images/golf_ball03.jpg","img/object_images/paper_cup01.jpg","img/object_images/hammer01.jpg","1","1","1","1","0","0","0.333676900016144","0.459072400000878","0.519455599947833","1","1","1","1","1","1","1","1","1"
"260024","img/object_images/hammer01.jpg","img/object_images/golf_ball03.jpg","img/object_images/vga_port 01.jpg","1","1","1","0","1","0","0.519455599947833","0.333676900016144","0.407610599999316","1","1","1","1","1","1","1","1","1"
"260024","img/object_images/vga_port 01.jpg","img/object_images/hammer01.jpg","img/object_images/funnel01.jpg","1","1","1","0","0","0","0.407610599999316","0.519455599947833","0.419551800005138","1","1","1","1","1","1","1","1","1"
"260024","img/object_images/funnel01.jpg","img/object_images/vga_port 01.jpg","img/object_images/lawn_mower01.jpg","1","1","1","0","0","1","0.419551800005138","0.407610599999316","0.372218799893744","1","1","1","1","1","1","1","1","1"
"260024","img/object_images/lawn_mower01.jpg","img/object_images/funnel01.jpg","img/object_images/jacket03.jpg","1","1","0","1","0","0","0.372218799893744","0.419551800005138","0.361803799984045","1","1","1","1","1","1","1","1","1"
"260024","img/object_images/jacket03.jpg","img/object_images/lawn_mower01.jpg","img/object_images/gift_box02.jpg","0","1","1","0","1","1","0.361803799984045","0.372218799893744","0.416668400052004","1","1","1","1","1","1","1","1","1"
"260024","img/object_images/gift_box02.jpg","img/object_images/jacket03.jpg","img/object_images/bow_tie01.jpg","1","0","1","1","0","0","0.416668400052004","0.361803799984045","0.50217170000542","1","1","1","1","1","1","1","1","1"
"260024","img/object_images/bow_tie01.jpg","img/object_images/gift_box02.jpg","img/object_images/Witchhat01.jpg","1","1","1","0","1","1","0.50217170000542","0.416668400052004","0.402375400066376","1","1","1","1","1","1","1","1","1"
"260024","img/object_images/Witchhat01.jpg","img/object_images/bow_tie01.jpg","img/object_images/clip02.jpg","1","1","1","1","0","1","0.402375400066376","0.50217170000542","0.34672709996812","1","1","1","1","1","1","1","1","1"
"260024","img/object_images/clip02.jpg","img/object_images/Witchhat01.jpg","img/object_images/fork03.jpg","1","1","1","1","1","1","0.34672709996812","0.402375400066376","0.413846999988891","1","1","1","1","1","1","1","1","1"
"260024","img/object_images/fork03.jpg","img/object_images/clip02.jpg",NA,"1","1",NA,"1","1",NA,"0.413846999988891","0.34672709996812",NA,"1","1",NA,"1","1",NA,"1","1",NA
