"participant_id","object","surpAcc","memory_surp_responses","memory_surp_rt","keep_surp_memory_trial_based_on_rt","surp_block_num","exclude_block","number_of_surp_resp_items_used","num_blocks_excluded"
"260035","img/object_images/flashlight03.jpg","0","s","6.5575133000093",1,1,0,2,0
"260035","img/object_images/pot01.jpg","1","k","1.49883990001399",1,1,0,2,0
"260035","img/object_images/brief_case02.jpg","1","s","3.05197599998792",1,1,0,2,0
"260035","img/object_images/pitcher02.jpg","1","s","5.06263510001008",1,1,0,2,0
"260035","img/object_images/sink01.jpg","1","s","2.17437220001011",1,1,0,2,0
"260035","img/object_images/knife04.jpg","1","s","1.44794650000404",1,1,0,2,0
"260035","img/object_images/vase01.jpg","1","s","2.42694199999096",1,1,0,2,0
"260035","img/object_images/bow_tie03.jpg","0","s","2.38766680000117",1,1,0,2,0
"260035","img/object_images/knit05.jpg","1","k","1.3249943999981",1,1,0,2,0
"260035","img/object_images/microphone03.jpg","0","s","3.03248890000395",1,1,0,2,0
"260035","img/object_images/fan01.jpg","1","s","2.13044040001114",1,1,0,2,0
"260035","img/object_images/ToolBag01.jpg","1","s","2.32904800001415",1,1,0,2,0
"260035","img/object_images/guitar02.jpg","1","k","2.99937519998639",1,1,0,2,0
"260035","img/object_images/WoodBox01.jpg","1","k","1.57304650000879",1,1,0,2,0
"260035","img/object_images/Thermometer01.jpg","1","k","1.67112260000431",1,1,0,2,0
"260035","img/object_images/razor01.jpg","1","s","0.795720599999186",1,1,0,2,0
"260035","img/object_images/jewel04.jpg","1","k","1.57965180001338",1,1,0,2,0
"260035","img/object_images/pen03.jpg","1","s","1.43354090000503",1,1,0,2,0
"260035","img/object_images/mask01.jpg","1","s","1.07812779999222",1,1,0,2,0
"260035","img/object_images/book03.jpg","1","s","0.813579200010281",1,1,0,2,0
"260035","img/object_images/Lint_Roller02.jpg","0","s","1.33292309998069",1,1,0,2,0
"260035","img/object_images/key02.jpg","0","s","0.92462509998586",1,1,0,2,0
"260035","img/object_images/shower_head01.jpg","1","s","0.972249400016153",1,1,0,2,0
"260035","img/object_images/ornament01.jpg","1","k","1.81834620001609",1,1,0,2,0
"260035","img/object_images/broom01.jpg","1","s","1.05324980002479",1,1,0,2,0
"260035","img/object_images/cellphone03.jpg","1","k","1.12879899999825",1,1,0,2,0
"260035","img/object_images/crown02.jpg","1","k","1.16340060002403",1,1,0,2,0
"260035","img/object_images/hair_brush02.jpg","1","k","1.62481399998069",1,1,0,2,0
"260035","img/object_images/knife02.jpg","0","s","1.21817320000264",1,1,0,2,0
"260035","img/object_images/scarf01.jpg","1","s","2.15257760000532",1,1,0,2,0
"260035","img/object_images/bottle05.jpg","1","k","1.19337860000087",1,1,0,2,0
"260035","img/object_images/bird_house02.jpg","1","k","0.985647299996344",1,1,0,2,0
"260035","img/object_images/MetalWire01.jpg","0","s","0.929313500004355",1,1,0,2,0
"260035","img/object_images/matches02.jpg","1","s","0.676897199999075",1,1,0,2,0
"260035","img/object_images/knife01.jpg","1","s","0.757901600009063",1,1,0,2,0
"260035","img/object_images/tv01.jpg","0","s","2.57779320000554",1,1,0,2,0
"260035","img/object_images/accardion01.jpg","0","s","1.72430630002054",1,1,0,2,0
"260035","img/object_images/perfume02.jpg","1","s","0.719233699986944",1,1,0,2,0
"260035","img/object_images/purse04.jpg","1","s","1.57951050001429",1,1,0,2,0
"260035","img/object_images/Vest02.jpg","1","s","0.733846099989023",1,1,0,2,0
"260035","img/object_images/clip02.jpg","1","s","0.983867100003408",1,1,0,2,0
"260035","img/object_images/boat04.jpg","1","s","1.18276049999986",1,1,0,2,0
"260035","img/object_images/dress03.jpg","1","s","1.01986709999619",1,1,0,2,0
"260035","img/object_images/video_game02.jpg","1","k","0.997592700005043",1,1,0,2,0
"260035","img/object_images/Traffic Sign 01.jpg","1","k","0.871429899998475",1,1,0,2,0
"260035","img/object_images/toaster01.jpg","1","k","1.39065269997809",1,1,0,2,0
"260035","img/object_images/bow_tie01.jpg","1","s","0.713394299993524",1,1,0,2,0
"260035","img/object_images/ruler02.jpg","1","k","2.2866384999943",1,1,0,2,0
"260035","img/object_images/ironing_table01.jpg","1","s","2.44283590000123",1,2,0,2,0
"260035","img/object_images/Witchhat01.jpg","0","k","0.318726199999219",1,2,0,2,0
"260035","img/object_images/pan01.jpg","1","k","2.93263980001211",1,2,0,2,0
"260035","img/object_images/bath_tub01.jpg","1","s","1.11192329999176",1,2,0,2,0
"260035","img/object_images/pen01.jpg","1","k","0.717853200010723",1,2,0,2,0
"260035","img/object_images/vase02.jpg","0","k","1.8585229999735",1,2,0,2,0
"260035","img/object_images/wallet02.jpg","1","s","0.723240599996643",1,2,0,2,0
"260035","img/object_images/backpack01.jpg","0","s","1.0207531999913",1,2,0,2,0
"260035","img/object_images/lemon_squeezer01.jpg","1","s","1.29854800002067",1,2,0,2,0
"260035","img/object_images/note_book02.jpg","1","s","1.0782773999963",1,2,0,2,0
"260035","img/object_images/surf_board01.jpg","0","s","1.41517390002264",1,2,0,2,0
"260035","img/object_images/projector01.jpg","0","k","2.11956200000714",1,2,0,2,0
"260035","img/object_images/crutches02.jpg","1","s","1.45692160000908",1,2,0,2,0
"260035","img/object_images/hammer03.jpg","1","k","2.87703170001623",1,2,0,2,0
"260035","img/object_images/lemon_squeezer02.jpg","1","k","1.03571580001153",1,2,0,2,0
"260035","img/object_images/soap01.jpg","1","k","1.32869789999677",1,2,0,2,0
"260035","img/object_images/clip04.jpg","1","s","2.56920719999471",1,2,0,2,0
"260035","img/object_images/tool11.jpg","1","s","1.68661080001038",1,2,0,2,0
"260035","img/object_images/ball02.jpg","1","s","0.776894800015725",1,2,0,2,0
"260035","img/object_images/trash_can05.jpg","1","k","1.4219190000149",1,2,0,2,0
"260035","img/object_images/robe01.jpg","1","s","0.826632899988908",1,2,0,2,0
"260035","img/object_images/acoustic_capo01.jpg","1","k","1.28800470000715",1,2,0,2,0
"260035","img/object_images/airfryer01.jpg","1","s","0.714549699972849",1,2,0,2,0
"260035","img/object_images/pen05.jpg","1","s","1.44276760000503",1,2,0,2,0
"260035","img/object_images/tool07.jpg","1","s","1.18161100000725",1,2,0,2,0
"260035","img/object_images/board01.jpg","1","s","0.907139299990376",1,2,0,2,0
"260035","img/object_images/retainer01.jpg","0","k","1.06440860001021",1,2,0,2,0
"260035","img/object_images/hat13.jpg","1","k","2.03126339998562",1,2,0,2,0
"260035","img/object_images/slinky_toy01.jpg","1","k","0.917155400005868",1,2,0,2,0
"260035","img/object_images/helmet01.jpg","1","s","0.978923499991652",1,2,0,2,0
"260035","img/object_images/gift_box02.jpg","0","s","0.932013299985556",1,2,0,2,0
"260035","img/object_images/ear_bud01.jpg","0","k","1.19127789998311",1,2,0,2,0
"260035","img/object_images/mail_box02.jpg","1","k","1.86926499998663",1,2,0,2,0
"260035","img/object_images/glasses03.jpg","0","s","1.38092890000553",1,2,0,2,0
"260035","img/object_images/toothbrush01.jpg","0","k","0.968226099997992",1,2,0,2,0
"260035","img/object_images/gauze01.jpg","0","s","0.70410780000384",1,2,0,2,0
"260035","img/object_images/tripod01.jpg","0","k","1.2749777000281",1,2,0,2,0
"260035","img/object_images/microscope01.jpg","0","k","1.07777730000089",1,2,0,2,0
"260035","img/object_images/curtain02.jpg","1","s","0.649628400016809",1,2,0,2,0
"260035","img/object_images/boat_toy10.jpg","0","s","1.36675150002702",1,2,0,2,0
"260035","img/object_images/hole_puncher01.jpg","0","s","1.08620510000037",1,2,0,2,0
"260035","img/object_images/TreeSlice01.jpg","1","s","1.2764865999925",1,2,0,2,0
"260035","img/object_images/tie02.jpg","1","k","1.31708829998388",1,2,0,2,0
"260035","img/object_images/WitchHat02.jpg","1","s","0.76834880001843",1,2,0,2,0
"260035","img/object_images/ice_tray03.jpg","1","k","1.82512179997866",1,2,0,2,0
"260035","img/object_images/pitcher01.jpg","1","s","0.702866700012237",1,2,0,2,0
"260035","img/object_images/dice01.jpg","1","s","0.736839100020006",1,2,0,2,0
"260035","img/object_images/knit01.jpg","0","k","1.2714760999952",1,2,0,2,0
"260035","img/object_images/bucket02.jpg","0","k","0.916199300001608",1,3,0,2,0
"260035","img/object_images/clock02.jpg","0","k","0.751706000010017",1,3,0,2,0
"260035","img/object_images/lock03.jpg","1","s","1.2538540000096",1,3,0,2,0
"260035","img/object_images/trumpet01.jpg","1","s","0.864576099993428",1,3,0,2,0
"260035","img/object_images/sink_filter01 (1).jpg","1","s","0.706382299977122",1,3,0,2,0
"260035","img/object_images/computer_mouse01.jpg","1","s","1.11752610001713",1,3,0,2,0
"260035","img/object_images/Violin01.jpg","1","s","0.774927799997386",1,3,0,2,0
"260035","img/object_images/kite01.jpg","1","k","0.85189530000207",1,3,0,2,0
"260035","img/object_images/toy_train02.jpg","1","s","1.06458710000152",1,3,0,2,0
"260035","img/object_images/backpack03.jpg","1","k","1.17857759998878",1,3,0,2,0
"260035","img/object_images/bottle12.jpg","0","s","0.942244099976961",1,3,0,2,0
"260035","img/object_images/floppy_disk02.jpg","0","k","0.930691699992167",1,3,0,2,0
"260035","img/object_images/tool08.jpg","1","s","0.786091100017074",1,3,0,2,0
"260035","img/object_images/yarn02.jpg","1","s","1.26812500000233",1,3,0,2,0
"260035","img/object_images/bookmark01.jpg","0","k","0.784943999984534",1,3,0,2,0
"260035","img/object_images/origami01.jpg","0","k","1.06457190000219",1,3,0,2,0
"260035","img/object_images/bag04.jpg","1","k","1.03554449998774",1,3,0,2,0
"260035","img/object_images/blender01.jpg","0","k","1.01181900000665",1,3,0,2,0
"260035","img/object_images/book01.jpg","1","s","1.1668600999983",1,3,0,2,0
"260035","img/object_images/toy01.jpg","0","k","0.724939599982463",1,3,0,2,0
"260035","img/object_images/sleeping_bag01.jpg","1","s","1.21331069999724",1,3,0,2,0
"260035","img/object_images/candle02.jpg","0","k","0.944795200019144",1,3,0,2,0
"260035","img/object_images/toy08.jpg","1","k","0.872202200000174",1,3,0,2,0
"260035","img/object_images/tool02.jpg","1","k","0.953179300006013",1,3,0,2,0
"260035","img/object_images/MeasuringCup01.jpg","1","k","1.03383139998186",1,3,0,2,0
"260035","img/object_images/basket02.jpg","0","s","1.30082340000081",1,3,0,2,0
"260035","img/object_images/audio_port01.jpg","1","k","0.937608400010504",1,3,0,2,0
"260035","img/object_images/Candle_Holder01.jpg","1","s","1.99731900001643",1,3,0,2,0
"260035","img/object_images/fan04.jpg","0","s","1.89359990000958",1,3,0,2,0
"260035","img/object_images/book02.jpg","1","s","1.25058870000066",1,3,0,2,0
"260035","img/object_images/TrashCan02.jpg","0","k","1.65125000002445",1,3,0,2,0
"260035","img/object_images/spatula02.jpg","0","s","1.96636239998043",1,3,0,2,0
"260035","img/object_images/dog_leash01.jpg","1","s","0.776126000011573",1,3,0,2,0
"260035","img/object_images/stereo02.jpg","1","k","1.82417810001061",1,3,0,2,0
"260035","img/object_images/video_game06.jpg","1","s","3.0431477999955",1,3,0,2,0
"260035","img/object_images/bottle02.jpg","1","k","1.69111060001887",1,3,0,2,0
"260035","img/object_images/combs01.jpg","0","s","1.42134640002041",1,3,0,2,0
"260035","img/object_images/hoverboard01.jpg","1","k","1.93870329999481",1,3,0,2,0
"260035","img/object_images/Ring02.jpg","1","s","1.43689840001753",1,3,0,2,0
"260035","img/object_images/water_gun01.jpg","1","s","2.28113389998907",1,3,0,2,0
"260035","img/object_images/Tin01.jpg","0","s","1.67706270000781",1,3,0,2,0
"260035","img/object_images/toy03.jpg","1","k","1.69306160000269",1,3,0,2,0
"260035","img/object_images/jewelry01.jpg","0","s","0.754311099997722",1,3,0,2,0
"260035","img/object_images/gloves05.jpg","1","k","1.08331009998801",1,3,0,2,0
"260035","img/object_images/camera05.jpg","1","s","0.986477999977069",1,3,0,2,0
"260035","img/object_images/note_book01.jpg","1","s","1.07682550000027",1,3,0,2,0
"260035","img/object_images/exfoliater_brush01.jpg","1","s","0.659523499984061",1,3,0,2,0
"260035","img/object_images/shovel01.jpg","0","s","1.20689239999047",1,3,0,2,0
"260035","img/object_images/knit03.jpg","1","s","1.61243719997583",1,4,0,2,0
"260035","img/object_images/colander01.jpg","1","k","0.716374899988296",1,4,0,2,0
"260035","img/object_images/container01.jpg","0","s","0.95913100001053",1,4,0,2,0
"260035","img/object_images/motorcycle01.jpg","1","s","0.710484999988694",1,4,0,2,0
"260035","img/object_images/basket04.jpg","1","k","0.86659900000086",1,4,0,2,0
"260035","img/object_images/hammer01.jpg","0","s","0.659803299990017",1,4,0,2,0
"260035","img/object_images/Woopie01.jpg","1","k","0.675335500010988",1,4,0,2,0
"260035","img/object_images/Staples01.jpg","0","s","0.58124639999005",1,4,0,2,0
"260035","img/object_images/pitcher05.jpg","1","s","0.818499799992424",1,4,0,2,0
"260035","img/object_images/chair05.jpg","0","s","1.63190010000835",1,4,0,2,0
"260035","img/object_images/hat02.jpg","1","k","0.723174300015671",1,4,0,2,0
"260035","img/object_images/mirror01.jpg","0","k","1.12185850000242",1,4,0,2,0
"260035","img/object_images/chain01.jpg","1","s","1.75848489999771",1,4,0,2,0
"260035","img/object_images/Pottery01.jpg","0","s","1.28656799998134",1,4,0,2,0
"260035","img/object_images/video_game07.jpg","1","s","0.922862399980659",1,4,0,2,0
"260035","img/object_images/tool18.jpg","1","s","1.59396100000595",1,4,0,2,0
"260035","img/object_images/bean_bag02.jpg","1","s","0.921707200002857",1,4,0,2,0
"260035","img/object_images/golf_ball03.jpg","1","k","2.11795759998495",1,4,0,2,0
"260035","img/object_images/yo_yo01.jpg","1","k","1.35404149998794",1,4,0,2,0
"260035","img/object_images/jacket04.jpg","1","s","1.46043379997718",1,4,0,2,0
"260035","img/object_images/speaker01.jpg","0","k","2.23949090001406",1,4,0,2,0
"260035","img/object_images/ball01.jpg","1","k","0.925142700027209",1,4,0,2,0
"260035","img/object_images/joystick03.jpg","1","s","1.2595927999937",1,4,0,2,0
"260035","img/object_images/usb03.jpg","1","s","0.795110600010958",1,4,0,2,0
"260035","img/object_images/cards01.jpg","0","s","0.86006260002614",1,4,0,2,0
"260035","img/object_images/couch03.jpg","1","s","0.881456200004322",1,4,0,2,0
"260035","img/object_images/brief_case01.jpg","1","s","0.985177800001111",1,4,0,2,0
"260035","img/object_images/jewel02.jpg","0","s","1.13401579999481",1,4,0,2,0
"260035","img/object_images/egg_slicer01.jpg","1","k","0.782998599985149",1,4,0,2,0
"260035","img/object_images/Wisk01.jpg","1","k","1.17144799997914",1,4,0,2,0
"260035","img/object_images/bicycle_lock01.jpg","1","s","0.749616799992509",1,4,0,2,0
"260035","img/object_images/judge_gavel01.jpg","1","s","1.83180240000365",1,4,0,2,0
"260035","img/object_images/Trowel01.jpg","0","s","1.40800049999962",1,4,0,2,0
"260035","img/object_images/chair02.jpg","0","k","0.868906100018648",1,4,0,2,0
"260035","img/object_images/bow01.jpg","1","s","0.635808499995619",1,4,0,2,0
"260035","img/object_images/bottle09.jpg","1","s","1.53518669999903",1,4,0,2,0
"260035","img/object_images/flask01.jpg","1","k","0.979557599988766",1,4,0,2,0
"260035","img/object_images/hair_brush05.jpg","1","s","1.13662529998692",1,4,0,2,0
"260035","img/object_images/handcuffs01.jpg","1","s","1.17484269998386",1,4,0,2,0
"260035","img/object_images/water_scooter01.jpg","1","s","2.44703040001332",1,4,0,2,0
"260035","img/object_images/Statue01.jpg","0","k","1.0282819000131",1,4,0,2,0
"260035","img/object_images/chess_piece02.jpg","1","s","0.800991299998714",1,4,0,2,0
"260035","img/object_images/lamp01.jpg","0","s","1.07926310002222",1,4,0,2,0
"260035","img/object_images/bag_pipes01.jpg","0","s","1.78452530002687",1,4,0,2,0
"260035","img/object_images/lighter01.jpg","1","k","1.12203710002359",1,4,0,2,0
"260035","img/object_images/bottle01.jpg","0","s","0.498205100011546",1,4,0,2,0
"260035","img/object_images/guitar01.jpg","1","k","0.244946599996183",1,4,0,2,0
"260035","img/object_images/piggy_bank01.jpg","1","s","0.204433899983997",1,4,0,2,0
"260035","img/object_images/helmet03.jpg","1","s","0.992333700007293",1,5,0,2,0
"260035","img/object_images/pitcher09.jpg","0","k","0.353098499996122",1,5,0,2,0
"260035","img/object_images/grater01.jpg","0","k","0.402730900008464",1,5,0,2,0
"260035","img/object_images/toy04.jpg","0","s","0.604443799995352",1,5,0,2,0
"260035","img/object_images/lawn_mower01.jpg","0","k","1.40750719999778",1,5,0,2,0
"260035","img/object_images/lock01.jpg","0","s","2.85379950000788",1,5,0,2,0
"260035","img/object_images/clip03.jpg","1","k","0.865366999991238",1,5,0,2,0
"260035","img/object_images/camera07.jpg","1","k","0.903771500015864",1,5,0,2,0
"260035","img/object_images/shoes08.jpg","0","k","0.669007099990267",1,5,0,2,0
"260035","img/object_images/office_supplies01.jpg","1","k","0.62746019999031",1,5,0,2,0
"260035","img/object_images/car04.jpg","1","s","0.884890499990433",1,5,0,2,0
"260035","img/object_images/headset02.jpg","0","k","0.481489600002533",1,5,0,2,0
"260035","img/object_images/Vacuum01.jpg","1","k","0.635831699997652",1,5,0,2,0
"260035","img/object_images/fan05.jpg","1","s","0.777960900013568",1,5,0,2,0
"260035","img/object_images/faucet01.jpg","1","s","0.752982699981658",1,5,0,2,0
"260035","img/object_images/bell03.jpg","1","k","0.605132099997718",1,5,0,2,0
"260035","img/object_images/binoculars03.jpg","1","k","1.24404349998804",1,5,0,2,0
"260035","img/object_images/laptop01.jpg","0","s","0.788759500021115",1,5,0,2,0
"260035","img/object_images/paint_brush04.jpg","1","k","0.431241699989187",1,5,0,2,0
"260035","img/object_images/vga_port 01.jpg","1","s","0.0517301000072621",0,5,0,2,0
"260035","img/object_images/jewel01.jpg","1","k","0.0511379000090528",0,5,0,2,0
"260035","img/object_images/dresser03.jpg","1","k","0.185540000005858",0,5,0,2,0
"260035","img/object_images/pitcher03.jpg","0","k","0.028448600001866",0,5,0,2,0
"260035","img/object_images/socks01.jpg","1","k","0.45644199999515",1,5,0,2,0
"260035","img/object_images/bag06.jpg","0","s","0.259903300000587",1,5,0,2,0
"260035","img/object_images/coloring_pencil01.jpg","0","s","0.131039200001396",0,5,0,2,0
"260035","img/object_images/hammer02.jpg","0","k","0.223471600009361",1,5,0,2,0
"260035","img/object_images/Kitchen_Towel.jpg","1","s","0.014053100021556",0,5,0,2,0
"260035","img/object_images/tie01.jpg","0","k","0.199976000003517",0,5,0,2,0
"260035","img/object_images/watch01.jpg","1","k","0.782371500012232",1,5,0,2,0
"260035","img/object_images/helmet05.jpg","1","s","1.00249369998346",1,5,0,2,0
"260035","img/object_images/coloring_pencil02.jpg","1","k","0.248668500018539",1,5,0,2,0
"260035","img/object_images/balloon01.jpg","0","k","0.124541700002737",0,5,0,2,0
"260035","img/object_images/jewelry09.jpg","1","s","0.955633000005037",1,5,0,2,0
"260035","img/object_images/couch04.jpg","1","k","1.67232939999667",1,5,0,2,0
"260035","img/object_images/shoes10.jpg","1","s","0.7727171999868",1,5,0,2,0
"260035","img/object_images/badminton01.jpg","0","k","0.481288400013",1,5,0,2,0
"260035","img/object_images/razor02.jpg","1","s","0.630620599986287",1,5,0,2,0
"260035","img/object_images/tennis_racket01.jpg","1","s","0.242822800006252",1,5,0,2,0
"260035","img/object_images/lock04.jpg","0","k","0.25154910000856",1,5,0,2,0
"260035","img/object_images/lid01.jpg","0","s","0.637568300007842",1,5,0,2,0
"260035","img/object_images/phone02.jpg","0","s","0.348046300001442",1,5,0,2,0
"260035","img/object_images/socks02.jpg","1","k","0.379833799990593",1,5,0,2,0
"260035","img/object_images/sign02.jpg","0","s","0.267796600004658",1,5,0,2,0
"260035","img/object_images/video_game01.jpg","1","s","0.253515599993989",1,5,0,2,0
"260035","img/object_images/tool13.jpg","1","s","0.296138300007442",1,5,0,2,0
"260035","img/object_images/bow_tie02.jpg","1","s","0.793463700014399",1,5,0,2,0
"260035","img/object_images/bottle10.jpg","0","s","0.595094099990092",1,5,0,2,0
"260035","img/object_images/hair_dryer01.jpg","0","k","0.681496900011552",1,6,0,2,0
"260035","img/object_images/blender02.jpg","0","s","0.317320200003451",1,6,0,2,0
"260035","img/object_images/ribbon01.jpg","0","k","0.0213151999923866",0,6,0,2,0
"260035","img/object_images/shower_head03.jpg","1","k","0.13816040000529",0,6,0,2,0
"260035","img/object_images/Eyeliner01.jpg","1","k","0.2423430000199",1,6,0,2,0
"260035","img/object_images/funnel01.jpg","1","k","0.137391100026434",0,6,0,2,0
"260035","img/object_images/belt01.jpg","0","s","0.17957170002046",0,6,0,2,0
"260035","img/object_images/chair04.jpg","1","k","0.197132900008",0,6,0,2,0
"260035","img/object_images/tool06.jpg","0","k","0.17612960000406",0,6,0,2,0
"260035","img/object_images/camera_lens01.jpg","1","s","0.0845319000072777",0,6,0,2,0
"260035","img/object_images/keyboard02.jpg","0","s","0.0411054999858607",0,6,0,2,0
"260035","img/object_images/cutting_board01.jpg","0","s","0.0789576999959536",0,6,0,2,0
"260035","img/object_images/jewel03.jpg","0","s","0.581043400015915",1,6,0,2,0
"260035","img/object_images/usb02.jpg","1","k","0.0575747000111733",0,6,0,2,0
"260035","img/object_images/glasses07.jpg","0","k","0.00421350001124665",0,6,0,2,0
"260035","img/object_images/tray01.jpg","1","k","0.22825919999741",1,6,0,2,0
"260035","img/object_images/gift_box05.jpg","0","s","0.243801000004169",1,6,0,2,0
"260035","img/object_images/Sprayer01.jpg","0","k","0.171051600016654",0,6,0,2,0
"260035","img/object_images/shoes12.jpg","0","k","0.127421399985906",0,6,0,2,0
"260035","img/object_images/hair_brush01.jpg","1","k","0.00248450000071898",0,6,0,2,0
"260035","img/object_images/ironing_table02.jpg","1","k","0.36391640000511",1,6,0,2,0
"260035","img/object_images/rock02.jpg","1","k","0.286527899996145",1,6,0,2,0
"260035","img/object_images/tool19.jpg","1","k","1.66766169999028",1,6,0,2,0
"260035","img/object_images/bucket01.jpg","0","s","0.861418500018772",1,6,0,2,0
"260035","img/object_images/trash_can03.jpg","1","k","2.34278880001511",1,6,0,2,0
"260035","img/object_images/perfume01.jpg","1","k","4.20275830000173",1,6,0,2,0
"260035","img/object_images/remote_controller01.jpg","1","k","0.871205999981612",1,6,0,2,0
"260035","img/object_images/soap03.jpg","1","s","0.269425500009675",1,6,0,2,0
"260035","img/object_images/fridge03.jpg","0","s","0.0756246999953873",0,6,0,2,0
"260035","img/object_images/toaster02.jpg","1","s","0.010021299996879",0,6,0,2,0
"260035","img/object_images/pitcher07.jpg","0","k","0.233372600021539",1,6,0,2,0
"260035","img/object_images/shoes07.jpg","1","s","0.310686200013151",1,6,0,2,0
"260035","img/object_images/jewelry07.jpg","1","s","0.252738500013947",1,6,0,2,0
"260035","img/object_images/piano03.jpg","1","k","0.222161299985601",1,6,0,2,0
"260035","img/object_images/drone02.jpg","1","k","0.300562099990202",1,6,0,2,0
"260035","img/object_images/hand_grip_exerciser01.jpg","0","k","0.0601854000124149",0,6,0,2,0
"260035","img/object_images/purse01.jpg","0","s","0.256035700003849",1,6,0,2,0
"260035","img/object_images/umbrella01.jpg","1","k","0.250851399992825",1,6,0,2,0
"260035","img/object_images/paper_cup02.jpg","0","s","0.682957000011811",1,6,0,2,0
"260035","img/object_images/scale02.jpg","1","k","1.2988822000043",1,6,0,2,0
"260035","img/object_images/car02.jpg","1","k","1.61289140000008",1,6,0,2,0
"260035","img/object_images/spray_can01.jpg","1","k","0.864897499996005",1,6,0,2,0
"260035","img/object_images/paper_cup01.jpg","0","s","1.7134857000201",1,6,0,2,0
"260035","img/object_images/toy05.jpg","0","s","1.80494880001061",1,6,0,2,0
"260035","img/object_images/cup03.jpg","1","s","2.56608889999916",1,6,0,2,0
"260035","img/object_images/hot_air_balloon02.jpg","1","s","1.19007059998694",1,6,0,2,0
"260035","img/object_images/computer_mouse02.jpg","1","k","2.10266890001367",1,6,0,2,0
"260035","img/object_images/fork02.jpg","1","s","1.85770580000826",1,6,0,2,0
"260035","img/object_images/outlet01.jpg","0","s","1.48424790002173",1,7,0,2,0
"260035","img/object_images/yoga_mat01.jpg","1","s","1.40681029998814",1,7,0,2,0
"260035","img/object_images/rock03.jpg","1","s","0.694878400012385",1,7,0,2,0
"260035","img/object_images/gloves02.jpg","1","k","1.44634039999801",1,7,0,2,0
"260035","img/object_images/Stool01.jpg","1","s","2.02558270000736",1,7,0,2,0
"260035","img/object_images/basketball_hoop02.jpg","1","s","1.07663930000854",1,7,0,2,0
"260035","img/object_images/box03.jpg","1","s","1.19229409997934",1,7,0,2,0
"260035","img/object_images/razor03.jpg","1","s","0.590172100026393",1,7,0,2,0
"260035","img/object_images/towels01.jpg","1","k","1.4919799999916",1,7,0,2,0
"260035","img/object_images/decorative02.jpg","1","s","1.49836030000006",1,7,0,2,0
"260035","img/object_images/chair03.jpg","1","k","1.28506399999605",1,7,0,2,0
"260035","img/object_images/ring03.jpg","1","s","2.43325639999239",1,7,0,2,0
"260035","img/object_images/compass01.jpg","1","s","1.51987550000194",1,7,0,2,0
"260035","img/object_images/glasses06.jpg","1","k","1.71378009999171",1,7,0,2,0
"260035","img/object_images/car01.jpg","1","s","0.692775100003928",1,7,0,2,0
"260035","img/object_images/bell02.jpg","1","s","0.564571199996863",1,7,0,2,0
"260035","img/object_images/hat09.jpg","1","s","1.1009254999808",1,7,0,2,0
"260035","img/object_images/boat02.jpg","1","s","0.911697300005471",1,7,0,2,0
"260035","img/object_images/jacket03.jpg","1","k","0.752790500002448",1,7,0,2,0
"260035","img/object_images/remover01.jpg","1","k","0.578015300008701",1,7,0,2,0
"260035","img/object_images/wire02.jpg","1","s","0.528623599995626",1,7,0,2,0
"260035","img/object_images/pen06.jpg","0","s","0.639876900007948",1,7,0,2,0
"260035","img/object_images/tv02.jpg","0","s","0.93121430001338",1,7,0,2,0
"260035","img/object_images/hair_clips01.jpg","1","k","0.534564400004456",1,7,0,2,0
"260035","img/object_images/measuring_tape02.jpg","0","s","1.01269519998459",1,7,0,2,0
"260035","img/object_images/car03.jpg","0","k","0.635863499977859",1,7,0,2,0
"260035","img/object_images/fork03.jpg","1","s","0.853368400014006",1,7,0,2,0
"260035","img/object_images/cup01.jpg","1","s","0.729315799981123",1,7,0,2,0
"260035","img/object_images/screwdriver01.jpg","0","k","0.66846169999917",1,7,0,2,0
"260035","img/object_images/stove01.jpg","0","s","0.769994800008135",1,7,0,2,0
"260035","img/object_images/Oven01.jpg","1","s","1.01403369999025",1,7,0,2,0
"260035","img/object_images/duster01.jpg","0","s","0.849503400007961",1,7,0,2,0
"260035","img/object_images/cochlear_implant01.jpg","1","s","1.10336889998871",1,7,0,2,0
"260035","img/object_images/camera03.jpg","0","s","0.934121400001459",1,7,0,2,0
"260035","img/object_images/stapler.jpg","1","s","2.10616349999327",1,7,0,2,0
"260035","img/object_images/towel02.jpg","1","s","1.87557130001369",1,7,0,2,0
"260035","img/object_images/bottle06.jpg","1","k","1.09983710001688",1,7,0,2,0
"260035","img/object_images/tennis_racket02.jpg","1","k","0.82454339999822",1,7,0,2,0
"260035","img/object_images/clipboard01.jpg","1","k","1.53943689999869",1,7,0,2,0
"260035","img/object_images/mail_box01.jpg","0","k","1.05543039998156",1,7,0,2,0
"260035","img/object_images/bicycle01.jpg","1","s","0.848186099989107",1,7,0,2,0
"260035","img/object_images/fan02.jpg","0","s","0.67959700000938",1,7,0,2,0
"260035","img/object_images/floss02.jpg","1","s","1.1861998999957",1,7,0,2,0
"260035","img/object_images/handkerchief01.jpg","0","s","1.17022450000513",1,7,0,2,0
"260035","img/object_images/Confetti 01.jpg","1","k","1.09588460001396",1,7,0,2,0
"260035","img/object_images/chair06.jpg","1","s","0.614788700011559",1,7,0,2,0
"260035","img/object_images/video_game03.jpg","1","s","0.643820900004357",1,7,0,2,0
"260035","img/object_images/frame01.jpg","0","k","0.98888160000206",1,7,0,2,0
"260035","img/object_images/Safe01.jpg","1","s","1.96921449998626",1,8,0,2,0
"260035","img/object_images/pan03.jpg","0","s","1.04734880002798",1,8,0,2,0
"260035","img/object_images/knit04.jpg","0","k","0.62636249998468",1,8,0,2,0
"260035","img/object_images/drone01.jpg","1","k","0.639263699995354",1,8,0,2,0
"260035","img/object_images/dart01.jpg","1","k","0.67130129999714",1,8,0,2,0
"260035","img/object_images/gift_box01.jpg","1","k","0.815756099997088",1,8,0,2,0
"260035","img/object_images/Shoes05.jpg","0","s","0.939468500000658",1,8,0,2,0
"260035","img/object_images/laptop03.jpg","0","k","0.626688999996986",1,8,0,2,0
"260035","img/object_images/lantern01.jpg","0","k","1.19848069999716",1,8,0,2,0
"260035","img/object_images/floss01.jpg","1","k","0.925950000004377",1,8,0,2,0
"260035","img/object_images/helmet02.jpg","1","s","0.920060800010106",1,8,0,2,0
"260035","img/object_images/sponge03.jpg","0","s","1.010850199993",1,8,0,2,0
"260035","img/object_images/scoreboard01.jpg","0","s","1.93764079999528",1,8,0,2,0
"260035","img/object_images/toilet_paper_dispenser01.jpg","1","s","1.3238109999802",1,8,0,2,0
"260035","img/object_images/pillows01.jpg","1","s","0.969539299985627",1,8,0,2,0
"260035","img/object_images/gift_box03.jpg","1","s","0.914057600020897",1,8,0,2,0
"260035","img/object_images/pot01 (1).jpg","0","s","1.00328750000335",1,8,0,2,0
"260035","img/object_images/Recycling01.jpg","0","s","0.930007299990393",1,8,0,2,0
"260035","img/object_images/Screws01.jpg","0","s","1.31561979997787",1,8,0,2,0
"260035","img/object_images/belt03.jpg","0","k","1.09613310001441",1,8,0,2,0
"260035","img/object_images/satellite01.jpg","0","s","0.7401714999869",1,8,0,2,0
"260035","img/object_images/bottle07.jpg","0","k","0.814742500020657",1,8,0,2,0
"260035","img/object_images/skate_board01.jpg","1","s","0.768848699983209",1,8,0,2,0
"260035","img/object_images/blanket01.jpg","1","s","0.762892700004159",1,8,0,2,0
"260035","img/object_images/floppy_disk03.jpg","0","k","0.745896600012202",1,8,0,2,0
"260035","img/object_images/shovel03.jpg","0","s","1.13528590000351",1,8,0,2,0
"260035","img/object_images/couch01.jpg","1","k","1.41533849999541",1,8,0,2,0
"260035","img/object_images/calculator01.jpg","1","k","0.995032800012268",1,8,0,2,0
"260035","img/object_images/chess_piece01.jpg","0","s","0.794668699993053",1,8,0,2,0
"260035","img/object_images/wagon_cart03.jpg","0","s","0.555911000003107",1,8,0,2,0
"260035","img/object_images/dust_pan01.jpg","1","k","0.639958800020395",1,8,0,2,0
"260035","img/object_images/gift_box04.jpg","1","k","1.00524430000223",1,8,0,2,0
"260035","img/object_images/chair01.jpg","0","k","0.95675349998055",1,8,0,2,0
"260035","img/object_images/helmet04.jpg","0","s","0.879186000005575",1,8,0,2,0
"260035","img/object_images/nut_cracker01.jpg","1","k","0.792822899995372",1,8,0,2,0
"260035","img/object_images/tool09.jpg","1","k","0.951351700001396",1,8,0,2,0
"260035","img/object_images/cellphone01.jpg","1","k","1.03924119999283",1,8,0,2,0
"260035","img/object_images/fire_extinguisher01.jpg","0","s","0.861388399993302",1,8,0,2,0
"260035","img/object_images/tool20.jpg","0","k","0.910352500010049",1,8,0,2,0
"260035","img/object_images/ladle02.jpg","1","k","0.884692200022982",1,8,0,2,0
"260035","img/object_images/phone04.jpg","1","k","0.664041300013196",1,8,0,2,0
"260035","img/object_images/egg_basket01.jpg","1","s","0.573125499999151",1,8,0,2,0
"260035","img/object_images/frisbee01.jpg","0","s","0.752639499987708",1,8,0,2,0
"260035","img/object_images/dresser04.jpg","0","s","1.01195340001141",1,8,0,2,0
"260035","img/object_images/airfryer02.jpg","1","k","0.772521799983224",1,8,0,2,0
"260035","img/object_images/cellphone02.jpg","0","k","1.33962789998623",1,8,0,2,0
"260035","img/object_images/hat06.jpg","0","s","0.84438239998417",1,8,0,2,0
"260035","img/object_images/toilet_paper01.jpg","1","s","0.981806099996902",1,8,0,2,0
