"participant_id","current_trial_face","pre_trial_face","post_trial_face","current_trial_accuracy","pre_trial_accuracy","post_trial_accuracy","current_trial_congruency","pre_trial_congruency","post_trial_congruency","current_trial_rt","pre_trial_rt","post_trial_rt","current_trial_responded","pre_trial_responded","post_trial_responded","current_trial_legitResponse","pre_trial_legitResponse","post_trial_legitResponse","current_trial_resp_nums","pre_trial_resp_nums","post_trial_resp_nums"
"250043","img/neutralC/CFD-IM-707-105-N.jpg",NA,"img/neutralC/CFD-BF-011-002-N.jpg","1",NA,"1","1",NA,"1","0.590038200141862",NA,"0.408969800220802","1",NA,"1","1",NA,"1","1",NA,"1"
"250043","img/neutralC/CFD-BF-011-002-N.jpg","img/neutralC/CFD-IM-707-105-N.jpg","img/neutralC/CFD-BF-044-034-N.jpg","1","1","1","1","1","0","0.408969800220802","0.590038200141862","0.48604470002465","1","1","1","1","1","1","1","1","1"
"250043","img/neutralC/CFD-BF-044-034-N.jpg","img/neutralC/CFD-BF-011-002-N.jpg","img/neutralC/CFD-WM-248-036-N.jpg","1","1","1","0","1","1","0.48604470002465","0.408969800220802","0.368575100088492","1","1","1","1","1","1","1","1","1"
"250043","img/neutralC/CFD-WM-248-036-N.jpg","img/neutralC/CFD-BF-044-034-N.jpg","img/neutralC/CFD-BF-027-002-N.jpg","1","1","1","1","0","1","0.368575100088492","0.48604470002465","0.376389800105244","1","1","1","1","1","1","1","1","1"
"250043","img/neutralC/CFD-BF-027-002-N.jpg","img/neutralC/CFD-WM-248-036-N.jpg","img/neutralC/CFD-BM-036-003-N.jpg","1","1","1","1","1","1","0.376389800105244","0.368575100088492","0.393834500107914","1","1","1","1","1","1","1","1","1"
"250043","img/neutralC/CFD-BM-036-003-N.jpg","img/neutralC/CFD-BF-027-002-N.jpg","img/neutralC/CFD-BF-006-017-N.jpg","1","1","1","1","1","0","0.393834500107914","0.376389800105244","0.459217200288549","1","1","1","1","1","1","1","1","1"
"250043","img/neutralC/CFD-BF-006-017-N.jpg","img/neutralC/CFD-BM-036-003-N.jpg","img/neutralC/CFD-LF-204-133-N.jpg","1","1","1","0","1","1","0.459217200288549","0.393834500107914","0.421068400144577","1","1","1","1","1","1","1","1","1"
"250043","img/neutralC/CFD-LF-204-133-N.jpg","img/neutralC/CFD-BF-006-017-N.jpg","img/neutralC/CFD-LM-213-061-N.jpg","1","1","1","1","0","0","0.421068400144577","0.459217200288549","0.39065539999865","1","1","1","1","1","1","1","1","1"
"250043","img/neutralC/CFD-LM-213-061-N.jpg","img/neutralC/CFD-LF-204-133-N.jpg","img/neutralC/CFD-BF-036-027-N.jpg","1","1","1","0","1","0","0.39065539999865","0.421068400144577","0.469865499995649","1","1","1","1","1","1","1","1","1"
"250043","img/neutralC/CFD-BF-036-027-N.jpg","img/neutralC/CFD-LM-213-061-N.jpg","img/neutralC/CFD-AM-230-150-N.jpg","1","1","1","0","0","0","0.469865499995649","0.39065539999865","0.519180700182915","1","1","1","1","1","1","1","1","1"
"250043","img/neutralC/CFD-AM-230-150-N.jpg","img/neutralC/CFD-BF-036-027-N.jpg","img/neutralC/CFD-WF-234-086-N.jpg","1","1","1","0","0","1","0.519180700182915","0.469865499995649","0.409969200147316","1","1","1","1","1","1","1","1","1"
"250043","img/neutralC/CFD-WF-234-086-N.jpg","img/neutralC/CFD-AM-230-150-N.jpg","img/neutralC/CFD-IF-742-103-N.jpg","1","1","1","1","0","1","0.409969200147316","0.519180700182915","0.410778800025582","1","1","1","1","1","1","1","1","1"
"250043","img/neutralC/CFD-IF-742-103-N.jpg","img/neutralC/CFD-WF-234-086-N.jpg","img/neutralC/CFD-IM-721-341-N.jpg","1","1","1","1","1","1","0.410778800025582","0.409969200147316","0.415466000093147","1","1","1","1","1","1","1","1","1"
"250043","img/neutralC/CFD-IM-721-341-N.jpg","img/neutralC/CFD-IF-742-103-N.jpg","img/neutralC/CFD-WM-014-002-N.jpg","1","1","0","1","1","0","0.415466000093147","0.410778800025582","0.399349100189283","1","1","1","1","1","1","1","1","2"
"250043","img/neutralC/CFD-WM-014-002-N.jpg","img/neutralC/CFD-IM-721-341-N.jpg","img/neutralC/CFD-IF-729-393-N.jpg","0","1","1","0","1","0","0.399349100189283","0.415466000093147","0.49329030001536","1","1","1","1","1","1","2","1","1"
"250043","img/neutralC/CFD-IF-729-393-N.jpg","img/neutralC/CFD-WM-014-002-N.jpg","img/neutralC/CFD-BF-207-004-N.jpg","1","0","1","0","0","1","0.49329030001536","0.399349100189283","0.433186800219119","1","1","1","1","1","1","1","2","1"
"250043","img/neutralC/CFD-BF-207-004-N.jpg","img/neutralC/CFD-IF-729-393-N.jpg","img/neutralC/CFD-BF-247-179-N.jpg","1","1","1","1","0","0","0.433186800219119","0.49329030001536","0.48853400000371","1","1","1","1","1","1","1","1","1"
"250043","img/neutralC/CFD-BF-247-179-N.jpg","img/neutralC/CFD-BF-207-004-N.jpg","img/neutralC/CFD-MF-301-024-N.jpg","1","1","1","0","1","0","0.48853400000371","0.433186800219119","0.492818500148132","1","1","1","1","1","1","1","1","1"
"250043","img/neutralC/CFD-MF-301-024-N.jpg","img/neutralC/CFD-BF-247-179-N.jpg","img/neutralC/CFD-BM-207-024-N.jpg","1","1","1","0","0","1","0.492818500148132","0.48853400000371","0.40332920011133","1","1","1","1","1","1","1","1","1"
"250043","img/neutralC/CFD-BM-207-024-N.jpg","img/neutralC/CFD-MF-301-024-N.jpg","img/neutralC/CFD-WM-034-030-N.jpg","1","1","1","1","0","1","0.40332920011133","0.492818500148132","0.44819280016236","1","1","1","1","1","1","1","1","1"
"250043","img/neutralC/CFD-WM-034-030-N.jpg","img/neutralC/CFD-BM-207-024-N.jpg","img/neutralC/CFD-WF-233-112-N.jpg","1","1","1","1","1","1","0.44819280016236","0.40332920011133","0.408312000101432","1","1","1","1","1","1","1","1","1"
"250043","img/neutralC/CFD-WF-233-112-N.jpg","img/neutralC/CFD-WM-034-030-N.jpg","img/neutralC/CFD-BM-241-235-N.jpg","1","1","1","1","1","0","0.408312000101432","0.44819280016236","0.535582700045779","1","1","1","1","1","1","1","1","1"
"250043","img/neutralC/CFD-BM-241-235-N.jpg","img/neutralC/CFD-WF-233-112-N.jpg","img/neutralC/CFD-BM-238-242-N.jpg","1","1","1","0","1","0","0.535582700045779","0.408312000101432","0.453160400036722","1","1","1","1","1","1","1","1","1"
"250043","img/neutralC/CFD-BM-238-242-N.jpg","img/neutralC/CFD-BM-241-235-N.jpg","img/neutralC/CFD-BF-236-177-N.jpg","1","1","1","0","0","0","0.453160400036722","0.535582700045779","0.536606000037864","1","1","1","1","1","1","1","1","1"
"250043","img/neutralC/CFD-BF-236-177-N.jpg","img/neutralC/CFD-BM-238-242-N.jpg","img/neutralC/CFD-WF-208-068-N.jpg","1","1","1","0","0","1","0.536606000037864","0.453160400036722","0.526281000114977","1","1","1","1","1","1","1","1","1"
"250043","img/neutralC/CFD-WF-208-068-N.jpg","img/neutralC/CFD-BF-236-177-N.jpg","img/neutralC/CFD-WF-029-002-N.jpg","1","1","1","1","0","0","0.526281000114977","0.536606000037864","0.508104000007734","1","1","1","1","1","1","1","1","1"
"250043","img/neutralC/CFD-WF-029-002-N.jpg","img/neutralC/CFD-WF-208-068-N.jpg","img/neutralC/CFD-IM-696-001-N.jpg","1","1","1","0","1","0","0.508104000007734","0.526281000114977","0.387308400124311","1","1","1","1","1","1","1","1","1"
"250043","img/neutralC/CFD-IM-696-001-N.jpg","img/neutralC/CFD-WF-029-002-N.jpg","img/neutralC/CFD-IM-726-248-N.jpg","1","1","1","0","0","0","0.387308400124311","0.508104000007734","0.433834200259298","1","1","1","1","1","1","1","1","1"
"250043","img/neutralC/CFD-IM-726-248-N.jpg","img/neutralC/CFD-IM-696-001-N.jpg","img/neutralC/CFD-BF-214-308-N.jpg","1","1","1","0","0","1","0.433834200259298","0.387308400124311","0.482490200083703","1","1","1","1","1","1","1","1","1"
"250043","img/neutralC/CFD-BF-214-308-N.jpg","img/neutralC/CFD-IM-726-248-N.jpg","img/neutralC/CFD-IF-677-452-1-N.jpg","1","1","1","1","0","1","0.482490200083703","0.433834200259298","0.487790400162339","1","1","1","1","1","1","1","1","1"
"250043","img/neutralC/CFD-IF-677-452-1-N.jpg","img/neutralC/CFD-BF-214-308-N.jpg","img/neutralC/CFD-BF-002-001-N.jpg","1","1","1","1","1","0","0.487790400162339","0.482490200083703","0.497486100066453","1","1","1","1","1","1","1","1","1"
"250043","img/neutralC/CFD-BF-002-001-N.jpg","img/neutralC/CFD-IF-677-452-1-N.jpg",NA,"1","1",NA,"0","1",NA,"0.497486100066453","0.487790400162339",NA,"1","1",NA,"1","1",NA,"1","1",NA
"250043","img/neutralC/CFD-AM-219-101-N.jpg",NA,"img/neutralC/CFD-AM-249-163-N.jpg","0",NA,"1","0",NA,"1","0.624667400028557",NA,"0.392885200213641","1",NA,"1","1",NA,"1","1",NA,"1"
"250043","img/neutralC/CFD-AM-249-163-N.jpg","img/neutralC/CFD-AM-219-101-N.jpg","img/neutralC/CFD-WM-028-003-N.jpg","1","0","1","1","0","1","0.392885200213641","0.624667400028557","0.366479600314051","1","1","1","1","1","1","1","1","1"
"250043","img/neutralC/CFD-WM-028-003-N.jpg","img/neutralC/CFD-AM-249-163-N.jpg","img/neutralC/CFD-BF-244-231-N.jpg","1","1","1","1","1","1","0.366479600314051","0.392885200213641","0.355644800001755","1","1","1","1","1","1","1","1","1"
"250043","img/neutralC/CFD-BF-244-231-N.jpg","img/neutralC/CFD-WM-028-003-N.jpg","img/neutralC/CFD-AM-243-212-N.jpg","1","1","1","1","1","1","0.355644800001755","0.366479600314051","0.413574100239202","1","1","1","1","1","1","1","1","1"
"250043","img/neutralC/CFD-AM-243-212-N.jpg","img/neutralC/CFD-BF-244-231-N.jpg","img/neutralC/CFD-LF-222-147-N.jpg","1","1","0","1","1","0","0.413574100239202","0.355644800001755","0.349607500247657","1","1","1","1","1","1","1","1","2"
"250043","img/neutralC/CFD-LF-222-147-N.jpg","img/neutralC/CFD-AM-243-212-N.jpg","img/neutralC/CFD-IM-615-167-N.jpg","0","1","1","0","1","0","0.349607500247657","0.413574100239202","0.464135099900886","1","1","1","1","1","1","2","1","1"
"250043","img/neutralC/CFD-IM-615-167-N.jpg","img/neutralC/CFD-LF-222-147-N.jpg","img/neutralC/CFD-BF-012-001-N.jpg","1","0","1","0","0","0","0.464135099900886","0.349607500247657","0.523537199944258","1","1","1","1","1","1","1","2","1"
"250043","img/neutralC/CFD-BF-012-001-N.jpg","img/neutralC/CFD-IM-615-167-N.jpg","img/neutralC/CFD-LM-240-013-N.jpg","1","1","1","0","0","1","0.523537199944258","0.464135099900886","0.362468500155956","1","1","1","1","1","1","1","1","1"
"250043","img/neutralC/CFD-LM-240-013-N.jpg","img/neutralC/CFD-BF-012-001-N.jpg","img/neutralC/CFD-WF-243-148-N.jpg","1","1","1","1","0","0","0.362468500155956","0.523537199944258","0.50375850009732","1","1","1","1","1","1","1","1","1"
"250043","img/neutralC/CFD-WF-243-148-N.jpg","img/neutralC/CFD-LM-240-013-N.jpg","img/neutralC/CFD-BM-043-071-N.jpg","1","1","1","0","1","0","0.50375850009732","0.362468500155956","0.4828483001329","1","1","1","1","1","1","1","1","1"
"250043","img/neutralC/CFD-BM-043-071-N.jpg","img/neutralC/CFD-WF-243-148-N.jpg","img/neutralC/CFD-BM-009-002-N.jpg","1","1","1","0","0","1","0.4828483001329","0.50375850009732","0.592157599981874","1","1","1","1","1","1","1","1","1"
"250043","img/neutralC/CFD-BM-009-002-N.jpg","img/neutralC/CFD-BM-043-071-N.jpg","img/neutralC/CFD-AM-205-153-N.jpg","1","1","1","1","0","1","0.592157599981874","0.4828483001329","0.468091200105846","1","1","1","1","1","1","1","1","1"
"250043","img/neutralC/CFD-AM-205-153-N.jpg","img/neutralC/CFD-BM-009-002-N.jpg","img/neutralC/CFD-WM-025-002-N.jpg","1","1","1","1","1","0","0.468091200105846","0.592157599981874","0.450360900023952","1","1","1","1","1","1","1","1","1"
"250043","img/neutralC/CFD-WM-025-002-N.jpg","img/neutralC/CFD-AM-205-153-N.jpg","img/neutralC/CFD-LF-212-066-N.jpg","1","1","1","0","1","1","0.450360900023952","0.468091200105846","0.416168600087985","1","1","1","1","1","1","1","1","1"
"250043","img/neutralC/CFD-LF-212-066-N.jpg","img/neutralC/CFD-WM-025-002-N.jpg","img/neutralC/CFD-MM-306-010-N.jpg","1","1","1","1","0","0","0.416168600087985","0.450360900023952","0.4744557000231","1","1","1","1","1","1","1","1","1"
"250043","img/neutralC/CFD-MM-306-010-N.jpg","img/neutralC/CFD-LF-212-066-N.jpg","img/neutralC/CFD-BM-227-191-N.jpg","1","1","1","0","1","1","0.4744557000231","0.416168600087985","0.396172000095248","1","1","1","1","1","1","1","1","1"
"250043","img/neutralC/CFD-BM-227-191-N.jpg","img/neutralC/CFD-MM-306-010-N.jpg","img/neutralC/CFD-WF-241-210-N.jpg","1","1","1","1","0","0","0.396172000095248","0.4744557000231","0.441648100269958","1","1","1","1","1","1","1","1","1"
"250043","img/neutralC/CFD-WF-241-210-N.jpg","img/neutralC/CFD-BM-227-191-N.jpg","img/neutralC/CFD-IM-689-263-N.jpg","1","1","1","0","1","1","0.441648100269958","0.396172000095248","0.428393500158563","1","1","1","1","1","1","1","1","1"
"250043","img/neutralC/CFD-IM-689-263-N.jpg","img/neutralC/CFD-WF-241-210-N.jpg","img/neutralC/CFD-IF-676-017-N.jpg","1","1","1","1","0","1","0.428393500158563","0.441648100269958","0.404095000121742","1","1","1","1","1","1","1","1","1"
"250043","img/neutralC/CFD-IF-676-017-N.jpg","img/neutralC/CFD-IM-689-263-N.jpg","img/neutralC/CFD-LF-238-154-N.jpg","1","1","1","1","1","1","0.404095000121742","0.428393500158563","0.535787000088021","1","1","1","1","1","1","1","1","1"
"250043","img/neutralC/CFD-LF-238-154-N.jpg","img/neutralC/CFD-IF-676-017-N.jpg","img/neutralC/CFD-BM-021-021-N.jpg","1","1","1","1","1","1","0.535787000088021","0.404095000121742","0.439125600270927","1","1","1","1","1","1","1","1","1"
"250043","img/neutralC/CFD-BM-021-021-N.jpg","img/neutralC/CFD-LF-238-154-N.jpg","img/neutralC/CFD-WM-023-001-N.jpg","1","1","1","1","1","0","0.439125600270927","0.535787000088021","0.404540400020778","1","1","1","1","1","1","1","1","1"
"250043","img/neutralC/CFD-WM-023-001-N.jpg","img/neutralC/CFD-BM-021-021-N.jpg","img/neutralC/CFD-IM-606-008-N.jpg","1","1","0","0","1","0","0.404540400020778","0.439125600270927","0.371766400290653","1","1","1","1","1","1","1","1","2"
"250043","img/neutralC/CFD-IM-606-008-N.jpg","img/neutralC/CFD-WM-023-001-N.jpg","img/neutralC/CFD-WF-207-014-N.jpg","0","1","1","0","0","1","0.371766400290653","0.404540400020778","0.378310200059786","1","1","1","1","1","1","2","1","1"
"250043","img/neutralC/CFD-WF-207-014-N.jpg","img/neutralC/CFD-IM-606-008-N.jpg","img/neutralC/CFD-WF-221-005-N.jpg","1","0","1","1","0","0","0.378310200059786","0.371766400290653","0.504577400162816","1","1","1","1","1","1","1","2","1"
"250043","img/neutralC/CFD-WF-221-005-N.jpg","img/neutralC/CFD-WF-207-014-N.jpg","img/neutralC/CFD-MF-328-020-N.jpg","1","1","0","0","1","0","0.504577400162816","0.378310200059786","0.396642800187692","1","1","1","1","1","1","1","1","2"
"250043","img/neutralC/CFD-MF-328-020-N.jpg","img/neutralC/CFD-WF-221-005-N.jpg","img/neutralC/CFD-WF-009-001-N.jpg","0","1","1","0","0","1","0.396642800187692","0.504577400162816","0.413383800070733","1","1","1","1","1","1","2","1","1"
"250043","img/neutralC/CFD-WF-009-001-N.jpg","img/neutralC/CFD-MF-328-020-N.jpg","img/neutralC/CFD-IM-697-015-N.jpg","1","0","1","1","0","1","0.413383800070733","0.396642800187692","0.432352300034836","1","1","1","1","1","1","1","2","1"
"250043","img/neutralC/CFD-IM-697-015-N.jpg","img/neutralC/CFD-WF-009-001-N.jpg","img/neutralC/CFD-BM-020-001-N.jpg","1","1","0","1","1","0","0.432352300034836","0.413383800070733","0.424763000104576","1","1","1","1","1","1","1","1","2"
"250043","img/neutralC/CFD-BM-020-001-N.jpg","img/neutralC/CFD-IM-697-015-N.jpg","img/neutralC/CFD-AF-237-223-N.jpg","0","1","1","0","1","0","0.424763000104576","0.432352300034836","0.445079200202599","1","1","1","1","1","1","2","1","1"
"250043","img/neutralC/CFD-AF-237-223-N.jpg","img/neutralC/CFD-BM-020-001-N.jpg","img/neutralC/CFD-BM-030-003-N.jpg","1","0","1","0","0","0","0.445079200202599","0.424763000104576","0.414433999918401","1","1","1","1","1","1","1","2","1"
"250043","img/neutralC/CFD-BM-030-003-N.jpg","img/neutralC/CFD-AF-237-223-N.jpg",NA,"1","1",NA,"0","0",NA,"0.414433999918401","0.445079200202599",NA,"1","1",NA,"1","1",NA,"1","1",NA
"250043","img/neutralC/CFD-AM-212-050-N.jpg",NA,"img/neutralC/CFD-WF-250-167-N.jpg","1",NA,"1","1",NA,"1","0.477209100266919",NA,"0.419089000206441","1",NA,"1","1",NA,"1","1",NA,"1"
"250043","img/neutralC/CFD-WF-250-167-N.jpg","img/neutralC/CFD-AM-212-050-N.jpg","img/neutralC/CFD-IM-684-008-N.jpg","1","1","1","1","1","1","0.419089000206441","0.477209100266919","0.378113500308245","1","1","1","1","1","1","1","1","1"
"250043","img/neutralC/CFD-IM-684-008-N.jpg","img/neutralC/CFD-WF-250-167-N.jpg","img/neutralC/CFD-BM-239-136-N.jpg","1","1","1","1","1","1","0.378113500308245","0.419089000206441","0.389017200097442","1","1","1","1","1","1","1","1","1"
"250043","img/neutralC/CFD-BM-239-136-N.jpg","img/neutralC/CFD-IM-684-008-N.jpg","img/neutralC/CFD-WM-041-021-N.jpg","1","1","1","1","1","0","0.389017200097442","0.378113500308245","0.42909949994646","1","1","1","1","1","1","1","1","1"
"250043","img/neutralC/CFD-WM-041-021-N.jpg","img/neutralC/CFD-BM-239-136-N.jpg","img/neutralC/CFD-LM-215-247-N.jpg","1","1","1","0","1","0","0.42909949994646","0.389017200097442","0.482105700299144","1","1","1","1","1","1","1","1","1"
"250043","img/neutralC/CFD-LM-215-247-N.jpg","img/neutralC/CFD-WM-041-021-N.jpg","img/neutralC/CFD-BF-039-031-N.jpg","1","1","1","0","0","1","0.482105700299144","0.42909949994646","0.377602000255138","1","1","1","1","1","1","1","1","1"
"250043","img/neutralC/CFD-BF-039-031-N.jpg","img/neutralC/CFD-LM-215-247-N.jpg","img/neutralC/CFD-BF-029-031-N.jpg","1","1","1","1","0","1","0.377602000255138","0.482105700299144","0.450122500071302","1","1","1","1","1","1","1","1","1"
"250043","img/neutralC/CFD-BF-029-031-N.jpg","img/neutralC/CFD-BF-039-031-N.jpg","img/neutralC/CFD-WF-224-099-N.jpg","1","1","1","1","1","0","0.450122500071302","0.377602000255138","0.412761800223961","1","1","1","1","1","1","1","1","1"
"250043","img/neutralC/CFD-WF-224-099-N.jpg","img/neutralC/CFD-BF-029-031-N.jpg","img/neutralC/CFD-IF-634-382-N.jpg","1","1","1","0","1","1","0.412761800223961","0.450122500071302","0.419089900096878","1","1","1","1","1","1","1","1","1"
"250043","img/neutralC/CFD-IF-634-382-N.jpg","img/neutralC/CFD-WF-224-099-N.jpg","img/neutralC/CFD-AM-201-076-N.jpg","1","1","1","1","0","1","0.419089900096878","0.412761800223961","0.439248600043356","1","1","1","1","1","1","1","1","1"
"250043","img/neutralC/CFD-AM-201-076-N.jpg","img/neutralC/CFD-IF-634-382-N.jpg","img/neutralC/CFD-IF-710-016-N.jpg","1","1","1","1","1","0","0.439248600043356","0.419089900096878","0.499712000135332","1","1","1","1","1","1","1","1","1"
"250043","img/neutralC/CFD-IF-710-016-N.jpg","img/neutralC/CFD-AM-201-076-N.jpg","img/neutralC/CFD-WM-021-001-N.jpg","1","1","1","0","1","1","0.499712000135332","0.439248600043356","0.505083200056106","1","1","1","1","1","1","1","1","1"
"250043","img/neutralC/CFD-WM-021-001-N.jpg","img/neutralC/CFD-IF-710-016-N.jpg","img/neutralC/CFD-BF-205-141-N.jpg","1","1","0","1","0","0","0.505083200056106","0.499712000135332","0.430399400182068","1","1","1","1","1","1","1","1","2"
"250043","img/neutralC/CFD-BF-205-141-N.jpg","img/neutralC/CFD-WM-021-001-N.jpg","img/neutralC/CFD-MM-316-156-N.jpg","0","1","1","0","1","1","0.430399400182068","0.505083200056106","0.501490500289947","1","1","1","1","1","1","2","1","1"
"250043","img/neutralC/CFD-MM-316-156-N.jpg","img/neutralC/CFD-BF-205-141-N.jpg","img/neutralC/CFD-BM-033-003-N.jpg","1","0","1","1","0","0","0.501490500289947","0.430399400182068","0.479958400130272","1","1","1","1","1","1","1","2","1"
"250043","img/neutralC/CFD-BM-033-003-N.jpg","img/neutralC/CFD-MM-316-156-N.jpg","img/neutralC/CFD-AF-231-357-N.jpg","1","1","1","0","1","1","0.479958400130272","0.501490500289947","0.499921000096947","1","1","1","1","1","1","1","1","1"
"250043","img/neutralC/CFD-AF-231-357-N.jpg","img/neutralC/CFD-BM-033-003-N.jpg","img/neutralC/CFD-LM-218-183-N.jpg","1","1","1","1","0","1","0.499921000096947","0.479958400130272","0.503586300183088","1","1","1","1","1","1","1","1","1"
"250043","img/neutralC/CFD-LM-218-183-N.jpg","img/neutralC/CFD-AF-231-357-N.jpg","img/neutralC/CFD-LF-224-176-N.jpg","1","1","1","1","1","0","0.503586300183088","0.499921000096947","0.444284400204197","1","1","1","1","1","1","1","1","1"
"250043","img/neutralC/CFD-LF-224-176-N.jpg","img/neutralC/CFD-LM-218-183-N.jpg","img/neutralC/CFD-WM-011-002-N.jpg","1","1","1","0","1","0","0.444284400204197","0.503586300183088","0.407445800025016","1","1","1","1","1","1","1","1","1"
"250043","img/neutralC/CFD-WM-011-002-N.jpg","img/neutralC/CFD-LF-224-176-N.jpg","img/neutralC/CFD-LF-230-203-N.jpg","1","1","1","0","0","0","0.407445800025016","0.444284400204197","0.437162100104615","1","1","1","1","1","1","1","1","1"
"250043","img/neutralC/CFD-LF-230-203-N.jpg","img/neutralC/CFD-WM-011-002-N.jpg","img/neutralC/CFD-LF-205-100-N.jpg","1","1","1","0","0","1","0.437162100104615","0.407445800025016","0.389685700181872","1","1","1","1","1","1","1","1","1"
"250043","img/neutralC/CFD-LF-205-100-N.jpg","img/neutralC/CFD-LF-230-203-N.jpg","img/neutralC/CFD-WF-213-031-N.jpg","1","1","1","1","0","1","0.389685700181872","0.437162100104615","0.413523799972609","1","1","1","1","1","1","1","1","1"
"250043","img/neutralC/CFD-WF-213-031-N.jpg","img/neutralC/CFD-LF-205-100-N.jpg","img/neutralC/CFD-LF-203-066-N.jpg","1","1","0","1","1","0","0.413523799972609","0.389685700181872","0.346925800200552","1","1","1","1","1","1","1","1","2"
"250043","img/neutralC/CFD-LF-203-066-N.jpg","img/neutralC/CFD-WF-213-031-N.jpg","img/neutralC/CFD-BM-041-035-N.jpg","0","1","1","0","1","0","0.346925800200552","0.413523799972609","0.521710600005463","1","1","1","1","1","1","2","1","1"
"250043","img/neutralC/CFD-BM-041-035-N.jpg","img/neutralC/CFD-LF-203-066-N.jpg","img/neutralC/CFD-LF-214-090-N.jpg","1","0","1","0","0","0","0.521710600005463","0.346925800200552","0.407473800005391","1","1","1","1","1","1","1","2","1"
"250043","img/neutralC/CFD-LF-214-090-N.jpg","img/neutralC/CFD-BM-041-035-N.jpg","img/neutralC/CFD-IF-693-172-N.jpg","1","1","1","0","0","0","0.407473800005391","0.521710600005463","0.431765100220218","1","1","1","1","1","1","1","1","1"
"250043","img/neutralC/CFD-IF-693-172-N.jpg","img/neutralC/CFD-LF-214-090-N.jpg","img/neutralC/CFD-BF-213-188-N.jpg","1","1","1","0","0","1","0.431765100220218","0.407473800005391","0.412472800118849","1","1","1","1","1","1","1","1","1"
"250043","img/neutralC/CFD-BF-213-188-N.jpg","img/neutralC/CFD-IF-693-172-N.jpg","img/neutralC/CFD-IM-651-308-N.jpg","1","1","1","1","0","0","0.412472800118849","0.431765100220218","0.413302900036797","1","1","1","1","1","1","1","1","1"
"250043","img/neutralC/CFD-IM-651-308-N.jpg","img/neutralC/CFD-BF-213-188-N.jpg","img/neutralC/CFD-MF-337-026-N.jpg","1","1","1","0","1","1","0.413302900036797","0.412472800118849","0.379358200123534","1","1","1","1","1","1","1","1","1"
"250043","img/neutralC/CFD-MF-337-026-N.jpg","img/neutralC/CFD-IM-651-308-N.jpg","img/neutralC/CFD-BF-253-202-N.jpg","1","1","1","1","0","0","0.379358200123534","0.413302900036797","0.485083400039002","1","1","1","1","1","1","1","1","1"
"250043","img/neutralC/CFD-BF-253-202-N.jpg","img/neutralC/CFD-MF-337-026-N.jpg","img/neutralC/CFD-BM-019-002-N.jpg","1","1","0","0","1","0","0.485083400039002","0.379358200123534","0.395528100198135","1","1","1","1","1","1","1","1","2"
"250043","img/neutralC/CFD-BM-019-002-N.jpg","img/neutralC/CFD-BF-253-202-N.jpg",NA,"0","1",NA,"0","0",NA,"0.395528100198135","0.485083400039002",NA,"1","1",NA,"1","1",NA,"2","1",NA
"250043","img/neutralC/CFD-WM-242-011-N.jpg",NA,"img/neutralC/CFD-LF-247-051-N.jpg","0",NA,"1","0",NA,"1","0.627811500104144",NA,"0.364185700193048","1",NA,"1","1",NA,"1","1",NA,"1"
"250043","img/neutralC/CFD-LF-247-051-N.jpg","img/neutralC/CFD-WM-242-011-N.jpg","img/neutralC/CFD-BM-026-002-N.jpg","1","0","1","1","0","0","0.364185700193048","0.627811500104144","0.390425800113007","1","1","1","1","1","1","1","1","1"
"250043","img/neutralC/CFD-BM-026-002-N.jpg","img/neutralC/CFD-LF-247-051-N.jpg","img/neutralC/CFD-LF-242-121-N.jpg","1","1","1","0","1","0","0.390425800113007","0.364185700193048","0.39625950017944","1","1","1","1","1","1","1","1","1"
"250043","img/neutralC/CFD-LF-242-121-N.jpg","img/neutralC/CFD-BM-026-002-N.jpg","img/neutralC/CFD-AF-206-079-N.jpg","1","1","1","0","0","1","0.39625950017944","0.390425800113007","0.389681900152937","1","1","1","1","1","1","1","1","1"
"250043","img/neutralC/CFD-AF-206-079-N.jpg","img/neutralC/CFD-LF-242-121-N.jpg","img/neutralC/CFD-AF-202-122-N.jpg","1","1","1","1","0","1","0.389681900152937","0.39625950017944","0.362999399891123","1","1","1","1","1","1","1","1","1"
"250043","img/neutralC/CFD-AF-202-122-N.jpg","img/neutralC/CFD-AF-206-079-N.jpg","img/neutralC/CFD-IM-617-174-N.jpg","1","1","0","1","1","0","0.362999399891123","0.389681900152937","0.488177300198004","1","1","1","1","1","1","1","1","2"
"250043","img/neutralC/CFD-IM-617-174-N.jpg","img/neutralC/CFD-AF-202-122-N.jpg","img/neutralC/CFD-MF-313-002-N.jpg","0","1","1","0","1","0","0.488177300198004","0.362999399891123","0.489833300001919","1","1","1","1","1","1","2","1","1"
"250043","img/neutralC/CFD-MF-313-002-N.jpg","img/neutralC/CFD-IM-617-174-N.jpg","img/neutralC/CFD-IM-727-195-N.jpg","1","0","1","0","0","1","0.489833300001919","0.488177300198004","0.395748100243509","1","1","1","1","1","1","1","2","1"
"250043","img/neutralC/CFD-IM-727-195-N.jpg","img/neutralC/CFD-MF-313-002-N.jpg","img/neutralC/CFD-IF-665-015-N.jpg","1","1","1","1","0","0","0.395748100243509","0.489833300001919","0.44587490009144","1","1","1","1","1","1","1","1","1"
"250043","img/neutralC/CFD-IF-665-015-N.jpg","img/neutralC/CFD-IM-727-195-N.jpg","img/neutralC/CFD-IM-653-008-N.jpg","1","1","1","0","1","0","0.44587490009144","0.395748100243509","0.474402100080624","1","1","1","1","1","1","1","1","1"
"250043","img/neutralC/CFD-IM-653-008-N.jpg","img/neutralC/CFD-IF-665-015-N.jpg","img/neutralC/CFD-LF-245-166-N.jpg","1","1","1","0","0","1","0.474402100080624","0.44587490009144","0.393707700073719","1","1","1","1","1","1","1","1","1"
"250043","img/neutralC/CFD-LF-245-166-N.jpg","img/neutralC/CFD-IM-653-008-N.jpg","img/neutralC/CFD-LM-226-175-N.jpg","1","1","1","1","0","0","0.393707700073719","0.474402100080624","0.470935200108215","1","1","1","1","1","1","1","1","1"
"250043","img/neutralC/CFD-LM-226-175-N.jpg","img/neutralC/CFD-LF-245-166-N.jpg","img/neutralC/CFD-IM-657-308-N.jpg","1","1","1","0","1","0","0.470935200108215","0.393707700073719","0.41232500015758","1","1","1","1","1","1","1","1","1"
"250043","img/neutralC/CFD-IM-657-308-N.jpg","img/neutralC/CFD-LM-226-175-N.jpg","img/neutralC/CFD-BM-212-117-N.jpg","1","1","1","0","0","0","0.41232500015758","0.470935200108215","0.424187200143933","1","1","1","1","1","1","1","1","1"
"250043","img/neutralC/CFD-BM-212-117-N.jpg","img/neutralC/CFD-IM-657-308-N.jpg","img/neutralC/CFD-WM-258-125-N.jpg","1","1","1","0","0","0","0.424187200143933","0.41232500015758","0.455838300287724","1","1","1","1","1","1","1","1","1"
"250043","img/neutralC/CFD-WM-258-125-N.jpg","img/neutralC/CFD-BM-212-117-N.jpg","img/neutralC/CFD-IM-638-250-1-N.jpg","1","1","1","0","0","1","0.455838300287724","0.424187200143933","0.404205900151283","1","1","1","1","1","1","1","1","1"
"250043","img/neutralC/CFD-IM-638-250-1-N.jpg","img/neutralC/CFD-WM-258-125-N.jpg","img/neutralC/CFD-WM-227-099-N.jpg","1","1","1","1","0","1","0.404205900151283","0.455838300287724","0.375831899931654","1","1","1","1","1","1","1","1","1"
"250043","img/neutralC/CFD-WM-227-099-N.jpg","img/neutralC/CFD-IM-638-250-1-N.jpg","img/neutralC/CFD-AF-241-141-N.jpg","1","1","1","1","1","1","0.375831899931654","0.404205900151283","0.404742200160399","1","1","1","1","1","1","1","1","1"
"250043","img/neutralC/CFD-AF-241-141-N.jpg","img/neutralC/CFD-WM-227-099-N.jpg","img/neutralC/CFD-LF-250-169-N.jpg","1","1","1","1","1","1","0.404742200160399","0.375831899931654","0.364484400022775","1","1","1","1","1","1","1","1","1"
"250043","img/neutralC/CFD-LF-250-169-N.jpg","img/neutralC/CFD-AF-241-141-N.jpg","img/neutralC/CFD-BM-018-001-N.jpg","1","1","1","1","1","1","0.364484400022775","0.404742200160399","0.451915200101212","1","1","1","1","1","1","1","1","1"
"250043","img/neutralC/CFD-BM-018-001-N.jpg","img/neutralC/CFD-LF-250-169-N.jpg","img/neutralC/CFD-BF-238-190-N.jpg","1","1","1","1","1","1","0.451915200101212","0.364484400022775","0.333241800079122","1","1","1","1","1","1","1","1","1"
"250043","img/neutralC/CFD-BF-238-190-N.jpg","img/neutralC/CFD-BM-018-001-N.jpg","img/neutralC/CFD-WM-017-002-N.jpg","1","1","1","1","1","0","0.333241800079122","0.451915200101212","0.43810490029864","1","1","1","1","1","1","1","1","1"
"250043","img/neutralC/CFD-WM-017-002-N.jpg","img/neutralC/CFD-BF-238-190-N.jpg","img/neutralC/CFD-LM-219-295-N.jpg","1","1","1","0","1","1","0.43810490029864","0.333241800079122","0.408716900274158","1","1","1","1","1","1","1","1","1"
"250043","img/neutralC/CFD-LM-219-295-N.jpg","img/neutralC/CFD-WM-017-002-N.jpg","img/neutralC/CFD-IF-620-218-N.jpg","1","1","1","1","0","0","0.408716900274158","0.43810490029864","0.519204800017178","1","1","1","1","1","1","1","1","1"
"250043","img/neutralC/CFD-IF-620-218-N.jpg","img/neutralC/CFD-LM-219-295-N.jpg","img/neutralC/CFD-BF-010-001-N.jpg","1","1","1","0","1","1","0.519204800017178","0.408716900274158","0.466609199997038","1","1","1","1","1","1","1","1","1"
"250043","img/neutralC/CFD-BF-010-001-N.jpg","img/neutralC/CFD-IF-620-218-N.jpg","img/neutralC/CFD-BM-231-155-N.jpg","1","1","1","1","0","1","0.466609199997038","0.519204800017178","0.388049100060016","1","1","1","1","1","1","1","1","1"
"250043","img/neutralC/CFD-BM-231-155-N.jpg","img/neutralC/CFD-BF-010-001-N.jpg","img/neutralC/CFD-IM-686-097-N.jpg","1","1","1","1","1","0","0.388049100060016","0.466609199997038","0.423137500183657","1","1","1","1","1","1","1","1","1"
"250043","img/neutralC/CFD-IM-686-097-N.jpg","img/neutralC/CFD-BM-231-155-N.jpg","img/neutralC/CFD-BF-033-028-N.jpg","1","1","1","0","1","0","0.423137500183657","0.388049100060016","0.521094300085679","1","1","1","1","1","1","1","1","1"
"250043","img/neutralC/CFD-BF-033-028-N.jpg","img/neutralC/CFD-IM-686-097-N.jpg","img/neutralC/CFD-BM-005-003-N.jpg","1","1","1","0","0","1","0.521094300085679","0.423137500183657","0.396980100078508","1","1","1","1","1","1","1","1","1"
"250043","img/neutralC/CFD-BM-005-003-N.jpg","img/neutralC/CFD-BF-033-028-N.jpg","img/neutralC/CFD-LM-233-171-N.jpg","1","1","1","1","0","0","0.396980100078508","0.521094300085679","0.416204600129277","1","1","1","1","1","1","1","1","1"
"250043","img/neutralC/CFD-LM-233-171-N.jpg","img/neutralC/CFD-BM-005-003-N.jpg","img/neutralC/CFD-WF-209-052-N.jpg","1","1","1","0","1","1","0.416204600129277","0.396980100078508","0.473739900160581","1","1","1","1","1","1","1","1","1"
"250043","img/neutralC/CFD-WF-209-052-N.jpg","img/neutralC/CFD-LM-233-171-N.jpg",NA,"1","1",NA,"1","0",NA,"0.473739900160581","0.416204600129277",NA,"1","1",NA,"1","1",NA,"1","1",NA
"250043","img/neutralC/CFD-MF-327-002-N.jpg",NA,"img/neutralC/CFD-BF-043-003-N.jpg","1",NA,"1","0",NA,"0","0.625918200006709",NA,"0.42299920017831","1",NA,"1","1",NA,"1","1",NA,"1"
"250043","img/neutralC/CFD-BF-043-003-N.jpg","img/neutralC/CFD-MF-327-002-N.jpg","img/neutralC/CFD-BM-243-218-N.jpg","1","1","1","0","0","1","0.42299920017831","0.625918200006709","0.449554400052875","1","1","1","1","1","1","1","1","1"
"250043","img/neutralC/CFD-BM-243-218-N.jpg","img/neutralC/CFD-BF-043-003-N.jpg","img/neutralC/CFD-WM-213-076-N.jpg","1","1","1","1","0","1","0.449554400052875","0.42299920017831","0.373002800159156","1","1","1","1","1","1","1","1","1"
"250043","img/neutralC/CFD-WM-213-076-N.jpg","img/neutralC/CFD-BM-243-218-N.jpg","img/neutralC/CFD-WF-008-002-N.jpg","1","1","1","1","1","1","0.373002800159156","0.449554400052875","0.407184999901801","1","1","1","1","1","1","1","1","1"
"250043","img/neutralC/CFD-WF-008-002-N.jpg","img/neutralC/CFD-WM-213-076-N.jpg","img/neutralC/CFD-WM-232-070-N.jpg","1","1","1","1","1","0","0.407184999901801","0.373002800159156","0.40926959994249","1","1","1","1","1","1","1","1","1"
"250043","img/neutralC/CFD-WM-232-070-N.jpg","img/neutralC/CFD-WF-008-002-N.jpg","img/neutralC/CFD-LF-226-174-N.jpg","1","1","1","0","1","0","0.40926959994249","0.407184999901801","0.423178100027144","1","1","1","1","1","1","1","1","1"
"250043","img/neutralC/CFD-LF-226-174-N.jpg","img/neutralC/CFD-WM-232-070-N.jpg","img/neutralC/CFD-IM-709-103-N.jpg","1","1","1","0","0","0","0.423178100027144","0.40926959994249","0.498664300190285","1","1","1","1","1","1","1","1","1"
"250043","img/neutralC/CFD-IM-709-103-N.jpg","img/neutralC/CFD-LF-226-174-N.jpg","img/neutralC/CFD-MF-340-026-N.jpg","1","1","1","0","0","1","0.498664300190285","0.423178100027144","0.395186500158161","1","1","1","1","1","1","1","1","1"
"250043","img/neutralC/CFD-MF-340-026-N.jpg","img/neutralC/CFD-IM-709-103-N.jpg","img/neutralC/CFD-IM-675-015-N.jpg","1","1","1","1","0","1","0.395186500158161","0.498664300190285","0.407465500291437","1","1","1","1","1","1","1","1","1"
"250043","img/neutralC/CFD-IM-675-015-N.jpg","img/neutralC/CFD-MF-340-026-N.jpg","img/neutralC/CFD-IM-604-014-N.jpg","1","1","1","1","1","0","0.407465500291437","0.395186500158161","0.42111560027115","1","1","1","1","1","1","1","1","1"
"250043","img/neutralC/CFD-IM-604-014-N.jpg","img/neutralC/CFD-IM-675-015-N.jpg","img/neutralC/CFD-LF-201-035-N.jpg","1","1","1","0","1","1","0.42111560027115","0.407465500291437","0.391356399981305","1","1","1","1","1","1","1","1","1"
"250043","img/neutralC/CFD-LF-201-035-N.jpg","img/neutralC/CFD-IM-604-014-N.jpg","img/neutralC/CFD-BF-224-002-N.jpg","1","1","1","1","0","1","0.391356399981305","0.42111560027115","0.435905300080776","1","1","1","1","1","1","1","1","1"
"250043","img/neutralC/CFD-BF-224-002-N.jpg","img/neutralC/CFD-LF-201-035-N.jpg","img/neutralC/CFD-WF-212-050-N.jpg","1","1","1","1","1","0","0.435905300080776","0.391356399981305","0.38401440018788","1","1","1","1","1","1","1","1","1"
"250043","img/neutralC/CFD-WF-212-050-N.jpg","img/neutralC/CFD-BF-224-002-N.jpg","img/neutralC/CFD-AM-236-090-N.jpg","1","1","1","0","1","1","0.38401440018788","0.435905300080776","0.358421000186354","1","1","1","1","1","1","1","1","1"
"250043","img/neutralC/CFD-AM-236-090-N.jpg","img/neutralC/CFD-WF-212-050-N.jpg","img/neutralC/CFD-BM-039-029-N.jpg","1","1","1","1","0","1","0.358421000186354","0.38401440018788","0.393137000035495","1","1","1","1","1","1","1","1","1"
"250043","img/neutralC/CFD-BM-039-029-N.jpg","img/neutralC/CFD-AM-236-090-N.jpg","img/neutralC/CFD-LM-217-162-N.jpg","1","1","0","1","1","0","0.393137000035495","0.358421000186354","0.36289650015533","1","1","1","1","1","1","1","1","2"
"250043","img/neutralC/CFD-LM-217-162-N.jpg","img/neutralC/CFD-BM-039-029-N.jpg","img/neutralC/CFD-IF-608-390-N.jpg","0","1","1","0","1","1","0.36289650015533","0.393137000035495","0.462013100273907","1","1","1","1","1","1","2","1","1"
"250043","img/neutralC/CFD-IF-608-390-N.jpg","img/neutralC/CFD-LM-217-162-N.jpg","img/neutralC/CFD-WF-012-002-N.jpg","1","0","1","1","0","1","0.462013100273907","0.36289650015533","0.428755500121042","1","1","1","1","1","1","1","2","1"
"250043","img/neutralC/CFD-WF-012-002-N.jpg","img/neutralC/CFD-IF-608-390-N.jpg","img/neutralC/CFD-WM-024-015-N.jpg","1","1","1","1","1","1","0.428755500121042","0.462013100273907","0.366514300229028","1","1","1","1","1","1","1","1","1"
"250043","img/neutralC/CFD-WM-024-015-N.jpg","img/neutralC/CFD-WF-012-002-N.jpg","img/neutralC/CFD-WF-217-085-N.jpg","1","1","1","1","1","1","0.366514300229028","0.428755500121042","0.353326700162143","1","1","1","1","1","1","1","1","1"
"250043","img/neutralC/CFD-WF-217-085-N.jpg","img/neutralC/CFD-WM-024-015-N.jpg","img/neutralC/CFD-IM-685-004-N.jpg","1","1","1","1","1","1","0.353326700162143","0.366514300229028","0.472096600104123","1","1","1","1","1","1","1","1","1"
"250043","img/neutralC/CFD-IM-685-004-N.jpg","img/neutralC/CFD-WF-217-085-N.jpg","img/neutralC/CFD-MF-329-001-N.jpg","1","1","1","1","1","0","0.472096600104123","0.353326700162143","0.42509700008668","1","1","1","1","1","1","1","1","1"
"250043","img/neutralC/CFD-MF-329-001-N.jpg","img/neutralC/CFD-IM-685-004-N.jpg","img/neutralC/CFD-AF-215-70-N.jpg","1","1","1","0","1","0","0.42509700008668","0.472096600104123","0.370361200068146","1","1","1","1","1","1","1","1","1"
"250043","img/neutralC/CFD-AF-215-70-N.jpg","img/neutralC/CFD-MF-329-001-N.jpg","img/neutralC/CFD-MF-300-002-N.jpg","1","1","0","0","0","0","0.370361200068146","0.42509700008668","0.378097099950537","1","1","1","1","1","1","1","1","2"
"250043","img/neutralC/CFD-MF-300-002-N.jpg","img/neutralC/CFD-AF-215-70-N.jpg","img/neutralC/CFD-BF-051-035-N.jpg","0","1","1","0","0","0","0.378097099950537","0.370361200068146","0.518023000098765","1","1","1","1","1","1","2","1","1"
"250043","img/neutralC/CFD-BF-051-035-N.jpg","img/neutralC/CFD-MF-300-002-N.jpg","img/neutralC/CFD-IF-619-197-N.jpg","1","0","1","0","0","0","0.518023000098765","0.378097099950537","0.506579900160432","1","1","1","1","1","1","1","2","1"
"250043","img/neutralC/CFD-IF-619-197-N.jpg","img/neutralC/CFD-BF-051-035-N.jpg","img/neutralC/CFD-MM-304-002-N.jpg","1","1","1","0","0","1","0.506579900160432","0.518023000098765","0.369482800131664","1","1","1","1","1","1","1","1","1"
"250043","img/neutralC/CFD-MM-304-002-N.jpg","img/neutralC/CFD-IF-619-197-N.jpg","img/neutralC/CFD-AF-229-160-N.jpg","1","1","1","1","0","0","0.369482800131664","0.506579900160432","0.410880400100723","1","1","1","1","1","1","1","1","1"
"250043","img/neutralC/CFD-AF-229-160-N.jpg","img/neutralC/CFD-MM-304-002-N.jpg","img/neutralC/CFD-WF-248-129-N.jpg","1","1","1","0","1","0","0.410880400100723","0.369482800131664","0.454072300111875","1","1","1","1","1","1","1","1","1"
"250043","img/neutralC/CFD-WF-248-129-N.jpg","img/neutralC/CFD-AF-229-160-N.jpg","img/neutralC/CFD-IM-637-007-N.jpg","1","1","1","0","0","0","0.454072300111875","0.410880400100723","0.401583600090817","1","1","1","1","1","1","1","1","1"
"250043","img/neutralC/CFD-IM-637-007-N.jpg","img/neutralC/CFD-WF-248-129-N.jpg","img/neutralC/CFD-AF-254-167-N.jpg","1","1","1","0","0","1","0.401583600090817","0.454072300111875","0.458698800066486","1","1","1","1","1","1","1","1","1"
"250043","img/neutralC/CFD-AF-254-167-N.jpg","img/neutralC/CFD-IM-637-007-N.jpg",NA,"1","1",NA,"1","0",NA,"0.458698800066486","0.401583600090817",NA,"1","1",NA,"1","1",NA,"1","1",NA
"250043","img/neutralC/CFD-MM-321-021-N.jpg",NA,"img/neutralC/CFD-LM-253-075-N.jpg","1",NA,"1","0",NA,"0","1.42243009991944",NA,"0.49760640016757","1",NA,"1","1",NA,"1","1",NA,"1"
"250043","img/neutralC/CFD-LM-253-075-N.jpg","img/neutralC/CFD-MM-321-021-N.jpg","img/neutralC/CFD-MF-342-022-N.jpg","1","1","1","0","0","1","0.49760640016757","1.42243009991944","0.367895500035957","1","1","1","1","1","1","1","1","1"
"250043","img/neutralC/CFD-MF-342-022-N.jpg","img/neutralC/CFD-LM-253-075-N.jpg","img/neutralC/CFD-WM-221-091-N.jpg","1","1","1","1","0","0","0.367895500035957","0.49760640016757","0.367557200137526","1","1","1","1","1","1","1","1","1"
"250043","img/neutralC/CFD-WM-221-091-N.jpg","img/neutralC/CFD-MF-342-022-N.jpg","img/neutralC/CFD-WF-018-017-N.jpg","1","1","1","0","1","1","0.367557200137526","0.367895500035957","0.390942600090057","1","1","1","1","1","1","1","1","1"
"250043","img/neutralC/CFD-WF-018-017-N.jpg","img/neutralC/CFD-WM-221-091-N.jpg","img/neutralC/CFD-AF-232-078-N.jpg","1","1","1","1","0","1","0.390942600090057","0.367557200137526","0.37835290026851","1","1","1","1","1","1","1","1","1"
"250043","img/neutralC/CFD-AF-232-078-N.jpg","img/neutralC/CFD-WF-018-017-N.jpg","img/neutralC/CFD-IM-719-221-N.jpg","1","1","1","1","1","0","0.37835290026851","0.390942600090057","0.356886100023985","1","1","1","1","1","1","1","1","1"
"250043","img/neutralC/CFD-IM-719-221-N.jpg","img/neutralC/CFD-AF-232-078-N.jpg","img/neutralC/CFD-WM-009-002-N.jpg","1","1","1","0","1","0","0.356886100023985","0.37835290026851","0.433186000213027","1","1","1","1","1","1","1","1","1"
"250043","img/neutralC/CFD-WM-009-002-N.jpg","img/neutralC/CFD-IM-719-221-N.jpg","img/neutralC/CFD-WF-023-003-N.jpg","1","1","1","0","0","1","0.433186000213027","0.356886100023985","0.370677300263196","1","1","1","1","1","1","1","1","1"
"250043","img/neutralC/CFD-WF-023-003-N.jpg","img/neutralC/CFD-WM-009-002-N.jpg","img/neutralC/CFD-WF-245-084-N.jpg","1","1","1","1","0","1","0.370677300263196","0.433186000213027","0.360200300114229","1","1","1","1","1","1","1","1","1"
"250043","img/neutralC/CFD-WF-245-084-N.jpg","img/neutralC/CFD-WF-023-003-N.jpg","img/neutralC/CFD-BM-023-029-N.jpg","1","1","1","1","1","1","0.360200300114229","0.370677300263196","0.384679000126198","1","1","1","1","1","1","1","1","1"
"250043","img/neutralC/CFD-BM-023-029-N.jpg","img/neutralC/CFD-WF-245-084-N.jpg","img/neutralC/CFD-BF-018-039-N.jpg","1","1","1","1","1","1","0.384679000126198","0.360200300114229","0.379923300119117","1","1","1","1","1","1","1","1","1"
"250043","img/neutralC/CFD-BF-018-039-N.jpg","img/neutralC/CFD-BM-023-029-N.jpg","img/neutralC/CFD-IM-700-009-N.jpg","1","1","1","1","1","1","0.379923300119117","0.384679000126198","0.384283700259402","1","1","1","1","1","1","1","1","1"
"250043","img/neutralC/CFD-IM-700-009-N.jpg","img/neutralC/CFD-BF-018-039-N.jpg","img/neutralC/CFD-LF-215-157-N.jpg","1","1","0","1","1","0","0.384283700259402","0.379923300119117","0.430106100160629","1","1","1","1","1","1","1","1","2"
"250043","img/neutralC/CFD-LF-215-157-N.jpg","img/neutralC/CFD-IM-700-009-N.jpg","img/neutralC/CFD-WM-255-219-N.jpg","0","1","0","0","1","0","0.430106100160629","0.384283700259402","0.42489319993183","1","1","1","1","1","1","2","1","2"
"250043","img/neutralC/CFD-WM-255-219-N.jpg","img/neutralC/CFD-LF-215-157-N.jpg","img/neutralC/CFD-BF-254-201-N.jpg","0","0","1","0","0","0","0.42489319993183","0.430106100160629","0.435115700121969","1","1","1","1","1","1","2","2","1"
"250043","img/neutralC/CFD-BF-254-201-N.jpg","img/neutralC/CFD-WM-255-219-N.jpg","img/neutralC/CFD-BF-218-207-N.jpg","1","0","1","0","0","1","0.435115700121969","0.42489319993183","0.39497910020873","1","1","1","1","1","1","1","2","1"
"250043","img/neutralC/CFD-BF-218-207-N.jpg","img/neutralC/CFD-BF-254-201-N.jpg","img/neutralC/CFD-BM-200-046-N.jpg","1","1","1","1","0","0","0.39497910020873","0.435115700121969","0.387257000198588","1","1","1","1","1","1","1","1","1"
"250043","img/neutralC/CFD-BM-200-046-N.jpg","img/neutralC/CFD-BF-218-207-N.jpg","img/neutralC/CFD-WM-237-052-N.jpg","1","1","1","0","1","1","0.387257000198588","0.39497910020873","0.420485500246286","1","1","1","1","1","1","1","1","1"
"250043","img/neutralC/CFD-WM-237-052-N.jpg","img/neutralC/CFD-BM-200-046-N.jpg","img/neutralC/CFD-AM-244-222-N.jpg","1","1","0","1","0","0","0.420485500246286","0.387257000198588","0.417632000055164","1","1","1","1","1","1","1","1","2"
"250043","img/neutralC/CFD-AM-244-222-N.jpg","img/neutralC/CFD-WM-237-052-N.jpg","img/neutralC/CFD-WF-238-023-N.jpg","0","1","1","0","1","0","0.417632000055164","0.420485500246286","0.526179400039837","1","1","1","1","1","1","2","1","1"
"250043","img/neutralC/CFD-WF-238-023-N.jpg","img/neutralC/CFD-AM-244-222-N.jpg","img/neutralC/CFD-WF-027-003-N.jpg","1","0","1","0","0","1","0.526179400039837","0.417632000055164","0.466497100191191","1","1","1","1","1","1","1","2","1"
"250043","img/neutralC/CFD-WF-027-003-N.jpg","img/neutralC/CFD-WF-238-023-N.jpg","img/neutralC/CFD-LF-211-003-N.jpg","1","1","1","1","0","0","0.466497100191191","0.526179400039837","0.421904300106689","1","1","1","1","1","1","1","1","1"
"250043","img/neutralC/CFD-LF-211-003-N.jpg","img/neutralC/CFD-WF-027-003-N.jpg","img/neutralC/CFD-MF-318-022-N.jpg","1","1","1","0","1","1","0.421904300106689","0.466497100191191","0.378569100052118","1","1","1","1","1","1","1","1","1"
"250043","img/neutralC/CFD-MF-318-022-N.jpg","img/neutralC/CFD-LF-211-003-N.jpg","img/neutralC/CFD-IM-627-178-N.jpg","1","1","1","1","0","1","0.378569100052118","0.421904300106689","0.38523570005782","1","1","1","1","1","1","1","1","1"
"250043","img/neutralC/CFD-IM-627-178-N.jpg","img/neutralC/CFD-MF-318-022-N.jpg","img/neutralC/CFD-AF-221-147-N.jpg","1","1","1","1","1","0","0.38523570005782","0.378569100052118","0.465664700139314","1","1","1","1","1","1","1","1","1"
"250043","img/neutralC/CFD-AF-221-147-N.jpg","img/neutralC/CFD-IM-627-178-N.jpg","img/neutralC/CFD-WF-226-095-N.jpg","1","1","1","0","1","1","0.465664700139314","0.38523570005782","0.387982600135729","1","1","1","1","1","1","1","1","1"
"250043","img/neutralC/CFD-WF-226-095-N.jpg","img/neutralC/CFD-AF-221-147-N.jpg","img/neutralC/CFD-WM-201-063-N.jpg","1","1","1","1","0","1","0.387982600135729","0.465664700139314","0.372195800067857","1","1","1","1","1","1","1","1","1"
"250043","img/neutralC/CFD-WM-201-063-N.jpg","img/neutralC/CFD-WF-226-095-N.jpg","img/neutralC/CFD-IF-629-234-N.jpg","1","1","1","1","1","0","0.372195800067857","0.387982600135729","0.403683100128546","1","1","1","1","1","1","1","1","1"
"250043","img/neutralC/CFD-IF-629-234-N.jpg","img/neutralC/CFD-WM-201-063-N.jpg","img/neutralC/CFD-BM-204-003-N.jpg","1","1","1","0","1","0","0.403683100128546","0.372195800067857","0.40453530009836","1","1","1","1","1","1","1","1","1"
"250043","img/neutralC/CFD-BM-204-003-N.jpg","img/neutralC/CFD-IF-629-234-N.jpg","img/neutralC/CFD-MF-321-003-N.jpg","1","1","1","0","0","0","0.40453530009836","0.403683100128546","0.555051099974662","1","1","1","1","1","1","1","1","1"
"250043","img/neutralC/CFD-MF-321-003-N.jpg","img/neutralC/CFD-BM-204-003-N.jpg","img/neutralC/CFD-WM-013-001-N.jpg","1","1","1","0","0","1","0.555051099974662","0.40453530009836","0.441157000139356","1","1","1","1","1","1","1","1","1"
"250043","img/neutralC/CFD-WM-013-001-N.jpg","img/neutralC/CFD-MF-321-003-N.jpg",NA,"1","1",NA,"1","0",NA,"0.441157000139356","0.555051099974662",NA,"1","1",NA,"1","1",NA,"1","1",NA
"250043","img/neutralC/CFD-WF-033-002-N.jpg",NA,"img/neutralC/CFD-WM-228-065-N.jpg","1",NA,"1","1",NA,"0","0.532552400138229",NA,"0.459688900271431","1",NA,"1","1",NA,"1","1",NA,"1"
"250043","img/neutralC/CFD-WM-228-065-N.jpg","img/neutralC/CFD-WF-033-002-N.jpg","img/neutralC/CFD-WM-254-152-N.jpg","1","1","1","0","1","1","0.459688900271431","0.532552400138229","0.465357200009748","1","1","1","1","1","1","1","1","1"
"250043","img/neutralC/CFD-WM-254-152-N.jpg","img/neutralC/CFD-WM-228-065-N.jpg","img/neutralC/CFD-BM-213-134-N.jpg","1","1","1","1","0","1","0.465357200009748","0.459688900271431","0.339903900166973","1","1","1","1","1","1","1","1","1"
"250043","img/neutralC/CFD-BM-213-134-N.jpg","img/neutralC/CFD-WM-254-152-N.jpg","img/neutralC/CFD-BF-004-014-N.jpg","1","1","1","1","1","1","0.339903900166973","0.465357200009748","0.424057000083849","1","1","1","1","1","1","1","1","1"
"250043","img/neutralC/CFD-BF-004-014-N.jpg","img/neutralC/CFD-BM-213-134-N.jpg","img/neutralC/CFD-BM-003-003-N.jpg","1","1","1","1","1","0","0.424057000083849","0.339903900166973","0.476705099921674","1","1","1","1","1","1","1","1","1"
"250043","img/neutralC/CFD-BM-003-003-N.jpg","img/neutralC/CFD-BF-004-014-N.jpg","img/neutralC/CFD-IM-659-359-N.jpg","1","1","0","0","1","0","0.476705099921674","0.424057000083849","0.359296099981293","1","1","1","1","1","1","1","1","2"
"250043","img/neutralC/CFD-IM-659-359-N.jpg","img/neutralC/CFD-BM-003-003-N.jpg","img/neutralC/CFD-LF-208-127-N.jpg","0","1","1","0","0","0","0.359296099981293","0.476705099921674","0.494548599934205","1","1","1","1","1","1","2","1","1"
"250043","img/neutralC/CFD-LF-208-127-N.jpg","img/neutralC/CFD-IM-659-359-N.jpg","img/neutralC/CFD-BM-010-003-N.jpg","1","0","1","0","0","0","0.494548599934205","0.359296099981293","0.415865099988878","1","1","1","1","1","1","1","2","1"
"250043","img/neutralC/CFD-BM-010-003-N.jpg","img/neutralC/CFD-LF-208-127-N.jpg","img/neutralC/CFD-BF-045-003-N.jpg","1","1","1","0","0","0","0.415865099988878","0.494548599934205","0.518891800194979","1","1","1","1","1","1","1","1","1"
"250043","img/neutralC/CFD-BF-045-003-N.jpg","img/neutralC/CFD-BM-010-003-N.jpg","img/neutralC/CFD-LF-241-188-N.jpg","1","1","1","0","0","0","0.518891800194979","0.415865099988878","0.452023100107908","1","1","1","1","1","1","1","1","1"
"250043","img/neutralC/CFD-LF-241-188-N.jpg","img/neutralC/CFD-BF-045-003-N.jpg","img/neutralC/CFD-IF-744-114-N.jpg","1","1","1","0","0","0","0.452023100107908","0.518891800194979","0.448317700065672","1","1","1","1","1","1","1","1","1"
"250043","img/neutralC/CFD-IF-744-114-N.jpg","img/neutralC/CFD-LF-241-188-N.jpg","img/neutralC/CFD-BM-013-002-N.jpg","1","1","1","0","0","1","0.448317700065672","0.452023100107908","0.468555799918249","1","1","1","1","1","1","1","1","1"
"250043","img/neutralC/CFD-BM-013-002-N.jpg","img/neutralC/CFD-IF-744-114-N.jpg","img/neutralC/CFD-IF-673-389-N.jpg","1","1","1","1","0","0","0.468555799918249","0.448317700065672","0.370024400064722","1","1","1","1","1","1","1","1","1"
"250043","img/neutralC/CFD-IF-673-389-N.jpg","img/neutralC/CFD-BM-013-002-N.jpg","img/neutralC/CFD-AM-221-184-N.jpg","1","1","1","0","1","1","0.370024400064722","0.468555799918249","0.407852600328624","1","1","1","1","1","1","1","1","1"
"250043","img/neutralC/CFD-AM-221-184-N.jpg","img/neutralC/CFD-IF-673-389-N.jpg","img/neutralC/CFD-AF-210-050-N.jpg","1","1","1","1","0","1","0.407852600328624","0.370024400064722","0.403034400194883","1","1","1","1","1","1","1","1","1"
"250043","img/neutralC/CFD-AF-210-050-N.jpg","img/neutralC/CFD-AM-221-184-N.jpg","img/neutralC/CFD-BM-028-002-N.jpg","1","1","1","1","1","1","0.403034400194883","0.407852600328624","0.399204200133681","1","1","1","1","1","1","1","1","1"
"250043","img/neutralC/CFD-BM-028-002-N.jpg","img/neutralC/CFD-AF-210-050-N.jpg","img/neutralC/CFD-WM-202-107-N.jpg","1","1","1","1","1","1","0.399204200133681","0.403034400194883","0.350400299998","1","1","1","1","1","1","1","1","1"
"250043","img/neutralC/CFD-WM-202-107-N.jpg","img/neutralC/CFD-BM-028-002-N.jpg","img/neutralC/CFD-AF-227-207-N.jpg","1","1","1","1","1","1","0.350400299998","0.399204200133681","0.39450650010258","1","1","1","1","1","1","1","1","1"
"250043","img/neutralC/CFD-AF-227-207-N.jpg","img/neutralC/CFD-WM-202-107-N.jpg","img/neutralC/CFD-LF-210-220-N.jpg","1","1","1","1","1","1","0.39450650010258","0.350400299998","0.350417700130492","1","1","1","1","1","1","1","1","1"
"250043","img/neutralC/CFD-LF-210-220-N.jpg","img/neutralC/CFD-AF-227-207-N.jpg","img/neutralC/CFD-LM-247-095-N.jpg","1","1","1","1","1","0","0.350417700130492","0.39450650010258","0.335794500075281","1","1","1","1","1","1","1","1","1"
"250043","img/neutralC/CFD-LM-247-095-N.jpg","img/neutralC/CFD-LF-210-220-N.jpg","img/neutralC/CFD-LM-238-129-N.jpg","1","1","1","0","1","1","0.335794500075281","0.350417700130492","0.384279800113291","1","1","1","1","1","1","1","1","1"
"250043","img/neutralC/CFD-LM-238-129-N.jpg","img/neutralC/CFD-LM-247-095-N.jpg","img/neutralC/CFD-BF-222-240-N.jpg","1","1","1","1","0","0","0.384279800113291","0.335794500075281","0.29948960011825","1","1","1","1","1","1","1","1","1"
"250043","img/neutralC/CFD-BF-222-240-N.jpg","img/neutralC/CFD-LM-238-129-N.jpg","img/neutralC/CFD-IF-625-225-N.jpg","1","1","1","0","1","0","0.29948960011825","0.384279800113291","0.408004800090566","1","1","1","1","1","1","1","1","2"
"250043","img/neutralC/CFD-IF-625-225-N.jpg","img/neutralC/CFD-BF-222-240-N.jpg","img/neutralC/CFD-WF-223-133-N.jpg","1","1","1","0","0","0","0.408004800090566","0.29948960011825","0.385026800213382","1","1","1","1","1","1","2","1","1"
"250043","img/neutralC/CFD-WF-223-133-N.jpg","img/neutralC/CFD-IF-625-225-N.jpg","img/neutralC/CFD-IM-701-312-N.jpg","1","1","0","0","0","0","0.385026800213382","0.408004800090566","0.290221500210464","1","1","1","1","1","1","1","2","2"
"250043","img/neutralC/CFD-IM-701-312-N.jpg","img/neutralC/CFD-WF-223-133-N.jpg","img/neutralC/CFD-IM-738-191-N.jpg","0","1","1","0","0","0","0.290221500210464","0.385026800213382","0.485443399986252","1","1","1","1","1","1","2","1","1"
"250043","img/neutralC/CFD-IM-738-191-N.jpg","img/neutralC/CFD-IM-701-312-N.jpg","img/neutralC/CFD-AF-239-171-N.jpg","1","0","1","0","0","1","0.485443399986252","0.290221500210464","0.350017300108448","1","1","1","1","1","1","1","2","1"
"250043","img/neutralC/CFD-AF-239-171-N.jpg","img/neutralC/CFD-IM-738-191-N.jpg","img/neutralC/CFD-MF-312-002-N.jpg","1","1","1","1","0","1","0.350017300108448","0.485443399986252","0.458254500059411","1","1","1","1","1","1","1","1","1"
"250043","img/neutralC/CFD-MF-312-002-N.jpg","img/neutralC/CFD-AF-239-171-N.jpg","img/neutralC/CFD-MF-336-016-N.jpg","1","1","1","1","1","1","0.458254500059411","0.350017300108448","0.379272200167179","1","1","1","1","1","1","1","1","1"
"250043","img/neutralC/CFD-MF-336-016-N.jpg","img/neutralC/CFD-MF-312-002-N.jpg","img/neutralC/CFD-WF-006-002-N.jpg","1","1","1","1","1","0","0.379272200167179","0.458254500059411","0.369714099913836","1","1","1","1","1","1","1","1","1"
"250043","img/neutralC/CFD-WF-006-002-N.jpg","img/neutralC/CFD-MF-336-016-N.jpg","img/neutralC/CFD-LF-225-164-N.jpg","1","1","1","0","1","1","0.369714099913836","0.379272200167179","0.33024280006066","1","1","1","1","1","1","1","1","1"
"250043","img/neutralC/CFD-LF-225-164-N.jpg","img/neutralC/CFD-WF-006-002-N.jpg",NA,"1","1",NA,"1","0",NA,"0.33024280006066","0.369714099913836",NA,"1","1",NA,"1","1",NA,"1","1",NA
"250043","img/neutralC/CFD-WM-020-001-N.jpg",NA,"img/neutralC/CFD-WM-235-147-N.jpg","1",NA,"1","1",NA,"0","0.584029100136831",NA,"0.415208500111476","1",NA,"1","1",NA,"1","1",NA,"1"
"250043","img/neutralC/CFD-WM-235-147-N.jpg","img/neutralC/CFD-WM-020-001-N.jpg","img/neutralC/CFD-IM-743-006-N.jpg","1","1","1","0","1","1","0.415208500111476","0.584029100136831","0.386654200032353","1","1","1","1","1","1","1","1","1"
"250043","img/neutralC/CFD-IM-743-006-N.jpg","img/neutralC/CFD-WM-235-147-N.jpg","img/neutralC/CFD-IM-616-214-N.jpg","1","1","1","1","0","0","0.386654200032353","0.415208500111476","0.399049600120634","1","1","1","1","1","1","1","1","1"
"250043","img/neutralC/CFD-IM-616-214-N.jpg","img/neutralC/CFD-IM-743-006-N.jpg","img/neutralC/CFD-BF-226-119-N.jpg","1","1","1","0","1","1","0.399049600120634","0.386654200032353","0.357166400179267","1","1","1","1","1","1","1","1","1"
"250043","img/neutralC/CFD-BF-226-119-N.jpg","img/neutralC/CFD-IM-616-214-N.jpg","img/neutralC/CFD-WM-033-025-N.jpg","1","1","1","1","0","1","0.357166400179267","0.399049600120634","0.332639900268987","1","1","1","1","1","1","1","1","1"
"250043","img/neutralC/CFD-WM-033-025-N.jpg","img/neutralC/CFD-BF-226-119-N.jpg","img/neutralC/CFD-WF-200-099-N.jpg","1","1","1","1","1","0","0.332639900268987","0.357166400179267","0.489449500106275","1","1","1","1","1","1","1","1","1"
"250043","img/neutralC/CFD-WF-200-099-N.jpg","img/neutralC/CFD-WM-033-025-N.jpg","img/neutralC/CFD-IM-671-601-N.jpg","1","1","1","0","1","0","0.489449500106275","0.332639900268987","0.441729600075632","1","1","1","1","1","1","1","1","1"
"250043","img/neutralC/CFD-IM-671-601-N.jpg","img/neutralC/CFD-WF-200-099-N.jpg","img/neutralC/CFD-LM-237-264-N.jpg","1","1","1","0","0","0","0.441729600075632","0.489449500106275","0.412036400055513","1","1","1","1","1","1","1","1","1"
"250043","img/neutralC/CFD-LM-237-264-N.jpg","img/neutralC/CFD-IM-671-601-N.jpg","img/neutralC/CFD-BF-038-037-N.jpg","1","1","1","0","0","1","0.412036400055513","0.441729600075632","0.353003700030968","1","1","1","1","1","1","1","1","1"
"250043","img/neutralC/CFD-BF-038-037-N.jpg","img/neutralC/CFD-LM-237-264-N.jpg","img/neutralC/CFD-MF-359-019-N.jpg","1","1","0","1","0","0","0.353003700030968","0.412036400055513","0.409174900036305","1","1","1","1","1","1","1","1","3"
"250043","img/neutralC/CFD-MF-359-019-N.jpg","img/neutralC/CFD-BF-038-037-N.jpg","img/neutralC/CFD-IM-703-182-N.jpg","0","1","1","0","1","1","0.409174900036305","0.353003700030968","0.353731500217691","1","1","1","1","1","1","3","1","1"
"250043","img/neutralC/CFD-IM-703-182-N.jpg","img/neutralC/CFD-MF-359-019-N.jpg","img/neutralC/CFD-BF-229-179-N.jpg","1","0","0","1","0","0","0.353731500217691","0.409174900036305","0.353686300106347","1","1","1","1","1","1","1","3","3"
"250043","img/neutralC/CFD-BF-229-179-N.jpg","img/neutralC/CFD-IM-703-182-N.jpg","img/neutralC/CFD-AM-211-052-N.jpg","0","1","1","0","1","1","0.353686300106347","0.353731500217691","0.367030200082809","1","1","1","1","1","1","3","1","1"
"250043","img/neutralC/CFD-AM-211-052-N.jpg","img/neutralC/CFD-BF-229-179-N.jpg","img/neutralC/CFD-IF-650-315-N.jpg","1","0","1","1","0","0","0.367030200082809","0.353686300106347","0.358841399895027","1","1","1","1","1","1","1","3","1"
"250043","img/neutralC/CFD-IF-650-315-N.jpg","img/neutralC/CFD-AM-211-052-N.jpg","img/neutralC/CFD-MF-333-012-N.jpg","1","1","0","0","1","0","0.358841399895027","0.367030200082809","0.372567700222135","1","1","1","1","1","1","1","1","2"
"250043","img/neutralC/CFD-MF-333-012-N.jpg","img/neutralC/CFD-IF-650-315-N.jpg","img/neutralC/CFD-BM-253-004-N.jpg","0","1","1","0","0","1","0.372567700222135","0.358841399895027","0.396358300000429","1","1","1","1","1","1","2","1","1"
"250043","img/neutralC/CFD-BM-253-004-N.jpg","img/neutralC/CFD-MF-333-012-N.jpg","img/neutralC/CFD-WM-004-010-N.jpg","1","0","1","1","0","0","0.396358300000429","0.372567700222135","0.440112600103021","1","1","1","1","1","1","1","2","1"
"250043","img/neutralC/CFD-WM-004-010-N.jpg","img/neutralC/CFD-BM-253-004-N.jpg","img/neutralC/CFD-WM-219-008-N.jpg","1","1","1","0","1","0","0.440112600103021","0.396358300000429","0.376000600168482","1","1","1","1","1","1","1","1","1"
"250043","img/neutralC/CFD-WM-219-008-N.jpg","img/neutralC/CFD-WM-004-010-N.jpg","img/neutralC/CFD-LF-220-120-N.jpg","1","1","1","0","0","1","0.376000600168482","0.440112600103021","0.392859300132841","1","1","1","1","1","1","1","1","1"
"250043","img/neutralC/CFD-LF-220-120-N.jpg","img/neutralC/CFD-WM-219-008-N.jpg","img/neutralC/CFD-IF-623-129-N.jpg","1","1","1","1","0","1","0.392859300132841","0.376000600168482","0.373027500230819","1","1","1","1","1","1","1","1","1"
"250043","img/neutralC/CFD-IF-623-129-N.jpg","img/neutralC/CFD-LF-220-120-N.jpg","img/neutralC/CFD-AM-251-124-N.jpg","1","1","0","1","1","0","0.373027500230819","0.392859300132841","0.403951300075278","1","1","1","1","1","1","1","1","2"
"250043","img/neutralC/CFD-AM-251-124-N.jpg","img/neutralC/CFD-IF-623-129-N.jpg","img/neutralC/CFD-MF-352-054-N.jpg","0","1","1","0","1","0","0.403951300075278","0.373027500230819","0.481520100263879","1","1","1","1","1","1","2","1","1"
"250043","img/neutralC/CFD-MF-352-054-N.jpg","img/neutralC/CFD-AM-251-124-N.jpg","img/neutralC/CFD-WF-214-122-N.jpg","1","0","1","0","0","1","0.481520100263879","0.403951300075278","0.364776400150731","1","1","1","1","1","1","1","2","1"
"250043","img/neutralC/CFD-WF-214-122-N.jpg","img/neutralC/CFD-MF-352-054-N.jpg","img/neutralC/CFD-AM-242-176-N.jpg","1","1","1","1","0","1","0.364776400150731","0.481520100263879","0.392185400007293","1","1","1","1","1","1","1","1","1"
"250043","img/neutralC/CFD-AM-242-176-N.jpg","img/neutralC/CFD-WF-214-122-N.jpg","img/neutralC/CFD-WF-036-023-N.jpg","1","1","1","1","1","0","0.392185400007293","0.364776400150731","0.420297600328922","1","1","1","1","1","1","1","1","1"
"250043","img/neutralC/CFD-WF-036-023-N.jpg","img/neutralC/CFD-AM-242-176-N.jpg","img/neutralC/CFD-LF-218-072-N.jpg","1","1","1","0","1","0","0.420297600328922","0.392185400007293","0.524003800004721","1","1","1","1","1","1","1","1","1"
"250043","img/neutralC/CFD-LF-218-072-N.jpg","img/neutralC/CFD-WF-036-023-N.jpg","img/neutralC/CFD-WF-001-003-N.jpg","1","1","1","0","0","1","0.524003800004721","0.420297600328922","0.371173800202087","1","1","1","1","1","1","1","1","1"
"250043","img/neutralC/CFD-WF-001-003-N.jpg","img/neutralC/CFD-LF-218-072-N.jpg","img/neutralC/CFD-BM-225-154-N.jpg","1","1","1","1","0","1","0.371173800202087","0.524003800004721","0.426907900022343","1","1","1","1","1","1","1","1","1"
"250043","img/neutralC/CFD-BM-225-154-N.jpg","img/neutralC/CFD-WF-001-003-N.jpg","img/neutralC/CFD-LM-228-188-N.jpg","1","1","1","1","1","1","0.426907900022343","0.371173800202087","0.473599400138483","1","1","1","1","1","1","1","1","1"
"250043","img/neutralC/CFD-LM-228-188-N.jpg","img/neutralC/CFD-BM-225-154-N.jpg","img/neutralC/CFD-IM-645-001-N.jpg","1","1","1","1","1","0","0.473599400138483","0.426907900022343","0.447541400091723","1","1","1","1","1","1","1","1","1"
"250043","img/neutralC/CFD-IM-645-001-N.jpg","img/neutralC/CFD-LM-228-188-N.jpg","img/neutralC/CFD-BF-232-187-N.jpg","1","1","1","0","1","1","0.447541400091723","0.473599400138483","0.378508800175041","1","1","1","1","1","1","1","1","1"
"250043","img/neutralC/CFD-BF-232-187-N.jpg","img/neutralC/CFD-IM-645-001-N.jpg",NA,"1","1",NA,"1","0",NA,"0.378508800175041","0.447541400091723",NA,"1","1",NA,"1","1",NA,"1","1",NA
"250043","img/neutralC/CFD-BM-251-013-N.jpg",NA,"img/neutralC/CFD-MM-317-061-N.jpg","1",NA,"1","1",NA,"1","0.390924400184304",NA,"0.421355500118807","1",NA,"1","1",NA,"1","1",NA,"1"
"250043","img/neutralC/CFD-MM-317-061-N.jpg","img/neutralC/CFD-BM-251-013-N.jpg","img/neutralC/CFD-WM-026-001-N.jpg","1","1","1","1","1","1","0.421355500118807","0.390924400184304","0.422218000050634","1","1","1","1","1","1","1","1","1"
"250043","img/neutralC/CFD-WM-026-001-N.jpg","img/neutralC/CFD-MM-317-061-N.jpg","img/neutralC/CFD-BF-025-002-N.jpg","1","1","0","1","1","0","0.422218000050634","0.421355500118807","0.428754600230604","1","1","1","1","1","1","1","1","2"
"250043","img/neutralC/CFD-BF-025-002-N.jpg","img/neutralC/CFD-WM-026-001-N.jpg","img/neutralC/CFD-WF-017-003-N.jpg","0","1","1","0","1","1","0.428754600230604","0.422218000050634","0.383277000160888","1","1","1","1","1","1","2","1","1"
"250043","img/neutralC/CFD-WF-017-003-N.jpg","img/neutralC/CFD-BF-025-002-N.jpg","img/neutralC/CFD-LM-243-075-N.jpg","1","0","0","1","0","0","0.383277000160888","0.428754600230604","0.402969700051472","1","1","1","1","1","1","1","2","2"
"250043","img/neutralC/CFD-LM-243-075-N.jpg","img/neutralC/CFD-WF-017-003-N.jpg","img/neutralC/CFD-BF-212-315-N.jpg","0","1","1","0","1","1","0.402969700051472","0.383277000160888","0.330530900042504","1","1","1","1","1","1","2","1","1"
"250043","img/neutralC/CFD-BF-212-315-N.jpg","img/neutralC/CFD-LM-243-075-N.jpg","img/neutralC/CFD-LM-244-068-N.jpg","1","0","1","1","0","1","0.330530900042504","0.402969700051472","0.413365100044757","1","1","1","1","1","1","1","2","1"
"250043","img/neutralC/CFD-LM-244-068-N.jpg","img/neutralC/CFD-BF-212-315-N.jpg","img/neutralC/CFD-BF-202-109-N.jpg","1","1","1","1","1","1","0.413365100044757","0.330530900042504","0.432904900284484","1","1","1","1","1","1","1","1","1"
"250043","img/neutralC/CFD-BF-202-109-N.jpg","img/neutralC/CFD-LM-244-068-N.jpg","img/neutralC/CFD-WF-005-010-N.jpg","1","1","1","1","1","0","0.432904900284484","0.413365100044757","0.373230000026524","1","1","1","1","1","1","1","1","1"
"250043","img/neutralC/CFD-WF-005-010-N.jpg","img/neutralC/CFD-BF-202-109-N.jpg","img/neutralC/CFD-IF-642-295-N.jpg","1","1","1","0","1","1","0.373230000026524","0.432904900284484","0.392739200033247","1","1","1","1","1","1","1","1","1"
"250043","img/neutralC/CFD-IF-642-295-N.jpg","img/neutralC/CFD-WF-005-010-N.jpg","img/neutralC/CFD-WM-006-002-N.jpg","1","1","0","1","0","0","0.392739200033247","0.373230000026524","0.389191800029948","1","1","1","1","1","1","1","1","2"
"250043","img/neutralC/CFD-WM-006-002-N.jpg","img/neutralC/CFD-IF-642-295-N.jpg","img/neutralC/CFD-WF-240-083-N.jpg","0","1","1","0","1","0","0.389191800029948","0.392739200033247","0.412842000136152","1","1","1","1","1","1","2","1","1"
"250043","img/neutralC/CFD-WF-240-083-N.jpg","img/neutralC/CFD-WM-006-002-N.jpg","img/neutralC/CFD-MF-309-002-N.jpg","1","0","0","0","0","0","0.412842000136152","0.389191800029948","0.363409999990836","1","1","1","1","1","1","1","2","2"
"250043","img/neutralC/CFD-MF-309-002-N.jpg","img/neutralC/CFD-WF-240-083-N.jpg","img/neutralC/CFD-BM-248-128-N.jpg","0","1","1","0","0","0","0.363409999990836","0.412842000136152","0.428107400191948","1","1","1","1","1","1","2","1","1"
"250043","img/neutralC/CFD-BM-248-128-N.jpg","img/neutralC/CFD-MF-309-002-N.jpg","img/neutralC/CFD-LM-201-057-N.jpg","1","0","1","0","0","1","0.428107400191948","0.363409999990836","0.361386000178754","1","1","1","1","1","1","1","2","1"
"250043","img/neutralC/CFD-LM-201-057-N.jpg","img/neutralC/CFD-BM-248-128-N.jpg","img/neutralC/CFD-BM-205-001-N.jpg","1","1","1","1","0","0","0.361386000178754","0.428107400191948","0.492699600057676","1","1","1","1","1","1","1","1","1"
"250043","img/neutralC/CFD-BM-205-001-N.jpg","img/neutralC/CFD-LM-201-057-N.jpg","img/neutralC/CFD-WM-249-239-N.jpg","1","1","1","0","1","1","0.492699600057676","0.361386000178754","0.357160700019449","1","1","1","1","1","1","1","1","1"
"250043","img/neutralC/CFD-WM-249-239-N.jpg","img/neutralC/CFD-BM-205-001-N.jpg","img/neutralC/CFD-BF-228-212-N.jpg","1","1","1","1","0","0","0.357160700019449","0.492699600057676","0.345242399955168","1","1","1","1","1","1","1","1","1"
"250043","img/neutralC/CFD-BF-228-212-N.jpg","img/neutralC/CFD-WM-249-239-N.jpg","img/neutralC/CFD-IM-646-023-N.jpg","1","1","1","0","1","1","0.345242399955168","0.357160700019449","0.420738100074232","1","1","1","1","1","1","1","1","1"
"250043","img/neutralC/CFD-IM-646-023-N.jpg","img/neutralC/CFD-BF-228-212-N.jpg","img/neutralC/CFD-WF-228-196-N.jpg","1","1","1","1","0","0","0.420738100074232","0.345242399955168","0.417509000049904","1","1","1","1","1","1","1","1","1"
"250043","img/neutralC/CFD-WF-228-196-N.jpg","img/neutralC/CFD-IM-646-023-N.jpg","img/neutralC/CFD-BF-041-001-N.jpg","1","1","1","0","1","1","0.417509000049904","0.420738100074232","0.408411100041121","1","1","1","1","1","1","1","1","1"
"250043","img/neutralC/CFD-BF-041-001-N.jpg","img/neutralC/CFD-WF-228-196-N.jpg","img/neutralC/CFD-MF-335-002-N.jpg","1","1","0","1","0","0","0.408411100041121","0.417509000049904","0.389184000203386","1","1","1","1","1","1","1","1","2"
"250043","img/neutralC/CFD-MF-335-002-N.jpg","img/neutralC/CFD-BF-041-001-N.jpg","img/neutralC/CFD-WM-215-041-N.jpg","0","1","1","0","1","0","0.389184000203386","0.408411100041121","0.412729900097474","1","1","1","1","1","1","2","1","1"
"250043","img/neutralC/CFD-WM-215-041-N.jpg","img/neutralC/CFD-MF-335-002-N.jpg","img/neutralC/CFD-AF-240-206-N.jpg","1","0","1","0","0","0","0.412729900097474","0.389184000203386","0.41975780017674","1","1","1","1","1","1","1","2","1"
"250043","img/neutralC/CFD-AF-240-206-N.jpg","img/neutralC/CFD-WM-215-041-N.jpg","img/neutralC/CFD-AM-247-165-N.jpg","1","1","1","0","0","1","0.41975780017674","0.412729900097474","0.353893599938601","1","1","1","1","1","1","1","1","1"
"250043","img/neutralC/CFD-AM-247-165-N.jpg","img/neutralC/CFD-AF-240-206-N.jpg","img/neutralC/CFD-LM-214-165-N.jpg","1","1","1","1","0","1","0.353893599938601","0.41975780017674","0.383184399921447","1","1","1","1","1","1","1","1","1"
"250043","img/neutralC/CFD-LM-214-165-N.jpg","img/neutralC/CFD-AM-247-165-N.jpg","img/neutralC/CFD-WM-019-003-N.jpg","1","1","1","1","1","1","0.383184399921447","0.353893599938601","0.376579300034791","1","1","1","1","1","1","1","1","1"
"250043","img/neutralC/CFD-WM-019-003-N.jpg","img/neutralC/CFD-LM-214-165-N.jpg","img/neutralC/CFD-WM-212-097-N.jpg","1","1","1","1","1","0","0.376579300034791","0.383184399921447","0.485022300155833","1","1","1","1","1","1","1","1","1"
"250043","img/neutralC/CFD-WM-212-097-N.jpg","img/neutralC/CFD-WM-019-003-N.jpg","img/neutralC/CFD-IM-648-337-N.jpg","1","1","0","0","1","0","0.485022300155833","0.376579300034791","0.387858300236985","1","1","1","1","1","1","1","1","2"
"250043","img/neutralC/CFD-IM-648-337-N.jpg","img/neutralC/CFD-WM-212-097-N.jpg","img/neutralC/CFD-WM-012-001-N.jpg","0","1","1","0","0","1","0.387858300236985","0.485022300155833","0.393168300157413","1","1","1","1","1","1","2","1","1"
"250043","img/neutralC/CFD-WM-012-001-N.jpg","img/neutralC/CFD-IM-648-337-N.jpg","img/neutralC/CFD-LM-216-082-N.jpg","1","0","1","1","0","0","0.393168300157413","0.387858300236985","0.414406000170857","1","1","1","1","1","1","1","2","1"
"250043","img/neutralC/CFD-LM-216-082-N.jpg","img/neutralC/CFD-WM-012-001-N.jpg",NA,"1","1",NA,"0","1",NA,"0.414406000170857","0.393168300157413",NA,"1","1",NA,"1","1",NA,"1","1",NA
"250043","img/neutralC/CFD-BF-014-002-N.jpg",NA,"img/neutralC/CFD-WM-209-038-N.jpg","1",NA,"1","1",NA,"0","0.436305100098252",NA,"0.489364300156012","1",NA,"1","1",NA,"1","1",NA,"1"
"250043","img/neutralC/CFD-WM-209-038-N.jpg","img/neutralC/CFD-BF-014-002-N.jpg","img/neutralC/CFD-MF-303-013-N.jpg","1","1","1","0","1","0","0.489364300156012","0.436305100098252","0.488566200016066","1","1","1","1","1","1","1","1","1"
"250043","img/neutralC/CFD-MF-303-013-N.jpg","img/neutralC/CFD-WM-209-038-N.jpg","img/neutralC/CFD-LF-206-078-N.jpg","1","1","1","0","0","1","0.488566200016066","0.489364300156012","0.448778300080448","1","1","1","1","1","1","1","1","1"
"250043","img/neutralC/CFD-LF-206-078-N.jpg","img/neutralC/CFD-MF-303-013-N.jpg","img/neutralC/CFD-LM-225-130-N.jpg","1","1","0","1","0","0","0.448778300080448","0.488566200016066","0.37893890007399","1","1","1","1","1","1","1","1","2"
"250043","img/neutralC/CFD-LM-225-130-N.jpg","img/neutralC/CFD-LF-206-078-N.jpg","img/neutralC/CFD-MM-324-069-N.jpg","0","1","1","0","1","1","0.37893890007399","0.448778300080448","0.422964000143111","1","1","1","1","1","1","2","1","1"
"250043","img/neutralC/CFD-MM-324-069-N.jpg","img/neutralC/CFD-LM-225-130-N.jpg","img/neutralC/CFD-WF-007-001-N.jpg","1","0","1","1","0","1","0.422964000143111","0.37893890007399","0.371363000245765","1","1","1","1","1","1","1","2","1"
"250043","img/neutralC/CFD-WF-007-001-N.jpg","img/neutralC/CFD-MM-324-069-N.jpg","img/neutralC/CFD-IF-626-375-N.jpg","1","1","0","1","1","0","0.371363000245765","0.422964000143111","0.484945300268009","1","1","1","1","1","1","1","1","2"
"250043","img/neutralC/CFD-IF-626-375-N.jpg","img/neutralC/CFD-WF-007-001-N.jpg","img/neutralC/CFD-LF-255-088-N.jpg","0","1","1","0","1","0","0.484945300268009","0.371363000245765","0.457080400083214","1","1","1","1","1","1","2","1","1"
"250043","img/neutralC/CFD-LF-255-088-N.jpg","img/neutralC/CFD-IF-626-375-N.jpg","img/neutralC/CFD-BM-001-014-N.jpg","1","0","1","0","0","0","0.457080400083214","0.484945300268009","0.42823260021396","1","1","1","1","1","1","1","2","1"
"250043","img/neutralC/CFD-BM-001-014-N.jpg","img/neutralC/CFD-LF-255-088-N.jpg","img/neutralC/CFD-LM-200-045-N.jpg","1","1","1","0","0","1","0.42823260021396","0.457080400083214","0.45292150019668","1","1","1","1","1","1","1","1","1"
"250043","img/neutralC/CFD-LM-200-045-N.jpg","img/neutralC/CFD-BM-001-014-N.jpg","img/neutralC/CFD-WF-222-092-N.jpg","1","1","1","1","0","1","0.45292150019668","0.42823260021396","0.364422500133514","1","1","1","1","1","1","1","1","1"
"250043","img/neutralC/CFD-WF-222-092-N.jpg","img/neutralC/CFD-LM-200-045-N.jpg","img/neutralC/CFD-IM-664-651-N.jpg","1","1","1","1","1","1","0.364422500133514","0.45292150019668","0.360796900000423","1","1","1","1","1","1","1","1","1"
"250043","img/neutralC/CFD-IM-664-651-N.jpg","img/neutralC/CFD-WF-222-092-N.jpg","img/neutralC/CFD-BF-237-172-N.jpg","1","1","1","1","1","1","0.360796900000423","0.364422500133514","0.3843817000743","1","1","1","1","1","1","1","1","1"
"250043","img/neutralC/CFD-BF-237-172-N.jpg","img/neutralC/CFD-IM-664-651-N.jpg","img/neutralC/CFD-IF-660-464-N.jpg","1","1","1","1","1","0","0.3843817000743","0.360796900000423","0.401098500005901","1","1","1","1","1","1","1","1","1"
"250043","img/neutralC/CFD-IF-660-464-N.jpg","img/neutralC/CFD-BF-237-172-N.jpg","img/neutralC/CFD-MF-305-014-N.jpg","1","1","1","0","1","1","0.401098500005901","0.3843817000743","0.371000100160018","1","1","1","1","1","1","1","1","1"
"250043","img/neutralC/CFD-MF-305-014-N.jpg","img/neutralC/CFD-IF-660-464-N.jpg","img/neutralC/CFD-AF-233-190-N.jpg","1","1","1","1","0","0","0.371000100160018","0.401098500005901","0.334472300251946","1","1","1","1","1","1","1","1","1"
"250043","img/neutralC/CFD-AF-233-190-N.jpg","img/neutralC/CFD-MF-305-014-N.jpg","img/neutralC/CFD-AF-253-130-N.jpg","1","1","1","0","1","1","0.334472300251946","0.371000100160018","0.472941899904981","1","1","1","1","1","1","1","1","1"
"250043","img/neutralC/CFD-AF-253-130-N.jpg","img/neutralC/CFD-AF-233-190-N.jpg","img/neutralC/CFD-BM-250-170-N.jpg","1","1","1","1","0","1","0.472941899904981","0.334472300251946","0.418635600246489","1","1","1","1","1","1","1","1","1"
"250043","img/neutralC/CFD-BM-250-170-N.jpg","img/neutralC/CFD-AF-253-130-N.jpg","img/neutralC/CFD-IM-680-369-N.jpg","1","1","1","1","1","1","0.418635600246489","0.472941899904981","0.405621499987319","1","1","1","1","1","1","1","1","1"
"250043","img/neutralC/CFD-IM-680-369-N.jpg","img/neutralC/CFD-BM-250-170-N.jpg","img/neutralC/CFD-AM-220-134-N.jpg","1","1","0","1","1","0","0.405621499987319","0.418635600246489","0.667975000105798","1","1","1","1","1","1","1","1","1"
"250043","img/neutralC/CFD-AM-220-134-N.jpg","img/neutralC/CFD-IM-680-369-N.jpg","img/neutralC/CFD-WF-244-163-N.jpg","0","1","1","0","1","1","0.667975000105798","0.405621499987319","0.350713700056076","1","1","1","1","1","1","1","1","1"
"250043","img/neutralC/CFD-WF-244-163-N.jpg","img/neutralC/CFD-AM-220-134-N.jpg","img/neutralC/CFD-BM-217-082-N.jpg","1","0","1","1","0","0","0.350713700056076","0.667975000105798","0.370179000077769","1","1","1","1","1","1","1","1","1"
"250043","img/neutralC/CFD-BM-217-082-N.jpg","img/neutralC/CFD-WF-244-163-N.jpg","img/neutralC/CFD-IM-702-101-N.jpg","1","1","1","0","1","1","0.370179000077769","0.350713700056076","0.374415700091049","1","1","1","1","1","1","1","1","1"
"250043","img/neutralC/CFD-IM-702-101-N.jpg","img/neutralC/CFD-BM-217-082-N.jpg","img/neutralC/CFD-WM-015-002-N.jpg","1","1","1","1","0","0","0.374415700091049","0.370179000077769","0.4323488001246","1","1","1","1","1","1","1","1","1"
"250043","img/neutralC/CFD-WM-015-002-N.jpg","img/neutralC/CFD-IM-702-101-N.jpg","img/neutralC/CFD-WF-030-002-N.jpg","1","1","1","0","1","0","0.4323488001246","0.374415700091049","0.499016100075096","1","1","1","1","1","1","1","1","1"
"250043","img/neutralC/CFD-WF-030-002-N.jpg","img/neutralC/CFD-WM-015-002-N.jpg","img/neutralC/CFD-MF-357-002-N.jpg","1","1","0","0","0","0","0.499016100075096","0.4323488001246","0.66947800014168","1","1","1","1","1","1","1","1","2"
"250043","img/neutralC/CFD-MF-357-002-N.jpg","img/neutralC/CFD-WF-030-002-N.jpg","img/neutralC/CFD-WM-218-074-N.jpg","0","1","1","0","0","1","0.66947800014168","0.499016100075096","0.334343000082299","1","1","1","1","1","1","2","1","1"
"250043","img/neutralC/CFD-WM-218-074-N.jpg","img/neutralC/CFD-MF-357-002-N.jpg","img/neutralC/CFD-IM-706-002-N.jpg","1","0","1","1","0","0","0.334343000082299","0.66947800014168","0.427336200140417","1","1","1","1","1","1","1","2","1"
"250043","img/neutralC/CFD-IM-706-002-N.jpg","img/neutralC/CFD-WM-218-074-N.jpg","img/neutralC/CFD-MF-316-001-N.jpg","1","1","1","0","1","0","0.427336200140417","0.334343000082299","0.383797300281003","1","1","1","1","1","1","1","1","1"
"250043","img/neutralC/CFD-MF-316-001-N.jpg","img/neutralC/CFD-IM-706-002-N.jpg","img/neutralC/CFD-IM-667-369-N.jpg","1","1","0","0","0","0","0.383797300281003","0.427336200140417","0.381586900213733","1","1","1","1","1","1","1","1","3"
"250043","img/neutralC/CFD-IM-667-369-N.jpg","img/neutralC/CFD-MF-316-001-N.jpg","img/neutralC/CFD-MF-343-001-N.jpg","0","1","1","0","0","1","0.381586900213733","0.383797300281003","0.40797740011476","1","1","1","1","1","1","3","1","1"
"250043","img/neutralC/CFD-MF-343-001-N.jpg","img/neutralC/CFD-IM-667-369-N.jpg",NA,"1","0",NA,"1","0",NA,"0.40797740011476","0.381586900213733",NA,"1","1",NA,"1","1",NA,"1","3",NA
"250043","img/neutralC/CFD-BM-029-024-N.jpg",NA,"img/neutralC/CFD-BM-211-174-N.jpg","1",NA,"0","1",NA,"0","0.384485200047493",NA,"0.400851600104943","1",NA,"1","1",NA,"1","1",NA,"3"
"250043","img/neutralC/CFD-BM-211-174-N.jpg","img/neutralC/CFD-BM-029-024-N.jpg","img/neutralC/CFD-WF-026-002-N.jpg","0","1","1","0","1","1","0.400851600104943","0.384485200047493","0.3802897001151","1","1","1","1","1","1","3","1","1"
"250043","img/neutralC/CFD-WF-026-002-N.jpg","img/neutralC/CFD-BM-211-174-N.jpg","img/neutralC/CFD-AM-235-241-N.jpg","1","0","1","1","0","0","0.3802897001151","0.400851600104943","0.455415400210768","1","1","1","1","1","1","1","3","1"
"250043","img/neutralC/CFD-AM-235-241-N.jpg","img/neutralC/CFD-WF-026-002-N.jpg","img/neutralC/CFD-AM-217-085-N.jpg","1","1","1","0","1","0","0.455415400210768","0.3802897001151","0.374020300107077","1","1","1","1","1","1","1","1","1"
"250043","img/neutralC/CFD-AM-217-085-N.jpg","img/neutralC/CFD-AM-235-241-N.jpg","img/neutralC/CFD-BF-255-140-N.jpg","1","1","1","0","0","1","0.374020300107077","0.455415400210768","0.351747800130397","1","1","1","1","1","1","1","1","1"
"250043","img/neutralC/CFD-BF-255-140-N.jpg","img/neutralC/CFD-AM-217-085-N.jpg","img/neutralC/CFD-LF-216-121-N.jpg","1","1","1","1","0","1","0.351747800130397","0.374020300107077","0.337526000104845","1","1","1","1","1","1","1","1","1"
"250043","img/neutralC/CFD-LF-216-121-N.jpg","img/neutralC/CFD-BF-255-140-N.jpg","img/neutralC/CFD-WM-225-127-N.jpg","1","1","0","1","1","0","0.337526000104845","0.351747800130397","0.365731900092214","1","1","1","1","1","1","1","1","3"
"250043","img/neutralC/CFD-WM-225-127-N.jpg","img/neutralC/CFD-LF-216-121-N.jpg","img/neutralC/CFD-IF-672-305-N.jpg","0","1","0","0","1","0","0.365731900092214","0.337526000104845","0.33165520010516","1","1","1","1","1","1","3","1","2"
"250043","img/neutralC/CFD-IF-672-305-N.jpg","img/neutralC/CFD-WM-225-127-N.jpg","img/neutralC/CFD-IF-718-001-N.jpg","0","0","1","0","0","1","0.33165520010516","0.365731900092214","0.367826499976218","1","1","1","1","1","1","2","3","1"
"250043","img/neutralC/CFD-IF-718-001-N.jpg","img/neutralC/CFD-IF-672-305-N.jpg","img/neutralC/CFD-IM-639-263-N.jpg","1","0","1","1","0","1","0.367826499976218","0.33165520010516","0.363537800265476","1","1","1","1","1","1","1","2","1"
"250043","img/neutralC/CFD-IM-639-263-N.jpg","img/neutralC/CFD-IF-718-001-N.jpg","img/neutralC/CFD-BM-247-240-N.jpg","1","1","1","1","1","0","0.363537800265476","0.367826499976218","0.364653800148517","1","1","1","1","1","1","1","1","3"
"250043","img/neutralC/CFD-BM-247-240-N.jpg","img/neutralC/CFD-IM-639-263-N.jpg","img/neutralC/CFD-IM-728-041-N.jpg","1","1","1","0","1","0","0.364653800148517","0.363537800265476","0.427439000224695","1","1","1","1","1","1","3","1","1"
"250043","img/neutralC/CFD-IM-728-041-N.jpg","img/neutralC/CFD-BM-247-240-N.jpg","img/neutralC/CFD-AM-215-120-N.jpg","1","1","1","0","0","1","0.427439000224695","0.364653800148517","0.463922300143167","1","1","1","1","1","1","1","3","1"
"250043","img/neutralC/CFD-AM-215-120-N.jpg","img/neutralC/CFD-IM-728-041-N.jpg","img/neutralC/CFD-WF-002-004-N.jpg","1","1","0","1","0","0","0.463922300143167","0.427439000224695","0.493095300160348","1","1","1","1","1","1","1","1","3"
"250043","img/neutralC/CFD-WF-002-004-N.jpg","img/neutralC/CFD-AM-215-120-N.jpg","img/neutralC/CFD-WF-022-017-N.jpg","0","1","1","0","1","0","0.493095300160348","0.463922300143167","0.4172966000624","1","1","1","1","1","1","3","1","1"
"250043","img/neutralC/CFD-WF-022-017-N.jpg","img/neutralC/CFD-WF-002-004-N.jpg","img/neutralC/CFD-WM-038-003-N.jpg","1","0","1","0","0","0","0.4172966000624","0.493095300160348","0.450013600056991","1","1","1","1","1","1","1","3","1"
"250043","img/neutralC/CFD-WM-038-003-N.jpg","img/neutralC/CFD-WF-022-017-N.jpg","img/neutralC/CFD-IM-674-281-N.jpg","1","1","1","0","0","1","0.450013600056991","0.4172966000624","0.400826300261542","1","1","1","1","1","1","1","1","1"
"250043","img/neutralC/CFD-IM-674-281-N.jpg","img/neutralC/CFD-WM-038-003-N.jpg","img/neutralC/CFD-BM-027-001-N.jpg","1","1","1","1","0","0","0.400826300261542","0.450013600056991","0.399654500186443","1","1","1","1","1","1","1","1","3"
"250043","img/neutralC/CFD-BM-027-001-N.jpg","img/neutralC/CFD-IM-674-281-N.jpg","img/neutralC/CFD-WM-257-161-N.jpg","1","1","1","0","1","1","0.399654500186443","0.400826300261542","0.37009680015035","1","1","1","1","1","1","3","1","1"
"250043","img/neutralC/CFD-WM-257-161-N.jpg","img/neutralC/CFD-BM-027-001-N.jpg","img/neutralC/CFD-BF-208-266-N.jpg","1","1","1","1","0","0","0.37009680015035","0.399654500186443","0.495363299967721","1","1","1","1","1","1","1","3","1"
"250043","img/neutralC/CFD-BF-208-266-N.jpg","img/neutralC/CFD-WM-257-161-N.jpg","img/neutralC/CFD-MM-319-052-N.jpg","1","1","1","0","1","1","0.495363299967721","0.37009680015035","0.325627900194377","1","1","1","1","1","1","1","1","1"
"250043","img/neutralC/CFD-MM-319-052-N.jpg","img/neutralC/CFD-BF-208-266-N.jpg","img/neutralC/CFD-BM-015-015-N.jpg","1","1","0","1","0","0","0.325627900194377","0.495363299967721","0.360383100109175","1","1","1","1","1","1","1","1","3"
"250043","img/neutralC/CFD-BM-015-015-N.jpg","img/neutralC/CFD-MM-319-052-N.jpg","img/neutralC/CFD-BF-028-001-N.jpg","0","1","0","0","1","1","0.360383100109175","0.325627900194377","0.515449200291187","1","1","1","1","1","1","3","1","3"
"250043","img/neutralC/CFD-BF-028-001-N.jpg","img/neutralC/CFD-BM-015-015-N.jpg","img/neutralC/CFD-LM-252-076-N.jpg","0","0","1","1","0","1","0.515449200291187","0.360383100109175","0.417817300185561","1","1","1","1","1","1","3","3","1"
"250043","img/neutralC/CFD-LM-252-076-N.jpg","img/neutralC/CFD-BF-028-001-N.jpg","img/neutralC/CFD-WM-002-009-N.jpg","1","0","1","1","1","0","0.417817300185561","0.515449200291187","0.443839000305161","1","1","1","1","1","1","1","3","1"
"250043","img/neutralC/CFD-WM-002-009-N.jpg","img/neutralC/CFD-LM-252-076-N.jpg","img/neutralC/CFD-BF-023-010-N.jpg","1","1","1","0","1","1","0.443839000305161","0.417817300185561","0.405903900042176","1","1","1","1","1","1","1","1","1"
"250043","img/neutralC/CFD-BF-023-010-N.jpg","img/neutralC/CFD-WM-002-009-N.jpg","img/neutralC/CFD-WM-040-022-N.jpg","1","1","1","1","0","0","0.405903900042176","0.443839000305161","0.439449900062755","1","1","1","1","1","1","1","1","1"
"250043","img/neutralC/CFD-WM-040-022-N.jpg","img/neutralC/CFD-BF-023-010-N.jpg","img/neutralC/CFD-LF-236-221-N.jpg","1","1","1","0","1","1","0.439449900062755","0.405903900042176","0.398839600151405","1","1","1","1","1","1","1","1","1"
"250043","img/neutralC/CFD-LF-236-221-N.jpg","img/neutralC/CFD-WM-040-022-N.jpg","img/neutralC/CFD-BF-204-189-N.jpg","1","1","1","1","0","1","0.398839600151405","0.439449900062755","0.398916400037706","1","1","1","1","1","1","1","1","1"
"250043","img/neutralC/CFD-BF-204-189-N.jpg","img/neutralC/CFD-LF-236-221-N.jpg","img/neutralC/CFD-BF-201-080-N.jpg","1","1","1","1","1","1","0.398916400037706","0.398839600151405","0.402100900188088","1","1","1","1","1","1","1","1","1"
"250043","img/neutralC/CFD-BF-201-080-N.jpg","img/neutralC/CFD-BF-204-189-N.jpg","img/neutralC/CFD-BF-003-003-N.jpg","1","1","0","1","1","0","0.402100900188088","0.398916400037706","0.440996500197798","1","1","1","1","1","1","1","1","3"
"250043","img/neutralC/CFD-BF-003-003-N.jpg","img/neutralC/CFD-BF-201-080-N.jpg",NA,"0","1",NA,"0","1",NA,"0.440996500197798","0.402100900188088",NA,"1","1",NA,"1","1",NA,"3","1",NA
"250043","img/neutralC/CFD-AF-246-242-N.jpg",NA,"img/neutralC/CFD-AM-233-236-N.jpg","0",NA,"1","0",NA,"1","0.654439700068906",NA,"0.416550300084054","1",NA,"1","1",NA,"1","1",NA,"1"
"250043","img/neutralC/CFD-AM-233-236-N.jpg","img/neutralC/CFD-AF-246-242-N.jpg","img/neutralC/CFD-IM-669-111-N.jpg","1","0","0","1","0","1","0.416550300084054","0.654439700068906","0.397762400098145","1","1","1","1","1","1","1","1","2"
"250043","img/neutralC/CFD-IM-669-111-N.jpg","img/neutralC/CFD-AM-233-236-N.jpg","img/neutralC/CFD-IF-732-260-N.jpg","0","1","1","1","1","0","0.397762400098145","0.416550300084054","0.452074100030586","1","1","1","1","1","1","2","1","1"
"250043","img/neutralC/CFD-IF-732-260-N.jpg","img/neutralC/CFD-IM-669-111-N.jpg","img/neutralC/CFD-BM-004-002-N.jpg","1","0","1","0","1","0","0.452074100030586","0.397762400098145","0.437237000092864","1","1","1","1","1","1","1","2","1"
"250043","img/neutralC/CFD-BM-004-002-N.jpg","img/neutralC/CFD-IF-732-260-N.jpg","img/neutralC/CFD-MF-307-002-N.jpg","1","1","1","0","0","1","0.437237000092864","0.452074100030586","0.553598400205374","1","1","1","1","1","1","1","1","1"
"250043","img/neutralC/CFD-MF-307-002-N.jpg","img/neutralC/CFD-BM-004-002-N.jpg","img/neutralC/CFD-BF-042-026-N.jpg","1","1","1","1","0","1","0.553598400205374","0.437237000092864","0.38734420016408","1","1","1","1","1","1","1","1","1"
"250043","img/neutralC/CFD-BF-042-026-N.jpg","img/neutralC/CFD-MF-307-002-N.jpg","img/neutralC/CFD-AM-245-111-N.jpg","1","1","1","1","1","1","0.38734420016408","0.553598400205374","0.354524200083688","1","1","1","1","1","1","1","1","1"
"250043","img/neutralC/CFD-AM-245-111-N.jpg","img/neutralC/CFD-BF-042-026-N.jpg","img/neutralC/CFD-WF-210-086-N.jpg","1","1","0","1","1","0","0.354524200083688","0.38734420016408","0.438426100183278","1","1","1","1","1","1","1","1","2"
"250043","img/neutralC/CFD-WF-210-086-N.jpg","img/neutralC/CFD-AM-245-111-N.jpg","img/neutralC/CFD-AF-250-200-N.jpg","0","1","1","0","1","1","0.438426100183278","0.354524200083688","0.366905000060797","1","1","1","1","1","1","2","1","1"
"250043","img/neutralC/CFD-AF-250-200-N.jpg","img/neutralC/CFD-WF-210-086-N.jpg","img/neutralC/CFD-LM-204-001-N.jpg","1","0","1","1","0","0","0.366905000060797","0.438426100183278","0.386567300185561","1","1","1","1","1","1","1","2","1"
"250043","img/neutralC/CFD-LM-204-001-N.jpg","img/neutralC/CFD-AF-250-200-N.jpg","img/neutralC/CFD-IM-635-010-N.jpg","1","1","1","0","1","1","0.386567300185561","0.366905000060797","0.325712400022894","1","1","1","1","1","1","1","1","1"
"250043","img/neutralC/CFD-IM-635-010-N.jpg","img/neutralC/CFD-LM-204-001-N.jpg","img/neutralC/CFD-BM-215-155-N.jpg","1","1","0","1","0","0","0.325712400022894","0.386567300185561","0.371436000103131","1","1","1","1","1","1","1","1","3"
"250043","img/neutralC/CFD-BM-215-155-N.jpg","img/neutralC/CFD-IM-635-010-N.jpg","img/neutralC/CFD-BF-040-003-N.jpg","0","1","1","0","1","1","0.371436000103131","0.325712400022894","0.415877900086343","1","1","1","1","1","1","3","1","1"
"250043","img/neutralC/CFD-BF-040-003-N.jpg","img/neutralC/CFD-BM-215-155-N.jpg","img/neutralC/CFD-BF-020-002-N.jpg","1","0","1","1","0","1","0.415877900086343","0.371436000103131","0.393241400131956","1","1","1","1","1","1","1","3","1"
"250043","img/neutralC/CFD-BF-020-002-N.jpg","img/neutralC/CFD-BF-040-003-N.jpg","img/neutralC/CFD-BF-235-168-N.jpg","1","1","1","1","1","1","0.393241400131956","0.415877900086343","0.37510050018318","1","1","1","1","1","1","1","1","1"
"250043","img/neutralC/CFD-BF-235-168-N.jpg","img/neutralC/CFD-BF-020-002-N.jpg","img/neutralC/CFD-BF-217-189-N.jpg","1","1","0","1","1","0","0.37510050018318","0.393241400131956","0.427676500054076","1","1","1","1","1","1","1","1","2"
"250043","img/neutralC/CFD-BF-217-189-N.jpg","img/neutralC/CFD-BF-235-168-N.jpg","img/neutralC/CFD-IM-678-482-N.jpg","0","1","1","0","1","0","0.427676500054076","0.37510050018318","0.388599599944428","1","1","1","1","1","1","2","1","1"
"250043","img/neutralC/CFD-IM-678-482-N.jpg","img/neutralC/CFD-BF-217-189-N.jpg","img/neutralC/CFD-AF-244-168-N.jpg","1","0","1","0","0","0","0.388599599944428","0.427676500054076","0.413720300188288","1","1","1","1","1","1","1","2","1"
"250043","img/neutralC/CFD-AF-244-168-N.jpg","img/neutralC/CFD-IM-678-482-N.jpg","img/neutralC/CFD-WF-235-121-N.jpg","1","1","1","0","0","0","0.413720300188288","0.388599599944428","0.43529299995862","1","1","1","1","1","1","1","1","1"
"250043","img/neutralC/CFD-WF-235-121-N.jpg","img/neutralC/CFD-AF-244-168-N.jpg","img/neutralC/CFD-IF-636-011-N.jpg","1","1","1","0","0","1","0.43529299995862","0.413720300188288","0.394455899950117","1","1","1","1","1","1","1","1","1"
"250043","img/neutralC/CFD-IF-636-011-N.jpg","img/neutralC/CFD-WF-235-121-N.jpg","img/neutralC/CFD-LF-239-148-N.jpg","1","1","0","1","0","0","0.394455899950117","0.43529299995862","0.406557700131088","1","1","1","1","1","1","1","1","3"
"250043","img/neutralC/CFD-LF-239-148-N.jpg","img/neutralC/CFD-IF-636-011-N.jpg","img/neutralC/CFD-IM-632-097-N.jpg","0","1","1","0","1","0","0.406557700131088","0.394455899950117","0.533672800054774","1","1","1","1","1","1","3","1","1"
"250043","img/neutralC/CFD-IM-632-097-N.jpg","img/neutralC/CFD-LF-239-148-N.jpg","img/neutralC/CFD-AM-225-102-N.jpg","1","0","1","0","0","0","0.533672800054774","0.406557700131088","0.443224600283429","1","1","1","1","1","1","1","3","1"
"250043","img/neutralC/CFD-AM-225-102-N.jpg","img/neutralC/CFD-IM-632-097-N.jpg","img/neutralC/CFD-AF-213-126-N.jpg","1","1","1","0","0","1","0.443224600283429","0.533672800054774","0.423418400110677","1","1","1","1","1","1","1","1","1"
"250043","img/neutralC/CFD-AF-213-126-N.jpg","img/neutralC/CFD-AM-225-102-N.jpg","img/neutralC/CFD-MF-302-027-N.jpg","1","1","0","1","0","0","0.423418400110677","0.443224600283429","0.398813500069082","1","1","1","1","1","1","1","1","3"
"250043","img/neutralC/CFD-MF-302-027-N.jpg","img/neutralC/CFD-AF-213-126-N.jpg","img/neutralC/CFD-WM-018-002-N.jpg","0","1","1","0","1","0","0.398813500069082","0.423418400110677","0.421672900207341","1","1","1","1","1","1","3","1","1"
"250043","img/neutralC/CFD-WM-018-002-N.jpg","img/neutralC/CFD-MF-302-027-N.jpg","img/neutralC/CFD-AF-234-208-N.jpg","1","0","1","0","0","1","0.421672900207341","0.398813500069082","0.557208300102502","1","1","1","1","1","1","1","3","1"
"250043","img/neutralC/CFD-AF-234-208-N.jpg","img/neutralC/CFD-WM-018-002-N.jpg","img/neutralC/CFD-AF-205-155-N.jpg","1","1","1","1","0","0","0.557208300102502","0.421672900207341","0.512028299970552","1","1","1","1","1","1","1","1","1"
"250043","img/neutralC/CFD-AF-205-155-N.jpg","img/neutralC/CFD-AF-234-208-N.jpg","img/neutralC/CFD-WM-253-119-N.jpg","1","1","1","0","1","1","0.512028299970552","0.557208300102502","0.386977300047875","1","1","1","1","1","1","1","1","1"
"250043","img/neutralC/CFD-WM-253-119-N.jpg","img/neutralC/CFD-AF-205-155-N.jpg","img/neutralC/CFD-BF-206-143-N.jpg","1","1","1","1","0","1","0.386977300047875","0.512028299970552","0.635472299996763","1","1","1","1","1","1","1","1","1"
"250043","img/neutralC/CFD-BF-206-143-N.jpg","img/neutralC/CFD-WM-253-119-N.jpg","img/neutralC/CFD-LM-241-125-N.jpg","1","1","1","1","1","1","0.635472299996763","0.386977300047875","0.349599400069565","1","1","1","1","1","1","1","1","1"
"250043","img/neutralC/CFD-LM-241-125-N.jpg","img/neutralC/CFD-BF-206-143-N.jpg",NA,"1","1",NA,"1","1",NA,"0.349599400069565","0.635472299996763",NA,"1","1",NA,"1","1",NA,"1","1",NA
