"participant_id","current_trial_face","pre_trial_face","post_trial_face","current_trial_accuracy","pre_trial_accuracy","post_trial_accuracy","current_trial_congruency","pre_trial_congruency","post_trial_congruency","current_trial_rt","pre_trial_rt","post_trial_rt","current_trial_responded","pre_trial_responded","post_trial_responded","current_trial_legitResponse","pre_trial_legitResponse","post_trial_legitResponse","current_trial_resp_nums","pre_trial_resp_nums","post_trial_resp_nums"
"250052","img/neutralC/CFD-IM-604-014-N.jpg",NA,"img/neutralC/CFD-WM-232-070-N.jpg","1",NA,"1","0",NA,"0","0.768530400004238",NA,"0.789957400003914","1",NA,"1","1",NA,"1","1",NA,"1"
"250052","img/neutralC/CFD-WM-232-070-N.jpg","img/neutralC/CFD-IM-604-014-N.jpg","img/neutralC/CFD-IM-685-004-N.jpg","1","1","1","0","0","1","0.789957400003914","0.768530400004238","0.779062000001431","1","1","1","1","1","1","1","1","1"
"250052","img/neutralC/CFD-IM-685-004-N.jpg","img/neutralC/CFD-WM-232-070-N.jpg","img/neutralC/CFD-AF-215-70-N.jpg","1","1","1","1","0","0","0.779062000001431","0.789957400003914","0.686225600002217","1","1","1","1","1","1","1","1","1"
"250052","img/neutralC/CFD-AF-215-70-N.jpg","img/neutralC/CFD-IM-685-004-N.jpg","img/neutralC/CFD-WF-217-085-N.jpg","1","1","1","0","1","1","0.686225600002217","0.779062000001431","0.665234100000816","1","1","1","1","1","1","1","1","1"
"250052","img/neutralC/CFD-WF-217-085-N.jpg","img/neutralC/CFD-AF-215-70-N.jpg","img/neutralC/CFD-WM-213-076-N.jpg","1","1","1","1","0","1","0.665234100000816","0.686225600002217","0.589820499997586","1","1","1","1","1","1","1","1","1"
"250052","img/neutralC/CFD-WM-213-076-N.jpg","img/neutralC/CFD-WF-217-085-N.jpg","img/neutralC/CFD-LM-217-162-N.jpg","1","1","1","1","1","0","0.589820499997586","0.665234100000816","0.664170699994429","1","1","1","1","1","1","1","1","1"
"250052","img/neutralC/CFD-LM-217-162-N.jpg","img/neutralC/CFD-WM-213-076-N.jpg","img/neutralC/CFD-LF-201-035-N.jpg","1","1","1","0","1","1","0.664170699994429","0.589820499997586","0.629378600002383","1","1","1","1","1","1","1","1","1"
"250052","img/neutralC/CFD-LF-201-035-N.jpg","img/neutralC/CFD-LM-217-162-N.jpg","img/neutralC/CFD-MM-304-002-N.jpg","1","1","1","1","0","1","0.629378600002383","0.664170699994429","0.589482299998053","1","1","1","1","1","1","1","1","1"
"250052","img/neutralC/CFD-MM-304-002-N.jpg","img/neutralC/CFD-LF-201-035-N.jpg","img/neutralC/CFD-AF-254-167-N.jpg","1","1","1","1","1","1","0.589482299998053","0.629378600002383","0.522764699999243","1","1","1","1","1","1","1","1","1"
"250052","img/neutralC/CFD-AF-254-167-N.jpg","img/neutralC/CFD-MM-304-002-N.jpg","img/neutralC/CFD-BF-224-002-N.jpg","1","1","1","1","1","1","0.522764699999243","0.589482299998053","0.52506749999884","1","1","1","1","1","1","1","1","1"
"250052","img/neutralC/CFD-BF-224-002-N.jpg","img/neutralC/CFD-AF-254-167-N.jpg","img/neutralC/CFD-MF-340-026-N.jpg","1","1","1","1","1","1","0.52506749999884","0.522764699999243","0.531084300004295","1","1","1","1","1","1","1","1","1"
"250052","img/neutralC/CFD-MF-340-026-N.jpg","img/neutralC/CFD-BF-224-002-N.jpg","img/neutralC/CFD-WM-024-015-N.jpg","1","1","1","1","1","1","0.531084300004295","0.52506749999884","0.573015999994823","1","1","1","1","1","1","1","1","1"
"250052","img/neutralC/CFD-WM-024-015-N.jpg","img/neutralC/CFD-MF-340-026-N.jpg","img/neutralC/CFD-IM-675-015-N.jpg","1","1","1","1","1","1","0.573015999994823","0.531084300004295","0.605930299992906","1","1","1","1","1","1","1","1","1"
"250052","img/neutralC/CFD-IM-675-015-N.jpg","img/neutralC/CFD-WM-024-015-N.jpg","img/neutralC/CFD-WF-248-129-N.jpg","1","1","1","1","1","0","0.605930299992906","0.573015999994823","0.577866599996923","1","1","1","1","1","1","1","1","1"
"250052","img/neutralC/CFD-WF-248-129-N.jpg","img/neutralC/CFD-IM-675-015-N.jpg","img/neutralC/CFD-WF-008-002-N.jpg","1","1","1","0","1","1","0.577866599996923","0.605930299992906","0.5310002000042","1","1","1","1","1","1","1","1","1"
"250052","img/neutralC/CFD-WF-008-002-N.jpg","img/neutralC/CFD-WF-248-129-N.jpg","img/neutralC/CFD-IM-709-103-N.jpg","1","1","1","1","0","0","0.5310002000042","0.577866599996923","0.724662799999351","1","1","1","1","1","1","1","1","1"
"250052","img/neutralC/CFD-IM-709-103-N.jpg","img/neutralC/CFD-WF-008-002-N.jpg","img/neutralC/CFD-MF-327-002-N.jpg","1","1","1","0","1","0","0.724662799999351","0.5310002000042","0.668080900009954","1","1","1","1","1","1","1","1","1"
"250052","img/neutralC/CFD-MF-327-002-N.jpg","img/neutralC/CFD-IM-709-103-N.jpg","img/neutralC/CFD-WF-012-002-N.jpg","1","1","1","0","0","1","0.668080900009954","0.724662799999351","0.750166900004842","1","1","1","1","1","1","1","1","1"
"250052","img/neutralC/CFD-WF-012-002-N.jpg","img/neutralC/CFD-MF-327-002-N.jpg","img/neutralC/CFD-IF-619-197-N.jpg","1","1","1","1","0","0","0.750166900004842","0.668080900009954","0.576308100004098","1","1","1","1","1","1","1","1","1"
"250052","img/neutralC/CFD-IF-619-197-N.jpg","img/neutralC/CFD-WF-012-002-N.jpg","img/neutralC/CFD-AF-229-160-N.jpg","1","1","1","0","1","0","0.576308100004098","0.750166900004842","0.606713800007128","1","1","1","1","1","1","1","1","1"
"250052","img/neutralC/CFD-AF-229-160-N.jpg","img/neutralC/CFD-IF-619-197-N.jpg","img/neutralC/CFD-MF-329-001-N.jpg","1","1","1","0","0","0","0.606713800007128","0.576308100004098","0.566257400001632","1","1","1","1","1","1","1","1","1"
"250052","img/neutralC/CFD-MF-329-001-N.jpg","img/neutralC/CFD-AF-229-160-N.jpg","img/neutralC/CFD-MF-300-002-N.jpg","1","1","1","0","0","0","0.566257400001632","0.606713800007128","0.601492499990854","1","1","1","1","1","1","1","1","1"
"250052","img/neutralC/CFD-MF-300-002-N.jpg","img/neutralC/CFD-MF-329-001-N.jpg","img/neutralC/CFD-BF-051-035-N.jpg","1","1","1","0","0","0","0.601492499990854","0.566257400001632","0.951540900001419","1","1","1","1","1","1","1","1","1"
"250052","img/neutralC/CFD-BF-051-035-N.jpg","img/neutralC/CFD-MF-300-002-N.jpg","img/neutralC/CFD-BF-043-003-N.jpg","1","1","1","0","0","0","0.951540900001419","0.601492499990854","0.631628200004343","1","1","1","1","1","1","1","1","1"
"250052","img/neutralC/CFD-BF-043-003-N.jpg","img/neutralC/CFD-BF-051-035-N.jpg","img/neutralC/CFD-IM-637-007-N.jpg","1","1","1","0","0","0","0.631628200004343","0.951540900001419","0.56213759999082","1","1","1","1","1","1","1","1","1"
"250052","img/neutralC/CFD-IM-637-007-N.jpg","img/neutralC/CFD-BF-043-003-N.jpg","img/neutralC/CFD-AM-236-090-N.jpg","1","1","1","0","0","1","0.56213759999082","0.631628200004343","0.58165910000389","1","1","1","1","1","1","1","1","1"
"250052","img/neutralC/CFD-AM-236-090-N.jpg","img/neutralC/CFD-IM-637-007-N.jpg","img/neutralC/CFD-BM-039-029-N.jpg","1","1","1","1","0","1","0.58165910000389","0.56213759999082","0.543098800000735","1","1","1","1","1","1","1","1","1"
"250052","img/neutralC/CFD-BM-039-029-N.jpg","img/neutralC/CFD-AM-236-090-N.jpg","img/neutralC/CFD-IF-608-390-N.jpg","1","1","1","1","1","1","0.543098800000735","0.58165910000389","0.538655600001221","1","1","1","1","1","1","1","1","1"
"250052","img/neutralC/CFD-IF-608-390-N.jpg","img/neutralC/CFD-BM-039-029-N.jpg","img/neutralC/CFD-BM-243-218-N.jpg","1","1","1","1","1","1","0.538655600001221","0.543098800000735","0.689900199999101","1","1","1","1","1","1","1","1","1"
"250052","img/neutralC/CFD-BM-243-218-N.jpg","img/neutralC/CFD-IF-608-390-N.jpg","img/neutralC/CFD-LF-226-174-N.jpg","1","1","1","1","1","0","0.689900199999101","0.538655600001221","1.52806419999979","1","1","1","1","1","1","1","1","1"
"250052","img/neutralC/CFD-LF-226-174-N.jpg","img/neutralC/CFD-BM-243-218-N.jpg","img/neutralC/CFD-WF-212-050-N.jpg","1","1","1","0","1","0","1.52806419999979","0.689900199999101","0.763520000007702","1","1","1","1","1","1","1","1","1"
"250052","img/neutralC/CFD-WF-212-050-N.jpg","img/neutralC/CFD-LF-226-174-N.jpg",NA,"1","1",NA,"0","0",NA,"0.763520000007702","1.52806419999979",NA,"1","1",NA,"1","1",NA,"1","1",NA
"250052","img/neutralC/CFD-WM-201-063-N.jpg",NA,"img/neutralC/CFD-AM-244-222-N.jpg","1",NA,"1","1",NA,"0","0.50191459999769",NA,"0.537958800006891","1",NA,"1","1",NA,"1","1",NA,"1"
"250052","img/neutralC/CFD-AM-244-222-N.jpg","img/neutralC/CFD-WM-201-063-N.jpg","img/neutralC/CFD-WF-245-084-N.jpg","1","1","1","0","1","1","0.537958800006891","0.50191459999769","0.505702800001018","1","1","1","1","1","1","1","1","1"
"250052","img/neutralC/CFD-WF-245-084-N.jpg","img/neutralC/CFD-AM-244-222-N.jpg","img/neutralC/CFD-WM-237-052-N.jpg","1","1","1","1","0","1","0.505702800001018","0.537958800006891","0.500968399996054","1","1","1","1","1","1","1","1","1"
"250052","img/neutralC/CFD-WM-237-052-N.jpg","img/neutralC/CFD-WF-245-084-N.jpg","img/neutralC/CFD-IM-627-178-N.jpg","1","1","1","1","1","1","0.500968399996054","0.505702800001018","0.495841299998574","1","1","1","1","1","1","1","1","1"
"250052","img/neutralC/CFD-IM-627-178-N.jpg","img/neutralC/CFD-WM-237-052-N.jpg","img/neutralC/CFD-MF-318-022-N.jpg","1","1","1","1","1","1","0.495841299998574","0.500968399996054","0.444893399995635","1","1","1","1","1","1","1","1","1"
"250052","img/neutralC/CFD-MF-318-022-N.jpg","img/neutralC/CFD-IM-627-178-N.jpg","img/neutralC/CFD-AF-232-078-N.jpg","1","1","1","1","1","1","0.444893399995635","0.495841299998574","0.41786200000206","1","1","1","1","1","1","1","1","1"
"250052","img/neutralC/CFD-AF-232-078-N.jpg","img/neutralC/CFD-MF-318-022-N.jpg","img/neutralC/CFD-WF-238-023-N.jpg","1","1","1","1","1","0","0.41786200000206","0.444893399995635","0.619421800016426","1","1","1","1","1","1","1","1","1"
"250052","img/neutralC/CFD-WF-238-023-N.jpg","img/neutralC/CFD-AF-232-078-N.jpg","img/neutralC/CFD-WF-027-003-N.jpg","1","1","1","0","1","1","0.619421800016426","0.41786200000206","0.508346300004632","1","1","1","1","1","1","1","1","1"
"250052","img/neutralC/CFD-WF-027-003-N.jpg","img/neutralC/CFD-WF-238-023-N.jpg","img/neutralC/CFD-IF-629-234-N.jpg","1","1","1","1","0","0","0.508346300004632","0.619421800016426","0.568817699997453","1","1","1","1","1","1","1","1","1"
"250052","img/neutralC/CFD-IF-629-234-N.jpg","img/neutralC/CFD-WF-027-003-N.jpg","img/neutralC/CFD-WM-221-091-N.jpg","1","1","1","0","1","0","0.568817699997453","0.508346300004632","0.471685400014394","1","1","1","1","1","1","1","1","1"
"250052","img/neutralC/CFD-WM-221-091-N.jpg","img/neutralC/CFD-IF-629-234-N.jpg","img/neutralC/CFD-BF-018-039-N.jpg","1","1","1","0","0","1","0.471685400014394","0.568817699997453","0.561484799996833","1","1","1","1","1","1","1","1","1"
"250052","img/neutralC/CFD-BF-018-039-N.jpg","img/neutralC/CFD-WM-221-091-N.jpg","img/neutralC/CFD-MM-321-021-N.jpg","1","1","1","1","0","0","0.561484799996833","0.471685400014394","0.533481499995105","1","1","1","1","1","1","1","1","1"
"250052","img/neutralC/CFD-MM-321-021-N.jpg","img/neutralC/CFD-BF-018-039-N.jpg","img/neutralC/CFD-IM-700-009-N.jpg","1","1","1","0","1","1","0.533481499995105","0.561484799996833","0.431015399997705","1","1","1","1","1","1","1","1","1"
"250052","img/neutralC/CFD-IM-700-009-N.jpg","img/neutralC/CFD-MM-321-021-N.jpg","img/neutralC/CFD-LF-215-157-N.jpg","1","1","1","1","0","0","0.431015399997705","0.533481499995105","0.53024120000191","1","1","1","1","1","1","1","1","1"
"250052","img/neutralC/CFD-LF-215-157-N.jpg","img/neutralC/CFD-IM-700-009-N.jpg","img/neutralC/CFD-AF-221-147-N.jpg","1","1","1","0","1","0","0.53024120000191","0.431015399997705","0.533125300004031","1","1","1","1","1","1","1","1","1"
"250052","img/neutralC/CFD-AF-221-147-N.jpg","img/neutralC/CFD-LF-215-157-N.jpg","img/neutralC/CFD-BM-023-029-N.jpg","1","1","1","0","0","1","0.533125300004031","0.53024120000191","0.420244499997352","1","1","1","1","1","1","1","1","1"
"250052","img/neutralC/CFD-BM-023-029-N.jpg","img/neutralC/CFD-AF-221-147-N.jpg","img/neutralC/CFD-WM-255-219-N.jpg","1","1","1","1","0","0","0.420244499997352","0.533125300004031","0.726257900008932","1","1","1","1","1","1","1","1","1"
"250052","img/neutralC/CFD-WM-255-219-N.jpg","img/neutralC/CFD-BM-023-029-N.jpg","img/neutralC/CFD-WF-226-095-N.jpg","1","1","1","0","1","1","0.726257900008932","0.420244499997352","0.366536400004406","1","1","1","1","1","1","1","1","1"
"250052","img/neutralC/CFD-WF-226-095-N.jpg","img/neutralC/CFD-WM-255-219-N.jpg","img/neutralC/CFD-MF-342-022-N.jpg","1","1","1","1","0","1","0.366536400004406","0.726257900008932","0.54036850000557","1","1","1","1","1","1","1","1","1"
"250052","img/neutralC/CFD-MF-342-022-N.jpg","img/neutralC/CFD-WF-226-095-N.jpg","img/neutralC/CFD-BM-200-046-N.jpg","1","1","1","1","1","0","0.54036850000557","0.366536400004406","0.502257800006191","1","1","1","1","1","1","1","1","1"
"250052","img/neutralC/CFD-BM-200-046-N.jpg","img/neutralC/CFD-MF-342-022-N.jpg","img/neutralC/CFD-WF-023-003-N.jpg","1","1","1","0","1","1","0.502257800006191","0.54036850000557","0.444575200002873","1","1","1","1","1","1","1","1","1"
"250052","img/neutralC/CFD-WF-023-003-N.jpg","img/neutralC/CFD-BM-200-046-N.jpg","img/neutralC/CFD-IM-719-221-N.jpg","1","1","0","1","0","0","0.444575200002873","0.502257800006191","0.297499300009804","1","1","1","1","1","1","1","1","1"
"250052","img/neutralC/CFD-IM-719-221-N.jpg","img/neutralC/CFD-WF-023-003-N.jpg","img/neutralC/CFD-LF-211-003-N.jpg","0","1","1","0","1","0","0.297499300009804","0.444575200002873","0.426882300002035","1","1","1","1","1","1","1","1","1"
"250052","img/neutralC/CFD-LF-211-003-N.jpg","img/neutralC/CFD-IM-719-221-N.jpg","img/neutralC/CFD-LM-253-075-N.jpg","1","0","1","0","0","0","0.426882300002035","0.297499300009804","0.417840900001465","1","1","1","1","1","1","1","1","1"
"250052","img/neutralC/CFD-LM-253-075-N.jpg","img/neutralC/CFD-LF-211-003-N.jpg","img/neutralC/CFD-MF-321-003-N.jpg","1","1","1","0","0","0","0.417840900001465","0.426882300002035","0.508857000007993","1","1","1","1","1","1","1","1","1"
"250052","img/neutralC/CFD-MF-321-003-N.jpg","img/neutralC/CFD-LM-253-075-N.jpg","img/neutralC/CFD-BF-218-207-N.jpg","1","1","1","0","0","1","0.508857000007993","0.417840900001465","0.642548200004967","1","1","1","1","1","1","1","1","1"
"250052","img/neutralC/CFD-BF-218-207-N.jpg","img/neutralC/CFD-MF-321-003-N.jpg","img/neutralC/CFD-BM-204-003-N.jpg","1","1","1","1","0","0","0.642548200004967","0.508857000007993","0.61381789999723","1","1","1","1","1","1","1","1","1"
"250052","img/neutralC/CFD-BM-204-003-N.jpg","img/neutralC/CFD-BF-218-207-N.jpg","img/neutralC/CFD-WM-009-002-N.jpg","1","1","1","0","1","0","0.61381789999723","0.642548200004967","0.556551300003775","1","1","1","1","1","1","1","1","1"
"250052","img/neutralC/CFD-WM-009-002-N.jpg","img/neutralC/CFD-BM-204-003-N.jpg","img/neutralC/CFD-WF-018-017-N.jpg","1","1","1","0","0","1","0.556551300003775","0.61381789999723","0.375075300005847","1","1","1","1","1","1","1","1","1"
"250052","img/neutralC/CFD-WF-018-017-N.jpg","img/neutralC/CFD-WM-009-002-N.jpg","img/neutralC/CFD-BF-254-201-N.jpg","1","1","1","1","0","0","0.375075300005847","0.556551300003775","0.54051759999129","1","1","1","1","1","1","1","1","1"
"250052","img/neutralC/CFD-BF-254-201-N.jpg","img/neutralC/CFD-WF-018-017-N.jpg","img/neutralC/CFD-WM-013-001-N.jpg","1","1","1","0","1","1","0.54051759999129","0.375075300005847","0.317105900001479","1","1","1","1","1","1","1","1","1"
"250052","img/neutralC/CFD-WM-013-001-N.jpg","img/neutralC/CFD-BF-254-201-N.jpg",NA,"1","1",NA,"1","0",NA,"0.317105900001479","0.54051759999129",NA,"1","1",NA,"1","1",NA,"1","1",NA
"250052","img/neutralC/CFD-LF-250-169-N.jpg",NA,"img/neutralC/CFD-IF-620-218-N.jpg","1",NA,"1","1",NA,"0","0.515265000009094",NA,"0.453798399990774","1",NA,"1","1",NA,"1","1",NA,"1"
"250052","img/neutralC/CFD-IF-620-218-N.jpg","img/neutralC/CFD-LF-250-169-N.jpg","img/neutralC/CFD-BM-018-001-N.jpg","1","1","1","0","1","1","0.453798399990774","0.515265000009094","0.390327499990235","1","1","1","1","1","1","1","1","1"
"250052","img/neutralC/CFD-BM-018-001-N.jpg","img/neutralC/CFD-IF-620-218-N.jpg","img/neutralC/CFD-AF-241-141-N.jpg","1","1","1","1","0","1","0.390327499990235","0.453798399990774","0.38096680000308","1","1","1","1","1","1","1","1","1"
"250052","img/neutralC/CFD-AF-241-141-N.jpg","img/neutralC/CFD-BM-018-001-N.jpg","img/neutralC/CFD-BM-005-003-N.jpg","1","1","1","1","1","1","0.38096680000308","0.390327499990235","0.399106400000164","1","1","1","1","1","1","1","1","1"
"250052","img/neutralC/CFD-BM-005-003-N.jpg","img/neutralC/CFD-AF-241-141-N.jpg","img/neutralC/CFD-BF-238-190-N.jpg","1","1","1","1","1","1","0.399106400000164","0.38096680000308","0.409204399998998","1","1","1","1","1","1","1","1","1"
"250052","img/neutralC/CFD-BF-238-190-N.jpg","img/neutralC/CFD-BM-005-003-N.jpg","img/neutralC/CFD-AF-206-079-N.jpg","1","1","1","1","1","1","0.409204399998998","0.399106400000164","0.331848600006197","1","1","1","1","1","1","1","1","1"
"250052","img/neutralC/CFD-AF-206-079-N.jpg","img/neutralC/CFD-BF-238-190-N.jpg","img/neutralC/CFD-BF-010-001-N.jpg","1","1","1","1","1","1","0.331848600006197","0.409204399998998","0.352129300008528","1","1","1","1","1","1","1","1","1"
"250052","img/neutralC/CFD-BF-010-001-N.jpg","img/neutralC/CFD-AF-206-079-N.jpg","img/neutralC/CFD-BM-212-117-N.jpg","1","1","1","1","1","0","0.352129300008528","0.331848600006197","0.438887700001942","1","1","1","1","1","1","1","1","1"
"250052","img/neutralC/CFD-BM-212-117-N.jpg","img/neutralC/CFD-BF-010-001-N.jpg","img/neutralC/CFD-AF-202-122-N.jpg","1","1","1","0","1","1","0.438887700001942","0.352129300008528","0.387199300006614","1","1","1","1","1","1","1","1","1"
"250052","img/neutralC/CFD-AF-202-122-N.jpg","img/neutralC/CFD-BM-212-117-N.jpg","img/neutralC/CFD-WF-209-052-N.jpg","1","1","1","1","0","1","0.387199300006614","0.438887700001942","0.427561400007107","1","1","1","1","1","1","1","1","1"
"250052","img/neutralC/CFD-WF-209-052-N.jpg","img/neutralC/CFD-AF-202-122-N.jpg","img/neutralC/CFD-LF-242-121-N.jpg","1","1","1","1","1","0","0.427561400007107","0.387199300006614","0.333526900009019","1","1","1","1","1","1","1","1","1"
"250052","img/neutralC/CFD-LF-242-121-N.jpg","img/neutralC/CFD-WF-209-052-N.jpg","img/neutralC/CFD-LF-247-051-N.jpg","1","1","1","0","1","1","0.333526900009019","0.427561400007107","0.379707800006145","1","1","1","1","1","1","1","1","1"
"250052","img/neutralC/CFD-LF-247-051-N.jpg","img/neutralC/CFD-LF-242-121-N.jpg","img/neutralC/CFD-BM-026-002-N.jpg","1","1","1","1","0","0","0.379707800006145","0.333526900009019","0.528622600002564","1","1","1","1","1","1","1","1","1"
"250052","img/neutralC/CFD-BM-026-002-N.jpg","img/neutralC/CFD-LF-247-051-N.jpg","img/neutralC/CFD-IM-638-250-1-N.jpg","1","1","1","0","1","1","0.528622600002564","0.379707800006145","0.366128099994967","1","1","1","1","1","1","1","1","1"
"250052","img/neutralC/CFD-IM-638-250-1-N.jpg","img/neutralC/CFD-BM-026-002-N.jpg","img/neutralC/CFD-LM-233-171-N.jpg","1","1","1","1","0","0","0.366128099994967","0.528622600002564","0.392135400004918","1","1","1","1","1","1","1","1","1"
"250052","img/neutralC/CFD-LM-233-171-N.jpg","img/neutralC/CFD-IM-638-250-1-N.jpg","img/neutralC/CFD-BM-231-155-N.jpg","1","1","1","0","1","1","0.392135400004918","0.366128099994967","0.378560400000424","1","1","1","1","1","1","1","1","1"
"250052","img/neutralC/CFD-BM-231-155-N.jpg","img/neutralC/CFD-LM-233-171-N.jpg","img/neutralC/CFD-BF-033-028-N.jpg","1","1","1","1","0","0","0.378560400000424","0.392135400004918","0.5358300999942","1","1","1","1","1","1","1","1","1"
"250052","img/neutralC/CFD-BF-033-028-N.jpg","img/neutralC/CFD-BM-231-155-N.jpg","img/neutralC/CFD-IM-617-174-N.jpg","1","1","1","0","1","0","0.5358300999942","0.378560400000424","0.524099899994326","1","1","1","1","1","1","1","1","1"
"250052","img/neutralC/CFD-IM-617-174-N.jpg","img/neutralC/CFD-BF-033-028-N.jpg","img/neutralC/CFD-WM-227-099-N.jpg","1","1","1","0","0","1","0.524099899994326","0.5358300999942","0.489862500005984","1","1","1","1","1","1","1","1","1"
"250052","img/neutralC/CFD-WM-227-099-N.jpg","img/neutralC/CFD-IM-617-174-N.jpg","img/neutralC/CFD-IF-665-015-N.jpg","1","1","1","1","0","0","0.489862500005984","0.524099899994326","0.576015899991035","1","1","1","1","1","1","1","1","1"
"250052","img/neutralC/CFD-IF-665-015-N.jpg","img/neutralC/CFD-WM-227-099-N.jpg","img/neutralC/CFD-WM-242-011-N.jpg","1","1","1","0","1","0","0.576015899991035","0.489862500005984","0.48757770001248","1","1","1","1","1","1","1","1","1"
"250052","img/neutralC/CFD-WM-242-011-N.jpg","img/neutralC/CFD-IF-665-015-N.jpg","img/neutralC/CFD-IM-657-308-N.jpg","1","1","1","0","0","0","0.48757770001248","0.576015899991035","0.59511759999441","1","1","1","1","1","1","1","1","1"
"250052","img/neutralC/CFD-IM-657-308-N.jpg","img/neutralC/CFD-WM-242-011-N.jpg","img/neutralC/CFD-IM-653-008-N.jpg","1","1","1","0","0","0","0.59511759999441","0.48757770001248","0.635454100003699","1","1","1","1","1","1","1","1","1"
"250052","img/neutralC/CFD-IM-653-008-N.jpg","img/neutralC/CFD-IM-657-308-N.jpg","img/neutralC/CFD-LM-219-295-N.jpg","1","1","1","0","0","1","0.635454100003699","0.59511759999441","0.440967600006843","1","1","1","1","1","1","1","1","1"
"250052","img/neutralC/CFD-LM-219-295-N.jpg","img/neutralC/CFD-IM-653-008-N.jpg","img/neutralC/CFD-IM-686-097-N.jpg","1","1","1","1","0","0","0.440967600006843","0.635454100003699","0.582080400010454","1","1","1","1","1","1","1","1","1"
"250052","img/neutralC/CFD-IM-686-097-N.jpg","img/neutralC/CFD-LM-219-295-N.jpg","img/neutralC/CFD-LF-245-166-N.jpg","1","1","1","0","1","1","0.582080400010454","0.440967600006843","0.518819300006726","1","1","1","1","1","1","1","1","1"
"250052","img/neutralC/CFD-LF-245-166-N.jpg","img/neutralC/CFD-IM-686-097-N.jpg","img/neutralC/CFD-WM-258-125-N.jpg","1","1","1","1","0","0","0.518819300006726","0.582080400010454","0.541822200000752","1","1","1","1","1","1","1","1","1"
"250052","img/neutralC/CFD-WM-258-125-N.jpg","img/neutralC/CFD-LF-245-166-N.jpg","img/neutralC/CFD-LM-226-175-N.jpg","1","1","1","0","1","0","0.541822200000752","0.518819300006726","0.641516899995622","1","1","1","1","1","1","1","1","1"
"250052","img/neutralC/CFD-LM-226-175-N.jpg","img/neutralC/CFD-WM-258-125-N.jpg","img/neutralC/CFD-IM-727-195-N.jpg","1","1","1","0","0","1","0.641516899995622","0.541822200000752","0.520825700004934","1","1","1","1","1","1","1","1","1"
"250052","img/neutralC/CFD-IM-727-195-N.jpg","img/neutralC/CFD-LM-226-175-N.jpg","img/neutralC/CFD-MF-313-002-N.jpg","1","1","1","1","0","0","0.520825700004934","0.641516899995622","0.556526600004872","1","1","1","1","1","1","1","1","1"
"250052","img/neutralC/CFD-MF-313-002-N.jpg","img/neutralC/CFD-IM-727-195-N.jpg","img/neutralC/CFD-WM-017-002-N.jpg","1","1","1","0","1","0","0.556526600004872","0.520825700004934","0.578882899993914","1","1","1","1","1","1","1","1","1"
"250052","img/neutralC/CFD-WM-017-002-N.jpg","img/neutralC/CFD-MF-313-002-N.jpg",NA,"1","1",NA,"0","0",NA,"0.578882899993914","0.556526600004872",NA,"1","1",NA,"1","1",NA,"1","1",NA
"250052","img/neutralC/CFD-LF-238-154-N.jpg",NA,"img/neutralC/CFD-WF-009-001-N.jpg","1",NA,"1","1",NA,"1","0.525982300008764",NA,"0.49209410000185","1",NA,"1","1",NA,"1","1",NA,"1"
"250052","img/neutralC/CFD-WF-009-001-N.jpg","img/neutralC/CFD-LF-238-154-N.jpg","img/neutralC/CFD-BF-012-001-N.jpg","1","1","1","1","1","0","0.49209410000185","0.525982300008764","0.554035500012105","1","1","1","1","1","1","1","1","1"
"250052","img/neutralC/CFD-BF-012-001-N.jpg","img/neutralC/CFD-WF-009-001-N.jpg","img/neutralC/CFD-WF-221-005-N.jpg","1","1","1","0","1","0","0.554035500012105","0.49209410000185","0.534575200013933","1","1","1","1","1","1","1","1","1"
"250052","img/neutralC/CFD-WF-221-005-N.jpg","img/neutralC/CFD-BF-012-001-N.jpg","img/neutralC/CFD-MF-328-020-N.jpg","1","1","1","0","0","0","0.534575200013933","0.554035500012105","0.559978400007822","1","1","1","1","1","1","1","1","1"
"250052","img/neutralC/CFD-MF-328-020-N.jpg","img/neutralC/CFD-WF-221-005-N.jpg","img/neutralC/CFD-WM-028-003-N.jpg","1","1","1","0","0","1","0.559978400007822","0.534575200013933","0.521747200007667","1","1","1","1","1","1","1","1","1"
"250052","img/neutralC/CFD-WM-028-003-N.jpg","img/neutralC/CFD-MF-328-020-N.jpg","img/neutralC/CFD-IM-606-008-N.jpg","1","1","1","1","0","0","0.521747200007667","0.559978400007822","0.582300399997621","1","1","1","1","1","1","1","1","1"
"250052","img/neutralC/CFD-IM-606-008-N.jpg","img/neutralC/CFD-WM-028-003-N.jpg","img/neutralC/CFD-WF-241-210-N.jpg","1","1","1","0","1","0","0.582300399997621","0.521747200007667","0.438846699995338","1","1","1","1","1","1","1","1","1"
"250052","img/neutralC/CFD-WF-241-210-N.jpg","img/neutralC/CFD-IM-606-008-N.jpg","img/neutralC/CFD-IM-615-167-N.jpg","1","1","1","0","0","0","0.438846699995338","0.582300399997621","0.634015899995575","1","1","1","1","1","1","1","1","1"
"250052","img/neutralC/CFD-IM-615-167-N.jpg","img/neutralC/CFD-WF-241-210-N.jpg","img/neutralC/CFD-LF-212-066-N.jpg","1","1","1","0","0","1","0.634015899995575","0.438846699995338","0.525050800002646","1","1","1","1","1","1","1","1","1"
"250052","img/neutralC/CFD-LF-212-066-N.jpg","img/neutralC/CFD-IM-615-167-N.jpg","img/neutralC/CFD-BM-020-001-N.jpg","1","1","1","1","0","0","0.525050800002646","0.634015899995575","0.551789100005408","1","1","1","1","1","1","1","1","1"
"250052","img/neutralC/CFD-BM-020-001-N.jpg","img/neutralC/CFD-LF-212-066-N.jpg","img/neutralC/CFD-BM-030-003-N.jpg","1","1","1","0","1","0","0.551789100005408","0.525050800002646","0.473113900006865","1","1","1","1","1","1","1","1","1"
"250052","img/neutralC/CFD-BM-030-003-N.jpg","img/neutralC/CFD-BM-020-001-N.jpg","img/neutralC/CFD-BM-009-002-N.jpg","1","1","1","0","0","1","0.473113900006865","0.551789100005408","0.453261200003908","1","1","1","1","1","1","1","1","1"
"250052","img/neutralC/CFD-BM-009-002-N.jpg","img/neutralC/CFD-BM-030-003-N.jpg","img/neutralC/CFD-LF-222-147-N.jpg","1","1","1","1","0","0","0.453261200003908","0.473113900006865","0.548358400003053","1","1","1","1","1","1","1","1","1"
"250052","img/neutralC/CFD-LF-222-147-N.jpg","img/neutralC/CFD-BM-009-002-N.jpg","img/neutralC/CFD-AF-237-223-N.jpg","1","1","1","0","1","0","0.548358400003053","0.453261200003908","0.529390600000625","1","1","1","1","1","1","1","1","1"
"250052","img/neutralC/CFD-AF-237-223-N.jpg","img/neutralC/CFD-LF-222-147-N.jpg","img/neutralC/CFD-BM-227-191-N.jpg","1","1","1","0","0","1","0.529390600000625","0.548358400003053","0.566192900005262","1","1","1","1","1","1","1","1","1"
"250052","img/neutralC/CFD-BM-227-191-N.jpg","img/neutralC/CFD-AF-237-223-N.jpg","img/neutralC/CFD-BF-244-231-N.jpg","1","1","1","1","0","1","0.566192900005262","0.529390600000625","0.40220290000434","1","1","1","1","1","1","1","1","1"
"250052","img/neutralC/CFD-BF-244-231-N.jpg","img/neutralC/CFD-BM-227-191-N.jpg","img/neutralC/CFD-AM-205-153-N.jpg","1","1","1","1","1","1","0.40220290000434","0.566192900005262","0.55149579999852","1","1","1","1","1","1","1","1","1"
"250052","img/neutralC/CFD-AM-205-153-N.jpg","img/neutralC/CFD-BF-244-231-N.jpg","img/neutralC/CFD-MM-306-010-N.jpg","1","1","1","1","1","0","0.55149579999852","0.40220290000434","0.636184599992703","1","1","1","1","1","1","1","1","1"
"250052","img/neutralC/CFD-MM-306-010-N.jpg","img/neutralC/CFD-AM-205-153-N.jpg","img/neutralC/CFD-LM-240-013-N.jpg","1","1","1","0","1","1","0.636184599992703","0.55149579999852","0.459004100004677","1","1","1","1","1","1","1","1","1"
"250052","img/neutralC/CFD-LM-240-013-N.jpg","img/neutralC/CFD-MM-306-010-N.jpg","img/neutralC/CFD-BM-021-021-N.jpg","1","1","1","1","0","1","0.459004100004677","0.636184599992703","0.387715299992124","1","1","1","1","1","1","1","1","1"
"250052","img/neutralC/CFD-BM-021-021-N.jpg","img/neutralC/CFD-LM-240-013-N.jpg","img/neutralC/CFD-AM-243-212-N.jpg","1","1","1","1","1","1","0.387715299992124","0.459004100004677","0.418558899997151","1","1","1","1","1","1","1","1","1"
"250052","img/neutralC/CFD-AM-243-212-N.jpg","img/neutralC/CFD-BM-021-021-N.jpg","img/neutralC/CFD-WM-023-001-N.jpg","1","1","1","1","1","0","0.418558899997151","0.387715299992124","0.568892100010999","1","1","1","1","1","1","1","1","1"
"250052","img/neutralC/CFD-WM-023-001-N.jpg","img/neutralC/CFD-AM-243-212-N.jpg","img/neutralC/CFD-WF-243-148-N.jpg","1","1","1","0","1","0","0.568892100010999","0.418558899997151","0.570327800014638","1","1","1","1","1","1","1","1","1"
"250052","img/neutralC/CFD-WF-243-148-N.jpg","img/neutralC/CFD-WM-023-001-N.jpg","img/neutralC/CFD-WF-207-014-N.jpg","1","1","1","0","0","1","0.570327800014638","0.568892100010999","0.398539200003142","1","1","1","1","1","1","1","1","1"
"250052","img/neutralC/CFD-WF-207-014-N.jpg","img/neutralC/CFD-WF-243-148-N.jpg","img/neutralC/CFD-AM-249-163-N.jpg","1","1","1","1","0","1","0.398539200003142","0.570327800014638","0.560439799999585","1","1","1","1","1","1","1","1","1"
"250052","img/neutralC/CFD-AM-249-163-N.jpg","img/neutralC/CFD-WF-207-014-N.jpg","img/neutralC/CFD-WM-025-002-N.jpg","1","1","1","1","1","0","0.560439799999585","0.398539200003142","0.431887900005677","1","1","1","1","1","1","1","1","1"
"250052","img/neutralC/CFD-WM-025-002-N.jpg","img/neutralC/CFD-AM-249-163-N.jpg","img/neutralC/CFD-AM-219-101-N.jpg","1","1","0","0","1","0","0.431887900005677","0.560439799999585","0.398557900000014","1","1","1","1","1","1","1","1","1"
"250052","img/neutralC/CFD-AM-219-101-N.jpg","img/neutralC/CFD-WM-025-002-N.jpg","img/neutralC/CFD-IM-697-015-N.jpg","0","1","1","0","0","1","0.398557900000014","0.431887900005677","0.468334999997751","1","1","1","1","1","1","1","1","1"
"250052","img/neutralC/CFD-IM-697-015-N.jpg","img/neutralC/CFD-AM-219-101-N.jpg","img/neutralC/CFD-BM-043-071-N.jpg","1","0","1","1","0","0","0.468334999997751","0.398557900000014","0.544975500000874","1","1","1","1","1","1","1","1","1"
"250052","img/neutralC/CFD-BM-043-071-N.jpg","img/neutralC/CFD-IM-697-015-N.jpg","img/neutralC/CFD-IM-689-263-N.jpg","1","1","1","0","1","1","0.544975500000874","0.468334999997751","0.562569800007623","1","1","1","1","1","1","1","1","1"
"250052","img/neutralC/CFD-IM-689-263-N.jpg","img/neutralC/CFD-BM-043-071-N.jpg","img/neutralC/CFD-IF-676-017-N.jpg","1","1","1","1","0","1","0.562569800007623","0.544975500000874","0.485877500017523","1","1","1","1","1","1","1","1","1"
"250052","img/neutralC/CFD-IF-676-017-N.jpg","img/neutralC/CFD-IM-689-263-N.jpg",NA,"1","1",NA,"1","1",NA,"0.485877500017523","0.562569800007623",NA,"1","1",NA,"1","1",NA,"1","1",NA
"250052","img/neutralC/CFD-BM-241-235-N.jpg",NA,"img/neutralC/CFD-WM-248-036-N.jpg","1",NA,"1","0",NA,"1","0.649250400005258",NA,"0.476487899999483","1",NA,"1","1",NA,"1","1",NA,"1"
"250052","img/neutralC/CFD-WM-248-036-N.jpg","img/neutralC/CFD-BM-241-235-N.jpg","img/neutralC/CFD-IF-677-452-1-N.jpg","1","1","1","1","0","1","0.476487899999483","0.649250400005258","0.383691500013811","1","1","1","1","1","1","1","1","1"
"250052","img/neutralC/CFD-IF-677-452-1-N.jpg","img/neutralC/CFD-WM-248-036-N.jpg","img/neutralC/CFD-IM-696-001-N.jpg","1","1","1","1","1","0","0.383691500013811","0.476487899999483","0.506010800003423","1","1","1","1","1","1","1","1","1"
"250052","img/neutralC/CFD-IM-696-001-N.jpg","img/neutralC/CFD-IF-677-452-1-N.jpg","img/neutralC/CFD-BF-247-179-N.jpg","1","1","1","0","1","0","0.506010800003423","0.383691500013811","0.500203300005523","1","1","1","1","1","1","1","1","1"
"250052","img/neutralC/CFD-BF-247-179-N.jpg","img/neutralC/CFD-IM-696-001-N.jpg","img/neutralC/CFD-BM-036-003-N.jpg","1","1","1","0","0","1","0.500203300005523","0.506010800003423","0.610630199997104","1","1","1","1","1","1","1","1","1"
"250052","img/neutralC/CFD-BM-036-003-N.jpg","img/neutralC/CFD-BF-247-179-N.jpg","img/neutralC/CFD-BF-002-001-N.jpg","1","1","1","1","0","0","0.610630199997104","0.500203300005523","0.571526800005813","1","1","1","1","1","1","1","1","1"
"250052","img/neutralC/CFD-BF-002-001-N.jpg","img/neutralC/CFD-BM-036-003-N.jpg","img/neutralC/CFD-BF-027-002-N.jpg","1","1","1","0","1","1","0.571526800005813","0.610630199997104","0.604526499999338","1","1","1","1","1","1","1","1","1"
"250052","img/neutralC/CFD-BF-027-002-N.jpg","img/neutralC/CFD-BF-002-001-N.jpg","img/neutralC/CFD-AM-230-150-N.jpg","1","1","1","1","0","0","0.604526499999338","0.571526800005813","0.645515500000329","1","1","1","1","1","1","1","1","1"
"250052","img/neutralC/CFD-AM-230-150-N.jpg","img/neutralC/CFD-BF-027-002-N.jpg","img/neutralC/CFD-BF-006-017-N.jpg","1","1","1","0","1","0","0.645515500000329","0.604526499999338","0.53919440000027","1","1","1","1","1","1","1","1","1"
"250052","img/neutralC/CFD-BF-006-017-N.jpg","img/neutralC/CFD-AM-230-150-N.jpg","img/neutralC/CFD-IF-742-103-N.jpg","1","1","1","0","0","1","0.53919440000027","0.645515500000329","0.415084800013574","1","1","1","1","1","1","1","1","1"
"250052","img/neutralC/CFD-IF-742-103-N.jpg","img/neutralC/CFD-BF-006-017-N.jpg","img/neutralC/CFD-LF-204-133-N.jpg","1","1","1","1","0","1","0.415084800013574","0.53919440000027","0.438602099995478","1","1","1","1","1","1","1","1","1"
"250052","img/neutralC/CFD-LF-204-133-N.jpg","img/neutralC/CFD-IF-742-103-N.jpg","img/neutralC/CFD-BF-011-002-N.jpg","1","1","1","1","1","1","0.438602099995478","0.415084800013574","0.557975100004114","1","1","1","1","1","1","1","1","1"
"250052","img/neutralC/CFD-BF-011-002-N.jpg","img/neutralC/CFD-LF-204-133-N.jpg","img/neutralC/CFD-BM-238-242-N.jpg","1","1","1","1","1","0","0.557975100004114","0.438602099995478","0.517564199995832","1","1","1","1","1","1","1","1","1"
"250052","img/neutralC/CFD-BM-238-242-N.jpg","img/neutralC/CFD-BF-011-002-N.jpg","img/neutralC/CFD-BF-044-034-N.jpg","1","1","1","0","1","0","0.517564199995832","0.557975100004114","0.605148400005419","1","1","1","1","1","1","1","1","1"
"250052","img/neutralC/CFD-BF-044-034-N.jpg","img/neutralC/CFD-BM-238-242-N.jpg","img/neutralC/CFD-BM-207-024-N.jpg","1","1","1","0","0","1","0.605148400005419","0.517564199995832","0.519121999997878","1","1","1","1","1","1","1","1","1"
"250052","img/neutralC/CFD-BM-207-024-N.jpg","img/neutralC/CFD-BF-044-034-N.jpg","img/neutralC/CFD-BF-214-308-N.jpg","1","1","1","1","0","1","0.519121999997878","0.605148400005419","0.493024300012621","1","1","1","1","1","1","1","1","1"
"250052","img/neutralC/CFD-BF-214-308-N.jpg","img/neutralC/CFD-BM-207-024-N.jpg","img/neutralC/CFD-IM-721-341-N.jpg","1","1","1","1","1","1","0.493024300012621","0.519121999997878","0.403257600002689","1","1","1","1","1","1","1","1","1"
"250052","img/neutralC/CFD-IM-721-341-N.jpg","img/neutralC/CFD-BF-214-308-N.jpg","img/neutralC/CFD-IM-726-248-N.jpg","1","1","1","1","1","0","0.403257600002689","0.493024300012621","0.715085299991188","1","1","1","1","1","1","1","1","1"
"250052","img/neutralC/CFD-IM-726-248-N.jpg","img/neutralC/CFD-IM-721-341-N.jpg","img/neutralC/CFD-IM-707-105-N.jpg","1","1","1","0","1","1","0.715085299991188","0.403257600002689","0.542144300008658","1","1","1","1","1","1","1","1","1"
"250052","img/neutralC/CFD-IM-707-105-N.jpg","img/neutralC/CFD-IM-726-248-N.jpg","img/neutralC/CFD-WF-233-112-N.jpg","1","1","1","1","0","1","0.542144300008658","0.715085299991188","0.578265000003739","1","1","1","1","1","1","1","1","1"
"250052","img/neutralC/CFD-WF-233-112-N.jpg","img/neutralC/CFD-IM-707-105-N.jpg","img/neutralC/CFD-MF-301-024-N.jpg","1","1","1","1","1","0","0.578265000003739","0.542144300008658","0.547126500008744","1","1","1","1","1","1","1","1","1"
"250052","img/neutralC/CFD-MF-301-024-N.jpg","img/neutralC/CFD-WF-233-112-N.jpg","img/neutralC/CFD-WF-029-002-N.jpg","1","1","1","0","1","0","0.547126500008744","0.578265000003739","0.558121200010646","1","1","1","1","1","1","1","1","1"
"250052","img/neutralC/CFD-WF-029-002-N.jpg","img/neutralC/CFD-MF-301-024-N.jpg","img/neutralC/CFD-BF-236-177-N.jpg","1","1","1","0","0","0","0.558121200010646","0.547126500008744","0.591934800002491","1","1","1","1","1","1","1","1","1"
"250052","img/neutralC/CFD-BF-236-177-N.jpg","img/neutralC/CFD-WF-029-002-N.jpg","img/neutralC/CFD-BF-036-027-N.jpg","1","1","1","0","0","0","0.591934800002491","0.558121200010646","0.500531200013938","1","1","1","1","1","1","1","1","1"
"250052","img/neutralC/CFD-BF-036-027-N.jpg","img/neutralC/CFD-BF-236-177-N.jpg","img/neutralC/CFD-WM-014-002-N.jpg","1","1","1","0","0","0","0.500531200013938","0.591934800002491","0.591817100008484","1","1","1","1","1","1","1","1","1"
"250052","img/neutralC/CFD-WM-014-002-N.jpg","img/neutralC/CFD-BF-036-027-N.jpg","img/neutralC/CFD-WF-208-068-N.jpg","1","1","1","0","0","1","0.591817100008484","0.500531200013938","0.483238100001472","1","1","1","1","1","1","1","1","1"
"250052","img/neutralC/CFD-WF-208-068-N.jpg","img/neutralC/CFD-WM-014-002-N.jpg","img/neutralC/CFD-LM-213-061-N.jpg","1","1","1","1","0","0","0.483238100001472","0.591817100008484","0.719677800007048","1","1","1","1","1","1","1","1","1"
"250052","img/neutralC/CFD-LM-213-061-N.jpg","img/neutralC/CFD-WF-208-068-N.jpg","img/neutralC/CFD-IF-729-393-N.jpg","1","1","1","0","1","0","0.719677800007048","0.483238100001472","0.550240399999893","1","1","1","1","1","1","1","1","1"
"250052","img/neutralC/CFD-IF-729-393-N.jpg","img/neutralC/CFD-LM-213-061-N.jpg","img/neutralC/CFD-WM-034-030-N.jpg","1","1","1","0","0","1","0.550240399999893","0.719677800007048","0.432805499993265","1","1","1","1","1","1","1","1","1"
"250052","img/neutralC/CFD-WM-034-030-N.jpg","img/neutralC/CFD-IF-729-393-N.jpg","img/neutralC/CFD-WF-234-086-N.jpg","1","1","1","1","0","1","0.432805499993265","0.550240399999893","0.429684999995516","1","1","1","1","1","1","1","1","1"
"250052","img/neutralC/CFD-WF-234-086-N.jpg","img/neutralC/CFD-WM-034-030-N.jpg","img/neutralC/CFD-BF-207-004-N.jpg","1","1","1","1","1","1","0.429684999995516","0.432805499993265","0.524663700009114","1","1","1","1","1","1","1","1","1"
"250052","img/neutralC/CFD-BF-207-004-N.jpg","img/neutralC/CFD-WF-234-086-N.jpg",NA,"1","1",NA,"1","1",NA,"0.524663700009114","0.429684999995516",NA,"1","1",NA,"1","1",NA,"1","1",NA
"250052","img/neutralC/CFD-BM-027-001-N.jpg",NA,"img/neutralC/CFD-WM-038-003-N.jpg","1",NA,"1","0",NA,"0","0.64502419999917",NA,"0.514523499994539","1",NA,"1","1",NA,"1","1",NA,"1"
"250052","img/neutralC/CFD-WM-038-003-N.jpg","img/neutralC/CFD-BM-027-001-N.jpg","img/neutralC/CFD-WM-040-022-N.jpg","1","1","1","0","0","0","0.514523499994539","0.64502419999917","0.479265500005567","1","1","1","1","1","1","1","1","1"
"250052","img/neutralC/CFD-WM-040-022-N.jpg","img/neutralC/CFD-WM-038-003-N.jpg","img/neutralC/CFD-BF-003-003-N.jpg","1","1","1","0","0","0","0.479265500005567","0.514523499994539","0.569853299995884","1","1","1","1","1","1","1","1","1"
"250052","img/neutralC/CFD-BF-003-003-N.jpg","img/neutralC/CFD-WM-040-022-N.jpg","img/neutralC/CFD-BF-028-001-N.jpg","1","1","1","0","0","1","0.569853299995884","0.479265500005567","0.453084000007948","1","1","1","1","1","1","1","1","1"
"250052","img/neutralC/CFD-BF-028-001-N.jpg","img/neutralC/CFD-BF-003-003-N.jpg","img/neutralC/CFD-BF-204-189-N.jpg","1","1","1","1","0","1","0.453084000007948","0.569853299995884","0.41336279999814","1","1","1","1","1","1","1","1","1"
"250052","img/neutralC/CFD-BF-204-189-N.jpg","img/neutralC/CFD-BF-028-001-N.jpg","img/neutralC/CFD-IM-728-041-N.jpg","1","1","1","1","1","0","0.41336279999814","0.453084000007948","0.61520919999748","1","1","1","1","1","1","1","1","1"
"250052","img/neutralC/CFD-IM-728-041-N.jpg","img/neutralC/CFD-BF-204-189-N.jpg","img/neutralC/CFD-LF-236-221-N.jpg","1","1","1","0","1","1","0.61520919999748","0.41336279999814","0.472846300006495","1","1","1","1","1","1","1","1","1"
"250052","img/neutralC/CFD-LF-236-221-N.jpg","img/neutralC/CFD-IM-728-041-N.jpg","img/neutralC/CFD-BF-201-080-N.jpg","1","1","1","1","0","1","0.472846300006495","0.61520919999748","0.558961799993995","1","1","1","1","1","1","1","1","1"
"250052","img/neutralC/CFD-BF-201-080-N.jpg","img/neutralC/CFD-LF-236-221-N.jpg","img/neutralC/CFD-BM-015-015-N.jpg","1","1","1","1","1","0","0.558961799993995","0.472846300006495","0.471822600011365","1","1","1","1","1","1","1","1","1"
"250052","img/neutralC/CFD-BM-015-015-N.jpg","img/neutralC/CFD-BF-201-080-N.jpg","img/neutralC/CFD-BF-208-266-N.jpg","1","1","1","0","1","0","0.471822600011365","0.558961799993995","0.474911900004372","1","1","1","1","1","1","1","1","1"
"250052","img/neutralC/CFD-BF-208-266-N.jpg","img/neutralC/CFD-BM-015-015-N.jpg","img/neutralC/CFD-IF-718-001-N.jpg","1","1","1","0","0","1","0.474911900004372","0.471822600011365","0.415861000001314","1","1","1","1","1","1","1","1","1"
"250052","img/neutralC/CFD-IF-718-001-N.jpg","img/neutralC/CFD-BF-208-266-N.jpg","img/neutralC/CFD-AM-217-085-N.jpg","1","1","1","1","0","0","0.415861000001314","0.474911900004372","0.522526999993715","1","1","1","1","1","1","1","1","1"
"250052","img/neutralC/CFD-AM-217-085-N.jpg","img/neutralC/CFD-IF-718-001-N.jpg","img/neutralC/CFD-WF-022-017-N.jpg","1","1","1","0","1","0","0.522526999993715","0.415861000001314","0.528319899996859","1","1","1","1","1","1","1","1","1"
"250052","img/neutralC/CFD-WF-022-017-N.jpg","img/neutralC/CFD-AM-217-085-N.jpg","img/neutralC/CFD-BM-029-024-N.jpg","1","1","1","0","0","1","0.528319899996859","0.522526999993715","0.44089559999702","1","1","1","1","1","1","1","1","1"
"250052","img/neutralC/CFD-BM-029-024-N.jpg","img/neutralC/CFD-WF-022-017-N.jpg","img/neutralC/CFD-AM-235-241-N.jpg","1","1","1","1","0","0","0.44089559999702","0.528319899996859","0.509246600006009","1","1","1","1","1","1","1","1","1"
"250052","img/neutralC/CFD-AM-235-241-N.jpg","img/neutralC/CFD-BM-029-024-N.jpg","img/neutralC/CFD-MM-319-052-N.jpg","1","1","1","0","1","1","0.509246600006009","0.44089559999702","0.376478999998653","1","1","1","1","1","1","1","1","1"
"250052","img/neutralC/CFD-MM-319-052-N.jpg","img/neutralC/CFD-AM-235-241-N.jpg","img/neutralC/CFD-WM-257-161-N.jpg","1","1","1","1","0","1","0.376478999998653","0.509246600006009","0.462821499997517","1","1","1","1","1","1","1","1","1"
"250052","img/neutralC/CFD-WM-257-161-N.jpg","img/neutralC/CFD-MM-319-052-N.jpg","img/neutralC/CFD-BF-023-010-N.jpg","1","1","1","1","1","1","0.462821499997517","0.376478999998653","0.37487470000633","1","1","1","1","1","1","1","1","1"
"250052","img/neutralC/CFD-BF-023-010-N.jpg","img/neutralC/CFD-WM-257-161-N.jpg","img/neutralC/CFD-LM-252-076-N.jpg","1","1","1","1","1","1","0.37487470000633","0.462821499997517","0.470213700013119","1","1","1","1","1","1","1","1","1"
"250052","img/neutralC/CFD-LM-252-076-N.jpg","img/neutralC/CFD-BF-023-010-N.jpg","img/neutralC/CFD-IM-674-281-N.jpg","1","1","1","1","1","1","0.470213700013119","0.37487470000633","0.434999700009939","1","1","1","1","1","1","1","1","1"
"250052","img/neutralC/CFD-IM-674-281-N.jpg","img/neutralC/CFD-LM-252-076-N.jpg","img/neutralC/CFD-BM-247-240-N.jpg","1","1","1","1","1","0","0.434999700009939","0.470213700013119","0.41245990000607","1","1","1","1","1","1","1","1","1"
"250052","img/neutralC/CFD-BM-247-240-N.jpg","img/neutralC/CFD-IM-674-281-N.jpg","img/neutralC/CFD-WM-002-009-N.jpg","1","1","1","0","1","0","0.41245990000607","0.434999700009939","0.462104600010207","1","1","1","1","1","1","1","1","1"
"250052","img/neutralC/CFD-WM-002-009-N.jpg","img/neutralC/CFD-BM-247-240-N.jpg","img/neutralC/CFD-LF-216-121-N.jpg","1","1","1","0","0","1","0.462104600010207","0.41245990000607","0.39166349999141","1","1","1","1","1","1","1","1","1"
"250052","img/neutralC/CFD-LF-216-121-N.jpg","img/neutralC/CFD-WM-002-009-N.jpg","img/neutralC/CFD-WF-026-002-N.jpg","1","1","1","1","0","1","0.39166349999141","0.462104600010207","0.433879700009129","1","1","1","1","1","1","1","1","1"
"250052","img/neutralC/CFD-WF-026-002-N.jpg","img/neutralC/CFD-LF-216-121-N.jpg","img/neutralC/CFD-WM-225-127-N.jpg","1","1","1","1","1","0","0.433879700009129","0.39166349999141","0.508906999995816","1","1","1","1","1","1","1","1","1"
"250052","img/neutralC/CFD-WM-225-127-N.jpg","img/neutralC/CFD-WF-026-002-N.jpg","img/neutralC/CFD-IM-639-263-N.jpg","1","1","1","0","1","1","0.508906999995816","0.433879700009129","0.495746999993571","1","1","1","1","1","1","1","1","1"
"250052","img/neutralC/CFD-IM-639-263-N.jpg","img/neutralC/CFD-WM-225-127-N.jpg","img/neutralC/CFD-IF-672-305-N.jpg","1","1","1","1","0","0","0.495746999993571","0.508906999995816","0.550924199997098","1","1","1","1","1","1","1","1","1"
"250052","img/neutralC/CFD-IF-672-305-N.jpg","img/neutralC/CFD-IM-639-263-N.jpg","img/neutralC/CFD-BM-211-174-N.jpg","1","1","1","0","1","0","0.550924199997098","0.495746999993571","0.498456699991948","1","1","1","1","1","1","1","1","1"
"250052","img/neutralC/CFD-BM-211-174-N.jpg","img/neutralC/CFD-IF-672-305-N.jpg","img/neutralC/CFD-BF-255-140-N.jpg","1","1","1","0","0","1","0.498456699991948","0.550924199997098","0.504054799996084","1","1","1","1","1","1","1","1","1"
"250052","img/neutralC/CFD-BF-255-140-N.jpg","img/neutralC/CFD-BM-211-174-N.jpg","img/neutralC/CFD-WF-002-004-N.jpg","1","1","1","1","0","0","0.504054799996084","0.498456699991948","1.10268650000216","1","1","1","1","1","1","1","1","1"
"250052","img/neutralC/CFD-WF-002-004-N.jpg","img/neutralC/CFD-BF-255-140-N.jpg","img/neutralC/CFD-AM-215-120-N.jpg","1","1","1","0","1","1","1.10268650000216","0.504054799996084","0.595698100005393","1","1","1","1","1","1","1","1","1"
"250052","img/neutralC/CFD-AM-215-120-N.jpg","img/neutralC/CFD-WF-002-004-N.jpg",NA,"1","1",NA,"1","0",NA,"0.595698100005393","1.10268650000216",NA,"1","1",NA,"1","1",NA,"1","1",NA
"250052","img/neutralC/CFD-WM-235-147-N.jpg",NA,"img/neutralC/CFD-IM-645-001-N.jpg","0",NA,"1","0",NA,"0","0.717616800000542",NA,"0.550258100003703","1",NA,"1","1",NA,"1","1",NA,"1"
"250052","img/neutralC/CFD-IM-645-001-N.jpg","img/neutralC/CFD-WM-235-147-N.jpg","img/neutralC/CFD-AM-211-052-N.jpg","1","0","1","0","0","1","0.550258100003703","0.717616800000542","0.43923290001112","1","1","1","1","1","1","1","1","1"
"250052","img/neutralC/CFD-AM-211-052-N.jpg","img/neutralC/CFD-IM-645-001-N.jpg","img/neutralC/CFD-AM-242-176-N.jpg","1","1","1","1","0","1","0.43923290001112","0.550258100003703","0.396748099999968","1","1","1","1","1","1","1","1","1"
"250052","img/neutralC/CFD-AM-242-176-N.jpg","img/neutralC/CFD-AM-211-052-N.jpg","img/neutralC/CFD-WM-004-010-N.jpg","1","1","1","1","1","0","0.396748099999968","0.43923290001112","0.549940500000957","1","1","1","1","1","1","1","1","1"
"250052","img/neutralC/CFD-WM-004-010-N.jpg","img/neutralC/CFD-AM-242-176-N.jpg","img/neutralC/CFD-IF-650-315-N.jpg","1","1","1","0","1","0","0.549940500000957","0.396748099999968","0.418763599998783","1","1","1","1","1","1","1","1","1"
"250052","img/neutralC/CFD-IF-650-315-N.jpg","img/neutralC/CFD-WM-004-010-N.jpg","img/neutralC/CFD-MF-359-019-N.jpg","1","1","0","0","0","0","0.418763599998783","0.549940500000957","0.529293500003405","1","1","1","1","1","1","1","1","1"
"250052","img/neutralC/CFD-MF-359-019-N.jpg","img/neutralC/CFD-IF-650-315-N.jpg","img/neutralC/CFD-BF-229-179-N.jpg","0","1","1","0","0","0","0.529293500003405","0.418763599998783","0.467432300007204","1","1","1","1","1","1","1","1","1"
"250052","img/neutralC/CFD-BF-229-179-N.jpg","img/neutralC/CFD-MF-359-019-N.jpg","img/neutralC/CFD-LF-218-072-N.jpg","1","0","1","0","0","0","0.467432300007204","0.529293500003405","0.372438899998087","1","1","1","1","1","1","1","1","1"
"250052","img/neutralC/CFD-LF-218-072-N.jpg","img/neutralC/CFD-BF-229-179-N.jpg","img/neutralC/CFD-IM-703-182-N.jpg","1","1","1","0","0","1","0.372438899998087","0.467432300007204","0.653951300002518","1","1","1","1","1","1","1","1","1"
"250052","img/neutralC/CFD-IM-703-182-N.jpg","img/neutralC/CFD-LF-218-072-N.jpg","img/neutralC/CFD-IM-616-214-N.jpg","1","1","1","1","0","0","0.653951300002518","0.372438899998087","0.442156299992348","1","1","1","1","1","1","1","1","1"
"250052","img/neutralC/CFD-IM-616-214-N.jpg","img/neutralC/CFD-IM-703-182-N.jpg","img/neutralC/CFD-WM-219-008-N.jpg","1","1","1","0","1","0","0.442156299992348","0.653951300002518","0.505769399998826","1","1","1","1","1","1","1","1","1"
"250052","img/neutralC/CFD-WM-219-008-N.jpg","img/neutralC/CFD-IM-616-214-N.jpg","img/neutralC/CFD-WF-200-099-N.jpg","1","1","1","0","0","0","0.505769399998826","0.442156299992348","0.481127199993352","1","1","1","1","1","1","1","1","1"
"250052","img/neutralC/CFD-WF-200-099-N.jpg","img/neutralC/CFD-WM-219-008-N.jpg","img/neutralC/CFD-LF-220-120-N.jpg","1","1","1","0","0","1","0.481127199993352","0.505769399998826","0.400833699997747","1","1","1","1","1","1","1","1","1"
"250052","img/neutralC/CFD-LF-220-120-N.jpg","img/neutralC/CFD-WF-200-099-N.jpg","img/neutralC/CFD-WF-214-122-N.jpg","1","1","1","1","0","1","0.400833699997747","0.481127199993352","0.467136799998116","1","1","1","1","1","1","1","1","1"
"250052","img/neutralC/CFD-WF-214-122-N.jpg","img/neutralC/CFD-LF-220-120-N.jpg","img/neutralC/CFD-IF-623-129-N.jpg","1","1","1","1","1","1","0.467136799998116","0.400833699997747","0.40680800001428","1","1","1","1","1","1","1","1","1"
"250052","img/neutralC/CFD-IF-623-129-N.jpg","img/neutralC/CFD-WF-214-122-N.jpg","img/neutralC/CFD-BF-226-119-N.jpg","1","1","1","1","1","1","0.40680800001428","0.467136799998116","0.51145049999468","1","1","1","1","1","1","1","1","1"
"250052","img/neutralC/CFD-BF-226-119-N.jpg","img/neutralC/CFD-IF-623-129-N.jpg","img/neutralC/CFD-MF-333-012-N.jpg","1","1","1","1","1","0","0.51145049999468","0.40680800001428","0.553896400000667","1","1","1","1","1","1","1","1","1"
"250052","img/neutralC/CFD-MF-333-012-N.jpg","img/neutralC/CFD-BF-226-119-N.jpg","img/neutralC/CFD-MF-352-054-N.jpg","1","1","1","0","1","0","0.553896400000667","0.51145049999468","0.528234100012924","1","1","1","1","1","1","1","1","1"
"250052","img/neutralC/CFD-MF-352-054-N.jpg","img/neutralC/CFD-MF-333-012-N.jpg","img/neutralC/CFD-WM-033-025-N.jpg","1","1","1","0","0","1","0.528234100012924","0.553896400000667","0.444823400015594","1","1","1","1","1","1","1","1","1"
"250052","img/neutralC/CFD-WM-033-025-N.jpg","img/neutralC/CFD-MF-352-054-N.jpg","img/neutralC/CFD-BF-038-037-N.jpg","1","1","1","1","0","1","0.444823400015594","0.528234100012924","0.444323899995652","1","1","1","1","1","1","1","1","1"
"250052","img/neutralC/CFD-BF-038-037-N.jpg","img/neutralC/CFD-WM-033-025-N.jpg","img/neutralC/CFD-BF-232-187-N.jpg","1","1","1","1","1","1","0.444323899995652","0.444823400015594","0.485305499998503","1","1","1","1","1","1","1","1","1"
"250052","img/neutralC/CFD-BF-232-187-N.jpg","img/neutralC/CFD-BF-038-037-N.jpg","img/neutralC/CFD-WM-020-001-N.jpg","1","1","1","1","1","1","0.485305499998503","0.444323899995652","0.493431599999894","1","1","1","1","1","1","1","1","1"
"250052","img/neutralC/CFD-WM-020-001-N.jpg","img/neutralC/CFD-BF-232-187-N.jpg","img/neutralC/CFD-IM-743-006-N.jpg","1","1","1","1","1","1","0.493431599999894","0.485305499998503","0.557466800004477","1","1","1","1","1","1","1","1","1"
"250052","img/neutralC/CFD-IM-743-006-N.jpg","img/neutralC/CFD-WM-020-001-N.jpg","img/neutralC/CFD-LM-228-188-N.jpg","1","1","1","1","1","1","0.557466800004477","0.493431599999894","0.435776099999202","1","1","1","1","1","1","1","1","1"
"250052","img/neutralC/CFD-LM-228-188-N.jpg","img/neutralC/CFD-IM-743-006-N.jpg","img/neutralC/CFD-IM-671-601-N.jpg","1","1","1","1","1","0","0.435776099999202","0.557466800004477","0.456588100001682","1","1","1","1","1","1","1","1","1"
"250052","img/neutralC/CFD-IM-671-601-N.jpg","img/neutralC/CFD-LM-228-188-N.jpg","img/neutralC/CFD-WF-036-023-N.jpg","1","1","1","0","1","0","0.456588100001682","0.435776099999202","0.617241100000683","1","1","1","1","1","1","1","1","1"
"250052","img/neutralC/CFD-WF-036-023-N.jpg","img/neutralC/CFD-IM-671-601-N.jpg","img/neutralC/CFD-BM-253-004-N.jpg","1","1","1","0","0","1","0.617241100000683","0.456588100001682","0.445653999995557","1","1","1","1","1","1","1","1","1"
"250052","img/neutralC/CFD-BM-253-004-N.jpg","img/neutralC/CFD-WF-036-023-N.jpg","img/neutralC/CFD-AM-251-124-N.jpg","1","1","1","1","0","0","0.445653999995557","0.617241100000683","0.587686000013491","1","1","1","1","1","1","1","1","1"
"250052","img/neutralC/CFD-AM-251-124-N.jpg","img/neutralC/CFD-BM-253-004-N.jpg","img/neutralC/CFD-WF-001-003-N.jpg","1","1","1","0","1","1","0.587686000013491","0.445653999995557","0.507295499992324","1","1","1","1","1","1","1","1","1"
"250052","img/neutralC/CFD-WF-001-003-N.jpg","img/neutralC/CFD-AM-251-124-N.jpg","img/neutralC/CFD-BM-225-154-N.jpg","1","1","1","1","0","1","0.507295499992324","0.587686000013491","0.514988499999163","1","1","1","1","1","1","1","1","1"
"250052","img/neutralC/CFD-BM-225-154-N.jpg","img/neutralC/CFD-WF-001-003-N.jpg","img/neutralC/CFD-LM-237-264-N.jpg","1","1","1","1","1","0","0.514988499999163","0.507295499992324","0.504962300008629","1","1","1","1","1","1","1","1","1"
"250052","img/neutralC/CFD-LM-237-264-N.jpg","img/neutralC/CFD-BM-225-154-N.jpg",NA,"1","1",NA,"0","1",NA,"0.504962300008629","0.514988499999163",NA,"1","1",NA,"1","1",NA,"1","1",NA
"250052","img/neutralC/CFD-BM-205-001-N.jpg",NA,"img/neutralC/CFD-MM-317-061-N.jpg","1",NA,"1","0",NA,"1","1.23277430000599",NA,"0.393332300009206","1",NA,"1","1",NA,"1","1",NA,"1"
"250052","img/neutralC/CFD-MM-317-061-N.jpg","img/neutralC/CFD-BM-205-001-N.jpg","img/neutralC/CFD-LM-244-068-N.jpg","1","1","1","1","0","1","0.393332300009206","1.23277430000599","0.377660700003617","1","1","1","1","1","1","1","1","1"
"250052","img/neutralC/CFD-LM-244-068-N.jpg","img/neutralC/CFD-MM-317-061-N.jpg","img/neutralC/CFD-LM-214-165-N.jpg","1","1","1","1","1","1","0.377660700003617","0.393332300009206","0.383564600007958","1","1","1","1","1","1","1","1","1"
"250052","img/neutralC/CFD-LM-214-165-N.jpg","img/neutralC/CFD-LM-244-068-N.jpg","img/neutralC/CFD-BF-228-212-N.jpg","1","1","1","1","1","0","0.383564600007958","0.377660700003617","0.583472400001483","1","1","1","1","1","1","1","1","1"
"250052","img/neutralC/CFD-BF-228-212-N.jpg","img/neutralC/CFD-LM-214-165-N.jpg","img/neutralC/CFD-BM-248-128-N.jpg","1","1","1","0","1","0","0.583472400001483","0.383564600007958","0.506249099998968","1","1","1","1","1","1","1","1","1"
"250052","img/neutralC/CFD-BM-248-128-N.jpg","img/neutralC/CFD-BF-228-212-N.jpg","img/neutralC/CFD-WM-026-001-N.jpg","1","1","1","0","0","1","0.506249099998968","0.583472400001483","0.431209499991382","1","1","1","1","1","1","1","1","1"
"250052","img/neutralC/CFD-WM-026-001-N.jpg","img/neutralC/CFD-BM-248-128-N.jpg","img/neutralC/CFD-MF-309-002-N.jpg","1","1","1","1","0","0","0.431209499991382","0.506249099998968","0.398557799999253","1","1","1","1","1","1","1","1","1"
"250052","img/neutralC/CFD-MF-309-002-N.jpg","img/neutralC/CFD-WM-026-001-N.jpg","img/neutralC/CFD-LM-201-057-N.jpg","1","1","1","0","1","1","0.398557799999253","0.431209499991382","0.421780699994997","1","1","1","1","1","1","1","1","1"
"250052","img/neutralC/CFD-LM-201-057-N.jpg","img/neutralC/CFD-MF-309-002-N.jpg","img/neutralC/CFD-WF-005-010-N.jpg","1","1","1","1","0","0","0.421780699994997","0.398557799999253","0.497962600013125","1","1","1","1","1","1","1","1","1"
"250052","img/neutralC/CFD-WF-005-010-N.jpg","img/neutralC/CFD-LM-201-057-N.jpg","img/neutralC/CFD-BF-041-001-N.jpg","1","1","1","0","1","1","0.497962600013125","0.421780699994997","0.426409100007731","1","1","1","1","1","1","1","1","1"
"250052","img/neutralC/CFD-BF-041-001-N.jpg","img/neutralC/CFD-WF-005-010-N.jpg","img/neutralC/CFD-IM-646-023-N.jpg","1","1","1","1","0","1","0.426409100007731","0.497962600013125","0.514149000009638","1","1","1","1","1","1","1","1","1"
"250052","img/neutralC/CFD-IM-646-023-N.jpg","img/neutralC/CFD-BF-041-001-N.jpg","img/neutralC/CFD-LM-216-082-N.jpg","1","1","1","1","1","0","0.514149000009638","0.426409100007731","0.555208999998285","1","1","1","1","1","1","1","1","1"
"250052","img/neutralC/CFD-LM-216-082-N.jpg","img/neutralC/CFD-IM-646-023-N.jpg","img/neutralC/CFD-LM-243-075-N.jpg","1","1","1","0","1","0","0.555208999998285","0.514149000009638","0.534578100006911","1","1","1","1","1","1","1","1","1"
"250052","img/neutralC/CFD-LM-243-075-N.jpg","img/neutralC/CFD-LM-216-082-N.jpg","img/neutralC/CFD-WF-240-083-N.jpg","1","1","1","0","0","0","0.534578100006911","0.555208999998285","0.538580499996897","1","1","1","1","1","1","1","1","1"
"250052","img/neutralC/CFD-WF-240-083-N.jpg","img/neutralC/CFD-LM-243-075-N.jpg","img/neutralC/CFD-IM-648-337-N.jpg","1","1","1","0","0","0","0.538580499996897","0.534578100006911","0.604346100008115","1","1","1","1","1","1","1","1","1"
"250052","img/neutralC/CFD-IM-648-337-N.jpg","img/neutralC/CFD-WF-240-083-N.jpg","img/neutralC/CFD-MF-335-002-N.jpg","1","1","1","0","0","0","0.604346100008115","0.538580499996897","0.624949800010654","1","1","1","1","1","1","1","1","1"
"250052","img/neutralC/CFD-MF-335-002-N.jpg","img/neutralC/CFD-IM-648-337-N.jpg","img/neutralC/CFD-BF-025-002-N.jpg","1","1","1","0","0","0","0.624949800010654","0.604346100008115","0.490669399994658","1","1","1","1","1","1","1","1","1"
"250052","img/neutralC/CFD-BF-025-002-N.jpg","img/neutralC/CFD-MF-335-002-N.jpg","img/neutralC/CFD-WF-017-003-N.jpg","1","1","1","0","0","1","0.490669399994658","0.624949800010654","0.461625800002366","1","1","1","1","1","1","1","1","1"
"250052","img/neutralC/CFD-WF-017-003-N.jpg","img/neutralC/CFD-BF-025-002-N.jpg","img/neutralC/CFD-WM-006-002-N.jpg","1","1","1","1","0","0","0.461625800002366","0.490669399994658","0.465785600012168","1","1","1","1","1","1","1","1","1"
"250052","img/neutralC/CFD-WM-006-002-N.jpg","img/neutralC/CFD-WF-017-003-N.jpg","img/neutralC/CFD-WM-012-001-N.jpg","1","1","1","0","1","1","0.465785600012168","0.461625800002366","0.418430100005935","1","1","1","1","1","1","1","1","1"
"250052","img/neutralC/CFD-WM-012-001-N.jpg","img/neutralC/CFD-WM-006-002-N.jpg","img/neutralC/CFD-AM-247-165-N.jpg","1","1","1","1","0","1","0.418430100005935","0.465785600012168","0.485809700010577","1","1","1","1","1","1","1","1","1"
"250052","img/neutralC/CFD-AM-247-165-N.jpg","img/neutralC/CFD-WM-012-001-N.jpg","img/neutralC/CFD-BF-202-109-N.jpg","1","1","1","1","1","1","0.485809700010577","0.418430100005935","0.512196900002891","1","1","1","1","1","1","1","1","1"
"250052","img/neutralC/CFD-BF-202-109-N.jpg","img/neutralC/CFD-AM-247-165-N.jpg","img/neutralC/CFD-AF-240-206-N.jpg","1","1","1","1","1","0","0.512196900002891","0.485809700010577","0.484092200000305","1","1","1","1","1","1","1","1","1"
"250052","img/neutralC/CFD-AF-240-206-N.jpg","img/neutralC/CFD-BF-202-109-N.jpg","img/neutralC/CFD-WM-212-097-N.jpg","1","1","1","0","1","0","0.484092200000305","0.512196900002891","0.50827500000014","1","1","1","1","1","1","1","1","1"
"250052","img/neutralC/CFD-WM-212-097-N.jpg","img/neutralC/CFD-AF-240-206-N.jpg","img/neutralC/CFD-WM-019-003-N.jpg","1","1","1","0","0","1","0.50827500000014","0.484092200000305","0.455486800012295","1","1","1","1","1","1","1","1","1"
"250052","img/neutralC/CFD-WM-019-003-N.jpg","img/neutralC/CFD-WM-212-097-N.jpg","img/neutralC/CFD-IF-642-295-N.jpg","1","1","1","1","0","1","0.455486800012295","0.50827500000014","0.443252500001108","1","1","1","1","1","1","1","1","1"
"250052","img/neutralC/CFD-IF-642-295-N.jpg","img/neutralC/CFD-WM-019-003-N.jpg","img/neutralC/CFD-BM-251-013-N.jpg","1","1","1","1","1","1","0.443252500001108","0.455486800012295","0.3999851999979","1","1","1","1","1","1","1","1","1"
"250052","img/neutralC/CFD-BM-251-013-N.jpg","img/neutralC/CFD-IF-642-295-N.jpg","img/neutralC/CFD-BF-212-315-N.jpg","1","1","1","1","1","1","0.3999851999979","0.443252500001108","0.45362370001385","1","1","1","1","1","1","1","1","1"
"250052","img/neutralC/CFD-BF-212-315-N.jpg","img/neutralC/CFD-BM-251-013-N.jpg","img/neutralC/CFD-WM-249-239-N.jpg","1","1","1","1","1","1","0.45362370001385","0.3999851999979","0.42935690000013","1","1","1","1","1","1","1","1","1"
"250052","img/neutralC/CFD-WM-249-239-N.jpg","img/neutralC/CFD-BF-212-315-N.jpg","img/neutralC/CFD-WF-228-196-N.jpg","1","1","1","1","1","0","0.42935690000013","0.45362370001385","0.523657800004003","1","1","1","1","1","1","1","1","1"
"250052","img/neutralC/CFD-WF-228-196-N.jpg","img/neutralC/CFD-WM-249-239-N.jpg","img/neutralC/CFD-WM-215-041-N.jpg","1","1","1","0","1","0","0.523657800004003","0.42935690000013","0.457329700002447","1","1","1","1","1","1","1","1","1"
"250052","img/neutralC/CFD-WM-215-041-N.jpg","img/neutralC/CFD-WF-228-196-N.jpg",NA,"1","1",NA,"0","0",NA,"0.457329700002447","0.523657800004003",NA,"1","1",NA,"1","1",NA,"1","1",NA
"250052","img/neutralC/CFD-AF-253-130-N.jpg",NA,"img/neutralC/CFD-IM-667-369-N.jpg","1",NA,"1","1",NA,"0","0.646397399992566",NA,"0.528094799999963","1",NA,"1","1",NA,"1","1",NA,"1"
"250052","img/neutralC/CFD-IM-667-369-N.jpg","img/neutralC/CFD-AF-253-130-N.jpg","img/neutralC/CFD-MF-316-001-N.jpg","1","1","1","0","1","0","0.528094799999963","0.646397399992566","0.574973800001317","1","1","1","1","1","1","1","1","1"
"250052","img/neutralC/CFD-MF-316-001-N.jpg","img/neutralC/CFD-IM-667-369-N.jpg","img/neutralC/CFD-WM-209-038-N.jpg","1","1","1","0","0","0","0.574973800001317","0.528094799999963","0.593484000011813","1","1","1","1","1","1","1","1","1"
"250052","img/neutralC/CFD-WM-209-038-N.jpg","img/neutralC/CFD-MF-316-001-N.jpg","img/neutralC/CFD-WF-222-092-N.jpg","1","1","1","0","0","1","0.593484000011813","0.574973800001317","0.434146500003408","1","1","1","1","1","1","1","1","1"
"250052","img/neutralC/CFD-WF-222-092-N.jpg","img/neutralC/CFD-WM-209-038-N.jpg","img/neutralC/CFD-LF-206-078-N.jpg","1","1","1","1","0","1","0.434146500003408","0.593484000011813","0.432860999993864","1","1","1","1","1","1","1","1","1"
"250052","img/neutralC/CFD-LF-206-078-N.jpg","img/neutralC/CFD-WF-222-092-N.jpg","img/neutralC/CFD-IM-702-101-N.jpg","1","1","1","1","1","1","0.432860999993864","0.434146500003408","0.600895499999751","1","1","1","1","1","1","1","1","1"
"250052","img/neutralC/CFD-IM-702-101-N.jpg","img/neutralC/CFD-LF-206-078-N.jpg","img/neutralC/CFD-LM-225-130-N.jpg","1","1","1","1","1","0","0.600895499999751","0.432860999993864","0.492583100000047","1","1","1","1","1","1","1","1","1"
"250052","img/neutralC/CFD-LM-225-130-N.jpg","img/neutralC/CFD-IM-702-101-N.jpg","img/neutralC/CFD-MF-303-013-N.jpg","1","1","1","0","1","0","0.492583100000047","0.600895499999751","0.464537799998652","1","1","1","1","1","1","1","1","1"
"250052","img/neutralC/CFD-MF-303-013-N.jpg","img/neutralC/CFD-LM-225-130-N.jpg","img/neutralC/CFD-WM-015-002-N.jpg","1","1","1","0","0","0","0.464537799998652","0.492583100000047","0.539004999998724","1","1","1","1","1","1","1","1","1"
"250052","img/neutralC/CFD-WM-015-002-N.jpg","img/neutralC/CFD-MF-303-013-N.jpg","img/neutralC/CFD-WF-244-163-N.jpg","1","1","1","0","0","1","0.539004999998724","0.464537799998652","0.469735300008324","1","1","1","1","1","1","1","1","1"
"250052","img/neutralC/CFD-WF-244-163-N.jpg","img/neutralC/CFD-WM-015-002-N.jpg","img/neutralC/CFD-MF-343-001-N.jpg","1","1","1","1","0","1","0.469735300008324","0.539004999998724","0.436426200001733","1","1","1","1","1","1","1","1","1"
"250052","img/neutralC/CFD-MF-343-001-N.jpg","img/neutralC/CFD-WF-244-163-N.jpg","img/neutralC/CFD-AM-220-134-N.jpg","1","1","1","1","1","0","0.436426200001733","0.469735300008324","0.507447500000126","1","1","1","1","1","1","1","1","1"
"250052","img/neutralC/CFD-AM-220-134-N.jpg","img/neutralC/CFD-MF-343-001-N.jpg","img/neutralC/CFD-IF-626-375-N.jpg","1","1","1","0","1","0","0.507447500000126","0.436426200001733","0.507404200005112","1","1","1","1","1","1","1","1","1"
"250052","img/neutralC/CFD-IF-626-375-N.jpg","img/neutralC/CFD-AM-220-134-N.jpg","img/neutralC/CFD-IM-706-002-N.jpg","1","1","1","0","0","0","0.507404200005112","0.507447500000126","0.588145100002293","1","1","1","1","1","1","1","1","1"
"250052","img/neutralC/CFD-IM-706-002-N.jpg","img/neutralC/CFD-IF-626-375-N.jpg","img/neutralC/CFD-BF-014-002-N.jpg","1","1","1","0","0","1","0.588145100002293","0.507404200005112","0.559927299997071","1","1","1","1","1","1","1","1","1"
"250052","img/neutralC/CFD-BF-014-002-N.jpg","img/neutralC/CFD-IM-706-002-N.jpg","img/neutralC/CFD-WM-218-074-N.jpg","1","1","1","1","0","1","0.559927299997071","0.588145100002293","0.386066399994888","1","1","1","1","1","1","1","1","1"
"250052","img/neutralC/CFD-WM-218-074-N.jpg","img/neutralC/CFD-BF-014-002-N.jpg","img/neutralC/CFD-IF-660-464-N.jpg","1","1","1","1","1","0","0.386066399994888","0.559927299997071","0.568414000008488","1","1","1","1","1","1","1","1","1"
"250052","img/neutralC/CFD-IF-660-464-N.jpg","img/neutralC/CFD-WM-218-074-N.jpg","img/neutralC/CFD-LF-255-088-N.jpg","1","1","1","0","1","0","0.568414000008488","0.386066399994888","0.580782300006831","1","1","1","1","1","1","1","1","1"
"250052","img/neutralC/CFD-LF-255-088-N.jpg","img/neutralC/CFD-IF-660-464-N.jpg","img/neutralC/CFD-IM-664-651-N.jpg","1","1","1","0","0","1","0.580782300006831","0.568414000008488","0.506686200009426","1","1","1","1","1","1","1","1","1"
"250052","img/neutralC/CFD-IM-664-651-N.jpg","img/neutralC/CFD-LF-255-088-N.jpg","img/neutralC/CFD-LM-200-045-N.jpg","1","1","1","1","0","1","0.506686200009426","0.580782300006831","0.5614052000019","1","1","1","1","1","1","1","1","1"
"250052","img/neutralC/CFD-LM-200-045-N.jpg","img/neutralC/CFD-IM-664-651-N.jpg","img/neutralC/CFD-AF-233-190-N.jpg","1","1","1","1","1","0","0.5614052000019","0.506686200009426","0.611955300002592","1","1","1","1","1","1","1","1","1"
"250052","img/neutralC/CFD-AF-233-190-N.jpg","img/neutralC/CFD-LM-200-045-N.jpg","img/neutralC/CFD-BM-250-170-N.jpg","1","1","1","0","1","1","0.611955300002592","0.5614052000019","0.460351000001538","1","1","1","1","1","1","1","1","1"
"250052","img/neutralC/CFD-BM-250-170-N.jpg","img/neutralC/CFD-AF-233-190-N.jpg","img/neutralC/CFD-MF-305-014-N.jpg","1","1","1","1","0","1","0.460351000001538","0.611955300002592","0.521947000015643","1","1","1","1","1","1","1","1","1"
"250052","img/neutralC/CFD-MF-305-014-N.jpg","img/neutralC/CFD-BM-250-170-N.jpg","img/neutralC/CFD-WF-030-002-N.jpg","1","1","1","1","1","0","0.521947000015643","0.460351000001538","0.578385600005277","1","1","1","1","1","1","1","1","1"
"250052","img/neutralC/CFD-WF-030-002-N.jpg","img/neutralC/CFD-MF-305-014-N.jpg","img/neutralC/CFD-WF-007-001-N.jpg","1","1","1","0","1","1","0.578385600005277","0.521947000015643","0.554301600015606","1","1","1","1","1","1","1","1","1"
"250052","img/neutralC/CFD-WF-007-001-N.jpg","img/neutralC/CFD-WF-030-002-N.jpg","img/neutralC/CFD-MM-324-069-N.jpg","1","1","1","1","0","1","0.554301600015606","0.578385600005277","0.429361100003007","1","1","1","1","1","1","1","1","1"
"250052","img/neutralC/CFD-MM-324-069-N.jpg","img/neutralC/CFD-WF-007-001-N.jpg","img/neutralC/CFD-BM-217-082-N.jpg","1","1","1","1","1","0","0.429361100003007","0.554301600015606","0.580239499991876","1","1","1","1","1","1","1","1","1"
"250052","img/neutralC/CFD-BM-217-082-N.jpg","img/neutralC/CFD-MM-324-069-N.jpg","img/neutralC/CFD-MF-357-002-N.jpg","1","1","1","0","1","0","0.580239499991876","0.429361100003007","0.536803400013014","1","1","1","1","1","1","1","1","1"
"250052","img/neutralC/CFD-MF-357-002-N.jpg","img/neutralC/CFD-BM-217-082-N.jpg","img/neutralC/CFD-BF-237-172-N.jpg","1","1","1","0","0","1","0.536803400013014","0.580239499991876","0.415390499998466","1","1","1","1","1","1","1","1","1"
"250052","img/neutralC/CFD-BF-237-172-N.jpg","img/neutralC/CFD-MF-357-002-N.jpg","img/neutralC/CFD-IM-680-369-N.jpg","1","1","1","1","0","1","0.415390499998466","0.536803400013014","0.548805600003107","1","1","1","1","1","1","1","1","1"
"250052","img/neutralC/CFD-IM-680-369-N.jpg","img/neutralC/CFD-BF-237-172-N.jpg","img/neutralC/CFD-BM-001-014-N.jpg","1","1","1","1","1","0","0.548805600003107","0.415390499998466","0.610704299993813","1","1","1","1","1","1","1","1","1"
"250052","img/neutralC/CFD-BM-001-014-N.jpg","img/neutralC/CFD-IM-680-369-N.jpg",NA,"1","1",NA,"0","1",NA,"0.610704299993813","0.548805600003107",NA,"1","1",NA,"1","1",NA,"1","1",NA
"250052","img/neutralC/CFD-IF-710-016-N.jpg",NA,"img/neutralC/CFD-BF-029-031-N.jpg","0",NA,"1","0",NA,"1","0.756928599992534",NA,"0.604205900002853","1",NA,"1","1",NA,"1","1",NA,"1"
"250052","img/neutralC/CFD-BF-029-031-N.jpg","img/neutralC/CFD-IF-710-016-N.jpg","img/neutralC/CFD-IM-651-308-N.jpg","1","0","1","1","0","0","0.604205900002853","0.756928599992534","0.529295400003321","1","1","1","1","1","1","1","1","1"
"250052","img/neutralC/CFD-IM-651-308-N.jpg","img/neutralC/CFD-BF-029-031-N.jpg","img/neutralC/CFD-IF-693-172-N.jpg","1","1","1","0","1","0","0.529295400003321","0.604205900002853","0.560137399996165","1","1","1","1","1","1","1","1","1"
"250052","img/neutralC/CFD-IF-693-172-N.jpg","img/neutralC/CFD-IM-651-308-N.jpg","img/neutralC/CFD-BM-041-035-N.jpg","1","1","1","0","0","0","0.560137399996165","0.529295400003321","0.518140500003938","1","1","1","1","1","1","1","1","1"
"250052","img/neutralC/CFD-BM-041-035-N.jpg","img/neutralC/CFD-IF-693-172-N.jpg","img/neutralC/CFD-LM-215-247-N.jpg","1","1","1","0","0","0","0.518140500003938","0.560137399996165","0.442301000002772","1","1","1","1","1","1","1","1","1"
"250052","img/neutralC/CFD-LM-215-247-N.jpg","img/neutralC/CFD-BM-041-035-N.jpg","img/neutralC/CFD-WM-041-021-N.jpg","1","1","1","0","0","0","0.442301000002772","0.518140500003938","0.582453600000008","1","1","1","1","1","1","1","1","1"
"250052","img/neutralC/CFD-WM-041-021-N.jpg","img/neutralC/CFD-LM-215-247-N.jpg","img/neutralC/CFD-BF-039-031-N.jpg","1","1","1","0","0","1","0.582453600000008","0.442301000002772","0.473368799997843","1","1","1","1","1","1","1","1","1"
"250052","img/neutralC/CFD-BF-039-031-N.jpg","img/neutralC/CFD-WM-041-021-N.jpg","img/neutralC/CFD-LF-230-203-N.jpg","1","1","1","1","0","0","0.473368799997843","0.582453600000008","0.579025400002138","1","1","1","1","1","1","1","1","1"
"250052","img/neutralC/CFD-LF-230-203-N.jpg","img/neutralC/CFD-BF-039-031-N.jpg","img/neutralC/CFD-BM-033-003-N.jpg","1","1","1","0","1","0","0.579025400002138","0.473368799997843","0.624727500005974","1","1","1","1","1","1","1","1","1"
"250052","img/neutralC/CFD-BM-033-003-N.jpg","img/neutralC/CFD-LF-230-203-N.jpg","img/neutralC/CFD-AM-212-050-N.jpg","1","1","1","0","0","1","0.624727500005974","0.579025400002138","0.437519400002202","1","1","1","1","1","1","1","1","1"
"250052","img/neutralC/CFD-AM-212-050-N.jpg","img/neutralC/CFD-BM-033-003-N.jpg","img/neutralC/CFD-WF-213-031-N.jpg","1","1","1","1","0","1","0.437519400002202","0.624727500005974","0.579200499996659","1","1","1","1","1","1","1","1","1"
"250052","img/neutralC/CFD-WF-213-031-N.jpg","img/neutralC/CFD-AM-212-050-N.jpg","img/neutralC/CFD-LF-203-066-N.jpg","1","1","1","1","1","0","0.579200499996659","0.437519400002202","0.490401000002748","1","1","1","1","1","1","1","1","1"
"250052","img/neutralC/CFD-LF-203-066-N.jpg","img/neutralC/CFD-WF-213-031-N.jpg","img/neutralC/CFD-IF-634-382-N.jpg","1","1","1","0","1","1","0.490401000002748","0.579200499996659","0.448031000007177","1","1","1","1","1","1","1","1","1"
"250052","img/neutralC/CFD-IF-634-382-N.jpg","img/neutralC/CFD-LF-203-066-N.jpg","img/neutralC/CFD-WF-224-099-N.jpg","1","1","1","1","0","0","0.448031000007177","0.490401000002748","0.549836500009405","1","1","1","1","1","1","1","1","1"
"250052","img/neutralC/CFD-WF-224-099-N.jpg","img/neutralC/CFD-IF-634-382-N.jpg","img/neutralC/CFD-IM-684-008-N.jpg","1","1","1","0","1","1","0.549836500009405","0.448031000007177","0.511208900003112","1","1","1","1","1","1","1","1","1"
"250052","img/neutralC/CFD-IM-684-008-N.jpg","img/neutralC/CFD-WF-224-099-N.jpg","img/neutralC/CFD-WM-011-002-N.jpg","1","1","1","1","0","0","0.511208900003112","0.549836500009405","0.515678199997637","1","1","1","1","1","1","1","1","1"
"250052","img/neutralC/CFD-WM-011-002-N.jpg","img/neutralC/CFD-IM-684-008-N.jpg","img/neutralC/CFD-MM-316-156-N.jpg","1","1","1","0","1","1","0.515678199997637","0.511208900003112","0.563136500015389","1","1","1","1","1","1","1","1","1"
"250052","img/neutralC/CFD-MM-316-156-N.jpg","img/neutralC/CFD-WM-011-002-N.jpg","img/neutralC/CFD-MF-337-026-N.jpg","1","1","1","1","0","1","0.563136500015389","0.515678199997637","0.56316789999255","1","1","1","1","1","1","1","1","1"
"250052","img/neutralC/CFD-MF-337-026-N.jpg","img/neutralC/CFD-MM-316-156-N.jpg","img/neutralC/CFD-LM-218-183-N.jpg","1","1","1","1","1","1","0.56316789999255","0.563136500015389","0.455606000003172","1","1","1","1","1","1","1","1","1"
"250052","img/neutralC/CFD-LM-218-183-N.jpg","img/neutralC/CFD-MF-337-026-N.jpg","img/neutralC/CFD-LF-214-090-N.jpg","1","1","1","1","1","0","0.455606000003172","0.56316789999255","0.618034899991471","1","1","1","1","1","1","1","1","1"
"250052","img/neutralC/CFD-LF-214-090-N.jpg","img/neutralC/CFD-LM-218-183-N.jpg","img/neutralC/CFD-AM-201-076-N.jpg","1","1","1","0","1","1","0.618034899991471","0.455606000003172","0.504990500005079","1","1","1","1","1","1","1","1","1"
"250052","img/neutralC/CFD-AM-201-076-N.jpg","img/neutralC/CFD-LF-214-090-N.jpg","img/neutralC/CFD-BM-239-136-N.jpg","1","1","1","1","0","1","0.504990500005079","0.618034899991471","0.504953499999829","1","1","1","1","1","1","1","1","1"
"250052","img/neutralC/CFD-BM-239-136-N.jpg","img/neutralC/CFD-AM-201-076-N.jpg","img/neutralC/CFD-LF-205-100-N.jpg","1","1","1","1","1","1","0.504953499999829","0.504990500005079","0.472658700004104","1","1","1","1","1","1","1","1","1"
"250052","img/neutralC/CFD-LF-205-100-N.jpg","img/neutralC/CFD-BM-239-136-N.jpg","img/neutralC/CFD-BF-253-202-N.jpg","1","1","1","1","1","0","0.472658700004104","0.504953499999829","0.57338110001001","1","1","1","1","1","1","1","1","1"
"250052","img/neutralC/CFD-BF-253-202-N.jpg","img/neutralC/CFD-LF-205-100-N.jpg","img/neutralC/CFD-AF-231-357-N.jpg","1","1","1","0","1","1","0.57338110001001","0.472658700004104","0.502011400007177","1","1","1","1","1","1","1","1","1"
"250052","img/neutralC/CFD-AF-231-357-N.jpg","img/neutralC/CFD-BF-253-202-N.jpg","img/neutralC/CFD-WM-021-001-N.jpg","1","1","1","1","0","1","0.502011400007177","0.57338110001001","0.531025500007672","1","1","1","1","1","1","1","1","1"
"250052","img/neutralC/CFD-WM-021-001-N.jpg","img/neutralC/CFD-AF-231-357-N.jpg","img/neutralC/CFD-LF-224-176-N.jpg","1","1","1","1","1","0","0.531025500007672","0.502011400007177","0.524367599995458","1","1","1","1","1","1","1","1","1"
"250052","img/neutralC/CFD-LF-224-176-N.jpg","img/neutralC/CFD-WM-021-001-N.jpg","img/neutralC/CFD-BF-213-188-N.jpg","1","1","1","0","1","1","0.524367599995458","0.531025500007672","0.635613800011924","1","1","1","1","1","1","1","1","1"
"250052","img/neutralC/CFD-BF-213-188-N.jpg","img/neutralC/CFD-LF-224-176-N.jpg","img/neutralC/CFD-BM-019-002-N.jpg","1","1","1","1","0","0","0.635613800011924","0.524367599995458","0.51196859999618","1","1","1","1","1","1","1","1","1"
"250052","img/neutralC/CFD-BM-019-002-N.jpg","img/neutralC/CFD-BF-213-188-N.jpg","img/neutralC/CFD-WF-250-167-N.jpg","1","1","1","0","1","1","0.51196859999618","0.635613800011924","0.471711900012451","1","1","1","1","1","1","1","1","1"
"250052","img/neutralC/CFD-WF-250-167-N.jpg","img/neutralC/CFD-BM-019-002-N.jpg","img/neutralC/CFD-BF-205-141-N.jpg","1","1","1","1","0","0","0.471711900012451","0.51196859999618","0.535752000010689","1","1","1","1","1","1","1","1","1"
"250052","img/neutralC/CFD-BF-205-141-N.jpg","img/neutralC/CFD-WF-250-167-N.jpg",NA,"1","1",NA,"0","1",NA,"0.535752000010689","0.471711900012451",NA,"1","1",NA,"1","1",NA,"1","1",NA
"250052","img/neutralC/CFD-MF-302-027-N.jpg",NA,"img/neutralC/CFD-BF-020-002-N.jpg","1",NA,"1","0",NA,"1","0.69830690001254",NA,"0.433698099994217","1",NA,"1","1",NA,"1","1",NA,"1"
"250052","img/neutralC/CFD-BF-020-002-N.jpg","img/neutralC/CFD-MF-302-027-N.jpg","img/neutralC/CFD-WF-210-086-N.jpg","1","1","1","1","0","0","0.433698099994217","0.69830690001254","0.672384100005729","1","1","1","1","1","1","1","1","1"
"250052","img/neutralC/CFD-WF-210-086-N.jpg","img/neutralC/CFD-BF-020-002-N.jpg","img/neutralC/CFD-AF-250-200-N.jpg","1","1","1","0","1","1","0.672384100005729","0.433698099994217","0.384673500011559","1","1","1","1","1","1","1","1","1"
"250052","img/neutralC/CFD-AF-250-200-N.jpg","img/neutralC/CFD-WF-210-086-N.jpg","img/neutralC/CFD-IM-635-010-N.jpg","1","1","1","1","0","1","0.384673500011559","0.672384100005729","0.41378160000022","1","1","1","1","1","1","1","1","1"
"250052","img/neutralC/CFD-IM-635-010-N.jpg","img/neutralC/CFD-AF-250-200-N.jpg","img/neutralC/CFD-AM-233-236-N.jpg","1","1","1","1","1","1","0.41378160000022","0.384673500011559","0.499305799996364","1","1","1","1","1","1","1","1","1"
"250052","img/neutralC/CFD-AM-233-236-N.jpg","img/neutralC/CFD-IM-635-010-N.jpg","img/neutralC/CFD-BM-004-002-N.jpg","1","1","1","1","1","0","0.499305799996364","0.41378160000022","0.52091360000486","1","1","1","1","1","1","1","1","1"
"250052","img/neutralC/CFD-BM-004-002-N.jpg","img/neutralC/CFD-AM-233-236-N.jpg","img/neutralC/CFD-WM-018-002-N.jpg","1","1","1","0","1","0","0.52091360000486","0.499305799996364","0.536056400000234","1","1","1","1","1","1","1","1","1"
"250052","img/neutralC/CFD-WM-018-002-N.jpg","img/neutralC/CFD-BM-004-002-N.jpg","img/neutralC/CFD-AF-205-155-N.jpg","1","1","1","0","0","0","0.536056400000234","0.52091360000486","0.568513399994117","1","1","1","1","1","1","1","1","1"
"250052","img/neutralC/CFD-AF-205-155-N.jpg","img/neutralC/CFD-WM-018-002-N.jpg","img/neutralC/CFD-BF-042-026-N.jpg","1","1","1","0","0","1","0.568513399994117","0.536056400000234","0.408123999994132","1","1","1","1","1","1","1","1","1"
"250052","img/neutralC/CFD-BF-042-026-N.jpg","img/neutralC/CFD-AF-205-155-N.jpg","img/neutralC/CFD-LM-241-125-N.jpg","1","1","1","1","0","1","0.408123999994132","0.568513399994117","0.482796500000404","1","1","1","1","1","1","1","1","1"
"250052","img/neutralC/CFD-LM-241-125-N.jpg","img/neutralC/CFD-BF-042-026-N.jpg","img/neutralC/CFD-IM-678-482-N.jpg","1","1","1","1","1","0","0.482796500000404","0.408123999994132","0.515394200003357","1","1","1","1","1","1","1","1","1"
"250052","img/neutralC/CFD-IM-678-482-N.jpg","img/neutralC/CFD-LM-241-125-N.jpg","img/neutralC/CFD-BF-217-189-N.jpg","1","1","1","0","1","0","0.515394200003357","0.482796500000404","0.7567088999931","1","1","1","1","1","1","1","1","1"
"250052","img/neutralC/CFD-BF-217-189-N.jpg","img/neutralC/CFD-IM-678-482-N.jpg","img/neutralC/CFD-IF-636-011-N.jpg","1","1","1","0","0","1","0.7567088999931","0.515394200003357","0.497751300004893","1","1","1","1","1","1","1","1","1"
"250052","img/neutralC/CFD-IF-636-011-N.jpg","img/neutralC/CFD-BF-217-189-N.jpg","img/neutralC/CFD-AF-246-242-N.jpg","1","1","1","1","0","0","0.497751300004893","0.7567088999931","0.495431999996072","1","1","1","1","1","1","1","1","1"
"250052","img/neutralC/CFD-AF-246-242-N.jpg","img/neutralC/CFD-IF-636-011-N.jpg","img/neutralC/CFD-MF-307-002-N.jpg","1","1","1","0","1","1","0.495431999996072","0.497751300004893","0.457697200006805","1","1","1","1","1","1","1","1","1"
"250052","img/neutralC/CFD-MF-307-002-N.jpg","img/neutralC/CFD-AF-246-242-N.jpg","img/neutralC/CFD-AF-244-168-N.jpg","1","1","1","1","0","0","0.457697200006805","0.495431999996072","0.504854900005739","1","1","1","1","1","1","1","1","1"
"250052","img/neutralC/CFD-AF-244-168-N.jpg","img/neutralC/CFD-MF-307-002-N.jpg","img/neutralC/CFD-LM-204-001-N.jpg","1","1","1","0","1","0","0.504854900005739","0.457697200006805","0.505427299998701","1","1","1","1","1","1","1","1","1"
"250052","img/neutralC/CFD-LM-204-001-N.jpg","img/neutralC/CFD-AF-244-168-N.jpg","img/neutralC/CFD-BF-235-168-N.jpg","1","1","1","0","0","1","0.505427299998701","0.504854900005739","0.443928299995605","1","1","1","1","1","1","1","1","1"
"250052","img/neutralC/CFD-BF-235-168-N.jpg","img/neutralC/CFD-LM-204-001-N.jpg","img/neutralC/CFD-WM-253-119-N.jpg","1","1","1","1","0","1","0.443928299995605","0.505427299998701","0.515267200011294","1","1","1","1","1","1","1","1","1"
"250052","img/neutralC/CFD-WM-253-119-N.jpg","img/neutralC/CFD-BF-235-168-N.jpg","img/neutralC/CFD-AF-213-126-N.jpg","1","1","1","1","1","1","0.515267200011294","0.443928299995605","0.513169800004107","1","1","1","1","1","1","1","1","1"
"250052","img/neutralC/CFD-AF-213-126-N.jpg","img/neutralC/CFD-WM-253-119-N.jpg","img/neutralC/CFD-BF-206-143-N.jpg","1","1","1","1","1","1","0.513169800004107","0.515267200011294","0.470736600007513","1","1","1","1","1","1","1","1","1"
"250052","img/neutralC/CFD-BF-206-143-N.jpg","img/neutralC/CFD-AF-213-126-N.jpg","img/neutralC/CFD-WF-235-121-N.jpg","1","1","1","1","1","0","0.470736600007513","0.513169800004107","0.59301179999602","1","1","1","1","1","1","1","1","1"
"250052","img/neutralC/CFD-WF-235-121-N.jpg","img/neutralC/CFD-BF-206-143-N.jpg","img/neutralC/CFD-AM-225-102-N.jpg","1","1","1","0","1","0","0.59301179999602","0.470736600007513","0.707347300005495","1","1","1","1","1","1","1","1","1"
"250052","img/neutralC/CFD-AM-225-102-N.jpg","img/neutralC/CFD-WF-235-121-N.jpg","img/neutralC/CFD-AF-234-208-N.jpg","1","1","1","0","0","1","0.707347300005495","0.59301179999602","0.489942699990934","1","1","1","1","1","1","1","1","1"
"250052","img/neutralC/CFD-AF-234-208-N.jpg","img/neutralC/CFD-AM-225-102-N.jpg","img/neutralC/CFD-BF-040-003-N.jpg","1","1","1","1","0","1","0.489942699990934","0.707347300005495","0.457973900003708","1","1","1","1","1","1","1","1","1"
"250052","img/neutralC/CFD-BF-040-003-N.jpg","img/neutralC/CFD-AF-234-208-N.jpg","img/neutralC/CFD-IF-732-260-N.jpg","1","1","1","1","1","0","0.457973900003708","0.489942699990934","0.533944700015127","1","1","1","1","1","1","1","1","1"
"250052","img/neutralC/CFD-IF-732-260-N.jpg","img/neutralC/CFD-BF-040-003-N.jpg","img/neutralC/CFD-AM-245-111-N.jpg","1","1","1","0","1","1","0.533944700015127","0.457973900003708","0.465010300002177","1","1","1","1","1","1","1","1","1"
"250052","img/neutralC/CFD-AM-245-111-N.jpg","img/neutralC/CFD-IF-732-260-N.jpg","img/neutralC/CFD-IM-632-097-N.jpg","1","1","1","1","0","0","0.465010300002177","0.533944700015127","0.647425100003602","1","1","1","1","1","1","1","1","1"
"250052","img/neutralC/CFD-IM-632-097-N.jpg","img/neutralC/CFD-AM-245-111-N.jpg","img/neutralC/CFD-BM-215-155-N.jpg","1","1","0","0","1","0","0.647425100003602","0.465010300002177","0.740426800010027","1","1","1","1","1","1","1","1","1"
"250052","img/neutralC/CFD-BM-215-155-N.jpg","img/neutralC/CFD-IM-632-097-N.jpg","img/neutralC/CFD-LF-239-148-N.jpg","0","1","1","0","0","0","0.740426800010027","0.647425100003602","0.581297500000801","1","1","1","1","1","1","1","1","1"
"250052","img/neutralC/CFD-LF-239-148-N.jpg","img/neutralC/CFD-BM-215-155-N.jpg","img/neutralC/CFD-IM-669-111-N.jpg","1","0","1","0","0","1","0.581297500000801","0.740426800010027","0.637561600000481","1","1","1","1","1","1","1","1","1"
"250052","img/neutralC/CFD-IM-669-111-N.jpg","img/neutralC/CFD-LF-239-148-N.jpg",NA,"1","1",NA,"1","0",NA,"0.637561600000481","0.581297500000801",NA,"1","1",NA,"1","1",NA,"1","1",NA
"250052","img/neutralC/CFD-BF-222-240-N.jpg",NA,"img/neutralC/CFD-BF-004-014-N.jpg","1",NA,"1","0",NA,"1","0.800457500008633",NA,"0.500745099998312","1",NA,"1","1",NA,"1","1",NA,"1"
"250052","img/neutralC/CFD-BF-004-014-N.jpg","img/neutralC/CFD-BF-222-240-N.jpg","img/neutralC/CFD-BM-013-002-N.jpg","1","1","1","1","0","1","0.500745099998312","0.800457500008633","0.491566299999249","1","1","1","1","1","1","1","1","1"
"250052","img/neutralC/CFD-BM-013-002-N.jpg","img/neutralC/CFD-BF-004-014-N.jpg","img/neutralC/CFD-AF-210-050-N.jpg","1","1","1","1","1","1","0.491566299999249","0.500745099998312","0.481383400008781","1","1","1","1","1","1","1","1","1"
"250052","img/neutralC/CFD-AF-210-050-N.jpg","img/neutralC/CFD-BM-013-002-N.jpg","img/neutralC/CFD-BM-010-003-N.jpg","1","1","1","1","1","0","0.481383400008781","0.491566299999249","0.505712400001357","1","1","1","1","1","1","1","1","1"
"250052","img/neutralC/CFD-BM-010-003-N.jpg","img/neutralC/CFD-AF-210-050-N.jpg","img/neutralC/CFD-WF-006-002-N.jpg","1","1","1","0","1","0","0.505712400001357","0.481383400008781","0.536808699995163","1","1","1","1","1","1","1","1","1"
"250052","img/neutralC/CFD-WF-006-002-N.jpg","img/neutralC/CFD-BM-010-003-N.jpg","img/neutralC/CFD-BM-213-134-N.jpg","1","1","1","0","0","1","0.536808699995163","0.505712400001357","0.493132000003243","1","1","1","1","1","1","1","1","1"
"250052","img/neutralC/CFD-BM-213-134-N.jpg","img/neutralC/CFD-WF-006-002-N.jpg","img/neutralC/CFD-WM-202-107-N.jpg","1","1","1","1","0","1","0.493132000003243","0.536808699995163","0.539648800011491","1","1","1","1","1","1","1","1","1"
"250052","img/neutralC/CFD-WM-202-107-N.jpg","img/neutralC/CFD-BM-213-134-N.jpg","img/neutralC/CFD-IM-738-191-N.jpg","1","1","1","1","1","0","0.539648800011491","0.493132000003243","0.590453500000876","1","1","1","1","1","1","1","1","1"
"250052","img/neutralC/CFD-IM-738-191-N.jpg","img/neutralC/CFD-WM-202-107-N.jpg","img/neutralC/CFD-WF-223-133-N.jpg","1","1","1","0","1","0","0.590453500000876","0.539648800011491","0.540926100002252","1","1","1","1","1","1","1","1","1"
"250052","img/neutralC/CFD-WF-223-133-N.jpg","img/neutralC/CFD-IM-738-191-N.jpg","img/neutralC/CFD-BM-003-003-N.jpg","1","1","1","0","0","0","0.540926100002252","0.590453500000876","0.493532100008451","1","1","1","1","1","1","1","1","1"
"250052","img/neutralC/CFD-BM-003-003-N.jpg","img/neutralC/CFD-WF-223-133-N.jpg","img/neutralC/CFD-LF-225-164-N.jpg","1","1","1","0","0","1","0.493532100008451","0.540926100002252","0.462467900011688","1","1","1","1","1","1","1","1","1"
"250052","img/neutralC/CFD-LF-225-164-N.jpg","img/neutralC/CFD-BM-003-003-N.jpg","img/neutralC/CFD-IM-659-359-N.jpg","1","1","1","1","0","0","0.462467900011688","0.493532100008451","0.574474399996689","1","1","1","1","1","1","1","1","1"
"250052","img/neutralC/CFD-IM-659-359-N.jpg","img/neutralC/CFD-LF-225-164-N.jpg","img/neutralC/CFD-LF-208-127-N.jpg","1","1","1","0","1","0","0.574474399996689","0.462467900011688","0.534187700002803","1","1","1","1","1","1","1","1","1"
"250052","img/neutralC/CFD-LF-208-127-N.jpg","img/neutralC/CFD-IM-659-359-N.jpg","img/neutralC/CFD-WM-228-065-N.jpg","1","1","1","0","0","0","0.534187700002803","0.574474399996689","0.472020899993367","1","1","1","1","1","1","1","1","1"
"250052","img/neutralC/CFD-WM-228-065-N.jpg","img/neutralC/CFD-LF-208-127-N.jpg","img/neutralC/CFD-LF-210-220-N.jpg","1","1","1","0","0","1","0.472020899993367","0.534187700002803","0.550978799990844","1","1","1","1","1","1","1","1","1"
"250052","img/neutralC/CFD-LF-210-220-N.jpg","img/neutralC/CFD-WM-228-065-N.jpg","img/neutralC/CFD-AF-227-207-N.jpg","1","1","1","1","0","1","0.550978799990844","0.472020899993367","0.485631999996258","1","1","1","1","1","1","1","1","1"
"250052","img/neutralC/CFD-AF-227-207-N.jpg","img/neutralC/CFD-LF-210-220-N.jpg","img/neutralC/CFD-BM-028-002-N.jpg","1","1","1","1","1","1","0.485631999996258","0.550978799990844","0.47548999999708","1","1","1","1","1","1","1","1","1"
"250052","img/neutralC/CFD-BM-028-002-N.jpg","img/neutralC/CFD-AF-227-207-N.jpg","img/neutralC/CFD-WM-254-152-N.jpg","1","1","1","1","1","1","0.47548999999708","0.485631999996258","0.422459299996262","1","1","1","1","1","1","1","1","1"
"250052","img/neutralC/CFD-WM-254-152-N.jpg","img/neutralC/CFD-BM-028-002-N.jpg","img/neutralC/CFD-MF-336-016-N.jpg","1","1","1","1","1","1","0.422459299996262","0.47548999999708","0.396855500002857","1","1","1","1","1","1","1","1","1"
"250052","img/neutralC/CFD-MF-336-016-N.jpg","img/neutralC/CFD-WM-254-152-N.jpg","img/neutralC/CFD-LM-247-095-N.jpg","1","1","1","1","1","0","0.396855500002857","0.422459299996262","0.503673300001537","1","1","1","1","1","1","1","1","1"
"250052","img/neutralC/CFD-LM-247-095-N.jpg","img/neutralC/CFD-MF-336-016-N.jpg","img/neutralC/CFD-MF-312-002-N.jpg","1","1","1","0","1","1","0.503673300001537","0.396855500002857","0.353999400002067","1","1","1","1","1","1","1","1","1"
"250052","img/neutralC/CFD-MF-312-002-N.jpg","img/neutralC/CFD-LM-247-095-N.jpg","img/neutralC/CFD-IM-701-312-N.jpg","1","1","1","1","0","0","0.353999400002067","0.503673300001537","0.573540299999877","1","1","1","1","1","1","1","1","1"
"250052","img/neutralC/CFD-IM-701-312-N.jpg","img/neutralC/CFD-MF-312-002-N.jpg","img/neutralC/CFD-BF-045-003-N.jpg","1","1","1","0","1","0","0.573540299999877","0.353999400002067","0.538652000002912","1","1","1","1","1","1","1","1","1"
"250052","img/neutralC/CFD-BF-045-003-N.jpg","img/neutralC/CFD-IM-701-312-N.jpg","img/neutralC/CFD-LM-238-129-N.jpg","1","1","1","0","0","1","0.538652000002912","0.573540299999877","0.467246200001682","1","1","1","1","1","1","1","1","1"
"250052","img/neutralC/CFD-LM-238-129-N.jpg","img/neutralC/CFD-BF-045-003-N.jpg","img/neutralC/CFD-IF-744-114-N.jpg","1","1","1","1","0","0","0.467246200001682","0.538652000002912","0.516057500004536","1","1","1","1","1","1","1","1","1"
"250052","img/neutralC/CFD-IF-744-114-N.jpg","img/neutralC/CFD-LM-238-129-N.jpg","img/neutralC/CFD-IF-625-225-N.jpg","1","1","1","0","1","0","0.516057500004536","0.467246200001682","0.457514100009575","1","1","1","1","1","1","1","1","1"
"250052","img/neutralC/CFD-IF-625-225-N.jpg","img/neutralC/CFD-IF-744-114-N.jpg","img/neutralC/CFD-LF-241-188-N.jpg","1","1","1","0","0","0","0.457514100009575","0.516057500004536","0.462615700002061","1","1","1","1","1","1","1","1","1"
"250052","img/neutralC/CFD-LF-241-188-N.jpg","img/neutralC/CFD-IF-625-225-N.jpg","img/neutralC/CFD-AM-221-184-N.jpg","1","1","1","0","0","1","0.462615700002061","0.457514100009575","0.588448500013328","1","1","1","1","1","1","1","1","1"
"250052","img/neutralC/CFD-AM-221-184-N.jpg","img/neutralC/CFD-LF-241-188-N.jpg","img/neutralC/CFD-AF-239-171-N.jpg","1","1","1","1","0","1","0.588448500013328","0.462615700002061","0.678611499999533","1","1","1","1","1","1","1","1","1"
"250052","img/neutralC/CFD-AF-239-171-N.jpg","img/neutralC/CFD-AM-221-184-N.jpg","img/neutralC/CFD-IF-673-389-N.jpg","1","1","1","1","1","0","0.678611499999533","0.588448500013328","0.598809899995103","1","1","1","1","1","1","1","1","1"
"250052","img/neutralC/CFD-IF-673-389-N.jpg","img/neutralC/CFD-AF-239-171-N.jpg","img/neutralC/CFD-WF-033-002-N.jpg","1","1","1","0","1","1","0.598809899995103","0.678611499999533","0.460498400003416","1","1","1","1","1","1","1","1","1"
"250052","img/neutralC/CFD-WF-033-002-N.jpg","img/neutralC/CFD-IF-673-389-N.jpg",NA,"1","1",NA,"1","0",NA,"0.460498400003416","0.598809899995103",NA,"1","1",NA,"1","1",NA,"1","1",NA
