"participant_id","face","surpAcc","memory_surp_responses","memory_surp_rt","keep_surp_memory_trial_based_on_rt","surp_block_num","exclude_block","number_of_surp_resp_items_used","num_blocks_excluded"
"250051","img/neutralC/CFD-WF-234-086-N.jpg","0","k","1.96049759999732",1,1,0,2,0
"250051","img/neutralC/CFD-WM-028-003-N.jpg","0","k","1.29972159999306",1,1,0,2,0
"250051","img/neutralC/CFD-WM-012-001-N.jpg","1","s","1.9596642999968",1,1,0,2,0
"250051","img/neutralC/CFD-WF-244-163-N.jpg","1","s","1.29678389999026",1,1,0,2,0
"250051","img/neutralC/CFD-BF-205-141-N.jpg","1","s","1.14157759999216",1,1,0,2,0
"250051","img/neutralC/CFD-AM-219-101-N.jpg","1","s","1.32001989998389",1,1,0,2,0
"250051","img/neutralC/CFD-WF-233-112-N.jpg","0","k","1.11635820000083",1,1,0,2,0
"250051","img/neutralC/CFD-MF-300-002-N.jpg","0","s","1.22465839999495",1,1,0,2,0
"250051","img/neutralC/CFD-IM-617-174-N.jpg","1","k","0.588495200005127",1,1,0,2,0
"250051","img/neutralC/CFD-MM-304-002-N.jpg","0","k","1.49502310001117",1,1,0,2,0
"250051","img/neutralC/CFD-BM-238-242-N.jpg","0","s","1.11025729999528",1,1,0,2,0
"250051","img/neutralC/CFD-LF-245-166-N.jpg","0","s","0.871533199999249",1,1,0,2,0
"250051","img/neutralC/CFD-WM-004-010-N.jpg","0","k","1.83227110000735",1,1,0,2,0
"250051","img/neutralC/CFD-WM-020-001-N.jpg","1","k","0.944874599998002",1,1,0,2,0
"250051","img/neutralC/CFD-AF-246-242-N.jpg","1","s","1.13826019999397",1,1,0,2,0
"250051","img/neutralC/CFD-BM-227-191-N.jpg","1","s","1.33762370000477",1,1,0,2,0
"250051","img/neutralC/CFD-WM-033-025-N.jpg","1","k","0.938679500002763",1,1,0,2,0
"250051","img/neutralC/CFD-IM-632-097-N.jpg","1","s","1.30527589998383",1,1,0,2,0
"250051","img/neutralC/CFD-WM-227-099-N.jpg","1","s","1.18539669999154",1,1,0,2,0
"250051","img/neutralC/CFD-WM-212-097-N.jpg","1","k","0.859789499998442",1,1,0,2,0
"250051","img/neutralC/CFD-BM-213-134-N.jpg","1","k","1.78072179999435",1,1,0,2,0
"250051","img/neutralC/CFD-WM-023-001-N.jpg","1","s","2.07338119999622",1,1,0,2,0
"250051","img/neutralC/CFD-AM-233-236-N.jpg","0","k","0.959622499998659",1,1,0,2,0
"250051","img/neutralC/CFD-MF-305-014-N.jpg","1","k","1.14509789999283",1,1,0,2,0
"250051","img/neutralC/CFD-IM-674-281-N.jpg","0","k","1.88900250000006",1,1,0,2,0
"250051","img/neutralC/CFD-MF-307-002-N.jpg","0","k","1.70994190000056",1,1,0,2,0
"250051","img/neutralC/CFD-AF-253-130-N.jpg","1","s","1.51878410000063",1,1,0,2,0
"250051","img/neutralC/CFD-WM-034-030-N.jpg","0","s","1.00705759999983",1,1,0,2,0
"250051","img/neutralC/CFD-IM-700-009-N.jpg","1","k","1.71182340000814",1,1,0,2,0
"250051","img/neutralC/CFD-LM-247-095-N.jpg","1","s","1.27939629998582",1,1,0,2,0
"250051","img/neutralC/CFD-BM-004-002-N.jpg","0","k","1.8704590999987",1,1,0,2,0
"250051","img/neutralC/CFD-IM-671-601-N.jpg","0","k","1.57190910000645",1,1,0,2,0
"250051","img/neutralC/CFD-BM-009-002-N.jpg","1","s","1.39855619998707",1,1,0,2,0
"250051","img/neutralC/CFD-IM-707-105-N.jpg","0","k","1.02794110000832",1,1,0,2,0
"250051","img/neutralC/CFD-IF-744-114-N.jpg","1","s","1.08316399999603",1,1,0,2,0
"250051","img/neutralC/CFD-WF-213-031-N.jpg","1","k","1.78700130000652",1,1,0,2,0
"250051","img/neutralC/CFD-IM-657-308-N.jpg","0","k","0.85783249999804",1,1,0,2,0
"250051","img/neutralC/CFD-LF-225-164-N.jpg","0","s","1.1959354999999",1,1,0,2,0
"250051","img/neutralC/CFD-WF-001-003-N.jpg","1","s","1.01071689999662",1,1,0,2,0
"250051","img/neutralC/CFD-WF-250-167-N.jpg","1","k","1.17005939999945",1,1,0,2,0
"250051","img/neutralC/CFD-BF-012-001-N.jpg","0","s","1.16651019999699",1,1,0,2,0
"250051","img/neutralC/CFD-BM-253-004-N.jpg","1","k","2.22439679999661",1,1,0,2,0
"250051","img/neutralC/CFD-WM-215-041-N.jpg","0","k","1.81189369999629",1,1,0,2,0
"250051","img/neutralC/CFD-IF-660-464-N.jpg","1","k","1.34790339999017",1,1,0,2,0
"250051","img/neutralC/CFD-BM-020-001-N.jpg","1","s","2.83851410000352",1,1,0,2,0
"250051","img/neutralC/CFD-BM-239-136-N.jpg","1","k","1.00167650000367",1,1,0,2,0
"250051","img/neutralC/CFD-WF-030-002-N.jpg","0","s","1.21863359998679",1,1,0,2,0
"250051","img/neutralC/CFD-LF-204-133-N.jpg","1","k","2.65075519999664",1,1,0,2,0
"250051","img/neutralC/CFD-BM-023-029-N.jpg","1","k","1.02811259998998",1,2,0,2,0
"250051","img/neutralC/CFD-WM-242-011-N.jpg","0","k","1.16944900000817",1,2,0,2,0
"250051","img/neutralC/CFD-WM-009-002-N.jpg","0","s","1.40949390000605",1,2,0,2,0
"250051","img/neutralC/CFD-IM-669-111-N.jpg","1","k","0.678298200000427",1,2,0,2,0
"250051","img/neutralC/CFD-BF-043-003-N.jpg","1","s","0.929758300000685",1,2,0,2,0
"250051","img/neutralC/CFD-BM-217-082-N.jpg","1","k","1.11267049999151",1,2,0,2,0
"250051","img/neutralC/CFD-IF-634-382-N.jpg","1","s","1.40821559999313",1,2,0,2,0
"250051","img/neutralC/CFD-IM-627-178-N.jpg","1","s","1.13596279999183",1,2,0,2,0
"250051","img/neutralC/CFD-IF-693-172-N.jpg","1","s","1.03527069999836",1,2,0,2,0
"250051","img/neutralC/CFD-IF-665-015-N.jpg","0","k","1.00917129998561",1,2,0,2,0
"250051","img/neutralC/CFD-IM-664-651-N.jpg","1","s","1.00394909999159",1,2,0,2,0
"250051","img/neutralC/CFD-MF-321-003-N.jpg","1","s","1.5609095999971",1,2,0,2,0
"250051","img/neutralC/CFD-BM-026-002-N.jpg","1","s","0.993527200000244",1,2,0,2,0
"250051","img/neutralC/CFD-WF-033-002-N.jpg","1","s","1.43627529998776",1,2,0,2,0
"250051","img/neutralC/CFD-BM-015-015-N.jpg","1","s","1.20260330000019",1,2,0,2,0
"250051","img/neutralC/CFD-WM-248-036-N.jpg","0","k","0.817230699991342",1,2,0,2,0
"250051","img/neutralC/CFD-MF-313-002-N.jpg","0","s","2.03712599999562",1,2,0,2,0
"250051","img/neutralC/CFD-IM-689-263-N.jpg","1","s","2.29447809999692",1,2,0,2,0
"250051","img/neutralC/CFD-LM-241-125-N.jpg","0","k","2.24916609999491",1,2,0,2,0
"250051","img/neutralC/CFD-LM-213-061-N.jpg","0","s","0.895820500008995",1,2,0,2,0
"250051","img/neutralC/CFD-AM-211-052-N.jpg","1","k","0.825324500008719",1,2,0,2,0
"250051","img/neutralC/CFD-IM-667-369-N.jpg","1","k","0.678331499992055",1,2,0,2,0
"250051","img/neutralC/CFD-BM-003-003-N.jpg","1","k","0.997046399992541",1,2,0,2,0
"250051","img/neutralC/CFD-BF-044-034-N.jpg","1","s","1.21321839999291",1,2,0,2,0
"250051","img/neutralC/CFD-BF-218-207-N.jpg","1","k","0.689995599997928",1,2,0,2,0
"250051","img/neutralC/CFD-BM-207-024-N.jpg","1","s","0.735336899990216",1,2,0,2,0
"250051","img/neutralC/CFD-IF-672-305-N.jpg","1","s","2.35694369999692",1,2,0,2,0
"250051","img/neutralC/CFD-BM-036-003-N.jpg","0","k","1.08218880000641",1,2,0,2,0
"250051","img/neutralC/CFD-LF-224-176-N.jpg","0","k","1.44737099998747",1,2,0,2,0
"250051","img/neutralC/CFD-IM-651-308-N.jpg","1","k","1.04694929999823",1,2,0,2,0
"250051","img/neutralC/CFD-WF-208-068-N.jpg","1","s","0.971027199993841",1,2,0,2,0
"250051","img/neutralC/CFD-WM-019-003-N.jpg","0","s","1.2175006000034",1,2,0,2,0
"250051","img/neutralC/CFD-WM-219-008-N.jpg","1","k","0.962543299989193",1,2,0,2,0
"250051","img/neutralC/CFD-IF-710-016-N.jpg","0","k","1.23466030000418",1,2,0,2,0
"250051","img/neutralC/CFD-WF-240-083-N.jpg","0","k","0.768852699999115",1,2,0,2,0
"250051","img/neutralC/CFD-BM-030-003-N.jpg","1","s","0.983467800004291",1,2,0,2,0
"250051","img/neutralC/CFD-MM-319-052-N.jpg","1","s","1.00820029999886",1,2,0,2,0
"250051","img/neutralC/CFD-AF-250-200-N.jpg","1","k","1.19199719998869",1,2,0,2,0
"250051","img/neutralC/CFD-WM-228-065-N.jpg","0","k","1.44342989999859",1,2,0,2,0
"250051","img/neutralC/CFD-IF-718-001-N.jpg","1","k","1.29486789999646",1,2,0,2,0
"250051","img/neutralC/CFD-AF-239-171-N.jpg","0","s","1.33235070000228",1,2,0,2,0
"250051","img/neutralC/CFD-LM-237-264-N.jpg","1","k","0.839374899995164",1,2,0,2,0
"250051","img/neutralC/CFD-BF-051-035-N.jpg","0","s","1.05631259999063",1,2,0,2,0
"250051","img/neutralC/CFD-WF-023-003-N.jpg","1","s","1.39639919999172",1,2,0,2,0
"250051","img/neutralC/CFD-WF-200-099-N.jpg","1","k","0.708875399985118",1,2,0,2,0
"250051","img/neutralC/CFD-WM-015-002-N.jpg","1","k","0.748144199998933",1,2,0,2,0
"250051","img/neutralC/CFD-MM-306-010-N.jpg","1","k","0.795431899998221",1,2,0,2,0
"250051","img/neutralC/CFD-WM-017-002-N.jpg","0","s","1.00868260000425",1,2,0,2,0
"250051","img/neutralC/CFD-WF-026-002-N.jpg","0","s","1.59380010000314",1,3,0,2,0
"250051","img/neutralC/CFD-BM-251-013-N.jpg","1","k","0.955838900001254",1,3,0,2,0
"250051","img/neutralC/CFD-LM-216-082-N.jpg","1","k","0.820635299998685",1,3,0,2,0
"250051","img/neutralC/CFD-IM-639-263-N.jpg","0","s","1.11100109999825",1,3,0,2,0
"250051","img/neutralC/CFD-BM-039-029-N.jpg","1","k","1.37967260000005",1,3,0,2,0
"250051","img/neutralC/CFD-AM-242-176-N.jpg","1","s","1.10043069999665",1,3,0,2,0
"250051","img/neutralC/CFD-AM-225-102-N.jpg","1","s","0.769499899994116",1,3,0,2,0
"250051","img/neutralC/CFD-AM-251-124-N.jpg","1","k","0.75746419999632",1,3,0,2,0
"250051","img/neutralC/CFD-IM-659-359-N.jpg","1","s","1.1704691999912",1,3,0,2,0
"250051","img/neutralC/CFD-WM-209-038-N.jpg","0","k","0.61998859999585",1,3,0,2,0
"250051","img/neutralC/CFD-WM-202-107-N.jpg","1","s","1.42264810000779",1,3,0,2,0
"250051","img/neutralC/CFD-AM-212-050-N.jpg","1","s","2.11150040000211",1,3,0,2,0
"250051","img/neutralC/CFD-LM-217-162-N.jpg","1","k","1.19791059999261",1,3,0,2,0
"250051","img/neutralC/CFD-WM-213-076-N.jpg","0","s","0.975671300009708",1,3,0,2,0
"250051","img/neutralC/CFD-BF-025-002-N.jpg","1","s","1.18593310000142",1,3,0,2,0
"250051","img/neutralC/CFD-AF-213-126-N.jpg","0","k","1.03599399999075",1,3,0,2,0
"250051","img/neutralC/CFD-BF-003-003-N.jpg","1","k","0.937799999999697",1,3,0,2,0
"250051","img/neutralC/CFD-LF-241-188-N.jpg","0","s","1.06606349999493",1,3,0,2,0
"250051","img/neutralC/CFD-WM-255-219-N.jpg","1","s","1.25810909998836",1,3,0,2,0
"250051","img/neutralC/CFD-BF-018-039-N.jpg","1","s","1.0796422999847",1,3,0,2,0
"250051","img/neutralC/CFD-LF-206-078-N.jpg","1","s","1.21421890000056",1,3,0,2,0
"250051","img/neutralC/CFD-WM-038-003-N.jpg","1","s","1.34013009999762",1,3,0,2,0
"250051","img/neutralC/CFD-BF-045-003-N.jpg","0","k","0.846818999998504",1,3,0,2,0
"250051","img/neutralC/CFD-MM-321-021-N.jpg","1","s","1.10999029999948",1,3,0,2,0
"250051","img/neutralC/CFD-IF-677-452-1-N.jpg","0","k","1.18024069999228",1,3,0,2,0
"250051","img/neutralC/CFD-IF-673-389-N.jpg","1","k","1.07798239999101",1,3,0,2,0
"250051","img/neutralC/CFD-LF-255-088-N.jpg","1","s","0.812389099999564",1,3,0,2,0
"250051","img/neutralC/CFD-BF-027-002-N.jpg","1","k","1.38403909999761",1,3,0,2,0
"250051","img/neutralC/CFD-LM-204-001-N.jpg","1","k","1.28019960000529",1,3,0,2,0
"250051","img/neutralC/CFD-MM-316-156-N.jpg","1","k","1.16961440000159",1,3,0,2,0
"250051","img/neutralC/CFD-BF-255-140-N.jpg","1","k","1.51136809999298",1,3,0,2,0
"250051","img/neutralC/CFD-BF-208-266-N.jpg","1","s","1.14777009999671",1,3,0,2,0
"250051","img/neutralC/CFD-WM-254-152-N.jpg","1","k","0.763837000005879",1,3,0,2,0
"250051","img/neutralC/CFD-BF-033-028-N.jpg","1","k","0.911381499987328",1,3,0,2,0
"250051","img/neutralC/CFD-WF-036-023-N.jpg","0","s","1.5423901000031",1,3,0,2,0
"250051","img/neutralC/CFD-AF-227-207-N.jpg","1","s","1.48538019998523",1,3,0,2,0
"250051","img/neutralC/CFD-BM-005-003-N.jpg","0","k","1.94489559999784",1,3,0,2,0
"250051","img/neutralC/CFD-IM-680-369-N.jpg","1","k","0.819875100001809",1,3,0,2,0
"250051","img/neutralC/CFD-IM-738-191-N.jpg","1","s","1.60631209998974",1,3,0,2,0
"250051","img/neutralC/CFD-AF-244-168-N.jpg","1","k","0.928638699988369",1,3,0,2,0
"250051","img/neutralC/CFD-BF-238-190-N.jpg","0","k","1.46653020000667",1,3,0,2,0
"250051","img/neutralC/CFD-BF-038-037-N.jpg","0","s","1.130058499999",1,3,0,2,0
"250051","img/neutralC/CFD-WM-014-002-N.jpg","1","s","1.13594900000317",1,3,0,2,0
"250051","img/neutralC/CFD-WF-008-002-N.jpg","1","s","1.50234049999563",1,3,0,2,0
"250051","img/neutralC/CFD-AF-232-078-N.jpg","1","k","1.33681979999528",1,3,0,2,0
"250051","img/neutralC/CFD-WM-258-125-N.jpg","0","s","0.9097982999956",1,3,0,2,0
"250051","img/neutralC/CFD-BF-004-014-N.jpg","1","s","1.07082110000192",1,3,0,2,0
"250051","img/neutralC/CFD-IM-701-312-N.jpg","0","s","1.22472260000359",1,3,0,2,0
"250051","img/neutralC/CFD-WF-226-095-N.jpg","0","s","0.891878000009456",1,4,0,2,0
"250051","img/neutralC/CFD-LM-219-295-N.jpg","1","s","0.98544309999852",1,4,0,2,0
"250051","img/neutralC/CFD-BM-250-170-N.jpg","0","k","2.08793239999795",1,4,0,2,0
"250051","img/neutralC/CFD-MF-335-002-N.jpg","0","k","1.18342869999469",1,4,0,2,0
"250051","img/neutralC/CFD-BF-010-001-N.jpg","1","k","1.53698720000102",1,4,0,2,0
"250051","img/neutralC/CFD-WF-006-002-N.jpg","1","s","1.5504210999934",1,4,0,2,0
"250051","img/neutralC/CFD-IM-696-001-N.jpg","1","s","1.03473259999009",1,4,0,2,0
"250051","img/neutralC/CFD-LF-214-090-N.jpg","1","k","1.02356069999223",1,4,0,2,0
"250051","img/neutralC/CFD-LF-212-066-N.jpg","1","s","1.36662200000137",1,4,0,2,0
"250051","img/neutralC/CFD-BM-013-002-N.jpg","1","k","3.2458997000067",1,4,0,2,0
"250051","img/neutralC/CFD-BM-247-240-N.jpg","1","s","3.82237779999559",1,4,0,2,0
"250051","img/neutralC/CFD-MF-318-022-N.jpg","0","k","0.92196769999282",1,4,0,2,0
"250051","img/neutralC/CFD-LM-200-045-N.jpg","1","s","0.890073899994604",1,4,0,2,0
"250051","img/neutralC/CFD-LM-226-175-N.jpg","1","k","0.651943999997457",1,4,0,2,0
"250051","img/neutralC/CFD-AM-247-165-N.jpg","0","k","1.40623900000355",1,4,0,2,0
"250051","img/neutralC/CFD-WM-006-002-N.jpg","1","k","0.847009799996158",1,4,0,2,0
"250051","img/neutralC/CFD-WF-007-001-N.jpg","0","k","0.93822129999171",1,4,0,2,0
"250051","img/neutralC/CFD-BF-039-031-N.jpg","1","s","1.16293170000426",1,4,0,2,0
"250051","img/neutralC/CFD-LM-218-183-N.jpg","1","s","1.92539519999991",1,4,0,2,0
"250051","img/neutralC/CFD-LF-222-147-N.jpg","1","k","1.0180343999964",1,4,0,2,0
"250051","img/neutralC/CFD-BM-018-001-N.jpg","0","s","0.878200399994967",1,4,0,2,0
"250051","img/neutralC/CFD-BF-232-187-N.jpg","1","k","0.733797900000354",1,4,0,2,0
"250051","img/neutralC/CFD-WF-238-023-N.jpg","1","k","0.770112799989874",1,4,0,2,0
"250051","img/neutralC/CFD-AF-215-70-N.jpg","0","k","1.3715613999957",1,4,0,2,0
"250051","img/neutralC/CFD-MF-301-024-N.jpg","0","s","1.06750479999755",1,4,0,2,0
"250051","img/neutralC/CFD-IM-675-015-N.jpg","0","k","0.791547400003765",1,4,0,2,0
"250051","img/neutralC/CFD-WM-253-119-N.jpg","0","s","0.94843089999631",1,4,0,2,0
"250051","img/neutralC/CFD-AM-230-150-N.jpg","1","k","0.859722100009094",1,4,0,2,0
"250051","img/neutralC/CFD-AM-245-111-N.jpg","1","k","1.10105440000189",1,4,0,2,0
"250051","img/neutralC/CFD-BF-226-119-N.jpg","0","s","0.848699799986207",1,4,0,2,0
"250051","img/neutralC/CFD-IM-703-182-N.jpg","1","k","0.96357489998627",1,4,0,2,0
"250051","img/neutralC/CFD-BF-020-002-N.jpg","0","s","1.02917470000102",1,4,0,2,0
"250051","img/neutralC/CFD-BF-212-315-N.jpg","1","s","0.866439099991112",1,4,0,2,0
"250051","img/neutralC/CFD-BM-001-014-N.jpg","1","s","0.88093640000443",1,4,0,2,0
"250051","img/neutralC/CFD-LM-243-075-N.jpg","1","k","0.67648619999818",1,4,0,2,0
"250051","img/neutralC/CFD-BF-002-001-N.jpg","0","s","0.822366199994576",1,4,0,2,0
"250051","img/neutralC/CFD-BF-028-001-N.jpg","0","k","0.966033999997308",1,4,0,2,0
"250051","img/neutralC/CFD-AF-221-147-N.jpg","1","k","0.76251709999633",1,4,0,2,0
"250051","img/neutralC/CFD-AM-235-241-N.jpg","0","s","1.41971739998553",1,4,0,2,0
"250051","img/neutralC/CFD-WM-018-002-N.jpg","0","s","1.19774629999301",1,4,0,2,0
"250051","img/neutralC/CFD-MF-309-002-N.jpg","1","s","1.31183679999958",1,4,0,2,0
"250051","img/neutralC/CFD-AF-229-160-N.jpg","1","k","1.09516300000541",1,4,0,2,0
"250051","img/neutralC/CFD-LF-208-127-N.jpg","0","k","1.02418910000415",1,4,0,2,0
"250051","img/neutralC/CFD-LM-238-129-N.jpg","0","s","1.91021000000183",1,4,0,2,0
"250051","img/neutralC/CFD-AF-237-223-N.jpg","0","k","1.02470959999482",1,4,0,2,0
"250051","img/neutralC/CFD-WM-024-015-N.jpg","1","s","0.908234499991522",1,4,0,2,0
"250051","img/neutralC/CFD-WF-209-052-N.jpg","0","k","0.732687499999884",1,4,0,2,0
"250051","img/neutralC/CFD-WF-235-121-N.jpg","0","k","1.4051119999931",1,4,0,2,0
"250051","img/neutralC/CFD-AF-205-155-N.jpg","0","s","1.13158230000408",1,5,0,2,0
"250051","img/neutralC/CFD-BM-010-003-N.jpg","1","k","1.06874609999068",1,5,0,2,0
"250051","img/neutralC/CFD-WF-027-003-N.jpg","0","k","0.765871199997491",1,5,0,2,0
"250051","img/neutralC/CFD-LF-239-148-N.jpg","1","s","0.784023099986371",1,5,0,2,0
"250051","img/neutralC/CFD-LM-252-076-N.jpg","0","k","0.764753099996597",1,5,0,2,0
"250051","img/neutralC/CFD-AM-220-134-N.jpg","0","k","0.892285899986746",1,5,0,2,0
"250051","img/neutralC/CFD-MF-336-016-N.jpg","1","k","0.792896699989797",1,5,0,2,0
"250051","img/neutralC/CFD-IM-684-008-N.jpg","1","k","0.512120200000936",1,5,0,2,0
"250051","img/neutralC/CFD-LF-211-003-N.jpg","0","k","0.369483499991475",1,5,0,2,0
"250051","img/neutralC/CFD-BM-027-001-N.jpg","1","s","0.939432899991516",1,5,0,2,0
"250051","img/neutralC/CFD-WF-207-014-N.jpg","0","k","0.830673700009356",1,5,0,2,0
"250051","img/neutralC/CFD-IM-606-008-N.jpg","1","k","0.768306900004973",1,5,0,2,0
"250051","img/neutralC/CFD-WM-021-001-N.jpg","0","s","0.74512949999189",1,5,0,2,0
"250051","img/neutralC/CFD-MF-328-020-N.jpg","0","s","0.860956599994097",1,5,0,2,0
"250051","img/neutralC/CFD-MF-340-026-N.jpg","1","s","1.04940469999565",1,5,0,2,0
"250051","img/neutralC/CFD-AF-240-206-N.jpg","0","k","0.599449300003471",1,5,0,2,0
"250051","img/neutralC/CFD-IM-638-250-1-N.jpg","0","k","0.832185799998115",1,5,0,2,0
"250051","img/neutralC/CFD-WF-221-005-N.jpg","1","s","0.65651399998751",1,5,0,2,0
"250051","img/neutralC/CFD-LF-203-066-N.jpg","1","k","0.749334599997383",1,5,0,2,0
"250051","img/neutralC/CFD-AF-254-167-N.jpg","0","s","0.410776499993517",1,5,0,2,0
"250051","img/neutralC/CFD-AM-236-090-N.jpg","1","s","0.361122100002831",1,5,0,2,0
"250051","img/neutralC/CFD-WM-225-127-N.jpg","1","s","1.36903780000284",1,5,0,2,0
"250051","img/neutralC/CFD-AM-221-184-N.jpg","0","k","0.618776300005266",1,5,0,2,0
"250051","img/neutralC/CFD-WF-245-084-N.jpg","1","k","0.804228299995884",1,5,0,2,0
"250051","img/neutralC/CFD-WM-221-091-N.jpg","1","k","1.36796489999688",1,5,0,2,0
"250051","img/neutralC/CFD-WF-228-196-N.jpg","1","k","1.12020299999858",1,5,0,2,0
"250051","img/neutralC/CFD-WF-243-148-N.jpg","1","k","1.65371519999462",1,5,0,2,0
"250051","img/neutralC/CFD-BF-201-080-N.jpg","1","s","0.806407799987937",1,5,0,2,0
"250051","img/neutralC/CFD-WF-005-010-N.jpg","1","k","0.709561199997552",1,5,0,2,0
"250051","img/neutralC/CFD-BF-237-172-N.jpg","1","k","0.500124400001368",1,5,0,2,0
"250051","img/neutralC/CFD-BF-202-109-N.jpg","0","k","0.50908960000379",1,5,0,2,0
"250051","img/neutralC/CFD-AF-233-190-N.jpg","0","s","0.66144969999732",1,5,0,2,0
"250051","img/neutralC/CFD-WF-002-004-N.jpg","0","k","0.588979399995878",1,5,0,2,0
"250051","img/neutralC/CFD-IM-635-010-N.jpg","1","k","1.44788400000834",1,5,0,2,0
"250051","img/neutralC/CFD-BF-207-004-N.jpg","1","s","0.993519700001343",1,5,0,2,0
"250051","img/neutralC/CFD-WF-224-099-N.jpg","1","k","0.974362499997369",1,5,0,2,0
"250051","img/neutralC/CFD-BF-041-001-N.jpg","1","k","0.870536800008267",1,5,0,2,0
"250051","img/neutralC/CFD-LM-244-068-N.jpg","0","k","0.681951000005938",1,5,0,2,0
"250051","img/neutralC/CFD-BF-236-177-N.jpg","0","s","0.97188999998616",1,5,0,2,0
"250051","img/neutralC/CFD-BM-029-024-N.jpg","0","k","0.594419199987897",1,5,0,2,0
"250051","img/neutralC/CFD-WF-029-002-N.jpg","0","s","0.608562800000072",1,5,0,2,0
"250051","img/neutralC/CFD-BF-014-002-N.jpg","1","s","0.867541600004188",1,5,0,2,0
"250051","img/neutralC/CFD-IF-625-225-N.jpg","1","k","0.711497199998121",1,5,0,2,0
"250051","img/neutralC/CFD-WM-249-239-N.jpg","1","k","1.73847409999871",1,5,0,2,0
"250051","img/neutralC/CFD-LF-242-121-N.jpg","1","s","1.37449879999622",1,5,0,2,0
"250051","img/neutralC/CFD-IM-743-006-N.jpg","0","k","0.820917499993811",1,5,0,2,0
"250051","img/neutralC/CFD-IF-642-295-N.jpg","1","s","0.568478800007142",1,5,0,2,0
"250051","img/neutralC/CFD-BF-217-189-N.jpg","0","k","0.39622129999043",1,5,0,2,0
"250051","img/neutralC/CFD-LM-233-171-N.jpg","0","k","1.13273440000194",1,6,0,2,0
"250051","img/neutralC/CFD-WF-223-133-N.jpg","0","k","0.658402200002456",1,6,0,2,0
"250051","img/neutralC/CFD-BF-253-202-N.jpg","0","k","0.37298909999663",1,6,0,2,0
"250051","img/neutralC/CFD-BM-243-218-N.jpg","0","s","0.418227300004219",1,6,0,2,0
"250051","img/neutralC/CFD-LF-238-154-N.jpg","0","s","0.761199000000488",1,6,0,2,0
"250051","img/neutralC/CFD-LM-253-075-N.jpg","1","k","0.688513499990222",1,6,0,2,0
"250051","img/neutralC/CFD-BM-241-235-N.jpg","0","s","0.65529469998728",1,6,0,2,0
"250051","img/neutralC/CFD-WF-222-092-N.jpg","0","s","0.364121999999043",1,6,0,2,0
"250051","img/neutralC/CFD-MF-337-026-N.jpg","0","k","0.307357099998626",1,6,0,2,0
"250051","img/neutralC/CFD-BM-019-002-N.jpg","0","k","0.899544499989133",1,6,0,2,0
"250051","img/neutralC/CFD-LM-215-247-N.jpg","0","s","0.821597200003453",1,6,0,2,0
"250051","img/neutralC/CFD-IF-620-218-N.jpg","0","k","0.62633939999796",1,6,0,2,0
"250051","img/neutralC/CFD-IM-697-015-N.jpg","0","k","0.734939599991776",1,6,0,2,0
"250051","img/neutralC/CFD-BF-222-240-N.jpg","0","k","0.908399299994926",1,6,0,2,0
"250051","img/neutralC/CFD-WM-237-052-N.jpg","0","s","1.10014460000093",1,6,0,2,0
"250051","img/neutralC/CFD-AM-244-222-N.jpg","1","k","1.48060899999109",1,6,0,2,0
"250051","img/neutralC/CFD-BM-225-154-N.jpg","1","k","1.16487209999468",1,6,0,2,0
"250051","img/neutralC/CFD-BM-021-021-N.jpg","0","k","1.0927279000025",1,6,0,2,0
"250051","img/neutralC/CFD-IM-637-007-N.jpg","0","k","0.92993359999673",1,6,0,2,0
"250051","img/neutralC/CFD-BF-214-308-N.jpg","0","k","0.811119200006942",1,6,0,2,0
"250051","img/neutralC/CFD-WF-241-210-N.jpg","1","k","1.56498300000385",1,6,0,2,0
"250051","img/neutralC/CFD-MF-302-027-N.jpg","1","s","1.63320480000402",1,6,0,2,0
"250051","img/neutralC/CFD-LF-230-203-N.jpg","1","k","1.93936530000064",1,6,0,2,0
"250051","img/neutralC/CFD-LF-218-072-N.jpg","1","s","1.39900059999491",1,6,0,2,0
"250051","img/neutralC/CFD-LF-210-220-N.jpg","1","k","0.983207700002822",1,6,0,2,0
"250051","img/neutralC/CFD-LF-236-221-N.jpg","1","s","0.986839199991664",1,6,0,2,0
"250051","img/neutralC/CFD-IF-676-017-N.jpg","1","k","0.7190636999876",1,6,0,2,0
"250051","img/neutralC/CFD-IF-629-234-N.jpg","0","k","0.87050660001114",1,6,0,2,0
"250051","img/neutralC/CFD-AF-206-079-N.jpg","0","k","1.36937209998723",1,6,0,2,0
"250051","img/neutralC/CFD-IM-604-014-N.jpg","1","s","1.18402610000339",1,6,0,2,0
"250051","img/neutralC/CFD-BF-042-026-N.jpg","0","k","0.896889999989071",1,6,0,2,0
"250051","img/neutralC/CFD-IF-608-390-N.jpg","0","s","1.41563549998682",1,6,0,2,0
"250051","img/neutralC/CFD-MF-343-001-N.jpg","1","k","1.14014560000214",1,6,0,2,0
"250051","img/neutralC/CFD-IM-616-214-N.jpg","1","k","1.2191249000025",1,6,0,2,0
"250051","img/neutralC/CFD-BF-254-201-N.jpg","1","k","0.806286299994099",1,6,0,2,0
"250051","img/neutralC/CFD-LF-250-169-N.jpg","0","s","1.15218150000146",1,6,0,2,0
"250051","img/neutralC/CFD-WM-041-021-N.jpg","0","s","1.2535332999978",1,6,0,2,0
"250051","img/neutralC/CFD-LF-247-051-N.jpg","1","k","1.12287789999391",1,6,0,2,0
"250051","img/neutralC/CFD-IM-646-023-N.jpg","1","k","1.23611119999259",1,6,0,2,0
"250051","img/neutralC/CFD-WF-018-017-N.jpg","1","s","1.33761949998734",1,6,0,2,0
"250051","img/neutralC/CFD-BM-215-155-N.jpg","0","k","2.4946185000008",1,6,0,2,0
"250051","img/neutralC/CFD-IM-615-167-N.jpg","1","s","1.16705340000044",1,6,0,2,0
"250051","img/neutralC/CFD-IM-719-221-N.jpg","1","s","1.10345260000031",1,6,0,2,0
"250051","img/neutralC/CFD-LM-214-165-N.jpg","1","k","1.40851459998521",1,6,0,2,0
"250051","img/neutralC/CFD-AF-202-122-N.jpg","1","k","0.899924900004407",1,6,0,2,0
"250051","img/neutralC/CFD-IM-702-101-N.jpg","1","k","1.48013870000432",1,6,0,2,0
"250051","img/neutralC/CFD-BF-006-017-N.jpg","1","k","1.07685019999917",1,6,0,2,0
"250051","img/neutralC/CFD-WM-002-009-N.jpg","1","k","0.75376399999368",1,6,0,2,0
"250051","img/neutralC/CFD-BM-200-046-N.jpg","1","k","1.03740660000767",1,7,0,2,0
"250051","img/neutralC/CFD-BM-212-117-N.jpg","0","s","1.07533659999899",1,7,0,2,0
"250051","img/neutralC/CFD-IF-729-393-N.jpg","0","k","0.811386999994284",1,7,0,2,0
"250051","img/neutralC/CFD-BF-213-188-N.jpg","0","s","0.871355699986452",1,7,0,2,0
"250051","img/neutralC/CFD-AM-201-076-N.jpg","0","k","0.349675100005697",1,7,0,2,0
"250051","img/neutralC/CFD-IF-650-315-N.jpg","1","k","0.947080600002664",1,7,0,2,0
"250051","img/neutralC/CFD-IF-732-260-N.jpg","1","k","0.955706799999462",1,7,0,2,0
"250051","img/neutralC/CFD-BM-033-003-N.jpg","1","k","1.2180398000055",1,7,0,2,0
"250051","img/neutralC/CFD-MF-357-002-N.jpg","1","k","0.974017399988952",1,7,0,2,0
"250051","img/neutralC/CFD-WF-009-001-N.jpg","0","k","3.06370469999092",1,7,0,2,0
"250051","img/neutralC/CFD-MF-303-013-N.jpg","1","k","1.28279299999122",1,7,0,2,0
"250051","img/neutralC/CFD-BF-029-031-N.jpg","1","s","1.04798399998981",1,7,0,2,0
"250051","img/neutralC/CFD-IF-742-103-N.jpg","1","s","2.19550780000282",1,7,0,2,0
"250051","img/neutralC/CFD-WM-025-002-N.jpg","0","s","1.71104429999832",1,7,0,2,0
"250051","img/neutralC/CFD-BM-248-128-N.jpg","0","s","1.23741960000189",1,7,0,2,0
"250051","img/neutralC/CFD-MF-312-002-N.jpg","1","s","1.20739209999738",1,7,0,2,0
"250051","img/neutralC/CFD-WM-026-001-N.jpg","0","s","1.00064649998967",1,7,0,2,0
"250051","img/neutralC/CFD-AM-249-163-N.jpg","0","s","1.37015849999443",1,7,0,2,0
"250051","img/neutralC/CFD-WF-012-002-N.jpg","1","k","0.887293399995542",1,7,0,2,0
"250051","img/neutralC/CFD-AM-205-153-N.jpg","1","s","0.834060299996054",1,7,0,2,0
"250051","img/neutralC/CFD-IM-721-341-N.jpg","0","s","1.29982509999536",1,7,0,2,0
"250051","img/neutralC/CFD-WF-248-129-N.jpg","1","k","0.791843599989079",1,7,0,2,0
"250051","img/neutralC/CFD-IM-709-103-N.jpg","1","k","1.11967780000123",1,7,0,2,0
"250051","img/neutralC/CFD-AF-210-050-N.jpg","1","k","1.34303100001125",1,7,0,2,0
"250051","img/neutralC/CFD-WF-210-086-N.jpg","1","s","1.08556180000596",1,7,0,2,0
"250051","img/neutralC/CFD-IM-727-195-N.jpg","0","s","1.15573090000544",1,7,0,2,0
"250051","img/neutralC/CFD-IM-648-337-N.jpg","1","k","0.747745400003623",1,7,0,2,0
"250051","img/neutralC/CFD-WF-214-122-N.jpg","1","k","0.976788499989198",1,7,0,2,0
"250051","img/neutralC/CFD-BF-206-143-N.jpg","1","s","0.974201999997604",1,7,0,2,0
"250051","img/neutralC/CFD-MF-342-022-N.jpg","1","k","1.02252449998923",1,7,0,2,0
"250051","img/neutralC/CFD-BM-211-174-N.jpg","1","k","1.42955780000193",1,7,0,2,0
"250051","img/neutralC/CFD-LF-205-100-N.jpg","1","k","1.46871549998468",1,7,0,2,0
"250051","img/neutralC/CFD-BM-204-003-N.jpg","0","s","1.06350299999758",1,7,0,2,0
"250051","img/neutralC/CFD-BF-224-002-N.jpg","0","s","0.781912300008116",1,7,0,2,0
"250051","img/neutralC/CFD-MF-329-001-N.jpg","1","k","0.792195499991067",1,7,0,2,0
"250051","img/neutralC/CFD-AM-243-212-N.jpg","0","s","0.858436199996504",1,7,0,2,0
"250051","img/neutralC/CFD-WM-257-161-N.jpg","1","s","0.94890519999899",1,7,0,2,0
"250051","img/neutralC/CFD-LF-226-174-N.jpg","0","k","0.69257449998986",1,7,0,2,0
"250051","img/neutralC/CFD-WM-040-022-N.jpg","0","s","0.876337599998806",1,7,0,2,0
"250051","img/neutralC/CFD-MF-316-001-N.jpg","1","s","2.37835309999355",1,7,0,2,0
"250051","img/neutralC/CFD-WM-232-070-N.jpg","1","k","0.980769499990856",1,7,0,2,0
"250051","img/neutralC/CFD-LM-225-130-N.jpg","0","k","0.90711420000298",1,7,0,2,0
"250051","img/neutralC/CFD-IM-653-008-N.jpg","1","k","1.03306339999835",1,7,0,2,0
"250051","img/neutralC/CFD-IM-706-002-N.jpg","0","s","1.2671532999957",1,7,0,2,0
"250051","img/neutralC/CFD-MF-327-002-N.jpg","0","k","1.21673020000162",1,7,0,2,0
"250051","img/neutralC/CFD-IM-685-004-N.jpg","1","k","0.888822699998855",1,7,0,2,0
"250051","img/neutralC/CFD-AF-241-141-N.jpg","1","s","1.28381370000716",1,7,0,2,0
"250051","img/neutralC/CFD-LF-220-120-N.jpg","1","k","0.721264199994039",1,7,0,2,0
"250051","img/neutralC/CFD-AF-234-208-N.jpg","1","k","0.837676299997838",1,8,0,2,0
"250051","img/neutralC/CFD-BF-229-179-N.jpg","0","k","0.676307299989276",1,8,0,2,0
"250051","img/neutralC/CFD-AF-231-357-N.jpg","0","s","0.471537700010231",1,8,0,2,0
"250051","img/neutralC/CFD-WF-022-017-N.jpg","1","k","0.823345400000107",1,8,0,2,0
"250051","img/neutralC/CFD-BF-247-179-N.jpg","0","k","0.556444699992426",1,8,0,2,0
"250051","img/neutralC/CFD-BF-040-003-N.jpg","1","s","0.730875100009143",1,8,0,2,0
"250051","img/neutralC/CFD-IM-728-041-N.jpg","1","s","0.846871300003841",1,8,0,2,0
"250051","img/neutralC/CFD-WM-235-147-N.jpg","1","k","0.775709299996379",1,8,0,2,0
"250051","img/neutralC/CFD-BM-043-071-N.jpg","1","s","0.661338899997645",1,8,0,2,0
"250051","img/neutralC/CFD-LF-201-035-N.jpg","0","k","0.786287999988417",1,8,0,2,0
"250051","img/neutralC/CFD-LM-240-013-N.jpg","1","s","0.85520049999468",1,8,0,2,0
"250051","img/neutralC/CFD-BF-204-189-N.jpg","1","k","1.03303629999573",1,8,0,2,0
"250051","img/neutralC/CFD-BF-235-168-N.jpg","1","s","0.787637400004314",1,8,0,2,0
"250051","img/neutralC/CFD-WM-011-002-N.jpg","1","k","0.768371500002104",1,8,0,2,0
"250051","img/neutralC/CFD-BF-023-010-N.jpg","1","s","0.983777000001282",1,8,0,2,0
"250051","img/neutralC/CFD-WF-017-003-N.jpg","0","s","0.754176500005997",1,8,0,2,0
"250051","img/neutralC/CFD-LF-215-157-N.jpg","0","k","1.00229920000129",1,8,0,2,0
"250051","img/neutralC/CFD-WM-013-001-N.jpg","0","k","1.06970439999714",1,8,0,2,0
"250051","img/neutralC/CFD-IF-626-375-N.jpg","0","k","1.29436080000596",1,8,0,2,0
"250051","img/neutralC/CFD-MF-333-012-N.jpg","0","s","1.32179239999095",1,8,0,2,0
"250051","img/neutralC/CFD-MM-324-069-N.jpg","0","k","1.1506217999995",1,8,0,2,0
"250051","img/neutralC/CFD-IM-645-001-N.jpg","1","k","0.937033900001552",1,8,0,2,0
"250051","img/neutralC/CFD-IF-619-197-N.jpg","1","k","2.24185679999937",1,8,0,2,0
"250051","img/neutralC/CFD-LM-228-188-N.jpg","1","s","1.12726300000213",1,8,0,2,0
"250051","img/neutralC/CFD-BM-028-002-N.jpg","1","s","1.15749399999913",1,8,0,2,0
"250051","img/neutralC/CFD-LF-216-121-N.jpg","1","k","2.47639079998771",1,8,0,2,0
"250051","img/neutralC/CFD-IM-678-482-N.jpg","0","k","1.37842079999973",1,8,0,2,0
"250051","img/neutralC/CFD-IF-623-129-N.jpg","1","s","1.33552799999597",1,8,0,2,0
"250051","img/neutralC/CFD-WM-201-063-N.jpg","1","k","1.1132867999986",1,8,0,2,0
"250051","img/neutralC/CFD-BM-205-001-N.jpg","1","s","1.63611059999675",1,8,0,2,0
"250051","img/neutralC/CFD-MM-317-061-N.jpg","0","k","1.14503899999545",1,8,0,2,0
"250051","img/neutralC/CFD-BF-244-231-N.jpg","1","k","1.17937539999548",1,8,0,2,0
"250051","img/neutralC/CFD-MF-352-054-N.jpg","0","s","1.51437309999892",1,8,0,2,0
"250051","img/neutralC/CFD-WM-218-074-N.jpg","1","s","2.29260509999585",1,8,0,2,0
"250051","img/neutralC/CFD-IM-686-097-N.jpg","0","s","1.01123309999821",1,8,0,2,0
"250051","img/neutralC/CFD-BM-231-155-N.jpg","0","k","1.3768371999904",1,8,0,2,0
"250051","img/neutralC/CFD-MF-359-019-N.jpg","0","k","1.17133479999029",1,8,0,2,0
"250051","img/neutralC/CFD-BM-041-035-N.jpg","1","s","0.836949499993352",1,8,0,2,0
"250051","img/neutralC/CFD-AM-215-120-N.jpg","1","s","1.57589839999855",1,8,0,2,0
"250051","img/neutralC/CFD-BF-036-027-N.jpg","1","s","1.23551980000047",1,8,0,2,0
"250051","img/neutralC/CFD-BF-011-002-N.jpg","1","k","1.73257349999039",1,8,0,2,0
"250051","img/neutralC/CFD-LM-201-057-N.jpg","1","s","1.01309539999056",1,8,0,2,0
"250051","img/neutralC/CFD-AM-217-085-N.jpg","0","k","1.12238669999351",1,8,0,2,0
"250051","img/neutralC/CFD-WF-217-085-N.jpg","0","s","1.08683880000899",1,8,0,2,0
"250051","img/neutralC/CFD-BF-228-212-N.jpg","0","k","0.905242900000303",1,8,0,2,0
"250051","img/neutralC/CFD-IM-726-248-N.jpg","0","s","0.953266899989103",1,8,0,2,0
"250051","img/neutralC/CFD-WF-212-050-N.jpg","1","k","1.02258879999863",1,8,0,2,0
"250051","img/neutralC/CFD-IF-636-011-N.jpg","1","k","0.763797099993099",1,8,0,2,0
