"participant_id","current_trial_face","pre_trial_face","post_trial_face","current_trial_accuracy","pre_trial_accuracy","post_trial_accuracy","current_trial_congruency","pre_trial_congruency","post_trial_congruency","current_trial_rt","pre_trial_rt","post_trial_rt","current_trial_responded","pre_trial_responded","post_trial_responded","current_trial_legitResponse","pre_trial_legitResponse","post_trial_legitResponse","current_trial_resp_nums","pre_trial_resp_nums","post_trial_resp_nums"
"250038","img/neutralC/CFD-BF-038-037-N.jpg",NA,"img/neutralC/CFD-WF-214-122-N.jpg","1",NA,"1","1",NA,"1","0.565912100020796",NA,"0.965589599916711","1",NA,"1","1",NA,"1","1",NA,"1"
"250038","img/neutralC/CFD-WF-214-122-N.jpg","img/neutralC/CFD-BF-038-037-N.jpg","img/neutralC/CFD-LM-228-188-N.jpg","1","1","1","1","1","1","0.965589599916711","0.565912100020796","0.432598100043833","1","1","1","1","1","1","1","1","1"
"250038","img/neutralC/CFD-LM-228-188-N.jpg","img/neutralC/CFD-WF-214-122-N.jpg","img/neutralC/CFD-LM-237-264-N.jpg","1","1","1","1","1","0","0.432598100043833","0.965589599916711","0.94924310001079","1","1","1","1","1","1","1","1","1"
"250038","img/neutralC/CFD-LM-237-264-N.jpg","img/neutralC/CFD-LM-228-188-N.jpg","img/neutralC/CFD-IM-671-601-N.jpg","1","1","0","0","1","0","0.94924310001079","0.432598100043833","0.502412300091237","1","1","1","1","1","1","1","1","1"
"250038","img/neutralC/CFD-IM-671-601-N.jpg","img/neutralC/CFD-LM-237-264-N.jpg","img/neutralC/CFD-WM-020-001-N.jpg","0","1","1","0","0","1","0.502412300091237","0.94924310001079","1.03362240002025","1","1","1","1","1","1","1","1","1"
"250038","img/neutralC/CFD-WM-020-001-N.jpg","img/neutralC/CFD-IM-671-601-N.jpg","img/neutralC/CFD-IM-616-214-N.jpg","1","0","1","1","0","0","1.03362240002025","0.502412300091237","1.13178369996604","1","1","1","1","1","1","1","1","1"
"250038","img/neutralC/CFD-IM-616-214-N.jpg","img/neutralC/CFD-WM-020-001-N.jpg","img/neutralC/CFD-BM-253-004-N.jpg","1","1","1","0","1","1","1.13178369996604","1.03362240002025","1.32017860002816","1","1","1","1","1","1","1","1","1"
"250038","img/neutralC/CFD-BM-253-004-N.jpg","img/neutralC/CFD-IM-616-214-N.jpg","img/neutralC/CFD-WF-200-099-N.jpg","1","1","0","1","0","0","1.32017860002816","1.13178369996604","0.97932500008028","1","1","1","1","1","1","1","1","1"
"250038","img/neutralC/CFD-WF-200-099-N.jpg","img/neutralC/CFD-BM-253-004-N.jpg","img/neutralC/CFD-MF-352-054-N.jpg","0","1","1","0","1","0","0.97932500008028","1.32017860002816","1.17843400000129","1","1","1","1","1","1","1","1","1"
"250038","img/neutralC/CFD-MF-352-054-N.jpg","img/neutralC/CFD-WF-200-099-N.jpg","img/neutralC/CFD-WF-036-023-N.jpg","1","0","1","0","0","0","1.17843400000129","0.97932500008028","0.818289500079118","1","1","1","1","1","1","1","1","1"
"250038","img/neutralC/CFD-WF-036-023-N.jpg","img/neutralC/CFD-MF-352-054-N.jpg","img/neutralC/CFD-BF-232-187-N.jpg","1","1","1","0","0","1","0.818289500079118","1.17843400000129","0.688734999974258","1","1","1","1","1","1","1","1","1"
"250038","img/neutralC/CFD-BF-232-187-N.jpg","img/neutralC/CFD-WF-036-023-N.jpg","img/neutralC/CFD-IM-703-182-N.jpg","1","1","1","1","0","1","0.688734999974258","0.818289500079118","0.92528670001775","1","1","1","1","1","1","1","1","1"
"250038","img/neutralC/CFD-IM-703-182-N.jpg","img/neutralC/CFD-BF-232-187-N.jpg","img/neutralC/CFD-AM-251-124-N.jpg","1","1","1","1","1","0","0.92528670001775","0.688734999974258","0.94657319993712","1","1","1","1","1","1","1","1","1"
"250038","img/neutralC/CFD-AM-251-124-N.jpg","img/neutralC/CFD-IM-703-182-N.jpg","img/neutralC/CFD-IM-645-001-N.jpg","1","1","1","0","1","0","0.94657319993712","0.92528670001775","1.0210928999586","1","1","1","1","1","1","1","1","1"
"250038","img/neutralC/CFD-IM-645-001-N.jpg","img/neutralC/CFD-AM-251-124-N.jpg","img/neutralC/CFD-AM-242-176-N.jpg","1","1","1","0","0","1","1.0210928999586","0.94657319993712","0.680095099960454","1","1","1","1","1","1","1","1","1"
"250038","img/neutralC/CFD-AM-242-176-N.jpg","img/neutralC/CFD-IM-645-001-N.jpg","img/neutralC/CFD-BF-229-179-N.jpg","1","1","1","1","0","0","0.680095099960454","1.0210928999586","0.846511400071904","1","1","1","1","1","1","1","1","1"
"250038","img/neutralC/CFD-BF-229-179-N.jpg","img/neutralC/CFD-AM-242-176-N.jpg","img/neutralC/CFD-LF-220-120-N.jpg","1","1","1","0","1","1","0.846511400071904","0.680095099960454","0.7136945000384","1","1","1","1","1","1","1","1","1"
"250038","img/neutralC/CFD-LF-220-120-N.jpg","img/neutralC/CFD-BF-229-179-N.jpg","img/neutralC/CFD-WM-219-008-N.jpg","1","1","1","1","0","0","0.7136945000384","0.846511400071904","1.05289020005148","1","1","1","1","1","1","1","1","1"
"250038","img/neutralC/CFD-WM-219-008-N.jpg","img/neutralC/CFD-LF-220-120-N.jpg","img/neutralC/CFD-IM-743-006-N.jpg","1","1","1","0","1","1","1.05289020005148","0.7136945000384","0.826570199918933","1","1","1","1","1","1","1","1","1"
"250038","img/neutralC/CFD-IM-743-006-N.jpg","img/neutralC/CFD-WM-219-008-N.jpg","img/neutralC/CFD-WM-033-025-N.jpg","1","1","1","1","0","1","0.826570199918933","1.05289020005148","0.778704600059427","1","1","1","1","1","1","1","1","1"
"250038","img/neutralC/CFD-WM-033-025-N.jpg","img/neutralC/CFD-IM-743-006-N.jpg","img/neutralC/CFD-MF-333-012-N.jpg","1","1","0","1","1","0","0.778704600059427","0.826570199918933","0.969294599955902","1","1","1","1","1","1","1","1","1"
"250038","img/neutralC/CFD-MF-333-012-N.jpg","img/neutralC/CFD-WM-033-025-N.jpg","img/neutralC/CFD-WF-001-003-N.jpg","0","1","0","0","1","1","0.969294599955902","0.778704600059427","1.32160129991826","1","1","1","1","1","1","1","1","1"
"250038","img/neutralC/CFD-WF-001-003-N.jpg","img/neutralC/CFD-MF-333-012-N.jpg","img/neutralC/CFD-WM-235-147-N.jpg","0","0","0","1","0","0","1.32160129991826","0.969294599955902","1.47563880006783","1","1","1","1","1","1","1","1","1"
"250038","img/neutralC/CFD-WM-235-147-N.jpg","img/neutralC/CFD-WF-001-003-N.jpg","img/neutralC/CFD-LF-218-072-N.jpg","0","0","1","0","1","0","1.47563880006783","1.32160129991826","1.5415811999701","1","1","1","1","1","1","1","1","1"
"250038","img/neutralC/CFD-LF-218-072-N.jpg","img/neutralC/CFD-WM-235-147-N.jpg","img/neutralC/CFD-MF-359-019-N.jpg","1","0","1","0","0","0","1.5415811999701","1.47563880006783","0.814036400057375","1","1","1","1","1","1","1","1","1"
"250038","img/neutralC/CFD-MF-359-019-N.jpg","img/neutralC/CFD-LF-218-072-N.jpg","img/neutralC/CFD-BF-226-119-N.jpg","1","1","1","0","0","1","0.814036400057375","1.5415811999701","1.2012821000535","1","1","1","1","1","1","1","1","1"
"250038","img/neutralC/CFD-BF-226-119-N.jpg","img/neutralC/CFD-MF-359-019-N.jpg","img/neutralC/CFD-IF-650-315-N.jpg","1","1","1","1","0","0","1.2012821000535","0.814036400057375","1.0138830000069","1","1","1","1","1","1","1","1","1"
"250038","img/neutralC/CFD-IF-650-315-N.jpg","img/neutralC/CFD-BF-226-119-N.jpg","img/neutralC/CFD-IF-623-129-N.jpg","1","1","1","0","1","1","1.0138830000069","1.2012821000535","0.85441729996819","1","1","1","1","1","1","1","1","1"
"250038","img/neutralC/CFD-IF-623-129-N.jpg","img/neutralC/CFD-IF-650-315-N.jpg","img/neutralC/CFD-BM-225-154-N.jpg","1","1","1","1","0","1","0.85441729996819","1.0138830000069","0.79257090005558","1","1","1","1","1","1","1","1","1"
"250038","img/neutralC/CFD-BM-225-154-N.jpg","img/neutralC/CFD-IF-623-129-N.jpg","img/neutralC/CFD-WM-004-010-N.jpg","1","1","0","1","1","0","0.79257090005558","0.85441729996819","1.08443359995726","1","1","1","1","1","1","1","1","1"
"250038","img/neutralC/CFD-WM-004-010-N.jpg","img/neutralC/CFD-BM-225-154-N.jpg","img/neutralC/CFD-AM-211-052-N.jpg","0","1","1","0","1","1","1.08443359995726","0.79257090005558","0.767433199915104","1","1","1","1","1","1","1","1","1"
"250038","img/neutralC/CFD-AM-211-052-N.jpg","img/neutralC/CFD-WM-004-010-N.jpg",NA,"1","0",NA,"1","0",NA,"0.767433199915104","1.08443359995726",NA,"1","1",NA,"1","1",NA,"1","1",NA
"250038","img/neutralC/CFD-IM-646-023-N.jpg",NA,"img/neutralC/CFD-BF-228-212-N.jpg","1",NA,"1","1",NA,"0","0.751700400025584",NA,"0.847278999979608","1",NA,"1","1",NA,"1","1",NA,"1"
"250038","img/neutralC/CFD-BF-228-212-N.jpg","img/neutralC/CFD-IM-646-023-N.jpg","img/neutralC/CFD-WM-026-001-N.jpg","1","1","1","0","1","1","0.847278999979608","0.751700400025584","0.577280799974687","1","1","1","1","1","1","1","1","1"
"250038","img/neutralC/CFD-WM-026-001-N.jpg","img/neutralC/CFD-BF-228-212-N.jpg","img/neutralC/CFD-WF-240-083-N.jpg","1","1","1","1","0","0","0.577280799974687","0.847278999979608","0.977572800009511","1","1","1","1","1","1","1","1","1"
"250038","img/neutralC/CFD-WF-240-083-N.jpg","img/neutralC/CFD-WM-026-001-N.jpg","img/neutralC/CFD-BF-025-002-N.jpg","1","1","0","0","1","0","0.977572800009511","0.577280799974687","0.82579299993813","1","1","1","1","1","1","1","1","1"
"250038","img/neutralC/CFD-BF-025-002-N.jpg","img/neutralC/CFD-WF-240-083-N.jpg","img/neutralC/CFD-AM-247-165-N.jpg","0","1","1","0","0","1","0.82579299993813","0.977572800009511","0.901125299977139","1","1","1","1","1","1","1","1","1"
"250038","img/neutralC/CFD-AM-247-165-N.jpg","img/neutralC/CFD-BF-025-002-N.jpg","img/neutralC/CFD-WM-215-041-N.jpg","1","0","1","1","0","0","0.901125299977139","0.82579299993813","0.6771035999991","1","1","1","1","1","1","1","1","1"
"250038","img/neutralC/CFD-WM-215-041-N.jpg","img/neutralC/CFD-AM-247-165-N.jpg","img/neutralC/CFD-BM-251-013-N.jpg","1","1","1","0","1","1","0.6771035999991","0.901125299977139","0.607760899933055","1","1","1","1","1","1","1","1","1"
"250038","img/neutralC/CFD-BM-251-013-N.jpg","img/neutralC/CFD-WM-215-041-N.jpg","img/neutralC/CFD-MF-335-002-N.jpg","1","1","1","1","0","0","0.607760899933055","0.6771035999991","0.706047400017269","1","1","1","1","1","1","1","1","1"
"250038","img/neutralC/CFD-MF-335-002-N.jpg","img/neutralC/CFD-BM-251-013-N.jpg","img/neutralC/CFD-WM-006-002-N.jpg","1","1","1","0","1","0","0.706047400017269","0.607760899933055","0.732773799914867","1","1","1","1","1","1","1","1","1"
"250038","img/neutralC/CFD-WM-006-002-N.jpg","img/neutralC/CFD-MF-335-002-N.jpg","img/neutralC/CFD-MM-317-061-N.jpg","1","1","1","0","0","1","0.732773799914867","0.706047400017269","0.928207600023598","1","1","1","1","1","1","1","1","1"
"250038","img/neutralC/CFD-MM-317-061-N.jpg","img/neutralC/CFD-WM-006-002-N.jpg","img/neutralC/CFD-LM-214-165-N.jpg","1","1","1","1","0","1","0.928207600023598","0.732773799914867","0.985641299979761","1","1","1","1","1","1","1","1","1"
"250038","img/neutralC/CFD-LM-214-165-N.jpg","img/neutralC/CFD-MM-317-061-N.jpg","img/neutralC/CFD-WF-005-010-N.jpg","1","1","1","1","1","0","0.985641299979761","0.928207600023598","1.0507466000272","1","1","1","1","1","1","1","1","1"
"250038","img/neutralC/CFD-WF-005-010-N.jpg","img/neutralC/CFD-LM-214-165-N.jpg","img/neutralC/CFD-BF-202-109-N.jpg","1","1","1","0","1","1","1.0507466000272","0.985641299979761","0.893933800049126","1","1","1","1","1","1","1","1","1"
"250038","img/neutralC/CFD-BF-202-109-N.jpg","img/neutralC/CFD-WF-005-010-N.jpg","img/neutralC/CFD-BM-205-001-N.jpg","1","1","1","1","0","0","0.893933800049126","1.0507466000272","0.854175699991174","1","1","1","1","1","1","1","1","1"
"250038","img/neutralC/CFD-BM-205-001-N.jpg","img/neutralC/CFD-BF-202-109-N.jpg","img/neutralC/CFD-WM-012-001-N.jpg","1","1","0","0","1","1","0.854175699991174","0.893933800049126","0.542713400092907","1","1","1","1","1","1","1","1","1"
"250038","img/neutralC/CFD-WM-012-001-N.jpg","img/neutralC/CFD-BM-205-001-N.jpg","img/neutralC/CFD-LM-216-082-N.jpg","0","1","1","1","0","0","0.542713400092907","0.854175699991174","0.840304900077172","1","1","1","1","1","1","1","1","1"
"250038","img/neutralC/CFD-LM-216-082-N.jpg","img/neutralC/CFD-WM-012-001-N.jpg","img/neutralC/CFD-IF-642-295-N.jpg","1","0","1","0","1","1","0.840304900077172","0.542713400092907","0.659517899970524","1","1","1","1","1","1","1","1","1"
"250038","img/neutralC/CFD-IF-642-295-N.jpg","img/neutralC/CFD-LM-216-082-N.jpg","img/neutralC/CFD-WF-017-003-N.jpg","1","1","1","1","0","1","0.659517899970524","0.840304900077172","0.661514400038868","1","1","1","1","1","1","1","1","1"
"250038","img/neutralC/CFD-WF-017-003-N.jpg","img/neutralC/CFD-IF-642-295-N.jpg","img/neutralC/CFD-BM-248-128-N.jpg","1","1","0","1","1","0","0.661514400038868","0.659517899970524","1.91340860002674","1","1","1","1","1","1","1","1","1"
"250038","img/neutralC/CFD-BM-248-128-N.jpg","img/neutralC/CFD-WF-017-003-N.jpg","img/neutralC/CFD-AF-240-206-N.jpg","0","1","1","0","1","0","1.91340860002674","0.661514400038868","0.781815800000913","1","1","1","1","1","1","1","1","1"
"250038","img/neutralC/CFD-AF-240-206-N.jpg","img/neutralC/CFD-BM-248-128-N.jpg","img/neutralC/CFD-WM-019-003-N.jpg","1","0","1","0","0","1","0.781815800000913","1.91340860002674","0.584873600048013","1","1","1","1","1","1","1","1","1"
"250038","img/neutralC/CFD-WM-019-003-N.jpg","img/neutralC/CFD-AF-240-206-N.jpg","img/neutralC/CFD-LM-243-075-N.jpg","1","1","1","1","0","0","0.584873600048013","0.781815800000913","0.769517500069924","1","1","1","1","1","1","1","1","1"
"250038","img/neutralC/CFD-LM-243-075-N.jpg","img/neutralC/CFD-WM-019-003-N.jpg","img/neutralC/CFD-IM-648-337-N.jpg","1","1","1","0","1","0","0.769517500069924","0.584873600048013","1.2586086000083","1","1","1","1","1","1","1","1","1"
"250038","img/neutralC/CFD-IM-648-337-N.jpg","img/neutralC/CFD-LM-243-075-N.jpg","img/neutralC/CFD-BF-212-315-N.jpg","1","1","1","0","0","1","1.2586086000083","0.769517500069924","1.31125349993818","1","1","1","1","1","1","1","1","1"
"250038","img/neutralC/CFD-BF-212-315-N.jpg","img/neutralC/CFD-IM-648-337-N.jpg","img/neutralC/CFD-WM-249-239-N.jpg","1","1","1","1","0","1","1.31125349993818","1.2586086000083","0.828716999967583","1","1","1","1","1","1","1","1","1"
"250038","img/neutralC/CFD-WM-249-239-N.jpg","img/neutralC/CFD-BF-212-315-N.jpg","img/neutralC/CFD-LM-244-068-N.jpg","1","1","1","1","1","1","0.828716999967583","1.31125349993818","0.658748999936506","1","1","1","1","1","1","1","1","1"
"250038","img/neutralC/CFD-LM-244-068-N.jpg","img/neutralC/CFD-WM-249-239-N.jpg","img/neutralC/CFD-BF-041-001-N.jpg","1","1","1","1","1","1","0.658748999936506","0.828716999967583","1.29484340001363","1","1","1","1","1","1","1","1","1"
"250038","img/neutralC/CFD-BF-041-001-N.jpg","img/neutralC/CFD-LM-244-068-N.jpg","img/neutralC/CFD-WF-228-196-N.jpg","1","1","1","1","1","0","1.29484340001363","0.658748999936506","1.52361180004664","1","1","1","1","1","1","1","1","1"
"250038","img/neutralC/CFD-WF-228-196-N.jpg","img/neutralC/CFD-BF-041-001-N.jpg","img/neutralC/CFD-LM-201-057-N.jpg","1","1","1","0","1","1","1.52361180004664","1.29484340001363","0.65165740007069","1","1","1","1","1","1","1","1","1"
"250038","img/neutralC/CFD-LM-201-057-N.jpg","img/neutralC/CFD-WF-228-196-N.jpg","img/neutralC/CFD-WM-212-097-N.jpg","1","1","1","1","0","0","0.65165740007069","1.52361180004664","1.46285219991114","1","1","1","1","1","1","1","1","1"
"250038","img/neutralC/CFD-WM-212-097-N.jpg","img/neutralC/CFD-LM-201-057-N.jpg","img/neutralC/CFD-MF-309-002-N.jpg","1","1","1","0","1","0","1.46285219991114","0.65165740007069","1.05663500004448","1","1","1","1","1","1","1","1","1"
"250038","img/neutralC/CFD-MF-309-002-N.jpg","img/neutralC/CFD-WM-212-097-N.jpg",NA,"1","1",NA,"0","0",NA,"1.05663500004448","1.46285219991114",NA,"1","1",NA,"1","1",NA,"1","1",NA
"250038","img/neutralC/CFD-BM-227-191-N.jpg",NA,"img/neutralC/CFD-AM-219-101-N.jpg","0",NA,"0","1",NA,"0","0.480528899934143",NA,"0.405683799996041","1",NA,"1","1",NA,"1","1",NA,"1"
"250038","img/neutralC/CFD-AM-219-101-N.jpg","img/neutralC/CFD-BM-227-191-N.jpg","img/neutralC/CFD-LM-240-013-N.jpg","0","0","1","0","1","1","0.405683799996041","0.480528899934143","0.342424299917184","1","1","1","1","1","1","1","1","1"
"250038","img/neutralC/CFD-LM-240-013-N.jpg","img/neutralC/CFD-AM-219-101-N.jpg","img/neutralC/CFD-AM-249-163-N.jpg","1","0","0","1","0","1","0.342424299917184","0.405683799996041","0.527707500034012","1","1","1","1","1","1","1","1","1"
"250038","img/neutralC/CFD-AM-249-163-N.jpg","img/neutralC/CFD-LM-240-013-N.jpg","img/neutralC/CFD-WM-025-002-N.jpg","0","1","0","1","1","0","0.527707500034012","0.342424299917184","0.284558799932711","1","1","1","1","1","1","1","1","1"
"250038","img/neutralC/CFD-WM-025-002-N.jpg","img/neutralC/CFD-AM-249-163-N.jpg","img/neutralC/CFD-LF-212-066-N.jpg","0","0","1","0","1","1","0.284558799932711","0.527707500034012","0.464976400020532","1","1","1","1","1","1","1","1","1"
"250038","img/neutralC/CFD-LF-212-066-N.jpg","img/neutralC/CFD-WM-025-002-N.jpg","img/neutralC/CFD-LF-238-154-N.jpg","1","0","1","1","0","1","0.464976400020532","0.284558799932711","0.552401299937628","1","1","1","1","1","1","1","1","1"
"250038","img/neutralC/CFD-LF-238-154-N.jpg","img/neutralC/CFD-LF-212-066-N.jpg","img/neutralC/CFD-BM-043-071-N.jpg","1","1","1","1","1","0","0.552401299937628","0.464976400020532","0.289730100077577","1","1","1","1","1","1","1","1","1"
"250038","img/neutralC/CFD-BM-043-071-N.jpg","img/neutralC/CFD-LF-238-154-N.jpg","img/neutralC/CFD-BF-012-001-N.jpg","1","1","0","0","1","0","0.289730100077577","0.552401299937628","0.434311000048183","1","1","1","1","1","1","1","1","1"
"250038","img/neutralC/CFD-BF-012-001-N.jpg","img/neutralC/CFD-BM-043-071-N.jpg","img/neutralC/CFD-WF-221-005-N.jpg","0","1","0","0","0","0","0.434311000048183","0.289730100077577","0.506065799971111","1","1","1","1","1","1","1","1","1"
"250038","img/neutralC/CFD-WF-221-005-N.jpg","img/neutralC/CFD-BF-012-001-N.jpg","img/neutralC/CFD-WF-241-210-N.jpg","0","0","1","0","0","0","0.506065799971111","0.434311000048183","0.573185199988075","1","1","1","1","1","1","1","1","1"
"250038","img/neutralC/CFD-WF-241-210-N.jpg","img/neutralC/CFD-WF-221-005-N.jpg","img/neutralC/CFD-IM-615-167-N.jpg","1","0","1","0","0","0","0.573185199988075","0.506065799971111","0.426812099991366","1","1","1","1","1","1","1","1","1"
"250038","img/neutralC/CFD-IM-615-167-N.jpg","img/neutralC/CFD-WF-241-210-N.jpg","img/neutralC/CFD-BM-020-001-N.jpg","1","1","0","0","0","0","0.426812099991366","0.573185199988075","0.459518000017852","1","1","1","1","1","1","1","1","1"
"250038","img/neutralC/CFD-BM-020-001-N.jpg","img/neutralC/CFD-IM-615-167-N.jpg","img/neutralC/CFD-MM-306-010-N.jpg","0","1","0","0","0","0","0.459518000017852","0.426812099991366","0.463654100080021","1","1","1","1","1","1","1","1","1"
"250038","img/neutralC/CFD-MM-306-010-N.jpg","img/neutralC/CFD-BM-020-001-N.jpg","img/neutralC/CFD-BM-009-002-N.jpg","0","0","1","0","0","1","0.463654100080021","0.459518000017852","0.506296700099483","1","1","1","1","1","1","1","1","1"
"250038","img/neutralC/CFD-BM-009-002-N.jpg","img/neutralC/CFD-MM-306-010-N.jpg","img/neutralC/CFD-IF-676-017-N.jpg","1","0","0","1","0","1","0.506296700099483","0.463654100080021","0.46682009997312","1","1","1","1","1","1","1","1","1"
"250038","img/neutralC/CFD-IF-676-017-N.jpg","img/neutralC/CFD-BM-009-002-N.jpg","img/neutralC/CFD-IM-689-263-N.jpg","0","1","1","1","1","1","0.46682009997312","0.506296700099483","0.490049700019881","1","1","1","1","1","1","1","1","1"
"250038","img/neutralC/CFD-IM-689-263-N.jpg","img/neutralC/CFD-IF-676-017-N.jpg","img/neutralC/CFD-WF-207-014-N.jpg","1","0","1","1","1","1","0.490049700019881","0.46682009997312","0.364550999947824","1","1","1","1","1","1","1","1","1"
"250038","img/neutralC/CFD-WF-207-014-N.jpg","img/neutralC/CFD-IM-689-263-N.jpg","img/neutralC/CFD-BF-244-231-N.jpg","1","1","1","1","1","1","0.364550999947824","0.490049700019881","0.548097899998538","1","1","1","1","1","1","1","1","1"
"250038","img/neutralC/CFD-BF-244-231-N.jpg","img/neutralC/CFD-WF-207-014-N.jpg","img/neutralC/CFD-IM-606-008-N.jpg","1","1","1","1","1","0","0.548097899998538","0.364550999947824","0.614652200019918","1","1","1","1","1","1","1","1","1"
"250038","img/neutralC/CFD-IM-606-008-N.jpg","img/neutralC/CFD-BF-244-231-N.jpg","img/neutralC/CFD-WM-028-003-N.jpg","1","1","1","0","1","1","0.614652200019918","0.548097899998538","0.457364200032316","1","1","1","1","1","1","1","1","1"
"250038","img/neutralC/CFD-WM-028-003-N.jpg","img/neutralC/CFD-IM-606-008-N.jpg","img/neutralC/CFD-AF-237-223-N.jpg","1","1","0","1","0","0","0.457364200032316","0.614652200019918","0.395343399955891","1","1","1","1","1","1","1","1","1"
"250038","img/neutralC/CFD-AF-237-223-N.jpg","img/neutralC/CFD-WM-028-003-N.jpg","img/neutralC/CFD-LF-222-147-N.jpg","0","1","0","0","1","0","0.395343399955891","0.457364200032316","0.403226600028574","1","1","1","1","1","1","1","1","1"
"250038","img/neutralC/CFD-LF-222-147-N.jpg","img/neutralC/CFD-AF-237-223-N.jpg","img/neutralC/CFD-WM-023-001-N.jpg","0","0","0","0","0","0","0.403226600028574","0.395343399955891","0.380735900020227","1","1","1","1","1","1","1","1","1"
"250038","img/neutralC/CFD-WM-023-001-N.jpg","img/neutralC/CFD-LF-222-147-N.jpg","img/neutralC/CFD-IM-697-015-N.jpg","0","0","1","0","0","1","0.380735900020227","0.403226600028574","0.434417000040412","1","1","1","1","1","1","1","1","1"
"250038","img/neutralC/CFD-IM-697-015-N.jpg","img/neutralC/CFD-WM-023-001-N.jpg","img/neutralC/CFD-WF-243-148-N.jpg","1","0","1","1","0","0","0.434417000040412","0.380735900020227","0.662735999911092","1","1","1","1","1","1","1","1","1"
"250038","img/neutralC/CFD-WF-243-148-N.jpg","img/neutralC/CFD-IM-697-015-N.jpg","img/neutralC/CFD-BM-021-021-N.jpg","1","1","1","0","1","1","0.662735999911092","0.434417000040412","0.491086399997585","1","1","1","1","1","1","1","1","1"
"250038","img/neutralC/CFD-BM-021-021-N.jpg","img/neutralC/CFD-WF-243-148-N.jpg","img/neutralC/CFD-AM-205-153-N.jpg","1","1","1","1","0","1","0.491086399997585","0.662735999911092","0.526013999944553","1","1","1","1","1","1","1","1","1"
"250038","img/neutralC/CFD-AM-205-153-N.jpg","img/neutralC/CFD-BM-021-021-N.jpg","img/neutralC/CFD-MF-328-020-N.jpg","1","1","0","1","1","0","0.526013999944553","0.491086399997585","1.08565890009049","1","1","1","1","1","1","1","1","1"
"250038","img/neutralC/CFD-MF-328-020-N.jpg","img/neutralC/CFD-AM-205-153-N.jpg","img/neutralC/CFD-WF-009-001-N.jpg","0","1","1","0","1","1","1.08565890009049","0.526013999944553","0.489555799984373","1","1","1","1","1","1","1","1","1"
"250038","img/neutralC/CFD-WF-009-001-N.jpg","img/neutralC/CFD-MF-328-020-N.jpg","img/neutralC/CFD-BM-030-003-N.jpg","1","0","1","1","0","0","0.489555799984373","1.08565890009049","0.645219299942255","1","1","1","1","1","1","1","1","1"
"250038","img/neutralC/CFD-BM-030-003-N.jpg","img/neutralC/CFD-WF-009-001-N.jpg","img/neutralC/CFD-AM-243-212-N.jpg","1","1","1","0","1","1","0.645219299942255","0.489555799984373","0.493732100003399","1","1","1","1","1","1","1","1","1"
"250038","img/neutralC/CFD-AM-243-212-N.jpg","img/neutralC/CFD-BM-030-003-N.jpg",NA,"1","1",NA,"1","0",NA,"0.493732100003399","0.645219299942255",NA,"1","1",NA,"1","1",NA,"1","1",NA
"250038","img/neutralC/CFD-IM-659-359-N.jpg",NA,"img/neutralC/CFD-LF-241-188-N.jpg","0",NA,"0","0",NA,"0","0.551139099989086",NA,"0.483290000003763","1",NA,"1","1",NA,"1","1",NA,"1"
"250038","img/neutralC/CFD-LF-241-188-N.jpg","img/neutralC/CFD-IM-659-359-N.jpg","img/neutralC/CFD-LF-210-220-N.jpg","0","0","1","0","0","1","0.483290000003763","0.551139099989086","0.654733200091869","1","1","1","1","1","1","1","1","1"
"250038","img/neutralC/CFD-LF-210-220-N.jpg","img/neutralC/CFD-LF-241-188-N.jpg","img/neutralC/CFD-MF-312-002-N.jpg","1","0","1","1","0","1","0.654733200091869","0.483290000003763","0.588244199985638","1","1","1","1","1","1","1","1","1"
"250038","img/neutralC/CFD-MF-312-002-N.jpg","img/neutralC/CFD-LF-210-220-N.jpg","img/neutralC/CFD-WM-254-152-N.jpg","1","1","1","1","1","1","0.588244199985638","0.654733200091869","0.627163499942981","1","1","1","1","1","1","1","1","1"
"250038","img/neutralC/CFD-WM-254-152-N.jpg","img/neutralC/CFD-MF-312-002-N.jpg","img/neutralC/CFD-WF-006-002-N.jpg","1","1","1","1","1","0","0.627163499942981","0.588244199985638","0.888209700002335","1","1","1","1","1","1","1","1","1"
"250038","img/neutralC/CFD-WF-006-002-N.jpg","img/neutralC/CFD-WM-254-152-N.jpg","img/neutralC/CFD-IF-673-389-N.jpg","1","1","1","0","1","0","0.888209700002335","0.627163499942981","0.751445400062948","1","1","1","1","1","1","1","1","1"
"250038","img/neutralC/CFD-IF-673-389-N.jpg","img/neutralC/CFD-WF-006-002-N.jpg","img/neutralC/CFD-BM-013-002-N.jpg","1","1","1","0","0","1","0.751445400062948","0.888209700002335","0.623626800021157","1","1","1","1","1","1","1","1","1"
"250038","img/neutralC/CFD-BM-013-002-N.jpg","img/neutralC/CFD-IF-673-389-N.jpg","img/neutralC/CFD-LM-247-095-N.jpg","1","1","1","1","0","0","0.623626800021157","0.751445400062948","0.695972200017422","1","1","1","1","1","1","1","1","1"
"250038","img/neutralC/CFD-LM-247-095-N.jpg","img/neutralC/CFD-BM-013-002-N.jpg","img/neutralC/CFD-WF-033-002-N.jpg","1","1","1","0","1","1","0.695972200017422","0.623626800021157","1.15423930005636","1","1","1","1","1","1","1","1","1"
"250038","img/neutralC/CFD-WF-033-002-N.jpg","img/neutralC/CFD-LM-247-095-N.jpg","img/neutralC/CFD-BF-222-240-N.jpg","1","1","1","1","0","0","1.15423930005636","0.695972200017422","0.63708100002259","1","1","1","1","1","1","1","1","1"
"250038","img/neutralC/CFD-BF-222-240-N.jpg","img/neutralC/CFD-WF-033-002-N.jpg","img/neutralC/CFD-BF-045-003-N.jpg","1","1","1","0","1","0","0.63708100002259","1.15423930005636","0.622444900101982","1","1","1","1","1","1","1","1","1"
"250038","img/neutralC/CFD-BF-045-003-N.jpg","img/neutralC/CFD-BF-222-240-N.jpg","img/neutralC/CFD-AF-210-050-N.jpg","1","1","1","0","0","1","0.622444900101982","0.63708100002259","0.56521310005337","1","1","1","1","1","1","1","1","1"
"250038","img/neutralC/CFD-AF-210-050-N.jpg","img/neutralC/CFD-BF-045-003-N.jpg","img/neutralC/CFD-AM-221-184-N.jpg","1","1","1","1","0","1","0.56521310005337","0.622444900101982","0.56420529994648","1","1","1","1","1","1","1","1","1"
"250038","img/neutralC/CFD-AM-221-184-N.jpg","img/neutralC/CFD-AF-210-050-N.jpg","img/neutralC/CFD-AF-239-171-N.jpg","1","1","1","1","1","1","0.56420529994648","0.56521310005337","0.976453999988735","1","1","1","1","1","1","1","1","1"
"250038","img/neutralC/CFD-AF-239-171-N.jpg","img/neutralC/CFD-AM-221-184-N.jpg","img/neutralC/CFD-LF-225-164-N.jpg","1","1","1","1","1","1","0.976453999988735","0.56420529994648","1.0643190999981","1","1","1","1","1","1","1","1","1"
"250038","img/neutralC/CFD-LF-225-164-N.jpg","img/neutralC/CFD-AF-239-171-N.jpg","img/neutralC/CFD-IM-701-312-N.jpg","1","1","1","1","1","0","1.0643190999981","0.976453999988735","0.964504500036128","1","1","1","1","1","1","1","1","1"
"250038","img/neutralC/CFD-IM-701-312-N.jpg","img/neutralC/CFD-LF-225-164-N.jpg","img/neutralC/CFD-BM-010-003-N.jpg","1","1","1","0","1","0","0.964504500036128","1.0643190999981","0.99966420000419","1","1","1","1","1","1","1","1","1"
"250038","img/neutralC/CFD-BM-010-003-N.jpg","img/neutralC/CFD-IM-701-312-N.jpg","img/neutralC/CFD-WM-228-065-N.jpg","1","1","1","0","0","0","0.99966420000419","0.964504500036128","0.729602999985218","1","1","1","1","1","1","1","1","1"
"250038","img/neutralC/CFD-WM-228-065-N.jpg","img/neutralC/CFD-BM-010-003-N.jpg","img/neutralC/CFD-BF-004-014-N.jpg","1","1","1","0","0","1","0.729602999985218","0.99966420000419","1.06879230006598","1","1","1","1","1","1","1","1","1"
"250038","img/neutralC/CFD-BF-004-014-N.jpg","img/neutralC/CFD-WM-228-065-N.jpg","img/neutralC/CFD-MF-336-016-N.jpg","1","1","1","1","0","1","1.06879230006598","0.729602999985218","0.710774899926037","1","1","1","1","1","1","1","1","1"
"250038","img/neutralC/CFD-MF-336-016-N.jpg","img/neutralC/CFD-BF-004-014-N.jpg","img/neutralC/CFD-BM-028-002-N.jpg","1","1","1","1","1","1","0.710774899926037","1.06879230006598","0.654351099976338","1","1","1","1","1","1","1","1","1"
"250038","img/neutralC/CFD-BM-028-002-N.jpg","img/neutralC/CFD-MF-336-016-N.jpg","img/neutralC/CFD-IF-744-114-N.jpg","1","1","1","1","1","0","0.654351099976338","0.710774899926037","1.44400269992184","1","1","1","1","1","1","1","1","1"
"250038","img/neutralC/CFD-IF-744-114-N.jpg","img/neutralC/CFD-BM-028-002-N.jpg","img/neutralC/CFD-AF-227-207-N.jpg","1","1","1","0","1","1","1.44400269992184","0.654351099976338","0.82225309999194","1","1","1","1","1","1","1","1","1"
"250038","img/neutralC/CFD-AF-227-207-N.jpg","img/neutralC/CFD-IF-744-114-N.jpg","img/neutralC/CFD-WF-223-133-N.jpg","1","1","1","1","0","0","0.82225309999194","1.44400269992184","0.797215600032359","1","1","1","1","1","1","1","1","1"
"250038","img/neutralC/CFD-WF-223-133-N.jpg","img/neutralC/CFD-AF-227-207-N.jpg","img/neutralC/CFD-IF-625-225-N.jpg","1","1","1","0","1","0","0.797215600032359","0.82225309999194","0.623010499984957","1","1","1","1","1","1","1","1","1"
"250038","img/neutralC/CFD-IF-625-225-N.jpg","img/neutralC/CFD-WF-223-133-N.jpg","img/neutralC/CFD-WM-202-107-N.jpg","1","1","1","0","0","1","0.623010499984957","0.797215600032359","0.577140999957919","1","1","1","1","1","1","1","1","1"
"250038","img/neutralC/CFD-WM-202-107-N.jpg","img/neutralC/CFD-IF-625-225-N.jpg","img/neutralC/CFD-LF-208-127-N.jpg","1","1","1","1","0","0","0.577140999957919","0.623010499984957","0.711022599949501","1","1","1","1","1","1","1","1","1"
"250038","img/neutralC/CFD-LF-208-127-N.jpg","img/neutralC/CFD-WM-202-107-N.jpg","img/neutralC/CFD-BM-213-134-N.jpg","1","1","1","0","1","1","0.711022599949501","0.577140999957919","0.640244500013068","1","1","1","1","1","1","1","1","1"
"250038","img/neutralC/CFD-BM-213-134-N.jpg","img/neutralC/CFD-LF-208-127-N.jpg","img/neutralC/CFD-BM-003-003-N.jpg","1","1","1","1","0","0","0.640244500013068","0.711022599949501","0.837722800089978","1","1","1","1","1","1","1","1","1"
"250038","img/neutralC/CFD-BM-003-003-N.jpg","img/neutralC/CFD-BM-213-134-N.jpg","img/neutralC/CFD-IM-738-191-N.jpg","1","1","1","0","1","0","0.837722800089978","0.640244500013068","0.818054500035942","1","1","1","1","1","1","1","1","1"
"250038","img/neutralC/CFD-IM-738-191-N.jpg","img/neutralC/CFD-BM-003-003-N.jpg","img/neutralC/CFD-LM-238-129-N.jpg","1","1","1","0","0","1","0.818054500035942","0.837722800089978","0.70220389997121","1","1","1","1","1","1","1","1","1"
"250038","img/neutralC/CFD-LM-238-129-N.jpg","img/neutralC/CFD-IM-738-191-N.jpg",NA,"1","1",NA,"1","0",NA,"0.70220389997121","0.818054500035942",NA,"1","1",NA,"1","1",NA,"1","1",NA
"250038","img/neutralC/CFD-IF-732-260-N.jpg",NA,"img/neutralC/CFD-AM-245-111-N.jpg","0",NA,"1","0",NA,"1","0.90848569991067",NA,"0.963975100079551","1",NA,"1","1",NA,"1","1",NA,"1"
"250038","img/neutralC/CFD-AM-245-111-N.jpg","img/neutralC/CFD-IF-732-260-N.jpg","img/neutralC/CFD-IF-636-011-N.jpg","1","0","1","1","0","1","0.963975100079551","0.90848569991067","0.324417199939489","1","1","1","1","1","1","1","1","1"
"250038","img/neutralC/CFD-IF-636-011-N.jpg","img/neutralC/CFD-AM-245-111-N.jpg","img/neutralC/CFD-AM-233-236-N.jpg","1","1","1","1","1","1","0.324417199939489","0.963975100079551","0.473120599985123","1","1","1","1","1","1","1","1","1"
"250038","img/neutralC/CFD-AM-233-236-N.jpg","img/neutralC/CFD-IF-636-011-N.jpg","img/neutralC/CFD-AF-213-126-N.jpg","1","1","0","1","1","1","0.473120599985123","0.324417199939489","0.611768400063738","1","1","1","1","1","1","1","1","1"
"250038","img/neutralC/CFD-AF-213-126-N.jpg","img/neutralC/CFD-AM-233-236-N.jpg","img/neutralC/CFD-BF-206-143-N.jpg","0","1","1","1","1","1","0.611768400063738","0.473120599985123","0.589712100103498","1","1","1","1","1","1","1","1","1"
"250038","img/neutralC/CFD-BF-206-143-N.jpg","img/neutralC/CFD-AF-213-126-N.jpg","img/neutralC/CFD-WM-253-119-N.jpg","1","0","0","1","1","1","0.589712100103498","0.611768400063738","0.466851400095038","1","1","1","1","1","1","1","1","1"
"250038","img/neutralC/CFD-WM-253-119-N.jpg","img/neutralC/CFD-BF-206-143-N.jpg","img/neutralC/CFD-AF-246-242-N.jpg","0","1","0","1","1","0","0.466851400095038","0.589712100103498",NA,"1","1","0","1","1","0","1","1","0"
"250038","img/neutralC/CFD-AF-246-242-N.jpg","img/neutralC/CFD-WM-253-119-N.jpg","img/neutralC/CFD-BF-217-189-N.jpg","0","0","0","0","1","0",NA,"0.466851400095038","0.40346469997894","0","1","1","0","1","1","0","1","1"
"250038","img/neutralC/CFD-BF-217-189-N.jpg","img/neutralC/CFD-AF-246-242-N.jpg","img/neutralC/CFD-AM-225-102-N.jpg","0","0","1","0","0","0","0.40346469997894",NA,"0.920086800004356","1","0","1","1","0","1","1","0","1"
"250038","img/neutralC/CFD-AM-225-102-N.jpg","img/neutralC/CFD-BF-217-189-N.jpg","img/neutralC/CFD-AF-205-155-N.jpg","1","0","1","0","0","0","0.920086800004356","0.40346469997894","0.780895699979737","1","1","1","1","1","1","1","1","1"
"250038","img/neutralC/CFD-AF-205-155-N.jpg","img/neutralC/CFD-AM-225-102-N.jpg","img/neutralC/CFD-WM-018-002-N.jpg","1","1","1","0","0","0","0.780895699979737","0.920086800004356","0.608120099990629","1","1","1","1","1","1","1","1","1"
"250038","img/neutralC/CFD-WM-018-002-N.jpg","img/neutralC/CFD-AF-205-155-N.jpg","img/neutralC/CFD-BM-215-155-N.jpg","1","1","1","0","0","0","0.608120099990629","0.780895699979737","0.657291100011207","1","1","1","1","1","1","1","1","1"
"250038","img/neutralC/CFD-BM-215-155-N.jpg","img/neutralC/CFD-WM-018-002-N.jpg","img/neutralC/CFD-WF-235-121-N.jpg","1","1","1","0","0","0","0.657291100011207","0.608120099990629","0.795457100030035","1","1","1","1","1","1","1","1","1"
"250038","img/neutralC/CFD-WF-235-121-N.jpg","img/neutralC/CFD-BM-215-155-N.jpg","img/neutralC/CFD-IM-632-097-N.jpg","1","1","1","0","0","0","0.795457100030035","0.657291100011207","1.05897530005313","1","1","1","1","1","1","1","1","1"
"250038","img/neutralC/CFD-IM-632-097-N.jpg","img/neutralC/CFD-WF-235-121-N.jpg","img/neutralC/CFD-AF-234-208-N.jpg","1","1","1","0","0","1","1.05897530005313","0.795457100030035","0.813870799960569","1","1","1","1","1","1","1","1","1"
"250038","img/neutralC/CFD-AF-234-208-N.jpg","img/neutralC/CFD-IM-632-097-N.jpg","img/neutralC/CFD-BM-004-002-N.jpg","1","1","1","1","0","0","0.813870799960569","1.05897530005313","0.71914560010191","1","1","1","1","1","1","1","1","1"
"250038","img/neutralC/CFD-BM-004-002-N.jpg","img/neutralC/CFD-AF-234-208-N.jpg","img/neutralC/CFD-IM-635-010-N.jpg","1","1","1","0","1","1","0.71914560010191","0.813870799960569","0.501466199988499","1","1","1","1","1","1","1","1","1"
"250038","img/neutralC/CFD-IM-635-010-N.jpg","img/neutralC/CFD-BM-004-002-N.jpg","img/neutralC/CFD-LM-241-125-N.jpg","1","1","1","1","0","1","0.501466199988499","0.71914560010191","1.01195369998459","1","1","1","1","1","1","1","1","1"
"250038","img/neutralC/CFD-LM-241-125-N.jpg","img/neutralC/CFD-IM-635-010-N.jpg","img/neutralC/CFD-LM-204-001-N.jpg","1","1","1","1","1","0","1.01195369998459","0.501466199988499","0.867578700068407","1","1","1","1","1","1","1","1","1"
"250038","img/neutralC/CFD-LM-204-001-N.jpg","img/neutralC/CFD-LM-241-125-N.jpg","img/neutralC/CFD-BF-040-003-N.jpg","1","1","1","0","1","1","0.867578700068407","1.01195369998459","0.61272930004634","1","1","1","1","1","1","1","1","1"
"250038","img/neutralC/CFD-BF-040-003-N.jpg","img/neutralC/CFD-LM-204-001-N.jpg","img/neutralC/CFD-BF-042-026-N.jpg","1","1","1","1","0","1","0.61272930004634","0.867578700068407","0.50390329991933","1","1","1","1","1","1","1","1","1"
"250038","img/neutralC/CFD-BF-042-026-N.jpg","img/neutralC/CFD-BF-040-003-N.jpg","img/neutralC/CFD-IM-678-482-N.jpg","1","1","1","1","1","0","0.50390329991933","0.61272930004634","0.74471919995267","1","1","1","1","1","1","1","1","1"
"250038","img/neutralC/CFD-IM-678-482-N.jpg","img/neutralC/CFD-BF-042-026-N.jpg","img/neutralC/CFD-WF-210-086-N.jpg","1","1","1","0","1","0","0.74471919995267","0.50390329991933","0.540927199996077","1","1","1","1","1","1","1","1","1"
"250038","img/neutralC/CFD-WF-210-086-N.jpg","img/neutralC/CFD-IM-678-482-N.jpg","img/neutralC/CFD-MF-302-027-N.jpg","1","1","1","0","0","0","0.540927199996077","0.74471919995267","0.643340700073168","1","1","1","1","1","1","1","1","1"
"250038","img/neutralC/CFD-MF-302-027-N.jpg","img/neutralC/CFD-WF-210-086-N.jpg","img/neutralC/CFD-BF-235-168-N.jpg","1","1","1","0","0","1","0.643340700073168","0.540927199996077","0.603768300032243","1","1","1","1","1","1","1","1","1"
"250038","img/neutralC/CFD-BF-235-168-N.jpg","img/neutralC/CFD-MF-302-027-N.jpg","img/neutralC/CFD-LF-239-148-N.jpg","1","1","1","1","0","0","0.603768300032243","0.643340700073168","1.08533020003233","1","1","1","1","1","1","1","1","1"
"250038","img/neutralC/CFD-LF-239-148-N.jpg","img/neutralC/CFD-BF-235-168-N.jpg","img/neutralC/CFD-IM-669-111-N.jpg","1","1","1","0","1","1","1.08533020003233","0.603768300032243","0.569529800093733","1","1","1","1","1","1","1","1","1"
"250038","img/neutralC/CFD-IM-669-111-N.jpg","img/neutralC/CFD-LF-239-148-N.jpg","img/neutralC/CFD-MF-307-002-N.jpg","1","1","1","1","0","1","0.569529800093733","1.08533020003233","0.529680899926461","1","1","1","1","1","1","1","1","1"
"250038","img/neutralC/CFD-MF-307-002-N.jpg","img/neutralC/CFD-IM-669-111-N.jpg","img/neutralC/CFD-BF-020-002-N.jpg","1","1","1","1","1","1","0.529680899926461","0.569529800093733","0.636469600023702","1","1","1","1","1","1","1","1","1"
"250038","img/neutralC/CFD-BF-020-002-N.jpg","img/neutralC/CFD-MF-307-002-N.jpg","img/neutralC/CFD-AF-250-200-N.jpg","1","1","1","1","1","1","0.636469600023702","0.529680899926461","0.503116699983366","1","1","1","1","1","1","1","1","1"
"250038","img/neutralC/CFD-AF-250-200-N.jpg","img/neutralC/CFD-BF-020-002-N.jpg","img/neutralC/CFD-AF-244-168-N.jpg","1","1","1","1","1","0","0.503116699983366","0.636469600023702","0.585242399945855","1","1","1","1","1","1","1","1","1"
"250038","img/neutralC/CFD-AF-244-168-N.jpg","img/neutralC/CFD-AF-250-200-N.jpg",NA,"1","1",NA,"0","1",NA,"0.585242399945855","0.503116699983366",NA,"1","1",NA,"1","1",NA,"1","1",NA
"250038","img/neutralC/CFD-LM-213-061-N.jpg",NA,"img/neutralC/CFD-WF-029-002-N.jpg","0",NA,"1","0",NA,"0","0.61609959998168",NA,"0.663927300018258","1",NA,"1","1",NA,"1","1",NA,"1"
"250038","img/neutralC/CFD-WF-029-002-N.jpg","img/neutralC/CFD-LM-213-061-N.jpg","img/neutralC/CFD-BM-036-003-N.jpg","1","0","1","0","0","1","0.663927300018258","0.61609959998168","0.646147700026631","1","1","1","1","1","1","1","1","1"
"250038","img/neutralC/CFD-BM-036-003-N.jpg","img/neutralC/CFD-WF-029-002-N.jpg","img/neutralC/CFD-BF-207-004-N.jpg","1","1","1","1","0","1","0.646147700026631","0.663927300018258","0.485335199977271","1","1","1","1","1","1","1","1","1"
"250038","img/neutralC/CFD-BF-207-004-N.jpg","img/neutralC/CFD-BM-036-003-N.jpg","img/neutralC/CFD-IM-707-105-N.jpg","1","1","1","1","1","1","0.485335199977271","0.646147700026631","0.611055500106886","1","1","1","1","1","1","1","1","1"
"250038","img/neutralC/CFD-IM-707-105-N.jpg","img/neutralC/CFD-BF-207-004-N.jpg","img/neutralC/CFD-BF-236-177-N.jpg","1","1","1","1","1","0","0.611055500106886","0.485335199977271","0.66927900002338","1","1","1","1","1","1","1","1","1"
"250038","img/neutralC/CFD-BF-236-177-N.jpg","img/neutralC/CFD-IM-707-105-N.jpg","img/neutralC/CFD-BF-006-017-N.jpg","1","1","1","0","1","0","0.66927900002338","0.611055500106886","0.635269499965943","1","1","1","1","1","1","1","1","1"
"250038","img/neutralC/CFD-BF-006-017-N.jpg","img/neutralC/CFD-BF-236-177-N.jpg","img/neutralC/CFD-LF-204-133-N.jpg","1","1","1","0","0","1","0.635269499965943","0.66927900002338","0.439777199993841","1","1","1","1","1","1","1","1","1"
"250038","img/neutralC/CFD-LF-204-133-N.jpg","img/neutralC/CFD-BF-006-017-N.jpg","img/neutralC/CFD-BM-207-024-N.jpg","1","1","1","1","0","1","0.439777199993841","0.635269499965943","0.694589699967764","1","1","1","1","1","1","1","1","1"
"250038","img/neutralC/CFD-BM-207-024-N.jpg","img/neutralC/CFD-LF-204-133-N.jpg","img/neutralC/CFD-WM-014-002-N.jpg","1","1","1","1","1","0","0.694589699967764","0.439777199993841","0.674170100013725","1","1","1","1","1","1","1","1","1"
"250038","img/neutralC/CFD-WM-014-002-N.jpg","img/neutralC/CFD-BM-207-024-N.jpg","img/neutralC/CFD-AM-230-150-N.jpg","1","1","1","0","1","0","0.674170100013725","0.694589699967764","0.602124899975024","1","1","1","1","1","1","1","1","1"
"250038","img/neutralC/CFD-AM-230-150-N.jpg","img/neutralC/CFD-WM-014-002-N.jpg","img/neutralC/CFD-MF-301-024-N.jpg","1","1","1","0","0","0","0.602124899975024","0.674170100013725","0.615487199975178","1","1","1","1","1","1","1","1","1"
"250038","img/neutralC/CFD-MF-301-024-N.jpg","img/neutralC/CFD-AM-230-150-N.jpg","img/neutralC/CFD-BF-247-179-N.jpg","1","1","0","0","0","0","0.615487199975178","0.602124899975024","0.560608600033447","1","1","1","1","1","1","1","1","1"
"250038","img/neutralC/CFD-BF-247-179-N.jpg","img/neutralC/CFD-MF-301-024-N.jpg","img/neutralC/CFD-WF-233-112-N.jpg","0","1","1","0","0","1","0.560608600033447","0.615487199975178","0.75774580007419","1","1","1","1","1","1","1","1","1"
"250038","img/neutralC/CFD-WF-233-112-N.jpg","img/neutralC/CFD-BF-247-179-N.jpg","img/neutralC/CFD-IF-742-103-N.jpg","1","0","1","1","0","1","0.75774580007419","0.560608600033447","0.58629819995258","1","1","1","1","1","1","1","1","1"
"250038","img/neutralC/CFD-IF-742-103-N.jpg","img/neutralC/CFD-WF-233-112-N.jpg","img/neutralC/CFD-BF-027-002-N.jpg","1","1","1","1","1","1","0.58629819995258","0.75774580007419","0.463165999972261","1","1","1","1","1","1","1","1","1"
"250038","img/neutralC/CFD-BF-027-002-N.jpg","img/neutralC/CFD-IF-742-103-N.jpg","img/neutralC/CFD-BF-011-002-N.jpg","1","1","0","1","1","1","0.463165999972261","0.58629819995258","0.554303900105879","1","1","1","1","1","1","1","1","1"
"250038","img/neutralC/CFD-BF-011-002-N.jpg","img/neutralC/CFD-BF-027-002-N.jpg","img/neutralC/CFD-IF-677-452-1-N.jpg","0","1","1","1","1","1","0.554303900105879","0.463165999972261","0.522470200085081","1","1","1","1","1","1","1","1","1"
"250038","img/neutralC/CFD-IF-677-452-1-N.jpg","img/neutralC/CFD-BF-011-002-N.jpg","img/neutralC/CFD-BF-036-027-N.jpg","1","0","1","1","1","0","0.522470200085081","0.554303900105879","0.666238900041208","1","1","1","1","1","1","1","1","1"
"250038","img/neutralC/CFD-BF-036-027-N.jpg","img/neutralC/CFD-IF-677-452-1-N.jpg","img/neutralC/CFD-BF-214-308-N.jpg","1","1","1","0","1","1","0.666238900041208","0.522470200085081","0.777718500001356","1","1","1","1","1","1","1","1","1"
"250038","img/neutralC/CFD-BF-214-308-N.jpg","img/neutralC/CFD-BF-036-027-N.jpg","img/neutralC/CFD-WM-034-030-N.jpg","1","1","1","1","0","1","0.777718500001356","0.666238900041208","0.556322199990973","1","1","1","1","1","1","1","1","1"
"250038","img/neutralC/CFD-WM-034-030-N.jpg","img/neutralC/CFD-BF-214-308-N.jpg","img/neutralC/CFD-WF-234-086-N.jpg","1","1","1","1","1","1","0.556322199990973","0.777718500001356","0.81382359995041","1","1","1","1","1","1","1","1","1"
"250038","img/neutralC/CFD-WF-234-086-N.jpg","img/neutralC/CFD-WM-034-030-N.jpg","img/neutralC/CFD-BF-002-001-N.jpg","1","1","1","1","1","0","0.81382359995041","0.556322199990973","0.761229999945499","1","1","1","1","1","1","1","1","1"
"250038","img/neutralC/CFD-BF-002-001-N.jpg","img/neutralC/CFD-WF-234-086-N.jpg","img/neutralC/CFD-BM-238-242-N.jpg","1","1","1","0","1","0","0.761229999945499","0.81382359995041","0.526383299962617","1","1","1","1","1","1","1","1","1"
"250038","img/neutralC/CFD-BM-238-242-N.jpg","img/neutralC/CFD-BF-002-001-N.jpg","img/neutralC/CFD-IM-696-001-N.jpg","1","1","1","0","0","0","0.526383299962617","0.761229999945499","0.784693300025538","1","1","1","1","1","1","1","1","1"
"250038","img/neutralC/CFD-IM-696-001-N.jpg","img/neutralC/CFD-BM-238-242-N.jpg","img/neutralC/CFD-WM-248-036-N.jpg","1","1","1","0","0","1","0.784693300025538","0.526383299962617","0.60264349996578","1","1","1","1","1","1","1","1","1"
"250038","img/neutralC/CFD-WM-248-036-N.jpg","img/neutralC/CFD-IM-696-001-N.jpg","img/neutralC/CFD-BF-044-034-N.jpg","1","1","1","1","0","0","0.60264349996578","0.784693300025538","0.704095600056462","1","1","1","1","1","1","1","1","1"
"250038","img/neutralC/CFD-BF-044-034-N.jpg","img/neutralC/CFD-WM-248-036-N.jpg","img/neutralC/CFD-WF-208-068-N.jpg","1","1","0","0","1","1","0.704095600056462","0.60264349996578","0.895958799985237","1","1","1","1","1","1","1","1","1"
"250038","img/neutralC/CFD-WF-208-068-N.jpg","img/neutralC/CFD-BF-044-034-N.jpg","img/neutralC/CFD-BM-241-235-N.jpg","0","1","1","1","0","0","0.895958799985237","0.704095600056462","0.841189899947494","1","1","1","1","1","1","1","1","1"
"250038","img/neutralC/CFD-BM-241-235-N.jpg","img/neutralC/CFD-WF-208-068-N.jpg","img/neutralC/CFD-IM-721-341-N.jpg","1","0","1","0","1","1","0.841189899947494","0.895958799985237","0.506437599891797","1","1","1","1","1","1","1","1","1"
"250038","img/neutralC/CFD-IM-721-341-N.jpg","img/neutralC/CFD-BM-241-235-N.jpg","img/neutralC/CFD-IF-729-393-N.jpg","1","1","1","1","0","0","0.506437599891797","0.841189899947494","0.7085871999152","1","1","1","1","1","1","1","1","1"
"250038","img/neutralC/CFD-IF-729-393-N.jpg","img/neutralC/CFD-IM-721-341-N.jpg","img/neutralC/CFD-IM-726-248-N.jpg","1","1","1","0","1","0","0.7085871999152","0.506437599891797","0.725263500004075","1","1","1","1","1","1","1","1","1"
"250038","img/neutralC/CFD-IM-726-248-N.jpg","img/neutralC/CFD-IF-729-393-N.jpg",NA,"1","1",NA,"0","0",NA,"0.725263500004075","0.7085871999152",NA,"1","1",NA,"1","1",NA,"1","1",NA
"250038","img/neutralC/CFD-WM-225-127-N.jpg",NA,"img/neutralC/CFD-BM-029-024-N.jpg","0",NA,"1","0",NA,"1","0.730577000067569",NA,"0.568341100006364","1",NA,"1","1",NA,"1","1",NA,"1"
"250038","img/neutralC/CFD-BM-029-024-N.jpg","img/neutralC/CFD-WM-225-127-N.jpg","img/neutralC/CFD-IF-718-001-N.jpg","1","0","1","1","0","1","0.568341100006364","0.730577000067569","0.649699199944735","1","1","1","1","1","1","1","1","1"
"250038","img/neutralC/CFD-IF-718-001-N.jpg","img/neutralC/CFD-BM-029-024-N.jpg","img/neutralC/CFD-WM-257-161-N.jpg","1","1","1","1","1","1","0.649699199944735","0.568341100006364","0.768376399995759","1","1","1","1","1","1","1","1","1"
"250038","img/neutralC/CFD-WM-257-161-N.jpg","img/neutralC/CFD-IF-718-001-N.jpg","img/neutralC/CFD-BF-003-003-N.jpg","1","1","1","1","1","0","0.768376399995759","0.649699199944735","0.694513299968094","1","1","1","1","1","1","1","1","1"
"250038","img/neutralC/CFD-BF-003-003-N.jpg","img/neutralC/CFD-WM-257-161-N.jpg","img/neutralC/CFD-BF-204-189-N.jpg","1","1","1","0","1","1","0.694513299968094","0.768376399995759","1.10101510002278","1","1","1","1","1","1","1","1","1"
"250038","img/neutralC/CFD-BF-204-189-N.jpg","img/neutralC/CFD-BF-003-003-N.jpg","img/neutralC/CFD-IF-672-305-N.jpg","1","1","1","1","0","0","1.10101510002278","0.694513299968094","0.73113780003041","1","1","1","1","1","1","1","1","1"
"250038","img/neutralC/CFD-IF-672-305-N.jpg","img/neutralC/CFD-BF-204-189-N.jpg","img/neutralC/CFD-IM-728-041-N.jpg","1","1","1","0","1","0","0.73113780003041","1.10101510002278","0.60238230007235","1","1","1","1","1","1","1","1","1"
"250038","img/neutralC/CFD-IM-728-041-N.jpg","img/neutralC/CFD-IF-672-305-N.jpg","img/neutralC/CFD-MM-319-052-N.jpg","1","1","1","0","0","1","0.60238230007235","0.73113780003041","0.891196999931708","1","1","1","1","1","1","1","1","1"
"250038","img/neutralC/CFD-MM-319-052-N.jpg","img/neutralC/CFD-IM-728-041-N.jpg","img/neutralC/CFD-LM-252-076-N.jpg","1","1","1","1","0","1","0.891196999931708","0.60238230007235","0.541145199909806","1","1","1","1","1","1","1","1","1"
"250038","img/neutralC/CFD-LM-252-076-N.jpg","img/neutralC/CFD-MM-319-052-N.jpg","img/neutralC/CFD-BM-015-015-N.jpg","1","1","1","1","1","0","0.541145199909806","0.891196999931708","0.627205400029197","1","1","1","1","1","1","1","1","1"
"250038","img/neutralC/CFD-BM-015-015-N.jpg","img/neutralC/CFD-LM-252-076-N.jpg","img/neutralC/CFD-LF-216-121-N.jpg","1","1","1","0","1","1","0.627205400029197","0.541145199909806","0.783975000027567","1","1","1","1","1","1","1","1","1"
"250038","img/neutralC/CFD-LF-216-121-N.jpg","img/neutralC/CFD-BM-015-015-N.jpg","img/neutralC/CFD-AM-217-085-N.jpg","1","1","1","1","0","0","0.783975000027567","0.627205400029197","1.02191639994271","1","1","1","1","1","1","1","1","1"
"250038","img/neutralC/CFD-AM-217-085-N.jpg","img/neutralC/CFD-LF-216-121-N.jpg","img/neutralC/CFD-WM-002-009-N.jpg","1","1","1","0","1","0","1.02191639994271","0.783975000027567","0.580146200023592","1","1","1","1","1","1","1","1","1"
"250038","img/neutralC/CFD-WM-002-009-N.jpg","img/neutralC/CFD-AM-217-085-N.jpg","img/neutralC/CFD-BM-247-240-N.jpg","1","1","1","0","0","0","0.580146200023592","1.02191639994271","0.460221399902366","1","1","1","1","1","1","1","1","1"
"250038","img/neutralC/CFD-BM-247-240-N.jpg","img/neutralC/CFD-WM-002-009-N.jpg","img/neutralC/CFD-AM-235-241-N.jpg","1","1","1","0","0","0","0.460221399902366","0.580146200023592","0.547541199950501","1","1","1","1","1","1","1","1","1"
"250038","img/neutralC/CFD-AM-235-241-N.jpg","img/neutralC/CFD-BM-247-240-N.jpg","img/neutralC/CFD-BM-027-001-N.jpg","1","1","1","0","0","0","0.547541199950501","0.460221399902366","0.685326100094244","1","1","1","1","1","1","1","1","1"
"250038","img/neutralC/CFD-BM-027-001-N.jpg","img/neutralC/CFD-AM-235-241-N.jpg","img/neutralC/CFD-BM-211-174-N.jpg","1","1","1","0","0","0","0.685326100094244","0.547541199950501","0.582301400019787","1","1","1","1","1","1","1","1","1"
"250038","img/neutralC/CFD-BM-211-174-N.jpg","img/neutralC/CFD-BM-027-001-N.jpg","img/neutralC/CFD-WF-026-002-N.jpg","1","1","1","0","0","1","0.582301400019787","0.685326100094244","0.821704800007865","1","1","1","1","1","1","1","1","1"
"250038","img/neutralC/CFD-WF-026-002-N.jpg","img/neutralC/CFD-BM-211-174-N.jpg","img/neutralC/CFD-BF-023-010-N.jpg","1","1","1","1","0","1","0.821704800007865","0.582301400019787","0.547168200020678","1","1","1","1","1","1","1","1","1"
"250038","img/neutralC/CFD-BF-023-010-N.jpg","img/neutralC/CFD-WF-026-002-N.jpg","img/neutralC/CFD-WM-040-022-N.jpg","1","1","1","1","1","0","0.547168200020678","0.821704800007865","0.692257100017741","1","1","1","1","1","1","1","1","1"
"250038","img/neutralC/CFD-WM-040-022-N.jpg","img/neutralC/CFD-BF-023-010-N.jpg","img/neutralC/CFD-BF-208-266-N.jpg","1","1","1","0","1","0","0.692257100017741","0.547168200020678","0.775898299994878","1","1","1","1","1","1","1","1","1"
"250038","img/neutralC/CFD-BF-208-266-N.jpg","img/neutralC/CFD-WM-040-022-N.jpg","img/neutralC/CFD-BF-028-001-N.jpg","1","1","1","0","0","1","0.775898299994878","0.692257100017741","0.471609700005502","1","1","1","1","1","1","1","1","1"
"250038","img/neutralC/CFD-BF-028-001-N.jpg","img/neutralC/CFD-BF-208-266-N.jpg","img/neutralC/CFD-LF-236-221-N.jpg","1","1","1","1","0","1","0.471609700005502","0.775898299994878","0.559852899983525","1","1","1","1","1","1","1","1","1"
"250038","img/neutralC/CFD-LF-236-221-N.jpg","img/neutralC/CFD-BF-028-001-N.jpg","img/neutralC/CFD-AM-215-120-N.jpg","1","1","1","1","1","1","0.559852899983525","0.471609700005502","0.55613819998689","1","1","1","1","1","1","1","1","1"
"250038","img/neutralC/CFD-AM-215-120-N.jpg","img/neutralC/CFD-LF-236-221-N.jpg","img/neutralC/CFD-IM-639-263-N.jpg","1","1","1","1","1","1","0.55613819998689","0.559852899983525","0.545951999956742","1","1","1","1","1","1","1","1","1"
"250038","img/neutralC/CFD-IM-639-263-N.jpg","img/neutralC/CFD-AM-215-120-N.jpg","img/neutralC/CFD-WF-022-017-N.jpg","1","1","1","1","1","0","0.545951999956742","0.55613819998689","0.555314500001259","1","1","1","1","1","1","1","1","1"
"250038","img/neutralC/CFD-WF-022-017-N.jpg","img/neutralC/CFD-IM-639-263-N.jpg","img/neutralC/CFD-BF-201-080-N.jpg","1","1","1","0","1","1","0.555314500001259","0.545951999956742","0.698687199968845","1","1","1","1","1","1","1","1","1"
"250038","img/neutralC/CFD-BF-201-080-N.jpg","img/neutralC/CFD-WF-022-017-N.jpg","img/neutralC/CFD-WF-002-004-N.jpg","1","1","1","1","0","0","0.698687199968845","0.555314500001259","1.17493380000815","1","1","1","1","1","1","1","1","1"
"250038","img/neutralC/CFD-WF-002-004-N.jpg","img/neutralC/CFD-BF-201-080-N.jpg","img/neutralC/CFD-IM-674-281-N.jpg","1","1","1","0","1","1","1.17493380000815","0.698687199968845","1.03208789997734","1","1","1","1","1","1","1","1","1"
"250038","img/neutralC/CFD-IM-674-281-N.jpg","img/neutralC/CFD-WF-002-004-N.jpg","img/neutralC/CFD-BF-255-140-N.jpg","1","1","1","1","0","1","1.03208789997734","1.17493380000815","0.655375999980606","1","1","1","1","1","1","1","1","1"
"250038","img/neutralC/CFD-BF-255-140-N.jpg","img/neutralC/CFD-IM-674-281-N.jpg","img/neutralC/CFD-WM-038-003-N.jpg","1","1","0","1","1","0","0.655375999980606","1.03208789997734","1.00135200005025","1","1","1","1","1","1","1","1","1"
"250038","img/neutralC/CFD-WM-038-003-N.jpg","img/neutralC/CFD-BF-255-140-N.jpg",NA,"0","1",NA,"0","1",NA,"1.00135200005025","0.655375999980606",NA,"1","1",NA,"1","1",NA,"1","1",NA
"250038","img/neutralC/CFD-BM-001-014-N.jpg",NA,"img/neutralC/CFD-WM-218-074-N.jpg","0",NA,"1","0",NA,"1","0.851369199925102",NA,"0.393335600034334","1",NA,"1","1",NA,"1","1",NA,"1"
"250038","img/neutralC/CFD-WM-218-074-N.jpg","img/neutralC/CFD-BM-001-014-N.jpg","img/neutralC/CFD-WM-015-002-N.jpg","1","0","1","1","0","0","0.393335600034334","0.851369199925102","0.59814669995103","1","1","1","1","1","1","1","1","1"
"250038","img/neutralC/CFD-WM-015-002-N.jpg","img/neutralC/CFD-WM-218-074-N.jpg","img/neutralC/CFD-LF-255-088-N.jpg","1","1","0","0","1","0","0.59814669995103","0.393335600034334","0.538827200070955","1","1","1","1","1","1","1","1","1"
"250038","img/neutralC/CFD-LF-255-088-N.jpg","img/neutralC/CFD-WM-015-002-N.jpg","img/neutralC/CFD-BF-237-172-N.jpg","0","1","1","0","0","1","0.538827200070955","0.59814669995103","0.467063600081019","1","1","1","1","1","1","1","1","1"
"250038","img/neutralC/CFD-BF-237-172-N.jpg","img/neutralC/CFD-LF-255-088-N.jpg","img/neutralC/CFD-IM-664-651-N.jpg","1","0","1","1","0","1","0.467063600081019","0.538827200070955","0.617814199998975","1","1","1","1","1","1","1","1","1"
"250038","img/neutralC/CFD-IM-664-651-N.jpg","img/neutralC/CFD-BF-237-172-N.jpg","img/neutralC/CFD-MF-343-001-N.jpg","1","1","1","1","1","1","0.617814199998975","0.467063600081019","0.439858199912123","1","1","1","1","1","1","1","1","1"
"250038","img/neutralC/CFD-MF-343-001-N.jpg","img/neutralC/CFD-IM-664-651-N.jpg","img/neutralC/CFD-IF-626-375-N.jpg","1","1","1","1","1","0","0.439858199912123","0.617814199998975","0.564280800055712","1","1","1","1","1","1","1","1","1"
"250038","img/neutralC/CFD-IF-626-375-N.jpg","img/neutralC/CFD-MF-343-001-N.jpg","img/neutralC/CFD-IM-702-101-N.jpg","1","1","1","0","1","1","0.564280800055712","0.439858199912123","0.578961300081573","1","1","1","1","1","1","1","1","1"
"250038","img/neutralC/CFD-IM-702-101-N.jpg","img/neutralC/CFD-IF-626-375-N.jpg","img/neutralC/CFD-MF-316-001-N.jpg","1","1","1","1","0","0","0.578961300081573","0.564280800055712","0.633790299994871","1","1","1","1","1","1","1","1","1"
"250038","img/neutralC/CFD-MF-316-001-N.jpg","img/neutralC/CFD-IM-702-101-N.jpg","img/neutralC/CFD-LM-200-045-N.jpg","1","1","1","0","1","1","0.633790299994871","0.578961300081573","0.540678200079128","1","1","1","1","1","1","1","1","1"
"250038","img/neutralC/CFD-LM-200-045-N.jpg","img/neutralC/CFD-MF-316-001-N.jpg","img/neutralC/CFD-WF-244-163-N.jpg","1","1","1","1","0","1","0.540678200079128","0.633790299994871","0.711355600040406","1","1","1","1","1","1","1","1","1"
"250038","img/neutralC/CFD-WF-244-163-N.jpg","img/neutralC/CFD-LM-200-045-N.jpg","img/neutralC/CFD-MM-324-069-N.jpg","1","1","1","1","1","1","0.711355600040406","0.540678200079128","0.545384900062345","1","1","1","1","1","1","1","1","1"
"250038","img/neutralC/CFD-MM-324-069-N.jpg","img/neutralC/CFD-WF-244-163-N.jpg","img/neutralC/CFD-IM-680-369-N.jpg","1","1","1","1","1","1","0.545384900062345","0.711355600040406","0.58789570000954","1","1","1","1","1","1","1","1","1"
"250038","img/neutralC/CFD-IM-680-369-N.jpg","img/neutralC/CFD-MM-324-069-N.jpg","img/neutralC/CFD-IF-660-464-N.jpg","1","1","0","1","1","0","0.58789570000954","0.545384900062345","0.552965700044297","1","1","1","1","1","1","1","1","1"
"250038","img/neutralC/CFD-IF-660-464-N.jpg","img/neutralC/CFD-IM-680-369-N.jpg","img/neutralC/CFD-AF-233-190-N.jpg","0","1","0","0","1","0","0.552965700044297","0.58789570000954","0.542215100023896","1","1","1","1","1","1","1","1","2"
"250038","img/neutralC/CFD-AF-233-190-N.jpg","img/neutralC/CFD-IF-660-464-N.jpg","img/neutralC/CFD-IM-706-002-N.jpg","0","0","1","0","0","0","0.542215100023896","0.552965700044297","0.590442799963057","1","1","1","1","1","1","2","1","1"
"250038","img/neutralC/CFD-IM-706-002-N.jpg","img/neutralC/CFD-AF-233-190-N.jpg","img/neutralC/CFD-WF-007-001-N.jpg","1","0","1","0","0","1","0.590442799963057","0.542215100023896","0.482309599989094","1","1","1","1","1","1","1","2","1"
"250038","img/neutralC/CFD-WF-007-001-N.jpg","img/neutralC/CFD-IM-706-002-N.jpg","img/neutralC/CFD-WF-222-092-N.jpg","1","1","1","1","0","1","0.482309599989094","0.590442799963057","0.746759100002237","1","1","1","1","1","1","1","1","1"
"250038","img/neutralC/CFD-WF-222-092-N.jpg","img/neutralC/CFD-WF-007-001-N.jpg","img/neutralC/CFD-AF-253-130-N.jpg","1","1","1","1","1","1","0.746759100002237","0.482309599989094","0.555921700084582","1","1","1","1","1","1","1","1","1"
"250038","img/neutralC/CFD-AF-253-130-N.jpg","img/neutralC/CFD-WF-222-092-N.jpg","img/neutralC/CFD-IM-667-369-N.jpg","1","1","1","1","1","0","0.555921700084582","0.746759100002237","0.61801390000619","1","1","1","1","1","1","1","1","1"
"250038","img/neutralC/CFD-IM-667-369-N.jpg","img/neutralC/CFD-AF-253-130-N.jpg","img/neutralC/CFD-WM-209-038-N.jpg","1","1","1","0","1","0","0.61801390000619","0.555921700084582","0.615784699912183","1","1","1","1","1","1","1","1","1"
"250038","img/neutralC/CFD-WM-209-038-N.jpg","img/neutralC/CFD-IM-667-369-N.jpg","img/neutralC/CFD-BM-250-170-N.jpg","1","1","1","0","0","1","0.615784699912183","0.61801390000619","0.529690800001845","1","1","1","1","1","1","1","1","1"
"250038","img/neutralC/CFD-BM-250-170-N.jpg","img/neutralC/CFD-WM-209-038-N.jpg","img/neutralC/CFD-MF-357-002-N.jpg","1","1","0","1","0","0","0.529690800001845","0.615784699912183","0.938908800017089","1","1","1","1","1","1","1","1","1"
"250038","img/neutralC/CFD-MF-357-002-N.jpg","img/neutralC/CFD-BM-250-170-N.jpg","img/neutralC/CFD-LF-206-078-N.jpg","0","1","1","0","1","1","0.938908800017089","0.529690800001845","0.367421800037846","1","1","1","1","1","1","1","1","1"
"250038","img/neutralC/CFD-LF-206-078-N.jpg","img/neutralC/CFD-MF-357-002-N.jpg","img/neutralC/CFD-AM-220-134-N.jpg","1","0","1","1","0","0","0.367421800037846","0.938908800017089","0.617152799968608","1","1","1","1","1","1","1","1","1"
"250038","img/neutralC/CFD-AM-220-134-N.jpg","img/neutralC/CFD-LF-206-078-N.jpg","img/neutralC/CFD-LM-225-130-N.jpg","1","1","1","0","1","0","0.617152799968608","0.367421800037846","0.74211250001099","1","1","1","1","1","1","1","1","1"
"250038","img/neutralC/CFD-LM-225-130-N.jpg","img/neutralC/CFD-AM-220-134-N.jpg","img/neutralC/CFD-BF-014-002-N.jpg","1","1","1","0","0","1","0.74211250001099","0.617152799968608","0.569941000081599","1","1","1","1","1","1","1","1","1"
"250038","img/neutralC/CFD-BF-014-002-N.jpg","img/neutralC/CFD-LM-225-130-N.jpg","img/neutralC/CFD-MF-305-014-N.jpg","1","1","1","1","0","1","0.569941000081599","0.74211250001099","0.543940100003965","1","1","1","1","1","1","1","1","1"
"250038","img/neutralC/CFD-MF-305-014-N.jpg","img/neutralC/CFD-BF-014-002-N.jpg","img/neutralC/CFD-MF-303-013-N.jpg","1","1","1","1","1","0","0.543940100003965","0.569941000081599","0.645557599957101","1","1","1","1","1","1","1","1","1"
"250038","img/neutralC/CFD-MF-303-013-N.jpg","img/neutralC/CFD-MF-305-014-N.jpg","img/neutralC/CFD-WF-030-002-N.jpg","1","1","1","0","1","0","0.645557599957101","0.543940100003965","0.6577069000341","1","1","1","1","1","1","1","1","1"
"250038","img/neutralC/CFD-WF-030-002-N.jpg","img/neutralC/CFD-MF-303-013-N.jpg","img/neutralC/CFD-BM-217-082-N.jpg","1","1","1","0","0","0","0.6577069000341","0.645557599957101","0.762067400035448","1","1","1","1","1","1","1","1","1"
"250038","img/neutralC/CFD-BM-217-082-N.jpg","img/neutralC/CFD-WF-030-002-N.jpg",NA,"1","1",NA,"0","0",NA,"0.762067400035448","0.6577069000341",NA,"1","1",NA,"1","1",NA,"1","1",NA
"250038","img/neutralC/CFD-WM-009-002-N.jpg",NA,"img/neutralC/CFD-WF-238-023-N.jpg","1",NA,"1","0",NA,"0","1.14120459998958",NA,"0.739254500018433","1",NA,"1","1",NA,"1","1",NA,"1"
"250038","img/neutralC/CFD-WF-238-023-N.jpg","img/neutralC/CFD-WM-009-002-N.jpg","img/neutralC/CFD-BF-218-207-N.jpg","1","1","1","0","0","1","0.739254500018433","1.14120459998958","0.680375199997798","1","1","1","1","1","1","1","1","1"
"250038","img/neutralC/CFD-BF-218-207-N.jpg","img/neutralC/CFD-WF-238-023-N.jpg","img/neutralC/CFD-BF-018-039-N.jpg","1","1","1","1","0","1","0.680375199997798","0.739254500018433","0.710084200021811","1","1","1","1","1","1","1","1","1"
"250038","img/neutralC/CFD-BF-018-039-N.jpg","img/neutralC/CFD-BF-218-207-N.jpg","img/neutralC/CFD-BM-200-046-N.jpg","1","1","0","1","1","0","0.710084200021811","0.680375199997798","1.14318589994218","1","1","1","1","1","1","1","1","1"
"250038","img/neutralC/CFD-BM-200-046-N.jpg","img/neutralC/CFD-BF-018-039-N.jpg","img/neutralC/CFD-LM-253-075-N.jpg","0","1","1","0","1","0","1.14318589994218","0.710084200021811","0.583308700006455","1","1","1","1","1","1","1","1","1"
"250038","img/neutralC/CFD-LM-253-075-N.jpg","img/neutralC/CFD-BM-200-046-N.jpg","img/neutralC/CFD-MF-318-022-N.jpg","1","0","1","0","0","1","0.583308700006455","1.14318589994218","0.569510499946773","1","1","1","1","1","1","1","1","1"
"250038","img/neutralC/CFD-MF-318-022-N.jpg","img/neutralC/CFD-LM-253-075-N.jpg","img/neutralC/CFD-WF-023-003-N.jpg","1","1","1","1","0","1","0.569510499946773","0.583308700006455","0.599366800044663","1","1","1","1","1","1","1","1","1"
"250038","img/neutralC/CFD-WF-023-003-N.jpg","img/neutralC/CFD-MF-318-022-N.jpg","img/neutralC/CFD-BM-204-003-N.jpg","1","1","1","1","1","0","0.599366800044663","0.569510499946773","0.581435199943371","1","1","1","1","1","1","1","1","1"
"250038","img/neutralC/CFD-BM-204-003-N.jpg","img/neutralC/CFD-WF-023-003-N.jpg","img/neutralC/CFD-IM-719-221-N.jpg","1","1","1","0","1","0","0.581435199943371","0.599366800044663","0.720485200057738","1","1","1","1","1","1","1","1","1"
"250038","img/neutralC/CFD-IM-719-221-N.jpg","img/neutralC/CFD-BM-204-003-N.jpg","img/neutralC/CFD-IM-627-178-N.jpg","1","1","1","0","0","1","0.720485200057738","0.581435199943371","0.577253600000404","1","1","1","1","1","1","1","1","1"
"250038","img/neutralC/CFD-IM-627-178-N.jpg","img/neutralC/CFD-IM-719-221-N.jpg","img/neutralC/CFD-WF-018-017-N.jpg","1","1","1","1","0","1","0.577253600000404","0.720485200057738","0.489638400031254","1","1","1","1","1","1","1","1","1"
"250038","img/neutralC/CFD-WF-018-017-N.jpg","img/neutralC/CFD-IM-627-178-N.jpg","img/neutralC/CFD-WF-226-095-N.jpg","1","1","1","1","1","1","0.489638400031254","0.577253600000404","0.688974200049415","1","1","1","1","1","1","1","1","1"
"250038","img/neutralC/CFD-WF-226-095-N.jpg","img/neutralC/CFD-WF-018-017-N.jpg","img/neutralC/CFD-MF-342-022-N.jpg","1","1","1","1","1","1","0.688974200049415","0.489638400031254","0.859008600004017","1","1","1","1","1","1","1","1","1"
"250038","img/neutralC/CFD-MF-342-022-N.jpg","img/neutralC/CFD-WF-226-095-N.jpg","img/neutralC/CFD-BF-254-201-N.jpg","1","1","1","1","1","0","0.859008600004017","0.688974200049415","0.60480839991942","1","1","1","1","1","1","1","1","1"
"250038","img/neutralC/CFD-BF-254-201-N.jpg","img/neutralC/CFD-MF-342-022-N.jpg","img/neutralC/CFD-MF-321-003-N.jpg","1","1","1","0","1","0","0.60480839991942","0.859008600004017","0.627225799951702","1","1","1","1","1","1","1","1","1"
"250038","img/neutralC/CFD-MF-321-003-N.jpg","img/neutralC/CFD-BF-254-201-N.jpg","img/neutralC/CFD-AF-232-078-N.jpg","1","1","1","0","0","1","0.627225799951702","0.60480839991942","0.494767799973488","1","1","1","1","1","1","1","1","1"
"250038","img/neutralC/CFD-AF-232-078-N.jpg","img/neutralC/CFD-MF-321-003-N.jpg","img/neutralC/CFD-WM-013-001-N.jpg","1","1","1","1","0","1","0.494767799973488","0.627225799951702","0.503944900003262","1","1","1","1","1","1","1","1","1"
"250038","img/neutralC/CFD-WM-013-001-N.jpg","img/neutralC/CFD-AF-232-078-N.jpg","img/neutralC/CFD-WF-245-084-N.jpg","1","1","1","1","1","1","0.503944900003262","0.494767799973488","0.515019299928099","1","1","1","1","1","1","1","1","1"
"250038","img/neutralC/CFD-WF-245-084-N.jpg","img/neutralC/CFD-WM-013-001-N.jpg","img/neutralC/CFD-AM-244-222-N.jpg","1","1","1","1","1","0","0.515019299928099","0.503944900003262","0.619505100068636","1","1","1","1","1","1","1","1","1"
"250038","img/neutralC/CFD-AM-244-222-N.jpg","img/neutralC/CFD-WF-245-084-N.jpg","img/neutralC/CFD-LF-215-157-N.jpg","1","1","1","0","1","0","0.619505100068636","0.515019299928099","0.548389500007033","1","1","1","1","1","1","1","1","1"
"250038","img/neutralC/CFD-LF-215-157-N.jpg","img/neutralC/CFD-AM-244-222-N.jpg","img/neutralC/CFD-WM-255-219-N.jpg","1","1","1","0","0","0","0.548389500007033","0.619505100068636","0.582033700076863","1","1","1","1","1","1","1","1","1"
"250038","img/neutralC/CFD-WM-255-219-N.jpg","img/neutralC/CFD-LF-215-157-N.jpg","img/neutralC/CFD-WM-237-052-N.jpg","1","1","1","0","0","1","0.582033700076863","0.548389500007033","0.472608300042339","1","1","1","1","1","1","1","1","1"
"250038","img/neutralC/CFD-WM-237-052-N.jpg","img/neutralC/CFD-WM-255-219-N.jpg","img/neutralC/CFD-WM-201-063-N.jpg","1","1","1","1","0","1","0.472608300042339","0.582033700076863","0.681661600014195","1","1","1","1","1","1","1","1","1"
"250038","img/neutralC/CFD-WM-201-063-N.jpg","img/neutralC/CFD-WM-237-052-N.jpg","img/neutralC/CFD-WF-027-003-N.jpg","1","1","1","1","1","1","0.681661600014195","0.472608300042339","0.520890999934636","1","1","1","1","1","1","1","1","1"
"250038","img/neutralC/CFD-WF-027-003-N.jpg","img/neutralC/CFD-WM-201-063-N.jpg","img/neutralC/CFD-IM-700-009-N.jpg","1","1","1","1","1","1","0.520890999934636","0.681661600014195","0.537095200037584","1","1","1","1","1","1","1","1","1"
"250038","img/neutralC/CFD-IM-700-009-N.jpg","img/neutralC/CFD-WF-027-003-N.jpg","img/neutralC/CFD-LF-211-003-N.jpg","1","1","1","1","1","0","0.537095200037584","0.520890999934636","0.635865499963984","1","1","1","1","1","1","1","1","1"
"250038","img/neutralC/CFD-LF-211-003-N.jpg","img/neutralC/CFD-IM-700-009-N.jpg","img/neutralC/CFD-BM-023-029-N.jpg","1","1","1","0","1","1","0.635865499963984","0.537095200037584","0.552927799988538","1","1","1","1","1","1","1","1","1"
"250038","img/neutralC/CFD-BM-023-029-N.jpg","img/neutralC/CFD-LF-211-003-N.jpg","img/neutralC/CFD-MM-321-021-N.jpg","1","1","1","1","0","0","0.552927799988538","0.635865499963984","0.478065799921751","1","1","1","1","1","1","1","1","1"
"250038","img/neutralC/CFD-MM-321-021-N.jpg","img/neutralC/CFD-BM-023-029-N.jpg","img/neutralC/CFD-AF-221-147-N.jpg","1","1","1","0","1","0","0.478065799921751","0.552927799988538","0.482530500041321","1","1","1","1","1","1","1","1","1"
"250038","img/neutralC/CFD-AF-221-147-N.jpg","img/neutralC/CFD-MM-321-021-N.jpg","img/neutralC/CFD-WM-221-091-N.jpg","1","1","0","0","0","0","0.482530500041321","0.478065799921751","0.545978500042111","1","1","1","1","1","1","1","1","1"
"250038","img/neutralC/CFD-WM-221-091-N.jpg","img/neutralC/CFD-AF-221-147-N.jpg","img/neutralC/CFD-IF-629-234-N.jpg","0","1","1","0","0","0","0.545978500042111","0.482530500041321","0.714923499966972","1","1","1","1","1","1","1","1","1"
"250038","img/neutralC/CFD-IF-629-234-N.jpg","img/neutralC/CFD-WM-221-091-N.jpg",NA,"1","0",NA,"0","0",NA,"0.714923499966972","0.545978500042111",NA,"1","1",NA,"1","1",NA,"1","1",NA
"250038","img/neutralC/CFD-IF-619-197-N.jpg",NA,"img/neutralC/CFD-WM-213-076-N.jpg","0",NA,"1","0",NA,"1","0.756220799987204",NA,"0.529682800057344","1",NA,"1","1",NA,"1","1",NA,"1"
"250038","img/neutralC/CFD-WM-213-076-N.jpg","img/neutralC/CFD-IF-619-197-N.jpg","img/neutralC/CFD-AF-229-160-N.jpg","1","0","1","1","0","0","0.529682800057344","0.756220799987204","0.32522220001556","1","1","1","1","1","1","1","1","1"
"250038","img/neutralC/CFD-AF-229-160-N.jpg","img/neutralC/CFD-WM-213-076-N.jpg","img/neutralC/CFD-IM-637-007-N.jpg","1","1","1","0","1","0","0.32522220001556","0.529682800057344","0.340142200002447","1","1","1","1","1","1","1","1","1"
"250038","img/neutralC/CFD-IM-637-007-N.jpg","img/neutralC/CFD-AF-229-160-N.jpg","img/neutralC/CFD-AM-236-090-N.jpg","1","1","1","0","0","1","0.340142200002447","0.32522220001556","0.312946100020781","1","1","1","1","1","1","1","1","1"
"250038","img/neutralC/CFD-AM-236-090-N.jpg","img/neutralC/CFD-IM-637-007-N.jpg","img/neutralC/CFD-MF-327-002-N.jpg","1","1","1","1","0","0","0.312946100020781","0.340142200002447","0.406973200035281","1","1","1","1","1","1","1","1","1"
"250038","img/neutralC/CFD-MF-327-002-N.jpg","img/neutralC/CFD-AM-236-090-N.jpg","img/neutralC/CFD-IM-685-004-N.jpg","1","1","1","0","1","1","0.406973200035281","0.312946100020781","0.811354200006463","1","1","1","1","1","1","1","1","1"
"250038","img/neutralC/CFD-IM-685-004-N.jpg","img/neutralC/CFD-MF-327-002-N.jpg","img/neutralC/CFD-LF-201-035-N.jpg","1","1","1","1","0","1","0.811354200006463","0.406973200035281","0.340893400018103","1","1","1","1","1","1","1","1","1"
"250038","img/neutralC/CFD-LF-201-035-N.jpg","img/neutralC/CFD-IM-685-004-N.jpg","img/neutralC/CFD-MF-340-026-N.jpg","1","1","1","1","1","1","0.340893400018103","0.811354200006463","0.526074600056745","1","1","1","1","1","1","1","1","1"
"250038","img/neutralC/CFD-MF-340-026-N.jpg","img/neutralC/CFD-LF-201-035-N.jpg","img/neutralC/CFD-WM-024-015-N.jpg","1","1","1","1","1","1","0.526074600056745","0.340893400018103","0.544353600009345","1","1","1","1","1","1","1","1","1"
"250038","img/neutralC/CFD-WM-024-015-N.jpg","img/neutralC/CFD-MF-340-026-N.jpg","img/neutralC/CFD-WM-232-070-N.jpg","1","1","1","1","1","0","0.544353600009345","0.526074600056745","0.617336599971168","1","1","1","1","1","1","1","1","1"
"250038","img/neutralC/CFD-WM-232-070-N.jpg","img/neutralC/CFD-WM-024-015-N.jpg","img/neutralC/CFD-WF-012-002-N.jpg","1","1","1","0","1","1","0.617336599971168","0.544353600009345","0.52740400005132","1","1","1","1","1","1","1","1","1"
"250038","img/neutralC/CFD-WF-012-002-N.jpg","img/neutralC/CFD-WM-232-070-N.jpg","img/neutralC/CFD-WF-008-002-N.jpg","1","1","1","1","0","1","0.52740400005132","0.617336599971168","0.555749500053935","1","1","1","1","1","1","1","1","1"
"250038","img/neutralC/CFD-WF-008-002-N.jpg","img/neutralC/CFD-WF-012-002-N.jpg","img/neutralC/CFD-BF-051-035-N.jpg","1","1","0","1","1","0","0.555749500053935","0.52740400005132","0.405865399981849","1","1","1","1","1","1","1","1","1"
"250038","img/neutralC/CFD-BF-051-035-N.jpg","img/neutralC/CFD-WF-008-002-N.jpg","img/neutralC/CFD-MM-304-002-N.jpg","0","1","1","0","1","1","0.405865399981849","0.555749500053935","0.507068500039168","1","1","1","1","1","1","1","1","1"
"250038","img/neutralC/CFD-MM-304-002-N.jpg","img/neutralC/CFD-BF-051-035-N.jpg","img/neutralC/CFD-BF-043-003-N.jpg","1","0","1","1","0","0","0.507068500039168","0.405865399981849","0.560594700044021","1","1","1","1","1","1","1","1","1"
"250038","img/neutralC/CFD-BF-043-003-N.jpg","img/neutralC/CFD-MM-304-002-N.jpg","img/neutralC/CFD-WF-248-129-N.jpg","1","1","1","0","1","0","0.560594700044021","0.507068500039168","0.692157799960114","1","1","1","1","1","1","1","1","1"
"250038","img/neutralC/CFD-WF-248-129-N.jpg","img/neutralC/CFD-BF-043-003-N.jpg","img/neutralC/CFD-IM-675-015-N.jpg","1","1","0","0","0","1","0.692157799960114","0.560594700044021","0.518233100068755","1","1","1","1","1","1","1","1","1"
"250038","img/neutralC/CFD-IM-675-015-N.jpg","img/neutralC/CFD-WF-248-129-N.jpg","img/neutralC/CFD-WF-212-050-N.jpg","0","1","1","1","0","0","0.518233100068755","0.692157799960114","0.680678999982774","1","1","1","1","1","1","1","1","1"
"250038","img/neutralC/CFD-WF-212-050-N.jpg","img/neutralC/CFD-IM-675-015-N.jpg","img/neutralC/CFD-BM-039-029-N.jpg","1","0","1","0","1","1","0.680678999982774","0.518233100068755","0.547924900078215","1","1","1","1","1","1","1","1","1"
"250038","img/neutralC/CFD-BM-039-029-N.jpg","img/neutralC/CFD-WF-212-050-N.jpg","img/neutralC/CFD-IM-604-014-N.jpg","1","1","1","1","0","0","0.547924900078215","0.680678999982774","0.921737600001506","1","1","1","1","1","1","1","1","1"
"250038","img/neutralC/CFD-IM-604-014-N.jpg","img/neutralC/CFD-BM-039-029-N.jpg","img/neutralC/CFD-WF-217-085-N.jpg","1","1","0","0","1","1","0.921737600001506","0.547924900078215",NA,"1","1","0","1","1","0","1","1","0"
"250038","img/neutralC/CFD-WF-217-085-N.jpg","img/neutralC/CFD-IM-604-014-N.jpg","img/neutralC/CFD-IF-608-390-N.jpg","0","1","1","1","0","1",NA,"0.921737600001506","0.488137600012124","0","1","1","0","1","1","0","1","1"
"250038","img/neutralC/CFD-IF-608-390-N.jpg","img/neutralC/CFD-WF-217-085-N.jpg","img/neutralC/CFD-BM-243-218-N.jpg","1","0","1","1","1","1","0.488137600012124",NA,"0.666221499908715","1","0","1","1","0","1","1","0","1"
"250038","img/neutralC/CFD-BM-243-218-N.jpg","img/neutralC/CFD-IF-608-390-N.jpg","img/neutralC/CFD-MF-329-001-N.jpg","1","1","1","1","1","0","0.666221499908715","0.488137600012124","0.642463300027885","1","1","1","1","1","1","1","1","1"
"250038","img/neutralC/CFD-MF-329-001-N.jpg","img/neutralC/CFD-BM-243-218-N.jpg","img/neutralC/CFD-AF-215-70-N.jpg","1","1","0","0","1","0","0.642463300027885","0.666221499908715","0.552080900059082","1","1","1","1","1","1","1","1","1"
"250038","img/neutralC/CFD-AF-215-70-N.jpg","img/neutralC/CFD-MF-329-001-N.jpg","img/neutralC/CFD-LF-226-174-N.jpg","0","1","1","0","0","0","0.552080900059082","0.642463300027885","0.562717200024053","1","1","1","1","1","1","1","1","1"
"250038","img/neutralC/CFD-LF-226-174-N.jpg","img/neutralC/CFD-AF-215-70-N.jpg","img/neutralC/CFD-BF-224-002-N.jpg","1","0","1","0","0","1","0.562717200024053","0.552080900059082","0.434319599997252","1","1","1","1","1","1","1","1","1"
"250038","img/neutralC/CFD-BF-224-002-N.jpg","img/neutralC/CFD-LF-226-174-N.jpg","img/neutralC/CFD-LM-217-162-N.jpg","1","1","1","1","0","0","0.434319599997252","0.562717200024053","0.67369119997602","1","1","1","1","1","1","1","1","1"
"250038","img/neutralC/CFD-LM-217-162-N.jpg","img/neutralC/CFD-BF-224-002-N.jpg","img/neutralC/CFD-IM-709-103-N.jpg","1","1","1","0","1","0","0.67369119997602","0.434319599997252","0.597579299937934","1","1","1","1","1","1","1","1","1"
"250038","img/neutralC/CFD-IM-709-103-N.jpg","img/neutralC/CFD-LM-217-162-N.jpg","img/neutralC/CFD-MF-300-002-N.jpg","1","1","1","0","0","0","0.597579299937934","0.67369119997602","0.550457400036976","1","1","1","1","1","1","1","1","1"
"250038","img/neutralC/CFD-MF-300-002-N.jpg","img/neutralC/CFD-IM-709-103-N.jpg","img/neutralC/CFD-AF-254-167-N.jpg","1","1","1","0","0","1","0.550457400036976","0.597579299937934","0.43664460000582","1","1","1","1","1","1","1","1","1"
"250038","img/neutralC/CFD-AF-254-167-N.jpg","img/neutralC/CFD-MF-300-002-N.jpg",NA,"1","1",NA,"1","0",NA,"0.43664460000582","0.550457400036976",NA,"1","1",NA,"1","1",NA,"1","1",NA
"250038","img/neutralC/CFD-WM-258-125-N.jpg",NA,"img/neutralC/CFD-AF-202-122-N.jpg","1",NA,"0","0",NA,"1","1.10653580003418",NA,"0.404007900040597","1",NA,"1","1",NA,"1","1",NA,"1"
"250038","img/neutralC/CFD-AF-202-122-N.jpg","img/neutralC/CFD-WM-258-125-N.jpg","img/neutralC/CFD-LM-226-175-N.jpg","0","1","0","1","0","0","0.404007900040597","1.10653580003418","0.230248600011691","1","1","1","1","1","1","1","1","1"
"250038","img/neutralC/CFD-LM-226-175-N.jpg","img/neutralC/CFD-AF-202-122-N.jpg","img/neutralC/CFD-LM-219-295-N.jpg","0","0","1","0","1","1","0.230248600011691","0.404007900040597","0.650674699922092","1","1","1","1","1","1","1","1","1"
"250038","img/neutralC/CFD-LM-219-295-N.jpg","img/neutralC/CFD-LM-226-175-N.jpg","img/neutralC/CFD-IF-620-218-N.jpg","1","0","0","1","0","0","0.650674699922092","0.230248600011691","0.564648299943656","1","1","1","1","1","1","1","1","2"
"250038","img/neutralC/CFD-IF-620-218-N.jpg","img/neutralC/CFD-LM-219-295-N.jpg","img/neutralC/CFD-LF-242-121-N.jpg","0","1","1","0","1","0","0.564648299943656","0.650674699922092","0.778883700026199","1","1","1","1","1","1","2","1","1"
"250038","img/neutralC/CFD-LF-242-121-N.jpg","img/neutralC/CFD-IF-620-218-N.jpg","img/neutralC/CFD-IM-657-308-N.jpg","1","0","1","0","0","0","0.778883700026199","0.564648299943656","0.638186000054702","1","1","1","1","1","1","1","2","1"
"250038","img/neutralC/CFD-IM-657-308-N.jpg","img/neutralC/CFD-LF-242-121-N.jpg","img/neutralC/CFD-WM-227-099-N.jpg","1","1","1","0","0","1","0.638186000054702","0.778883700026199","0.517806299962103","1","1","1","1","1","1","1","1","1"
"250038","img/neutralC/CFD-WM-227-099-N.jpg","img/neutralC/CFD-IM-657-308-N.jpg","img/neutralC/CFD-LF-245-166-N.jpg","1","1","1","1","0","1","0.517806299962103","0.638186000054702","0.637598000001162","1","1","1","1","1","1","1","1","1"
"250038","img/neutralC/CFD-LF-245-166-N.jpg","img/neutralC/CFD-WM-227-099-N.jpg","img/neutralC/CFD-AF-206-079-N.jpg","1","1","1","1","1","1","0.637598000001162","0.517806299962103","0.675468900008127","1","1","1","1","1","1","1","1","1"
"250038","img/neutralC/CFD-AF-206-079-N.jpg","img/neutralC/CFD-LF-245-166-N.jpg","img/neutralC/CFD-LM-233-171-N.jpg","1","1","1","1","1","0","0.675468900008127","0.637598000001162","0.576160699944012","1","1","1","1","1","1","1","1","1"
"250038","img/neutralC/CFD-LM-233-171-N.jpg","img/neutralC/CFD-AF-206-079-N.jpg","img/neutralC/CFD-IM-727-195-N.jpg","1","1","1","0","1","1","0.576160699944012","0.675468900008127","0.715332700056024","1","1","1","1","1","1","1","1","1"
"250038","img/neutralC/CFD-IM-727-195-N.jpg","img/neutralC/CFD-LM-233-171-N.jpg","img/neutralC/CFD-IM-638-250-1-N.jpg","1","1","1","1","0","1","0.715332700056024","0.576160699944012","0.663794600055553","1","1","1","1","1","1","1","1","1"
"250038","img/neutralC/CFD-IM-638-250-1-N.jpg","img/neutralC/CFD-IM-727-195-N.jpg","img/neutralC/CFD-IF-665-015-N.jpg","1","1","0","1","1","0","0.663794600055553","0.715332700056024","0.775096200057305","1","1","1","1","1","1","1","1","1"
"250038","img/neutralC/CFD-IF-665-015-N.jpg","img/neutralC/CFD-IM-638-250-1-N.jpg","img/neutralC/CFD-IM-617-174-N.jpg","0","1","1","0","1","0","0.775096200057305","0.663794600055553","0.648141999961808","1","1","1","1","1","1","1","1","1"
"250038","img/neutralC/CFD-IM-617-174-N.jpg","img/neutralC/CFD-IF-665-015-N.jpg","img/neutralC/CFD-BF-010-001-N.jpg","1","0","1","0","0","1","0.648141999961808","0.775096200057305","0.450044500059448","1","1","1","1","1","1","1","1","1"
"250038","img/neutralC/CFD-BF-010-001-N.jpg","img/neutralC/CFD-IM-617-174-N.jpg","img/neutralC/CFD-IM-653-008-N.jpg","1","1","1","1","0","0","0.450044500059448","0.648141999961808","0.6461998000741","1","1","1","1","1","1","1","1","1"
"250038","img/neutralC/CFD-IM-653-008-N.jpg","img/neutralC/CFD-BF-010-001-N.jpg","img/neutralC/CFD-IM-686-097-N.jpg","1","1","0","0","1","0","0.6461998000741","0.450044500059448","0.572632999974303","1","1","1","1","1","1","1","1","1"
"250038","img/neutralC/CFD-IM-686-097-N.jpg","img/neutralC/CFD-IM-653-008-N.jpg","img/neutralC/CFD-BM-005-003-N.jpg","0","1","1","0","0","1","0.572632999974303","0.6461998000741","0.57330789999105","1","1","1","1","1","1","1","1","1"
"250038","img/neutralC/CFD-BM-005-003-N.jpg","img/neutralC/CFD-IM-686-097-N.jpg","img/neutralC/CFD-MF-313-002-N.jpg","1","0","1","1","0","0","0.57330789999105","0.572632999974303","0.899058599956334","1","1","1","1","1","1","1","1","1"
"250038","img/neutralC/CFD-MF-313-002-N.jpg","img/neutralC/CFD-BM-005-003-N.jpg","img/neutralC/CFD-WM-242-011-N.jpg","1","1","1","0","1","0","0.899058599956334","0.57330789999105","0.570465099997818","1","1","1","1","1","1","1","1","1"
"250038","img/neutralC/CFD-WM-242-011-N.jpg","img/neutralC/CFD-MF-313-002-N.jpg","img/neutralC/CFD-BF-033-028-N.jpg","1","1","1","0","0","0","0.570465099997818","0.899058599956334","0.493308300036006","1","1","1","1","1","1","1","1","1"
"250038","img/neutralC/CFD-BF-033-028-N.jpg","img/neutralC/CFD-WM-242-011-N.jpg","img/neutralC/CFD-BM-018-001-N.jpg","1","1","1","0","0","1","0.493308300036006","0.570465099997818","0.43244969996158","1","1","1","1","1","1","1","1","1"
"250038","img/neutralC/CFD-BM-018-001-N.jpg","img/neutralC/CFD-BF-033-028-N.jpg","img/neutralC/CFD-BM-212-117-N.jpg","1","1","1","1","0","0","0.43244969996158","0.493308300036006","0.683668600046076","1","1","1","1","1","1","1","1","1"
"250038","img/neutralC/CFD-BM-212-117-N.jpg","img/neutralC/CFD-BM-018-001-N.jpg","img/neutralC/CFD-WM-017-002-N.jpg","1","1","1","0","1","0","0.683668600046076","0.43244969996158","0.570226199924946","1","1","1","1","1","1","1","1","1"
"250038","img/neutralC/CFD-WM-017-002-N.jpg","img/neutralC/CFD-BM-212-117-N.jpg","img/neutralC/CFD-LF-247-051-N.jpg","1","1","1","0","0","1","0.570226199924946","0.683668600046076","0.702195900026709","1","1","1","1","1","1","1","1","1"
"250038","img/neutralC/CFD-LF-247-051-N.jpg","img/neutralC/CFD-WM-017-002-N.jpg","img/neutralC/CFD-WF-209-052-N.jpg","1","1","1","1","0","1","0.702195900026709","0.570226199924946","0.56887179997284","1","1","1","1","1","1","1","1","1"
"250038","img/neutralC/CFD-WF-209-052-N.jpg","img/neutralC/CFD-LF-247-051-N.jpg","img/neutralC/CFD-LF-250-169-N.jpg","1","1","1","1","1","1","0.56887179997284","0.702195900026709","0.543887800071388","1","1","1","1","1","1","1","1","1"
"250038","img/neutralC/CFD-LF-250-169-N.jpg","img/neutralC/CFD-WF-209-052-N.jpg","img/neutralC/CFD-BM-231-155-N.jpg","1","1","1","1","1","1","0.543887800071388","0.56887179997284","0.527808499988168","1","1","1","1","1","1","1","1","1"
"250038","img/neutralC/CFD-BM-231-155-N.jpg","img/neutralC/CFD-LF-250-169-N.jpg","img/neutralC/CFD-AF-241-141-N.jpg","1","1","1","1","1","1","0.527808499988168","0.543887800071388","0.531363400048576","1","1","1","1","1","1","1","1","1"
"250038","img/neutralC/CFD-AF-241-141-N.jpg","img/neutralC/CFD-BM-231-155-N.jpg","img/neutralC/CFD-BF-238-190-N.jpg","1","1","1","1","1","1","0.531363400048576","0.527808499988168","0.472973099909723","1","1","1","1","1","1","1","1","1"
"250038","img/neutralC/CFD-BF-238-190-N.jpg","img/neutralC/CFD-AF-241-141-N.jpg","img/neutralC/CFD-BM-026-002-N.jpg","1","1","1","1","1","0","0.472973099909723","0.531363400048576","0.645502100000158","1","1","1","1","1","1","1","1","1"
"250038","img/neutralC/CFD-BM-026-002-N.jpg","img/neutralC/CFD-BF-238-190-N.jpg",NA,"1","1",NA,"0","1",NA,"0.645502100000158","0.472973099909723",NA,"1","1",NA,"1","1",NA,"1","1",NA
"250038","img/neutralC/CFD-LF-205-100-N.jpg",NA,"img/neutralC/CFD-LF-203-066-N.jpg","1",NA,"1","1",NA,"0","0.677528799977154",NA,"0.292085799970664","1",NA,"1","1",NA,"1","1",NA,"1"
"250038","img/neutralC/CFD-LF-203-066-N.jpg","img/neutralC/CFD-LF-205-100-N.jpg","img/neutralC/CFD-IM-651-308-N.jpg","1","1","0","0","1","0","0.292085799970664","0.677528799977154","0.286511500016786","1","1","1","1","1","1","1","1","1"
"250038","img/neutralC/CFD-IM-651-308-N.jpg","img/neutralC/CFD-LF-203-066-N.jpg","img/neutralC/CFD-LF-214-090-N.jpg","0","1","0","0","0","0","0.286511500016786","0.292085799970664","0.327998799970374","1","1","1","1","1","1","1","1","1"
"250038","img/neutralC/CFD-LF-214-090-N.jpg","img/neutralC/CFD-IM-651-308-N.jpg","img/neutralC/CFD-IM-684-008-N.jpg","0","0","1","0","0","1","0.327998799970374","0.286511500016786","0.567500500008464","1","1","1","1","1","1","1","1","1"
"250038","img/neutralC/CFD-IM-684-008-N.jpg","img/neutralC/CFD-LF-214-090-N.jpg","img/neutralC/CFD-BM-033-003-N.jpg","1","0","0","1","0","0","0.567500500008464","0.327998799970374","0.448533300077543","1","1","1","1","1","1","1","1","1"
"250038","img/neutralC/CFD-BM-033-003-N.jpg","img/neutralC/CFD-IM-684-008-N.jpg","img/neutralC/CFD-WM-011-002-N.jpg","0","1","0","0","1","0","0.448533300077543","0.567500500008464","0.386133300024085","1","1","1","1","1","1","1","1","1"
"250038","img/neutralC/CFD-WM-011-002-N.jpg","img/neutralC/CFD-BM-033-003-N.jpg","img/neutralC/CFD-BF-253-202-N.jpg","0","0","1","0","0","0","0.386133300024085","0.448533300077543","0.231243799906224","1","1","1","1","1","1","1","1","1"
"250038","img/neutralC/CFD-BF-253-202-N.jpg","img/neutralC/CFD-WM-011-002-N.jpg","img/neutralC/CFD-IF-710-016-N.jpg","1","0","1","0","0","0","0.231243799906224","0.386133300024085","0.577025600010529","1","1","1","1","1","1","1","1","1"
"250038","img/neutralC/CFD-IF-710-016-N.jpg","img/neutralC/CFD-BF-253-202-N.jpg","img/neutralC/CFD-LF-224-176-N.jpg","1","1","0","0","0","0","0.577025600010529","0.231243799906224","0.436674399999902","1","1","1","1","1","1","1","1","1"
"250038","img/neutralC/CFD-LF-224-176-N.jpg","img/neutralC/CFD-IF-710-016-N.jpg","img/neutralC/CFD-LM-215-247-N.jpg","0","1","0","0","0","0","0.436674399999902","0.577025600010529","0.450796599965543","1","1","1","1","1","1","1","1","1"
"250038","img/neutralC/CFD-LM-215-247-N.jpg","img/neutralC/CFD-LF-224-176-N.jpg","img/neutralC/CFD-AF-231-357-N.jpg","0","0","1","0","0","1","0.450796599965543","0.436674399999902","0.500693699927069","1","1","1","1","1","1","1","1","1"
"250038","img/neutralC/CFD-AF-231-357-N.jpg","img/neutralC/CFD-LM-215-247-N.jpg","img/neutralC/CFD-LM-218-183-N.jpg","1","0","0","1","0","1","0.500693699927069","0.450796599965543","0.351399000035599","1","1","1","1","1","1","1","1","1"
"250038","img/neutralC/CFD-LM-218-183-N.jpg","img/neutralC/CFD-AF-231-357-N.jpg","img/neutralC/CFD-WF-250-167-N.jpg","0","1","1","1","1","1","0.351399000035599","0.500693699927069","0.52046110003721","1","1","1","1","1","1","1","1","1"
"250038","img/neutralC/CFD-WF-250-167-N.jpg","img/neutralC/CFD-LM-218-183-N.jpg","img/neutralC/CFD-BF-029-031-N.jpg","1","0","1","1","1","1","0.52046110003721","0.351399000035599","0.499296699999832","1","1","1","1","1","1","1","1","1"
"250038","img/neutralC/CFD-BF-029-031-N.jpg","img/neutralC/CFD-WF-250-167-N.jpg","img/neutralC/CFD-BF-213-188-N.jpg","1","1","1","1","1","1","0.499296699999832","0.52046110003721","0.514009600039572","1","1","1","1","1","1","1","1","1"
"250038","img/neutralC/CFD-BF-213-188-N.jpg","img/neutralC/CFD-BF-029-031-N.jpg","img/neutralC/CFD-MF-337-026-N.jpg","1","1","1","1","1","1","0.514009600039572","0.499296699999832","0.545168800046667","1","1","1","1","1","1","1","1","1"
"250038","img/neutralC/CFD-MF-337-026-N.jpg","img/neutralC/CFD-BF-213-188-N.jpg","img/neutralC/CFD-BM-239-136-N.jpg","1","1","1","1","1","1","0.545168800046667","0.514009600039572","0.641854700050317","1","1","1","1","1","1","1","1","1"
"250038","img/neutralC/CFD-BM-239-136-N.jpg","img/neutralC/CFD-MF-337-026-N.jpg","img/neutralC/CFD-BM-041-035-N.jpg","1","1","0","1","1","0","0.641854700050317","0.545168800046667","0.567143499967642","1","1","1","1","1","1","1","1","1"
"250038","img/neutralC/CFD-BM-041-035-N.jpg","img/neutralC/CFD-BM-239-136-N.jpg","img/neutralC/CFD-BF-039-031-N.jpg","0","1","1","0","1","1","0.567143499967642","0.641854700050317","0.549099599942565","1","1","1","1","1","1","1","1","1"
"250038","img/neutralC/CFD-BF-039-031-N.jpg","img/neutralC/CFD-BM-041-035-N.jpg","img/neutralC/CFD-WM-021-001-N.jpg","1","0","1","1","0","1","0.549099599942565","0.567143499967642","0.578871299978346","1","1","1","1","1","1","1","1","1"
"250038","img/neutralC/CFD-WM-021-001-N.jpg","img/neutralC/CFD-BF-039-031-N.jpg","img/neutralC/CFD-MM-316-156-N.jpg","1","1","1","1","1","1","0.578871299978346","0.549099599942565","0.561050699907355","1","1","1","1","1","1","1","1","1"
"250038","img/neutralC/CFD-MM-316-156-N.jpg","img/neutralC/CFD-WM-021-001-N.jpg","img/neutralC/CFD-IF-634-382-N.jpg","1","1","1","1","1","1","0.561050699907355","0.578871299978346","0.501369399949908","1","1","1","1","1","1","1","1","1"
"250038","img/neutralC/CFD-IF-634-382-N.jpg","img/neutralC/CFD-MM-316-156-N.jpg","img/neutralC/CFD-AM-212-050-N.jpg","1","1","1","1","1","1","0.501369399949908","0.561050699907355","0.536730799940415","1","1","1","1","1","1","1","1","1"
"250038","img/neutralC/CFD-AM-212-050-N.jpg","img/neutralC/CFD-IF-634-382-N.jpg","img/neutralC/CFD-WF-213-031-N.jpg","1","1","1","1","1","1","0.536730799940415","0.501369399949908","0.598252699943259","1","1","1","1","1","1","1","1","1"
"250038","img/neutralC/CFD-WF-213-031-N.jpg","img/neutralC/CFD-AM-212-050-N.jpg","img/neutralC/CFD-IF-693-172-N.jpg","1","1","0","1","1","0","0.598252699943259","0.536730799940415","0.598951800027862","1","1","1","1","1","1","1","1","1"
"250038","img/neutralC/CFD-IF-693-172-N.jpg","img/neutralC/CFD-WF-213-031-N.jpg","img/neutralC/CFD-BM-019-002-N.jpg","0","1","1","0","1","0","0.598951800027862","0.598252699943259","0.655203699949197","1","1","1","1","1","1","1","1","1"
"250038","img/neutralC/CFD-BM-019-002-N.jpg","img/neutralC/CFD-IF-693-172-N.jpg","img/neutralC/CFD-WM-041-021-N.jpg","1","0","1","0","0","0","0.655203699949197","0.598951800027862","0.54704460001085","1","1","1","1","1","1","1","1","1"
"250038","img/neutralC/CFD-WM-041-021-N.jpg","img/neutralC/CFD-BM-019-002-N.jpg","img/neutralC/CFD-WF-224-099-N.jpg","1","1","1","0","0","0","0.54704460001085","0.655203699949197","0.623887500027195","1","1","1","1","1","1","1","1","1"
"250038","img/neutralC/CFD-WF-224-099-N.jpg","img/neutralC/CFD-WM-041-021-N.jpg","img/neutralC/CFD-BF-205-141-N.jpg","1","1","1","0","0","0","0.623887500027195","0.54704460001085","0.521595800062642","1","1","1","1","1","1","1","1","1"
"250038","img/neutralC/CFD-BF-205-141-N.jpg","img/neutralC/CFD-WF-224-099-N.jpg","img/neutralC/CFD-AM-201-076-N.jpg","1","1","1","0","0","1","0.521595800062642","0.623887500027195","0.565893199993297","1","1","1","1","1","1","1","1","1"
"250038","img/neutralC/CFD-AM-201-076-N.jpg","img/neutralC/CFD-BF-205-141-N.jpg","img/neutralC/CFD-LF-230-203-N.jpg","1","1","0","1","0","0","0.565893199993297","0.521595800062642","1.17511800001375","1","1","1","1","1","1","1","1","1"
"250038","img/neutralC/CFD-LF-230-203-N.jpg","img/neutralC/CFD-AM-201-076-N.jpg",NA,"0","1",NA,"0","1",NA,"1.17511800001375","0.565893199993297",NA,"1","1",NA,"1","1",NA,"1","1",NA
