"participant_id","current_trial_face","pre_trial_face","post_trial_face","current_trial_accuracy","pre_trial_accuracy","post_trial_accuracy","current_trial_congruency","pre_trial_congruency","post_trial_congruency","current_trial_rt","pre_trial_rt","post_trial_rt","current_trial_responded","pre_trial_responded","post_trial_responded","current_trial_legitResponse","pre_trial_legitResponse","post_trial_legitResponse","current_trial_resp_nums","pre_trial_resp_nums","post_trial_resp_nums"
"250026","img/neutralC/CFD-AM-242-176-N.jpg",NA,"img/neutralC/CFD-BF-226-119-N.jpg","1",NA,"1","1",NA,"1","0.813965999986976",NA,"0.471344400022645","1",NA,"1","1",NA,"1","1",NA,"1"
"250026","img/neutralC/CFD-BF-226-119-N.jpg","img/neutralC/CFD-AM-242-176-N.jpg","img/neutralC/CFD-IM-703-182-N.jpg","1","1","1","1","1","1","0.471344400022645","0.813965999986976","0.508232899999712","1","1","1","1","1","1","1","1","1"
"250026","img/neutralC/CFD-IM-703-182-N.jpg","img/neutralC/CFD-BF-226-119-N.jpg","img/neutralC/CFD-LM-237-264-N.jpg","1","1","1","1","1","0","0.508232899999712","0.471344400022645","0.590911799983587","1","1","1","1","1","1","1","1","1"
"250026","img/neutralC/CFD-LM-237-264-N.jpg","img/neutralC/CFD-IM-703-182-N.jpg","img/neutralC/CFD-LF-220-120-N.jpg","1","1","1","0","1","1","0.590911799983587","0.508232899999712","0.403581899998244","1","1","1","1","1","1","1","1","1"
"250026","img/neutralC/CFD-LF-220-120-N.jpg","img/neutralC/CFD-LM-237-264-N.jpg","img/neutralC/CFD-IF-650-315-N.jpg","1","1","1","1","0","0","0.403581899998244","0.590911799983587","0.477228000003379","1","1","1","1","1","1","1","1","1"
"250026","img/neutralC/CFD-IF-650-315-N.jpg","img/neutralC/CFD-LF-220-120-N.jpg","img/neutralC/CFD-MF-352-054-N.jpg","1","1","1","0","1","0","0.477228000003379","0.403581899998244","0.520611000014469","1","1","1","1","1","1","1","1","1"
"250026","img/neutralC/CFD-MF-352-054-N.jpg","img/neutralC/CFD-IF-650-315-N.jpg","img/neutralC/CFD-WM-004-010-N.jpg","1","1","1","0","0","0","0.520611000014469","0.477228000003379","0.656986100017093","1","1","1","1","1","1","1","1","1"
"250026","img/neutralC/CFD-WM-004-010-N.jpg","img/neutralC/CFD-MF-352-054-N.jpg","img/neutralC/CFD-IM-671-601-N.jpg","1","1","1","0","0","0","0.656986100017093","0.520611000014469","0.477496400009841","1","1","1","1","1","1","1","1","1"
"250026","img/neutralC/CFD-IM-671-601-N.jpg","img/neutralC/CFD-WM-004-010-N.jpg","img/neutralC/CFD-BF-232-187-N.jpg","1","1","1","0","0","1","0.477496400009841","0.656986100017093","0.749341999995522","1","1","1","1","1","1","1","1","1"
"250026","img/neutralC/CFD-BF-232-187-N.jpg","img/neutralC/CFD-IM-671-601-N.jpg","img/neutralC/CFD-MF-359-019-N.jpg","1","1","1","1","0","0","0.749341999995522","0.477496400009841","0.518334600026719","1","1","1","1","1","1","1","1","1"
"250026","img/neutralC/CFD-MF-359-019-N.jpg","img/neutralC/CFD-BF-232-187-N.jpg","img/neutralC/CFD-BM-225-154-N.jpg","1","1","1","0","1","1","0.518334600026719","0.749341999995522","0.529804799996782","1","1","1","1","1","1","1","1","1"
"250026","img/neutralC/CFD-BM-225-154-N.jpg","img/neutralC/CFD-MF-359-019-N.jpg","img/neutralC/CFD-BF-229-179-N.jpg","1","1","1","1","0","0","0.529804799996782","0.518334600026719","0.580179499986116","1","1","1","1","1","1","1","1","1"
"250026","img/neutralC/CFD-BF-229-179-N.jpg","img/neutralC/CFD-BM-225-154-N.jpg","img/neutralC/CFD-IM-743-006-N.jpg","1","1","1","0","1","1","0.580179499986116","0.529804799996782","0.417678800004069","1","1","1","1","1","1","1","1","1"
"250026","img/neutralC/CFD-IM-743-006-N.jpg","img/neutralC/CFD-BF-229-179-N.jpg","img/neutralC/CFD-WM-219-008-N.jpg","1","1","1","1","0","0","0.417678800004069","0.580179499986116","0.504827200027648","1","1","1","1","1","1","1","1","1"
"250026","img/neutralC/CFD-WM-219-008-N.jpg","img/neutralC/CFD-IM-743-006-N.jpg","img/neutralC/CFD-BF-038-037-N.jpg","1","1","1","0","1","1","0.504827200027648","0.417678800004069","0.529789599997457","1","1","1","1","1","1","1","1","1"
"250026","img/neutralC/CFD-BF-038-037-N.jpg","img/neutralC/CFD-WM-219-008-N.jpg","img/neutralC/CFD-WM-033-025-N.jpg","1","1","1","1","0","1","0.529789599997457","0.504827200027648","0.519551799981855","1","1","1","1","1","1","1","1","1"
"250026","img/neutralC/CFD-WM-033-025-N.jpg","img/neutralC/CFD-BF-038-037-N.jpg","img/neutralC/CFD-IM-616-214-N.jpg","1","1","1","1","1","0","0.519551799981855","0.529789599997457","0.646048100024927","1","1","1","1","1","1","1","1","1"
"250026","img/neutralC/CFD-IM-616-214-N.jpg","img/neutralC/CFD-WM-033-025-N.jpg","img/neutralC/CFD-WF-001-003-N.jpg","1","1","1","0","1","1","0.646048100024927","0.519551799981855","0.521432600042317","1","1","1","1","1","1","1","1","1"
"250026","img/neutralC/CFD-WF-001-003-N.jpg","img/neutralC/CFD-IM-616-214-N.jpg","img/neutralC/CFD-BM-253-004-N.jpg","1","1","1","1","0","1","0.521432600042317","0.646048100024927","0.577025900012814","1","1","1","1","1","1","1","1","1"
"250026","img/neutralC/CFD-BM-253-004-N.jpg","img/neutralC/CFD-WF-001-003-N.jpg","img/neutralC/CFD-WF-036-023-N.jpg","1","1","1","1","1","0","0.577025900012814","0.521432600042317","0.56548119999934","1","1","1","1","1","1","1","1","1"
"250026","img/neutralC/CFD-WF-036-023-N.jpg","img/neutralC/CFD-BM-253-004-N.jpg","img/neutralC/CFD-WF-214-122-N.jpg","1","1","1","0","1","1","0.56548119999934","0.577025900012814","0.509248499991372","1","1","1","1","1","1","1","1","1"
"250026","img/neutralC/CFD-WF-214-122-N.jpg","img/neutralC/CFD-WF-036-023-N.jpg","img/neutralC/CFD-MF-333-012-N.jpg","1","1","1","1","0","0","0.509248499991372","0.56548119999934","0.679204899992328","1","1","1","1","1","1","1","1","1"
"250026","img/neutralC/CFD-MF-333-012-N.jpg","img/neutralC/CFD-WF-214-122-N.jpg","img/neutralC/CFD-LF-218-072-N.jpg","1","1","1","0","1","0","0.679204899992328","0.509248499991372","0.573505899985321","1","1","1","1","1","1","1","1","1"
"250026","img/neutralC/CFD-LF-218-072-N.jpg","img/neutralC/CFD-MF-333-012-N.jpg","img/neutralC/CFD-LM-228-188-N.jpg","1","1","1","0","0","1","0.573505899985321","0.679204899992328","0.663200900016818","1","1","1","1","1","1","1","1","1"
"250026","img/neutralC/CFD-LM-228-188-N.jpg","img/neutralC/CFD-LF-218-072-N.jpg","img/neutralC/CFD-WM-020-001-N.jpg","1","1","1","1","0","1","0.663200900016818","0.573505899985321","0.459620999987237","1","1","1","1","1","1","1","1","1"
"250026","img/neutralC/CFD-WM-020-001-N.jpg","img/neutralC/CFD-LM-228-188-N.jpg","img/neutralC/CFD-IM-645-001-N.jpg","1","1","1","1","1","0","0.459620999987237","0.663200900016818","0.517547700030264","1","1","1","1","1","1","1","1","1"
"250026","img/neutralC/CFD-IM-645-001-N.jpg","img/neutralC/CFD-WM-020-001-N.jpg","img/neutralC/CFD-WF-200-099-N.jpg","1","1","1","0","1","0","0.517547700030264","0.459620999987237","0.593137299991213","1","1","1","1","1","1","1","1","1"
"250026","img/neutralC/CFD-WF-200-099-N.jpg","img/neutralC/CFD-IM-645-001-N.jpg","img/neutralC/CFD-WM-235-147-N.jpg","1","1","1","0","0","0","0.593137299991213","0.517547700030264","0.588297700043768","1","1","1","1","1","1","1","1","1"
"250026","img/neutralC/CFD-WM-235-147-N.jpg","img/neutralC/CFD-WF-200-099-N.jpg","img/neutralC/CFD-AM-251-124-N.jpg","1","1","1","0","0","0","0.588297700043768","0.593137299991213","0.55029480002122","1","1","1","1","1","1","1","1","1"
"250026","img/neutralC/CFD-AM-251-124-N.jpg","img/neutralC/CFD-WM-235-147-N.jpg","img/neutralC/CFD-AM-211-052-N.jpg","1","1","1","0","0","1","0.55029480002122","0.588297700043768","0.493966600042768","1","1","1","1","1","1","1","1","1"
"250026","img/neutralC/CFD-AM-211-052-N.jpg","img/neutralC/CFD-AM-251-124-N.jpg","img/neutralC/CFD-IF-623-129-N.jpg","1","1","1","1","0","1","0.493966600042768","0.55029480002122","0.51981699996395","1","1","1","1","1","1","1","1","1"
"250026","img/neutralC/CFD-IF-623-129-N.jpg","img/neutralC/CFD-AM-211-052-N.jpg",NA,"1","1",NA,"1","1",NA,"0.51981699996395","0.493966600042768",NA,"1","1",NA,"1","1",NA,"1","1",NA
"250026","img/neutralC/CFD-WM-258-125-N.jpg",NA,"img/neutralC/CFD-IM-617-174-N.jpg","1",NA,"1","0",NA,"0","0.661497500026599",NA,"0.529931300028693","1",NA,"1","1",NA,"1","1",NA,"1"
"250026","img/neutralC/CFD-IM-617-174-N.jpg","img/neutralC/CFD-WM-258-125-N.jpg","img/neutralC/CFD-BM-005-003-N.jpg","1","1","1","0","0","1","0.529931300028693","0.661497500026599","0.327109300007578","1","1","1","1","1","1","1","1","1"
"250026","img/neutralC/CFD-BM-005-003-N.jpg","img/neutralC/CFD-IM-617-174-N.jpg","img/neutralC/CFD-LM-219-295-N.jpg","1","1","1","1","0","1","0.327109300007578","0.529931300028693","0.381035800033715","1","1","1","1","1","1","1","1","2"
"250026","img/neutralC/CFD-LM-219-295-N.jpg","img/neutralC/CFD-BM-005-003-N.jpg","img/neutralC/CFD-LF-245-166-N.jpg","1","1","1","1","1","1","0.381035800033715","0.327109300007578","0.350080399948638","1","1","1","1","1","1","2","1","1"
"250026","img/neutralC/CFD-LF-245-166-N.jpg","img/neutralC/CFD-LM-219-295-N.jpg","img/neutralC/CFD-AF-241-141-N.jpg","1","1","1","1","1","1","0.350080399948638","0.381035800033715","0.342275099945255","1","1","1","1","1","1","1","2","1"
"250026","img/neutralC/CFD-AF-241-141-N.jpg","img/neutralC/CFD-LF-245-166-N.jpg","img/neutralC/CFD-AF-206-079-N.jpg","1","1","1","1","1","1","0.342275099945255","0.350080399948638","0.413724699988961","1","1","1","1","1","1","1","1","1"
"250026","img/neutralC/CFD-AF-206-079-N.jpg","img/neutralC/CFD-AF-241-141-N.jpg","img/neutralC/CFD-BF-238-190-N.jpg","1","1","1","1","1","1","0.413724699988961","0.342275099945255","0.393897300004028","1","1","1","1","1","1","1","1","1"
"250026","img/neutralC/CFD-BF-238-190-N.jpg","img/neutralC/CFD-AF-206-079-N.jpg","img/neutralC/CFD-BM-026-002-N.jpg","1","1","1","1","1","0","0.393897300004028","0.413724699988961","0.542910600022878","1","1","1","1","1","1","1","1","1"
"250026","img/neutralC/CFD-BM-026-002-N.jpg","img/neutralC/CFD-BF-238-190-N.jpg","img/neutralC/CFD-LF-250-169-N.jpg","1","1","1","0","1","1","0.542910600022878","0.393897300004028","0.404680799983907","1","1","1","1","1","1","1","1","1"
"250026","img/neutralC/CFD-LF-250-169-N.jpg","img/neutralC/CFD-BM-026-002-N.jpg","img/neutralC/CFD-LM-226-175-N.jpg","1","1","1","1","0","0","0.404680799983907","0.542910600022878","0.397875999973621","1","1","1","1","1","1","1","1","1"
"250026","img/neutralC/CFD-LM-226-175-N.jpg","img/neutralC/CFD-LF-250-169-N.jpg","img/neutralC/CFD-BM-212-117-N.jpg","1","1","1","0","1","0","0.397875999973621","0.404680799983907","0.401445000024978","1","1","1","1","1","1","1","1","1"
"250026","img/neutralC/CFD-BM-212-117-N.jpg","img/neutralC/CFD-LM-226-175-N.jpg","img/neutralC/CFD-LF-247-051-N.jpg","1","1","1","0","0","1","0.401445000024978","0.397875999973621","0.369333399983589","1","1","1","1","1","1","1","1","1"
"250026","img/neutralC/CFD-LF-247-051-N.jpg","img/neutralC/CFD-BM-212-117-N.jpg","img/neutralC/CFD-WM-017-002-N.jpg","1","1","1","1","0","0","0.369333399983589","0.401445000024978","0.457019099965692","1","1","1","1","1","1","1","1","1"
"250026","img/neutralC/CFD-WM-017-002-N.jpg","img/neutralC/CFD-LF-247-051-N.jpg","img/neutralC/CFD-IF-620-218-N.jpg","1","1","1","0","1","0","0.457019099965692","0.369333399983589","0.461087700037751","1","1","1","1","1","1","1","1","1"
"250026","img/neutralC/CFD-IF-620-218-N.jpg","img/neutralC/CFD-WM-017-002-N.jpg","img/neutralC/CFD-WM-242-011-N.jpg","1","1","1","0","0","0","0.461087700037751","0.457019099965692","0.527043600042816","1","1","1","1","1","1","1","1","1"
"250026","img/neutralC/CFD-WM-242-011-N.jpg","img/neutralC/CFD-IF-620-218-N.jpg","img/neutralC/CFD-IM-727-195-N.jpg","1","1","1","0","0","1","0.527043600042816","0.461087700037751","0.33430440002121","1","1","1","1","1","1","1","1","1"
"250026","img/neutralC/CFD-IM-727-195-N.jpg","img/neutralC/CFD-WM-242-011-N.jpg","img/neutralC/CFD-LF-242-121-N.jpg","1","1","1","1","0","0","0.33430440002121","0.527043600042816","0.393042400013655","1","1","1","1","1","1","1","1","1"
"250026","img/neutralC/CFD-LF-242-121-N.jpg","img/neutralC/CFD-IM-727-195-N.jpg","img/neutralC/CFD-BF-033-028-N.jpg","1","1","1","0","1","0","0.393042400013655","0.33430440002121","0.478142199979629","1","1","1","1","1","1","1","1","1"
"250026","img/neutralC/CFD-BF-033-028-N.jpg","img/neutralC/CFD-LF-242-121-N.jpg","img/neutralC/CFD-AF-202-122-N.jpg","1","1","1","0","0","1","0.478142199979629","0.393042400013655","0.40774200001033","1","1","1","1","1","1","1","1","1"
"250026","img/neutralC/CFD-AF-202-122-N.jpg","img/neutralC/CFD-BF-033-028-N.jpg","img/neutralC/CFD-IM-638-250-1-N.jpg","1","1","1","1","0","1","0.40774200001033","0.478142199979629","0.495701100036968","1","1","1","1","1","1","1","1","1"
"250026","img/neutralC/CFD-IM-638-250-1-N.jpg","img/neutralC/CFD-AF-202-122-N.jpg","img/neutralC/CFD-BM-231-155-N.jpg","1","1","1","1","1","1","0.495701100036968","0.40774200001033","0.350667799997609","1","1","1","1","1","1","1","1","1"
"250026","img/neutralC/CFD-BM-231-155-N.jpg","img/neutralC/CFD-IM-638-250-1-N.jpg","img/neutralC/CFD-LM-233-171-N.jpg","1","1","1","1","1","0","0.350667799997609","0.495701100036968","0.444201600039378","1","1","1","1","1","1","1","1","1"
"250026","img/neutralC/CFD-LM-233-171-N.jpg","img/neutralC/CFD-BM-231-155-N.jpg","img/neutralC/CFD-WM-227-099-N.jpg","1","1","1","0","1","1","0.444201600039378","0.350667799997609","0.388359599979594","1","1","1","1","1","1","1","1","1"
"250026","img/neutralC/CFD-WM-227-099-N.jpg","img/neutralC/CFD-LM-233-171-N.jpg","img/neutralC/CFD-IM-653-008-N.jpg","1","1","1","1","0","0","0.388359599979594","0.444201600039378","0.53138110000873","1","1","1","1","1","1","1","1","1"
"250026","img/neutralC/CFD-IM-653-008-N.jpg","img/neutralC/CFD-WM-227-099-N.jpg","img/neutralC/CFD-IF-665-015-N.jpg","1","1","0","0","1","0","0.53138110000873","0.388359599979594","0.31397019996075","1","1","1","1","1","1","1","1","1"
"250026","img/neutralC/CFD-IF-665-015-N.jpg","img/neutralC/CFD-IM-653-008-N.jpg","img/neutralC/CFD-BF-010-001-N.jpg","0","1","1","0","0","1","0.31397019996075","0.53138110000873","0.41775039996719","1","1","1","1","1","1","1","1","1"
"250026","img/neutralC/CFD-BF-010-001-N.jpg","img/neutralC/CFD-IF-665-015-N.jpg","img/neutralC/CFD-MF-313-002-N.jpg","1","0","1","1","0","0","0.41775039996719","0.31397019996075","0.503206599969417","1","1","1","1","1","1","1","1","1"
"250026","img/neutralC/CFD-MF-313-002-N.jpg","img/neutralC/CFD-BF-010-001-N.jpg","img/neutralC/CFD-BM-018-001-N.jpg","1","1","1","0","1","1","0.503206599969417","0.41775039996719","0.377195600012783","1","1","1","1","1","1","1","1","1"
"250026","img/neutralC/CFD-BM-018-001-N.jpg","img/neutralC/CFD-MF-313-002-N.jpg","img/neutralC/CFD-IM-657-308-N.jpg","1","1","1","1","0","0","0.377195600012783","0.503206599969417","0.48860149999382","1","1","1","1","1","1","1","1","1"
"250026","img/neutralC/CFD-IM-657-308-N.jpg","img/neutralC/CFD-BM-018-001-N.jpg","img/neutralC/CFD-WF-209-052-N.jpg","1","1","1","0","1","1","0.48860149999382","0.377195600012783","0.483548399992287","1","1","1","1","1","1","1","1","1"
"250026","img/neutralC/CFD-WF-209-052-N.jpg","img/neutralC/CFD-IM-657-308-N.jpg","img/neutralC/CFD-IM-686-097-N.jpg","1","1","1","1","0","0","0.483548399992287","0.48860149999382","0.611852400004864","1","1","1","1","1","1","1","1","1"
"250026","img/neutralC/CFD-IM-686-097-N.jpg","img/neutralC/CFD-WF-209-052-N.jpg",NA,"1","1",NA,"0","1",NA,"0.611852400004864","0.483548399992287",NA,"1","1",NA,"1","1",NA,"1","1",NA
"250026","img/neutralC/CFD-AF-229-160-N.jpg",NA,"img/neutralC/CFD-WM-213-076-N.jpg","0",NA,"1","0",NA,"1","1.08109429996694",NA,"0.497078999993391","1",NA,"1","1",NA,"1","1",NA,"1"
"250026","img/neutralC/CFD-WM-213-076-N.jpg","img/neutralC/CFD-AF-229-160-N.jpg","img/neutralC/CFD-LF-226-174-N.jpg","1","0","1","1","0","0","0.497078999993391","1.08109429996694","0.542704400024377","1","1","1","1","1","1","1","1","1"
"250026","img/neutralC/CFD-LF-226-174-N.jpg","img/neutralC/CFD-WM-213-076-N.jpg","img/neutralC/CFD-WF-008-002-N.jpg","1","1","1","0","1","1","0.542704400024377","0.497078999993391","0.386602699989453","1","1","1","1","1","1","1","1","1"
"250026","img/neutralC/CFD-WF-008-002-N.jpg","img/neutralC/CFD-LF-226-174-N.jpg","img/neutralC/CFD-LF-201-035-N.jpg","1","1","1","1","0","1","0.386602699989453","0.542704400024377","0.420922600023914","1","1","1","1","1","1","1","1","1"
"250026","img/neutralC/CFD-LF-201-035-N.jpg","img/neutralC/CFD-WF-008-002-N.jpg","img/neutralC/CFD-IF-608-390-N.jpg","1","1","1","1","1","1","0.420922600023914","0.386602699989453","0.354161599942017","1","1","1","1","1","1","1","1","1"
"250026","img/neutralC/CFD-IF-608-390-N.jpg","img/neutralC/CFD-LF-201-035-N.jpg","img/neutralC/CFD-AM-236-090-N.jpg","1","1","1","1","1","1","0.354161599942017","0.420922600023914","0.394893399963621","1","1","1","1","1","1","1","1","1"
"250026","img/neutralC/CFD-AM-236-090-N.jpg","img/neutralC/CFD-IF-608-390-N.jpg","img/neutralC/CFD-IM-637-007-N.jpg","1","1","1","1","1","0","0.394893399963621","0.354161599942017","0.326907399983611","1","1","1","1","1","1","1","1","1"
"250026","img/neutralC/CFD-IM-637-007-N.jpg","img/neutralC/CFD-AM-236-090-N.jpg","img/neutralC/CFD-IM-685-004-N.jpg","1","1","1","0","1","1","0.326907399983611","0.394893399963621","0.348096199973952","1","1","1","1","1","1","1","1","1"
"250026","img/neutralC/CFD-IM-685-004-N.jpg","img/neutralC/CFD-IM-637-007-N.jpg","img/neutralC/CFD-BF-043-003-N.jpg","1","1","1","1","0","0","0.348096199973952","0.326907399983611","0.587138800008688","1","1","1","1","1","1","1","1","1"
"250026","img/neutralC/CFD-BF-043-003-N.jpg","img/neutralC/CFD-IM-685-004-N.jpg","img/neutralC/CFD-IF-619-197-N.jpg","1","1","1","0","1","0","0.587138800008688","0.348096199973952","0.435915500042029","1","1","1","1","1","1","1","1","1"
"250026","img/neutralC/CFD-IF-619-197-N.jpg","img/neutralC/CFD-BF-043-003-N.jpg","img/neutralC/CFD-WF-212-050-N.jpg","1","1","1","0","0","0","0.435915500042029","0.587138800008688","0.489028199983295","1","1","1","1","1","1","1","1","1"
"250026","img/neutralC/CFD-WF-212-050-N.jpg","img/neutralC/CFD-IF-619-197-N.jpg","img/neutralC/CFD-MF-327-002-N.jpg","1","1","1","0","0","0","0.489028199983295","0.435915500042029","0.423173899995163","1","1","1","1","1","1","1","1","1"
"250026","img/neutralC/CFD-MF-327-002-N.jpg","img/neutralC/CFD-WF-212-050-N.jpg","img/neutralC/CFD-BF-224-002-N.jpg","1","1","1","0","0","1","0.423173899995163","0.489028199983295","0.427963900030591","1","1","1","1","1","1","1","1","2"
"250026","img/neutralC/CFD-BF-224-002-N.jpg","img/neutralC/CFD-MF-327-002-N.jpg","img/neutralC/CFD-WF-217-085-N.jpg","1","1","1","1","0","1","0.427963900030591","0.423173899995163","0.474730999965686","1","1","1","1","1","1","2","1","2"
"250026","img/neutralC/CFD-WF-217-085-N.jpg","img/neutralC/CFD-BF-224-002-N.jpg","img/neutralC/CFD-LM-217-162-N.jpg","1","1","1","1","1","0","0.474730999965686","0.427963900030591","0.591514999978244","1","1","1","1","1","1","2","2","1"
"250026","img/neutralC/CFD-LM-217-162-N.jpg","img/neutralC/CFD-WF-217-085-N.jpg","img/neutralC/CFD-WF-012-002-N.jpg","1","1","1","0","1","1","0.591514999978244","0.474730999965686","0.416567000036594","1","1","1","1","1","1","1","2","1"
"250026","img/neutralC/CFD-WF-012-002-N.jpg","img/neutralC/CFD-LM-217-162-N.jpg","img/neutralC/CFD-IM-604-014-N.jpg","1","1","1","1","0","0","0.416567000036594","0.591514999978244","0.467096300038975","1","1","1","1","1","1","1","1","1"
"250026","img/neutralC/CFD-IM-604-014-N.jpg","img/neutralC/CFD-WF-012-002-N.jpg","img/neutralC/CFD-WM-232-070-N.jpg","1","1","1","0","1","0","0.467096300038975","0.416567000036594","0.481180999951903","1","1","1","1","1","1","1","1","1"
"250026","img/neutralC/CFD-WM-232-070-N.jpg","img/neutralC/CFD-IM-604-014-N.jpg","img/neutralC/CFD-AF-215-70-N.jpg","1","1","1","0","0","0","0.481180999951903","0.467096300038975","0.480282399978023","1","1","1","1","1","1","1","1","1"
"250026","img/neutralC/CFD-AF-215-70-N.jpg","img/neutralC/CFD-WM-232-070-N.jpg","img/neutralC/CFD-IM-709-103-N.jpg","1","1","1","0","0","0","0.480282399978023","0.481180999951903","0.564669699990191","1","1","1","1","1","1","1","1","1"
"250026","img/neutralC/CFD-IM-709-103-N.jpg","img/neutralC/CFD-AF-215-70-N.jpg","img/neutralC/CFD-AF-254-167-N.jpg","1","1","1","0","0","1","0.564669699990191","0.480282399978023","0.530141099996399","1","1","1","1","1","1","1","1","1"
"250026","img/neutralC/CFD-AF-254-167-N.jpg","img/neutralC/CFD-IM-709-103-N.jpg","img/neutralC/CFD-BM-243-218-N.jpg","1","1","1","1","0","1","0.530141099996399","0.564669699990191","0.434702400001697","1","1","1","1","1","1","1","1","1"
"250026","img/neutralC/CFD-BM-243-218-N.jpg","img/neutralC/CFD-AF-254-167-N.jpg","img/neutralC/CFD-IM-675-015-N.jpg","1","1","1","1","1","1","0.434702400001697","0.530141099996399","0.449206400022376","1","1","1","1","1","1","1","1","1"
"250026","img/neutralC/CFD-IM-675-015-N.jpg","img/neutralC/CFD-BM-243-218-N.jpg","img/neutralC/CFD-WM-024-015-N.jpg","1","1","1","1","1","1","0.449206400022376","0.434702400001697","0.514109899988398","1","1","1","1","1","1","1","1","1"
"250026","img/neutralC/CFD-WM-024-015-N.jpg","img/neutralC/CFD-IM-675-015-N.jpg","img/neutralC/CFD-MF-340-026-N.jpg","1","1","1","1","1","1","0.514109899988398","0.449206400022376","0.469472399970982","1","1","1","1","1","1","1","1","1"
"250026","img/neutralC/CFD-MF-340-026-N.jpg","img/neutralC/CFD-WM-024-015-N.jpg","img/neutralC/CFD-MF-300-002-N.jpg","1","1","1","1","1","0","0.469472399970982","0.514109899988398","1.62433389999205","1","1","1","1","1","1","1","1","1"
"250026","img/neutralC/CFD-MF-300-002-N.jpg","img/neutralC/CFD-MF-340-026-N.jpg","img/neutralC/CFD-MF-329-001-N.jpg","1","1","1","0","1","0","1.62433389999205","0.469472399970982","0.664372199971694","1","1","1","1","1","1","1","1","1"
"250026","img/neutralC/CFD-MF-329-001-N.jpg","img/neutralC/CFD-MF-300-002-N.jpg","img/neutralC/CFD-BM-039-029-N.jpg","1","1","1","0","0","1","0.664372199971694","1.62433389999205","0.363515200035181","1","1","1","1","1","1","1","1","1"
"250026","img/neutralC/CFD-BM-039-029-N.jpg","img/neutralC/CFD-MF-329-001-N.jpg","img/neutralC/CFD-BF-051-035-N.jpg","1","1","1","1","0","0","0.363515200035181","0.664372199971694","0.702826900000218","1","1","1","1","1","1","1","1","1"
"250026","img/neutralC/CFD-BF-051-035-N.jpg","img/neutralC/CFD-BM-039-029-N.jpg","img/neutralC/CFD-MM-304-002-N.jpg","1","1","1","0","1","1","0.702826900000218","0.363515200035181","0.491037400031928","1","1","1","1","1","1","1","1","1"
"250026","img/neutralC/CFD-MM-304-002-N.jpg","img/neutralC/CFD-BF-051-035-N.jpg","img/neutralC/CFD-WF-248-129-N.jpg","1","1","1","1","0","0","0.491037400031928","0.702826900000218","0.563451400026679","1","1","1","1","1","1","1","1","1"
"250026","img/neutralC/CFD-WF-248-129-N.jpg","img/neutralC/CFD-MM-304-002-N.jpg",NA,"1","1",NA,"0","1",NA,"0.563451400026679","0.491037400031928",NA,"1","1",NA,"1","1",NA,"1","1",NA
"250026","img/neutralC/CFD-IM-726-248-N.jpg",NA,"img/neutralC/CFD-BM-207-024-N.jpg","1",NA,"1","0",NA,"1","0.65586619998794",NA,"0.475264400010929","1",NA,"1","1",NA,"1","1",NA,"1"
"250026","img/neutralC/CFD-BM-207-024-N.jpg","img/neutralC/CFD-IM-726-248-N.jpg","img/neutralC/CFD-IF-677-452-1-N.jpg","1","1","1","1","0","1","0.475264400010929","0.65586619998794","0.440491399960592","1","1","1","1","1","1","1","1","1"
"250026","img/neutralC/CFD-IF-677-452-1-N.jpg","img/neutralC/CFD-BM-207-024-N.jpg","img/neutralC/CFD-WF-029-002-N.jpg","1","1","1","1","1","0","0.440491399960592","0.475264400010929","0.562681499985047","1","1","1","1","1","1","1","1","1"
"250026","img/neutralC/CFD-WF-029-002-N.jpg","img/neutralC/CFD-IF-677-452-1-N.jpg","img/neutralC/CFD-IM-721-341-N.jpg","1","1","1","0","1","1","0.562681499985047","0.440491399960592","0.420638300012797","1","1","1","1","1","1","1","1","1"
"250026","img/neutralC/CFD-IM-721-341-N.jpg","img/neutralC/CFD-WF-029-002-N.jpg","img/neutralC/CFD-IF-742-103-N.jpg","1","1","1","1","0","1","0.420638300012797","0.562681499985047","0.411946800013539","1","1","1","1","1","1","1","1","1"
"250026","img/neutralC/CFD-IF-742-103-N.jpg","img/neutralC/CFD-IM-721-341-N.jpg","img/neutralC/CFD-WM-248-036-N.jpg","1","1","1","1","1","1","0.411946800013539","0.420638300012797","0.450489700015169","1","1","1","1","1","1","1","1","1"
"250026","img/neutralC/CFD-WM-248-036-N.jpg","img/neutralC/CFD-IF-742-103-N.jpg","img/neutralC/CFD-IM-696-001-N.jpg","1","1","1","1","1","0","0.450489700015169","0.411946800013539","0.549748199991882","1","1","1","1","1","1","1","1","1"
"250026","img/neutralC/CFD-IM-696-001-N.jpg","img/neutralC/CFD-WM-248-036-N.jpg","img/neutralC/CFD-IM-707-105-N.jpg","1","1","1","0","1","1","0.549748199991882","0.450489700015169","0.455955599958543","1","1","1","1","1","1","1","1","1"
"250026","img/neutralC/CFD-IM-707-105-N.jpg","img/neutralC/CFD-IM-696-001-N.jpg","img/neutralC/CFD-BF-027-002-N.jpg","1","1","1","1","0","1","0.455955599958543","0.549748199991882","0.479749399994034","1","1","1","1","1","1","1","1","1"
"250026","img/neutralC/CFD-BF-027-002-N.jpg","img/neutralC/CFD-IM-707-105-N.jpg","img/neutralC/CFD-BF-036-027-N.jpg","1","1","1","1","1","0","0.479749399994034","0.455955599958543","0.503860800003167","1","1","1","1","1","1","1","1","1"
"250026","img/neutralC/CFD-BF-036-027-N.jpg","img/neutralC/CFD-BF-027-002-N.jpg","img/neutralC/CFD-BF-044-034-N.jpg","1","1","1","0","1","0","0.503860800003167","0.479749399994034","0.649830900016241","1","1","1","1","1","1","1","1","1"
"250026","img/neutralC/CFD-BF-044-034-N.jpg","img/neutralC/CFD-BF-036-027-N.jpg","img/neutralC/CFD-AM-230-150-N.jpg","1","1","1","0","0","0","0.649830900016241","0.503860800003167","0.475148800003808","1","1","1","1","1","1","1","1","1"
"250026","img/neutralC/CFD-AM-230-150-N.jpg","img/neutralC/CFD-BF-044-034-N.jpg","img/neutralC/CFD-BF-006-017-N.jpg","1","1","1","0","0","0","0.475148800003808","0.649830900016241","0.616831900028046","1","1","1","1","1","1","1","1","1"
"250026","img/neutralC/CFD-BF-006-017-N.jpg","img/neutralC/CFD-AM-230-150-N.jpg","img/neutralC/CFD-LF-204-133-N.jpg","1","1","1","0","0","1","0.616831900028046","0.475148800003808","0.428898999991361","1","1","1","1","1","1","1","1","1"
"250026","img/neutralC/CFD-LF-204-133-N.jpg","img/neutralC/CFD-BF-006-017-N.jpg","img/neutralC/CFD-BM-238-242-N.jpg","1","1","1","1","0","0","0.428898999991361","0.616831900028046","0.597408600035124","1","1","1","1","1","1","1","1","1"
"250026","img/neutralC/CFD-BM-238-242-N.jpg","img/neutralC/CFD-LF-204-133-N.jpg","img/neutralC/CFD-IF-729-393-N.jpg","1","1","1","0","1","0","0.597408600035124","0.428898999991361","0.641178099962417","1","1","1","1","1","1","1","1","1"
"250026","img/neutralC/CFD-IF-729-393-N.jpg","img/neutralC/CFD-BM-238-242-N.jpg","img/neutralC/CFD-BM-241-235-N.jpg","1","1","1","0","0","0","0.641178099962417","0.597408600035124","0.556907200021669","1","1","1","1","1","1","1","1","1"
"250026","img/neutralC/CFD-BM-241-235-N.jpg","img/neutralC/CFD-IF-729-393-N.jpg","img/neutralC/CFD-BF-011-002-N.jpg","1","1","1","0","0","1","0.556907200021669","0.641178099962417","0.537153200013563","1","1","1","1","1","1","1","1","1"
"250026","img/neutralC/CFD-BF-011-002-N.jpg","img/neutralC/CFD-BM-241-235-N.jpg","img/neutralC/CFD-WF-234-086-N.jpg","1","1","1","1","0","1","0.537153200013563","0.556907200021669","0.494369500025641","1","1","1","1","1","1","1","1","1"
"250026","img/neutralC/CFD-WF-234-086-N.jpg","img/neutralC/CFD-BF-011-002-N.jpg","img/neutralC/CFD-WF-233-112-N.jpg","1","1","1","1","1","1","0.494369500025641","0.537153200013563","0.464040699996985","1","1","1","1","1","1","1","1","1"
"250026","img/neutralC/CFD-WF-233-112-N.jpg","img/neutralC/CFD-WF-234-086-N.jpg","img/neutralC/CFD-MF-301-024-N.jpg","1","1","1","1","1","0","0.464040699996985","0.494369500025641","0.536268300027587","1","1","1","1","1","1","1","1","1"
"250026","img/neutralC/CFD-MF-301-024-N.jpg","img/neutralC/CFD-WF-233-112-N.jpg","img/neutralC/CFD-BF-207-004-N.jpg","1","1","1","0","1","1","0.536268300027587","0.464040699996985","0.382664999982808","1","1","1","1","1","1","1","1","1"
"250026","img/neutralC/CFD-BF-207-004-N.jpg","img/neutralC/CFD-MF-301-024-N.jpg","img/neutralC/CFD-LM-213-061-N.jpg","1","1","1","1","0","0","0.382664999982808","0.536268300027587","0.542469399981201","1","1","1","1","1","1","1","1","1"
"250026","img/neutralC/CFD-LM-213-061-N.jpg","img/neutralC/CFD-BF-207-004-N.jpg","img/neutralC/CFD-BF-214-308-N.jpg","1","1","1","0","1","1","0.542469399981201","0.382664999982808","0.435138200002257","1","1","1","1","1","1","1","1","1"
"250026","img/neutralC/CFD-BF-214-308-N.jpg","img/neutralC/CFD-LM-213-061-N.jpg","img/neutralC/CFD-BM-036-003-N.jpg","1","1","1","1","0","1","0.435138200002257","0.542469399981201","0.565421700011939","1","1","1","1","1","1","1","1","1"
"250026","img/neutralC/CFD-BM-036-003-N.jpg","img/neutralC/CFD-BF-214-308-N.jpg","img/neutralC/CFD-BF-247-179-N.jpg","1","1","1","1","1","0","0.565421700011939","0.435138200002257","0.593200399947818","1","1","1","1","1","1","1","1","1"
"250026","img/neutralC/CFD-BF-247-179-N.jpg","img/neutralC/CFD-BM-036-003-N.jpg","img/neutralC/CFD-WF-208-068-N.jpg","1","1","1","0","1","1","0.593200399947818","0.565421700011939","0.37558649998391","1","1","1","1","1","1","1","1","1"
"250026","img/neutralC/CFD-WF-208-068-N.jpg","img/neutralC/CFD-BF-247-179-N.jpg","img/neutralC/CFD-BF-236-177-N.jpg","1","1","1","1","0","0","0.37558649998391","0.593200399947818","0.626409099961165","1","1","1","1","1","1","1","1","1"
"250026","img/neutralC/CFD-BF-236-177-N.jpg","img/neutralC/CFD-WF-208-068-N.jpg","img/neutralC/CFD-WM-034-030-N.jpg","1","1","1","0","1","1","0.626409099961165","0.37558649998391","0.422020199999679","1","1","1","1","1","1","1","1","1"
"250026","img/neutralC/CFD-WM-034-030-N.jpg","img/neutralC/CFD-BF-236-177-N.jpg","img/neutralC/CFD-WM-014-002-N.jpg","1","1","0","1","0","0","0.422020199999679","0.626409099961165","0.377119000011589","1","1","1","1","1","1","1","1","1"
"250026","img/neutralC/CFD-WM-014-002-N.jpg","img/neutralC/CFD-WM-034-030-N.jpg","img/neutralC/CFD-BF-002-001-N.jpg","0","1","1","0","1","0","0.377119000011589","0.422020199999679","0.574565700022504","1","1","1","1","1","1","1","1","1"
"250026","img/neutralC/CFD-BF-002-001-N.jpg","img/neutralC/CFD-WM-014-002-N.jpg",NA,"1","0",NA,"0","0",NA,"0.574565700022504","0.377119000011589",NA,"1","1",NA,"1","1",NA,"1","1",NA
"250026","img/neutralC/CFD-BF-029-031-N.jpg",NA,"img/neutralC/CFD-WF-213-031-N.jpg","1",NA,"1","1",NA,"1","0.575972699967679",NA,"0.471062600030564","1",NA,"1","1",NA,"1","1",NA,"1"
"250026","img/neutralC/CFD-WF-213-031-N.jpg","img/neutralC/CFD-BF-029-031-N.jpg","img/neutralC/CFD-BM-019-002-N.jpg","1","1","1","1","1","0","0.471062600030564","0.575972699967679","0.819736099976581","1","1","1","1","1","1","1","1","1"
"250026","img/neutralC/CFD-BM-019-002-N.jpg","img/neutralC/CFD-WF-213-031-N.jpg","img/neutralC/CFD-WM-011-002-N.jpg","1","1","1","0","1","0","0.819736099976581","0.471062600030564","0.488481199950911","1","1","1","1","1","1","1","1","1"
"250026","img/neutralC/CFD-WM-011-002-N.jpg","img/neutralC/CFD-BM-019-002-N.jpg","img/neutralC/CFD-BM-239-136-N.jpg","1","1","1","0","0","1","0.488481199950911","0.819736099976581","0.361109999998007","1","1","1","1","1","1","1","1","1"
"250026","img/neutralC/CFD-BM-239-136-N.jpg","img/neutralC/CFD-WM-011-002-N.jpg","img/neutralC/CFD-IM-684-008-N.jpg","1","1","1","1","0","1","0.361109999998007","0.488481199950911","0.59216420003213","1","1","1","1","1","1","1","1","1"
"250026","img/neutralC/CFD-IM-684-008-N.jpg","img/neutralC/CFD-BM-239-136-N.jpg","img/neutralC/CFD-WF-224-099-N.jpg","1","1","1","1","1","0","0.59216420003213","0.361109999998007","0.452528699999675","1","1","1","1","1","1","1","1","1"
"250026","img/neutralC/CFD-WF-224-099-N.jpg","img/neutralC/CFD-IM-684-008-N.jpg","img/neutralC/CFD-IF-693-172-N.jpg","1","1","1","0","1","0","0.452528699999675","0.59216420003213","0.446564799989574","1","1","1","1","1","1","1","1","1"
"250026","img/neutralC/CFD-IF-693-172-N.jpg","img/neutralC/CFD-WF-224-099-N.jpg","img/neutralC/CFD-LM-218-183-N.jpg","1","1","1","0","0","1","0.446564799989574","0.452528699999675","0.479301700019278","1","1","1","1","1","1","1","1","1"
"250026","img/neutralC/CFD-LM-218-183-N.jpg","img/neutralC/CFD-IF-693-172-N.jpg","img/neutralC/CFD-LF-205-100-N.jpg","1","1","1","1","0","1","0.479301700019278","0.446564799989574","0.443173500010744","1","1","1","1","1","1","1","1","1"
"250026","img/neutralC/CFD-LF-205-100-N.jpg","img/neutralC/CFD-LM-218-183-N.jpg","img/neutralC/CFD-AM-212-050-N.jpg","1","1","1","1","1","1","0.443173500010744","0.479301700019278","0.44689829996787","1","1","1","1","1","1","1","1","1"
"250026","img/neutralC/CFD-AM-212-050-N.jpg","img/neutralC/CFD-LF-205-100-N.jpg","img/neutralC/CFD-BM-041-035-N.jpg","1","1","1","1","1","0","0.44689829996787","0.443173500010744","0.490918099996634","1","1","1","1","1","1","1","1","1"
"250026","img/neutralC/CFD-BM-041-035-N.jpg","img/neutralC/CFD-AM-212-050-N.jpg","img/neutralC/CFD-BF-205-141-N.jpg","1","1","1","0","1","0","0.490918099996634","0.44689829996787","0.484868600033224","1","1","1","1","1","1","1","1","1"
"250026","img/neutralC/CFD-BF-205-141-N.jpg","img/neutralC/CFD-BM-041-035-N.jpg","img/neutralC/CFD-WF-250-167-N.jpg","1","1","1","0","0","1","0.484868600033224","0.490918099996634","0.499109000025783","1","1","1","1","1","1","1","1","1"
"250026","img/neutralC/CFD-WF-250-167-N.jpg","img/neutralC/CFD-BF-205-141-N.jpg","img/neutralC/CFD-IM-651-308-N.jpg","1","1","1","1","0","0","0.499109000025783","0.484868600033224","0.615547300025355","1","1","1","1","1","1","1","1","1"
"250026","img/neutralC/CFD-IM-651-308-N.jpg","img/neutralC/CFD-WF-250-167-N.jpg","img/neutralC/CFD-WM-041-021-N.jpg","1","1","1","0","1","0","0.615547300025355","0.499109000025783","0.533454199961852","1","1","1","1","1","1","1","1","1"
"250026","img/neutralC/CFD-WM-041-021-N.jpg","img/neutralC/CFD-IM-651-308-N.jpg","img/neutralC/CFD-LF-203-066-N.jpg","1","1","1","0","0","0","0.533454199961852","0.615547300025355","0.497563000011723","1","1","1","1","1","1","1","1","1"
"250026","img/neutralC/CFD-LF-203-066-N.jpg","img/neutralC/CFD-WM-041-021-N.jpg","img/neutralC/CFD-BF-039-031-N.jpg","1","1","1","0","0","1","0.497563000011723","0.533454199961852","0.435491600015666","1","1","1","1","1","1","1","1","1"
"250026","img/neutralC/CFD-BF-039-031-N.jpg","img/neutralC/CFD-LF-203-066-N.jpg","img/neutralC/CFD-WM-021-001-N.jpg","1","1","1","1","0","1","0.435491600015666","0.497563000011723","0.503273899958003","1","1","1","1","1","1","1","1","1"
"250026","img/neutralC/CFD-WM-021-001-N.jpg","img/neutralC/CFD-BF-039-031-N.jpg","img/neutralC/CFD-LF-214-090-N.jpg","1","1","1","1","1","0","0.503273899958003","0.435491600015666","0.404270400002133","1","1","1","1","1","1","1","1","1"
"250026","img/neutralC/CFD-LF-214-090-N.jpg","img/neutralC/CFD-WM-021-001-N.jpg","img/neutralC/CFD-LF-230-203-N.jpg","1","1","1","0","1","0","0.404270400002133","0.503273899958003","0.554727399954572","1","1","1","1","1","1","1","1","1"
"250026","img/neutralC/CFD-LF-230-203-N.jpg","img/neutralC/CFD-LF-214-090-N.jpg","img/neutralC/CFD-AF-231-357-N.jpg","1","1","1","0","0","1","0.554727399954572","0.404270400002133","0.384870899957605","1","1","1","1","1","1","1","1","1"
"250026","img/neutralC/CFD-AF-231-357-N.jpg","img/neutralC/CFD-LF-230-203-N.jpg","img/neutralC/CFD-LF-224-176-N.jpg","1","1","1","1","0","0","0.384870899957605","0.554727399954572","0.58737399999518","1","1","1","1","1","1","1","1","1"
"250026","img/neutralC/CFD-LF-224-176-N.jpg","img/neutralC/CFD-AF-231-357-N.jpg","img/neutralC/CFD-BF-213-188-N.jpg","1","1","1","0","1","1","0.58737399999518","0.384870899957605","0.41769440000644","1","1","1","1","1","1","1","1","1"
"250026","img/neutralC/CFD-BF-213-188-N.jpg","img/neutralC/CFD-LF-224-176-N.jpg","img/neutralC/CFD-LM-215-247-N.jpg","1","1","1","1","0","0","0.41769440000644","0.58737399999518","0.581765200011432","1","1","1","1","1","1","1","1","1"
"250026","img/neutralC/CFD-LM-215-247-N.jpg","img/neutralC/CFD-BF-213-188-N.jpg","img/neutralC/CFD-IF-710-016-N.jpg","1","1","1","0","1","0","0.581765200011432","0.41769440000644","0.47677480004495","1","1","1","1","1","1","1","1","1"
"250026","img/neutralC/CFD-IF-710-016-N.jpg","img/neutralC/CFD-LM-215-247-N.jpg","img/neutralC/CFD-BF-253-202-N.jpg","1","1","1","0","0","0","0.47677480004495","0.581765200011432","0.50414949998958","1","1","1","1","1","1","1","1","1"
"250026","img/neutralC/CFD-BF-253-202-N.jpg","img/neutralC/CFD-IF-710-016-N.jpg","img/neutralC/CFD-MM-316-156-N.jpg","1","1","1","0","0","1","0.50414949998958","0.47677480004495","0.422409099992365","1","1","1","1","1","1","1","1","1"
"250026","img/neutralC/CFD-MM-316-156-N.jpg","img/neutralC/CFD-BF-253-202-N.jpg","img/neutralC/CFD-AM-201-076-N.jpg","1","1","1","1","0","1","0.422409099992365","0.50414949998958","0.530445799988229","1","1","1","1","1","1","1","1","1"
"250026","img/neutralC/CFD-AM-201-076-N.jpg","img/neutralC/CFD-MM-316-156-N.jpg","img/neutralC/CFD-IF-634-382-N.jpg","1","1","1","1","1","1","0.530445799988229","0.422409099992365","0.453880599990953","1","1","1","1","1","1","1","1","1"
"250026","img/neutralC/CFD-IF-634-382-N.jpg","img/neutralC/CFD-AM-201-076-N.jpg","img/neutralC/CFD-MF-337-026-N.jpg","1","1","1","1","1","1","0.453880599990953","0.530445799988229","0.425170800008345","1","1","1","1","1","1","1","1","1"
"250026","img/neutralC/CFD-MF-337-026-N.jpg","img/neutralC/CFD-IF-634-382-N.jpg","img/neutralC/CFD-BM-033-003-N.jpg","1","1","1","1","1","0","0.425170800008345","0.453880599990953","0.495526199985761","1","1","1","1","1","1","1","1","1"
"250026","img/neutralC/CFD-BM-033-003-N.jpg","img/neutralC/CFD-MF-337-026-N.jpg",NA,"1","1",NA,"0","1",NA,"0.495526199985761","0.425170800008345",NA,"1","1",NA,"1","1",NA,"1","1",NA
"250026","img/neutralC/CFD-AM-244-222-N.jpg",NA,"img/neutralC/CFD-BM-200-046-N.jpg","1",NA,"1","0",NA,"0","0.721885200007819",NA,"1.11087530001532","1",NA,"1","1",NA,"1","1",NA,"1"
"250026","img/neutralC/CFD-BM-200-046-N.jpg","img/neutralC/CFD-AM-244-222-N.jpg","img/neutralC/CFD-IM-700-009-N.jpg","1","1","1","0","0","1","1.11087530001532","0.721885200007819","0.495380099979229","1","1","1","1","1","1","1","1","1"
"250026","img/neutralC/CFD-IM-700-009-N.jpg","img/neutralC/CFD-BM-200-046-N.jpg","img/neutralC/CFD-BF-018-039-N.jpg","1","1","1","1","0","1","0.495380099979229","1.11087530001532","0.403146399999969","1","1","1","1","1","1","1","1","1"
"250026","img/neutralC/CFD-BF-018-039-N.jpg","img/neutralC/CFD-IM-700-009-N.jpg","img/neutralC/CFD-WM-237-052-N.jpg","1","1","1","1","1","1","0.403146399999969","0.495380099979229","0.481045300024562","1","1","1","1","1","1","1","1","1"
"250026","img/neutralC/CFD-WM-237-052-N.jpg","img/neutralC/CFD-BF-018-039-N.jpg","img/neutralC/CFD-MM-321-021-N.jpg","1","1","1","1","1","0","0.481045300024562","0.403146399999969","0.736869000014849","1","1","1","1","1","1","1","1","1"
"250026","img/neutralC/CFD-MM-321-021-N.jpg","img/neutralC/CFD-WM-237-052-N.jpg","img/neutralC/CFD-IF-629-234-N.jpg","1","1","1","0","1","0","0.736869000014849","0.481045300024562","0.471843300038017","1","1","1","1","1","1","1","1","1"
"250026","img/neutralC/CFD-IF-629-234-N.jpg","img/neutralC/CFD-MM-321-021-N.jpg","img/neutralC/CFD-WF-226-095-N.jpg","1","1","1","0","0","1","0.471843300038017","0.736869000014849","0.40820010000607","1","1","1","1","1","1","1","1","1"
"250026","img/neutralC/CFD-WF-226-095-N.jpg","img/neutralC/CFD-IF-629-234-N.jpg","img/neutralC/CFD-LM-253-075-N.jpg","1","1","1","1","0","0","0.40820010000607","0.471843300038017","0.519698899996001","1","1","1","1","1","1","1","1","1"
"250026","img/neutralC/CFD-LM-253-075-N.jpg","img/neutralC/CFD-WF-226-095-N.jpg","img/neutralC/CFD-WF-027-003-N.jpg","1","1","1","0","1","1","0.519698899996001","0.40820010000607","0.462496599997394","1","1","1","1","1","1","1","1","1"
"250026","img/neutralC/CFD-WF-027-003-N.jpg","img/neutralC/CFD-LM-253-075-N.jpg","img/neutralC/CFD-BF-218-207-N.jpg","1","1","1","1","0","1","0.462496599997394","0.519698899996001","0.39441910001915","1","1","1","1","1","1","1","1","1"
"250026","img/neutralC/CFD-BF-218-207-N.jpg","img/neutralC/CFD-WF-027-003-N.jpg","img/neutralC/CFD-WM-201-063-N.jpg","1","1","1","1","1","1","0.39441910001915","0.462496599997394","0.434836600034032","1","1","1","1","1","1","1","1","1"
"250026","img/neutralC/CFD-WM-201-063-N.jpg","img/neutralC/CFD-BF-218-207-N.jpg","img/neutralC/CFD-WM-221-091-N.jpg","1","1","1","1","1","0","0.434836600034032","0.39441910001915","0.459804799989797","1","1","1","1","1","1","1","1","1"
"250026","img/neutralC/CFD-WM-221-091-N.jpg","img/neutralC/CFD-WM-201-063-N.jpg","img/neutralC/CFD-IM-719-221-N.jpg","1","1","1","0","1","0","0.459804799989797","0.434836600034032","0.48960289999377","1","1","1","1","1","1","1","1","1"
"250026","img/neutralC/CFD-IM-719-221-N.jpg","img/neutralC/CFD-WM-221-091-N.jpg","img/neutralC/CFD-WF-245-084-N.jpg","1","1","1","0","0","1","0.48960289999377","0.459804799989797","0.437986199976876","1","1","1","1","1","1","1","1","1"
"250026","img/neutralC/CFD-WF-245-084-N.jpg","img/neutralC/CFD-IM-719-221-N.jpg","img/neutralC/CFD-WF-238-023-N.jpg","1","1","1","1","0","0","0.437986199976876","0.48960289999377","0.5047082999954","1","1","1","1","1","1","1","1","1"
"250026","img/neutralC/CFD-WF-238-023-N.jpg","img/neutralC/CFD-WF-245-084-N.jpg","img/neutralC/CFD-BF-254-201-N.jpg","1","1","1","0","1","0","0.5047082999954","0.437986199976876","0.542756799957715","1","1","1","1","1","1","1","1","1"
"250026","img/neutralC/CFD-BF-254-201-N.jpg","img/neutralC/CFD-WF-238-023-N.jpg","img/neutralC/CFD-WM-255-219-N.jpg","1","1","1","0","0","0","0.542756799957715","0.5047082999954","0.509451300022192","1","1","1","1","1","1","1","1","1"
"250026","img/neutralC/CFD-WM-255-219-N.jpg","img/neutralC/CFD-BF-254-201-N.jpg","img/neutralC/CFD-WM-009-002-N.jpg","1","1","1","0","0","0","0.509451300022192","0.542756799957715","0.530206799972802","1","1","1","1","1","1","1","1","1"
"250026","img/neutralC/CFD-WM-009-002-N.jpg","img/neutralC/CFD-WM-255-219-N.jpg","img/neutralC/CFD-WF-023-003-N.jpg","1","1","1","0","0","1","0.530206799972802","0.509451300022192","0.42394529999001","1","1","1","1","1","1","1","1","1"
"250026","img/neutralC/CFD-WF-023-003-N.jpg","img/neutralC/CFD-WM-009-002-N.jpg","img/neutralC/CFD-MF-318-022-N.jpg","1","1","1","1","0","1","0.42394529999001","0.530206799972802","0.459742399980314","1","1","1","1","1","1","1","1","1"
"250026","img/neutralC/CFD-MF-318-022-N.jpg","img/neutralC/CFD-WF-023-003-N.jpg","img/neutralC/CFD-AF-232-078-N.jpg","1","1","1","1","1","1","0.459742399980314","0.42394529999001","0.473276899952907","1","1","1","1","1","1","1","1","1"
"250026","img/neutralC/CFD-AF-232-078-N.jpg","img/neutralC/CFD-MF-318-022-N.jpg","img/neutralC/CFD-BM-023-029-N.jpg","1","1","1","1","1","1","0.473276899952907","0.459742399980314","0.393662399961613","1","1","1","1","1","1","1","1","1"
"250026","img/neutralC/CFD-BM-023-029-N.jpg","img/neutralC/CFD-AF-232-078-N.jpg","img/neutralC/CFD-MF-342-022-N.jpg","1","1","1","1","1","1","0.393662399961613","0.473276899952907","0.44843500002753","1","1","1","1","1","1","1","1","1"
"250026","img/neutralC/CFD-MF-342-022-N.jpg","img/neutralC/CFD-BM-023-029-N.jpg","img/neutralC/CFD-BM-204-003-N.jpg","1","1","1","1","1","0","0.44843500002753","0.393662399961613","0.59339519997593","1","1","1","1","1","1","1","1","1"
"250026","img/neutralC/CFD-BM-204-003-N.jpg","img/neutralC/CFD-MF-342-022-N.jpg","img/neutralC/CFD-IM-627-178-N.jpg","1","1","1","0","1","1","0.59339519997593","0.44843500002753","0.464578100014478","1","1","1","1","1","1","1","1","1"
"250026","img/neutralC/CFD-IM-627-178-N.jpg","img/neutralC/CFD-BM-204-003-N.jpg","img/neutralC/CFD-MF-321-003-N.jpg","1","1","1","1","0","0","0.464578100014478","0.59339519997593","0.566419099981431","1","1","1","1","1","1","1","1","1"
"250026","img/neutralC/CFD-MF-321-003-N.jpg","img/neutralC/CFD-IM-627-178-N.jpg","img/neutralC/CFD-LF-215-157-N.jpg","1","1","1","0","1","0","0.566419099981431","0.464578100014478","0.522431100020185","1","1","1","1","1","1","1","1","1"
"250026","img/neutralC/CFD-LF-215-157-N.jpg","img/neutralC/CFD-MF-321-003-N.jpg","img/neutralC/CFD-AF-221-147-N.jpg","1","1","1","0","0","0","0.522431100020185","0.566419099981431","0.455489700019825","1","1","1","1","1","1","1","1","1"
"250026","img/neutralC/CFD-AF-221-147-N.jpg","img/neutralC/CFD-LF-215-157-N.jpg","img/neutralC/CFD-WF-018-017-N.jpg","1","1","1","0","0","1","0.455489700019825","0.522431100020185","0.391196699987631","1","1","1","1","1","1","1","1","1"
"250026","img/neutralC/CFD-WF-018-017-N.jpg","img/neutralC/CFD-AF-221-147-N.jpg","img/neutralC/CFD-LF-211-003-N.jpg","1","1","1","1","0","0","0.391196699987631","0.455489700019825","0.480010200000834","1","1","1","1","1","1","1","1","1"
"250026","img/neutralC/CFD-LF-211-003-N.jpg","img/neutralC/CFD-WF-018-017-N.jpg","img/neutralC/CFD-WM-013-001-N.jpg","1","1","1","0","1","1","0.480010200000834","0.391196699987631","0.427390799974091","1","1","1","1","1","1","1","1","1"
"250026","img/neutralC/CFD-WM-013-001-N.jpg","img/neutralC/CFD-LF-211-003-N.jpg",NA,"1","1",NA,"1","0",NA,"0.427390799974091","0.480010200000834",NA,"1","1",NA,"1","1",NA,"1","1",NA
"250026","img/neutralC/CFD-IM-678-482-N.jpg",NA,"img/neutralC/CFD-WM-253-119-N.jpg","0",NA,"1","0",NA,"1","0.890836200036574",NA,"0.47405289998278","1",NA,"1","1",NA,"1","1",NA,"1"
"250026","img/neutralC/CFD-WM-253-119-N.jpg","img/neutralC/CFD-IM-678-482-N.jpg","img/neutralC/CFD-IF-732-260-N.jpg","1","0","1","1","0","0","0.47405289998278","0.890836200036574","0.488636700029019","1","1","1","1","1","1","1","1","1"
"250026","img/neutralC/CFD-IF-732-260-N.jpg","img/neutralC/CFD-WM-253-119-N.jpg","img/neutralC/CFD-AF-246-242-N.jpg","1","1","1","0","1","0","0.488636700029019","0.47405289998278","0.555697500007227","1","1","1","1","1","1","1","1","1"
"250026","img/neutralC/CFD-AF-246-242-N.jpg","img/neutralC/CFD-IF-732-260-N.jpg","img/neutralC/CFD-BM-004-002-N.jpg","1","1","0","0","0","0","0.555697500007227","0.488636700029019","0.384790999989491","1","1","1","1","1","1","1","1","1"
"250026","img/neutralC/CFD-BM-004-002-N.jpg","img/neutralC/CFD-AF-246-242-N.jpg","img/neutralC/CFD-IM-635-010-N.jpg","0","1","1","0","0","1","0.384790999989491","0.555697500007227","0.42741990002105","1","1","1","1","1","1","1","1","1"
"250026","img/neutralC/CFD-IM-635-010-N.jpg","img/neutralC/CFD-BM-004-002-N.jpg","img/neutralC/CFD-BF-206-143-N.jpg","1","0","1","1","0","1","0.42741990002105","0.384790999989491","0.439021300000604","1","1","1","1","1","1","1","1","1"
"250026","img/neutralC/CFD-BF-206-143-N.jpg","img/neutralC/CFD-IM-635-010-N.jpg","img/neutralC/CFD-BM-215-155-N.jpg","1","1","1","1","1","0","0.439021300000604","0.42741990002105","0.512987299996894","1","1","1","1","1","1","1","1","1"
"250026","img/neutralC/CFD-BM-215-155-N.jpg","img/neutralC/CFD-BF-206-143-N.jpg","img/neutralC/CFD-AF-244-168-N.jpg","1","1","1","0","1","0","0.512987299996894","0.439021300000604","0.500649599998724","1","1","1","1","1","1","1","1","1"
"250026","img/neutralC/CFD-AF-244-168-N.jpg","img/neutralC/CFD-BM-215-155-N.jpg","img/neutralC/CFD-IM-632-097-N.jpg","1","1","1","0","0","0","0.500649599998724","0.512987299996894","0.564855899952818","1","1","1","1","1","1","1","1","1"
"250026","img/neutralC/CFD-IM-632-097-N.jpg","img/neutralC/CFD-AF-244-168-N.jpg","img/neutralC/CFD-AM-233-236-N.jpg","1","1","1","0","0","1","0.564855899952818","0.500649599998724","0.442512699984945","1","1","1","1","1","1","1","1","1"
"250026","img/neutralC/CFD-AM-233-236-N.jpg","img/neutralC/CFD-IM-632-097-N.jpg","img/neutralC/CFD-WM-018-002-N.jpg","1","1","1","1","0","0","0.442512699984945","0.564855899952818","0.603231200017035","1","1","1","1","1","1","1","1","1"
"250026","img/neutralC/CFD-WM-018-002-N.jpg","img/neutralC/CFD-AM-233-236-N.jpg","img/neutralC/CFD-AF-205-155-N.jpg","1","1","1","0","1","0","0.603231200017035","0.442512699984945","0.514683899993543","1","1","1","1","1","1","1","1","1"
"250026","img/neutralC/CFD-AF-205-155-N.jpg","img/neutralC/CFD-WM-018-002-N.jpg","img/neutralC/CFD-AF-234-208-N.jpg","1","1","1","0","0","1","0.514683899993543","0.603231200017035","0.419263000017963","1","1","1","1","1","1","1","1","1"
"250026","img/neutralC/CFD-AF-234-208-N.jpg","img/neutralC/CFD-AF-205-155-N.jpg","img/neutralC/CFD-BF-042-026-N.jpg","1","1","1","1","0","1","0.419263000017963","0.514683899993543","0.413762799988035","1","1","1","1","1","1","1","1","1"
"250026","img/neutralC/CFD-BF-042-026-N.jpg","img/neutralC/CFD-AF-234-208-N.jpg","img/neutralC/CFD-WF-210-086-N.jpg","1","1","1","1","1","0","0.413762799988035","0.419263000017963","0.576231200015172","1","1","1","1","1","1","1","1","1"
"250026","img/neutralC/CFD-WF-210-086-N.jpg","img/neutralC/CFD-BF-042-026-N.jpg","img/neutralC/CFD-LF-239-148-N.jpg","1","1","1","0","1","0","0.576231200015172","0.413762799988035","0.493411600007676","1","1","1","1","1","1","1","1","1"
"250026","img/neutralC/CFD-LF-239-148-N.jpg","img/neutralC/CFD-WF-210-086-N.jpg","img/neutralC/CFD-BF-235-168-N.jpg","1","1","1","0","0","1","0.493411600007676","0.576231200015172","0.428859700041357","1","1","1","1","1","1","1","1","1"
"250026","img/neutralC/CFD-BF-235-168-N.jpg","img/neutralC/CFD-LF-239-148-N.jpg","img/neutralC/CFD-AF-213-126-N.jpg","1","1","1","1","0","1","0.428859700041357","0.493411600007676","0.532874099968467","1","1","1","1","1","1","1","1","1"
"250026","img/neutralC/CFD-AF-213-126-N.jpg","img/neutralC/CFD-BF-235-168-N.jpg","img/neutralC/CFD-LM-241-125-N.jpg","1","1","1","1","1","1","0.532874099968467","0.428859700041357","0.523669400019571","1","1","1","1","1","1","1","1","1"
"250026","img/neutralC/CFD-LM-241-125-N.jpg","img/neutralC/CFD-AF-213-126-N.jpg","img/neutralC/CFD-AM-245-111-N.jpg","1","1","1","1","1","1","0.523669400019571","0.532874099968467","0.40522840002086","1","1","1","1","1","1","1","1","1"
"250026","img/neutralC/CFD-AM-245-111-N.jpg","img/neutralC/CFD-LM-241-125-N.jpg","img/neutralC/CFD-AM-225-102-N.jpg","1","1","1","1","1","0","0.40522840002086","0.523669400019571","0.527727000007872","1","1","1","1","1","1","1","1","1"
"250026","img/neutralC/CFD-AM-225-102-N.jpg","img/neutralC/CFD-AM-245-111-N.jpg","img/neutralC/CFD-BF-217-189-N.jpg","1","1","1","0","1","0","0.527727000007872","0.40522840002086","0.463886000041384","1","1","1","1","1","1","1","1","1"
"250026","img/neutralC/CFD-BF-217-189-N.jpg","img/neutralC/CFD-AM-225-102-N.jpg","img/neutralC/CFD-WF-235-121-N.jpg","1","1","1","0","0","0","0.463886000041384","0.527727000007872","0.463890000013635","1","1","1","1","1","1","1","1","1"
"250026","img/neutralC/CFD-WF-235-121-N.jpg","img/neutralC/CFD-BF-217-189-N.jpg","img/neutralC/CFD-BF-020-002-N.jpg","1","1","1","0","0","1","0.463890000013635","0.463886000041384","0.421897099993657","1","1","1","1","1","1","1","1","1"
"250026","img/neutralC/CFD-BF-020-002-N.jpg","img/neutralC/CFD-WF-235-121-N.jpg","img/neutralC/CFD-IF-636-011-N.jpg","1","1","1","1","0","1","0.421897099993657","0.463890000013635","0.426457599969581","1","1","1","1","1","1","1","1","1"
"250026","img/neutralC/CFD-IF-636-011-N.jpg","img/neutralC/CFD-BF-020-002-N.jpg","img/neutralC/CFD-IM-669-111-N.jpg","1","1","1","1","1","1","0.426457599969581","0.421897099993657","0.412132400029805","1","1","1","1","1","1","1","1","1"
"250026","img/neutralC/CFD-IM-669-111-N.jpg","img/neutralC/CFD-IF-636-011-N.jpg","img/neutralC/CFD-AF-250-200-N.jpg","1","1","1","1","1","1","0.412132400029805","0.426457599969581","0.45853880001232","1","1","1","1","1","1","1","1","1"
"250026","img/neutralC/CFD-AF-250-200-N.jpg","img/neutralC/CFD-IM-669-111-N.jpg","img/neutralC/CFD-MF-302-027-N.jpg","1","1","1","1","1","0","0.45853880001232","0.412132400029805","0.520629800041206","1","1","1","1","1","1","1","1","1"
"250026","img/neutralC/CFD-MF-302-027-N.jpg","img/neutralC/CFD-AF-250-200-N.jpg","img/neutralC/CFD-LM-204-001-N.jpg","1","1","1","0","1","0","0.520629800041206","0.45853880001232","0.520351200015284","1","1","1","1","1","1","1","1","1"
"250026","img/neutralC/CFD-LM-204-001-N.jpg","img/neutralC/CFD-MF-302-027-N.jpg","img/neutralC/CFD-BF-040-003-N.jpg","1","1","1","0","0","1","0.520351200015284","0.520629800041206","0.444238199968822","1","1","1","1","1","1","1","1","1"
"250026","img/neutralC/CFD-BF-040-003-N.jpg","img/neutralC/CFD-LM-204-001-N.jpg","img/neutralC/CFD-MF-307-002-N.jpg","1","1","1","1","0","1","0.444238199968822","0.520351200015284","0.477434400003403","1","1","1","1","1","1","1","1","1"
"250026","img/neutralC/CFD-MF-307-002-N.jpg","img/neutralC/CFD-BF-040-003-N.jpg",NA,"1","1",NA,"1","1",NA,"0.477434400003403","0.444238199968822",NA,"1","1",NA,"1","1",NA,"1","1",NA
"250026","img/neutralC/CFD-IM-701-312-N.jpg",NA,"img/neutralC/CFD-IF-673-389-N.jpg","0",NA,"1","0",NA,"0","0.844581800047308",NA,"0.531501600053161","1",NA,"1","1",NA,"1","1",NA,"1"
"250026","img/neutralC/CFD-IF-673-389-N.jpg","img/neutralC/CFD-IM-701-312-N.jpg","img/neutralC/CFD-WF-006-002-N.jpg","1","0","1","0","0","0","0.531501600053161","0.844581800047308","0.75851109996438","1","1","1","1","1","1","1","1","1"
"250026","img/neutralC/CFD-WF-006-002-N.jpg","img/neutralC/CFD-IF-673-389-N.jpg","img/neutralC/CFD-IF-744-114-N.jpg","1","1","1","0","0","0","0.75851109996438","0.531501600053161","1.16041099996073","1","1","1","1","1","1","1","1","1"
"250026","img/neutralC/CFD-IF-744-114-N.jpg","img/neutralC/CFD-WF-006-002-N.jpg","img/neutralC/CFD-BF-222-240-N.jpg","1","1","1","0","0","0","1.16041099996073","0.75851109996438","0.504269199969713","1","1","1","1","1","1","1","1","1"
"250026","img/neutralC/CFD-BF-222-240-N.jpg","img/neutralC/CFD-IF-744-114-N.jpg","img/neutralC/CFD-AF-227-207-N.jpg","1","1","1","0","0","1","0.504269199969713","1.16041099996073","0.653120899980422","1","1","1","1","1","1","1","1","1"
"250026","img/neutralC/CFD-AF-227-207-N.jpg","img/neutralC/CFD-BF-222-240-N.jpg","img/neutralC/CFD-BM-010-003-N.jpg","1","1","1","1","0","0","0.653120899980422","0.504269199969713","0.408153500000481","1","1","1","1","1","1","1","1","1"
"250026","img/neutralC/CFD-BM-010-003-N.jpg","img/neutralC/CFD-AF-227-207-N.jpg","img/neutralC/CFD-IM-738-191-N.jpg","1","1","1","0","1","0","0.408153500000481","0.653120899980422","0.499349100049585","1","1","1","1","1","1","1","1","1"
"250026","img/neutralC/CFD-IM-738-191-N.jpg","img/neutralC/CFD-BM-010-003-N.jpg","img/neutralC/CFD-AF-210-050-N.jpg","1","1","1","0","0","1","0.499349100049585","0.408153500000481","0.477677699993365","1","1","1","1","1","1","1","1","1"
"250026","img/neutralC/CFD-AF-210-050-N.jpg","img/neutralC/CFD-IM-738-191-N.jpg","img/neutralC/CFD-WM-254-152-N.jpg","1","1","1","1","0","1","0.477677699993365","0.499349100049585","0.438097699952777","1","1","1","1","1","1","1","1","1"
"250026","img/neutralC/CFD-WM-254-152-N.jpg","img/neutralC/CFD-AF-210-050-N.jpg","img/neutralC/CFD-BF-045-003-N.jpg","1","1","1","1","1","0","0.438097699952777","0.477677699993365","0.552877200010698","1","1","1","1","1","1","1","1","1"
"250026","img/neutralC/CFD-BF-045-003-N.jpg","img/neutralC/CFD-WM-254-152-N.jpg","img/neutralC/CFD-BM-028-002-N.jpg","1","1","1","0","1","1","0.552877200010698","0.438097699952777","0.501020300027449","1","1","1","1","1","1","1","1","1"
"250026","img/neutralC/CFD-BM-028-002-N.jpg","img/neutralC/CFD-BF-045-003-N.jpg","img/neutralC/CFD-LF-210-220-N.jpg","1","1","1","1","0","1","0.501020300027449","0.552877200010698","0.474758299998939","1","1","1","1","1","1","1","1","1"
"250026","img/neutralC/CFD-LF-210-220-N.jpg","img/neutralC/CFD-BM-028-002-N.jpg","img/neutralC/CFD-WM-202-107-N.jpg","1","1","1","1","1","1","0.474758299998939","0.501020300027449","0.386863699997775","1","1","1","1","1","1","1","1","1"
"250026","img/neutralC/CFD-WM-202-107-N.jpg","img/neutralC/CFD-LF-210-220-N.jpg","img/neutralC/CFD-LF-241-188-N.jpg","1","1","1","1","1","0","0.386863699997775","0.474758299998939","0.540639600018039","1","1","1","1","1","1","1","1","1"
"250026","img/neutralC/CFD-LF-241-188-N.jpg","img/neutralC/CFD-WM-202-107-N.jpg","img/neutralC/CFD-AF-239-171-N.jpg","1","1","1","0","1","1","0.540639600018039","0.386863699997775","0.450225899985526","1","1","1","1","1","1","1","1","1"
"250026","img/neutralC/CFD-AF-239-171-N.jpg","img/neutralC/CFD-LF-241-188-N.jpg","img/neutralC/CFD-BF-004-014-N.jpg","1","1","1","1","0","1","0.450225899985526","0.540639600018039","0.497845799953211","1","1","1","1","1","1","1","1","1"
"250026","img/neutralC/CFD-BF-004-014-N.jpg","img/neutralC/CFD-AF-239-171-N.jpg","img/neutralC/CFD-LM-247-095-N.jpg","1","1","0","1","1","0","0.497845799953211","0.450225899985526","0.390612799965311","1","1","1","1","1","1","1","1","1"
"250026","img/neutralC/CFD-LM-247-095-N.jpg","img/neutralC/CFD-BF-004-014-N.jpg","img/neutralC/CFD-BM-013-002-N.jpg","0","1","1","0","1","1","0.390612799965311","0.497845799953211","0.419818900001701","1","1","1","1","1","1","1","1","1"
"250026","img/neutralC/CFD-BM-013-002-N.jpg","img/neutralC/CFD-LM-247-095-N.jpg","img/neutralC/CFD-MF-336-016-N.jpg","1","0","1","1","0","1","0.419818900001701","0.390612799965311","0.371166299970355","1","1","1","1","1","1","1","1","1"
"250026","img/neutralC/CFD-MF-336-016-N.jpg","img/neutralC/CFD-BM-013-002-N.jpg","img/neutralC/CFD-WF-033-002-N.jpg","1","1","1","1","1","1","0.371166299970355","0.419818900001701","0.427534600021318","1","1","1","1","1","1","1","1","1"
"250026","img/neutralC/CFD-WF-033-002-N.jpg","img/neutralC/CFD-MF-336-016-N.jpg","img/neutralC/CFD-MF-312-002-N.jpg","1","1","1","1","1","1","0.427534600021318","0.371166299970355","0.462024000007659","1","1","1","1","1","1","1","1","1"
"250026","img/neutralC/CFD-MF-312-002-N.jpg","img/neutralC/CFD-WF-033-002-N.jpg","img/neutralC/CFD-IM-659-359-N.jpg","1","1","1","1","1","0","0.462024000007659","0.427534600021318","0.476974099990912","1","1","1","1","1","1","1","1","1"
"250026","img/neutralC/CFD-IM-659-359-N.jpg","img/neutralC/CFD-MF-312-002-N.jpg","img/neutralC/CFD-LF-225-164-N.jpg","1","1","1","0","1","1","0.476974099990912","0.462024000007659","0.508088400005363","1","1","1","1","1","1","1","1","1"
"250026","img/neutralC/CFD-LF-225-164-N.jpg","img/neutralC/CFD-IM-659-359-N.jpg","img/neutralC/CFD-BM-003-003-N.jpg","1","1","1","1","0","0","0.508088400005363","0.476974099990912","0.487816800014116","1","1","1","1","1","1","1","1","1"
"250026","img/neutralC/CFD-BM-003-003-N.jpg","img/neutralC/CFD-LF-225-164-N.jpg","img/neutralC/CFD-WF-223-133-N.jpg","1","1","1","0","1","0","0.487816800014116","0.508088400005363","0.52905529999407","1","1","1","1","1","1","1","1","1"
"250026","img/neutralC/CFD-WF-223-133-N.jpg","img/neutralC/CFD-BM-003-003-N.jpg","img/neutralC/CFD-LF-208-127-N.jpg","1","1","1","0","0","0","0.52905529999407","0.487816800014116","0.567032500053756","1","1","1","1","1","1","1","1","1"
"250026","img/neutralC/CFD-LF-208-127-N.jpg","img/neutralC/CFD-WF-223-133-N.jpg","img/neutralC/CFD-LM-238-129-N.jpg","1","1","1","0","0","1","0.567032500053756","0.52905529999407","0.400508399994578","1","1","1","1","1","1","1","1","1"
"250026","img/neutralC/CFD-LM-238-129-N.jpg","img/neutralC/CFD-LF-208-127-N.jpg","img/neutralC/CFD-IF-625-225-N.jpg","1","1","1","1","0","0","0.400508399994578","0.567032500053756","0.441492600017227","1","1","1","1","1","1","1","1","2"
"250026","img/neutralC/CFD-IF-625-225-N.jpg","img/neutralC/CFD-LM-238-129-N.jpg","img/neutralC/CFD-WM-228-065-N.jpg","1","1","1","0","1","0","0.441492600017227","0.400508399994578","0.493116100027692","1","1","1","1","1","1","2","1","1"
"250026","img/neutralC/CFD-WM-228-065-N.jpg","img/neutralC/CFD-IF-625-225-N.jpg","img/neutralC/CFD-AM-221-184-N.jpg","1","1","1","0","0","1","0.493116100027692","0.441492600017227","0.447074600029737","1","1","1","1","1","1","1","2","1"
"250026","img/neutralC/CFD-AM-221-184-N.jpg","img/neutralC/CFD-WM-228-065-N.jpg","img/neutralC/CFD-BM-213-134-N.jpg","1","1","1","1","0","1","0.447074600029737","0.493116100027692","0.435289199987892","1","1","1","1","1","1","1","1","1"
"250026","img/neutralC/CFD-BM-213-134-N.jpg","img/neutralC/CFD-AM-221-184-N.jpg",NA,"1","1",NA,"1","1",NA,"0.435289199987892","0.447074600029737",NA,"1","1",NA,"1","1",NA,"1","1",NA
"250026","img/neutralC/CFD-IM-639-263-N.jpg",NA,"img/neutralC/CFD-BM-027-001-N.jpg","1",NA,"1","1",NA,"0","0.691742199996952",NA,"0.642927500011865","1",NA,"1","1",NA,"1","1",NA,"1"
"250026","img/neutralC/CFD-BM-027-001-N.jpg","img/neutralC/CFD-IM-639-263-N.jpg","img/neutralC/CFD-WM-038-003-N.jpg","1","1","1","0","1","0","0.642927500011865","0.691742199996952","0.624460499966517","1","1","1","1","1","1","1","1","1"
"250026","img/neutralC/CFD-WM-038-003-N.jpg","img/neutralC/CFD-BM-027-001-N.jpg","img/neutralC/CFD-BF-208-266-N.jpg","1","1","1","0","0","0","0.624460499966517","0.642927500011865","0.550174899981357","1","1","1","1","1","1","1","1","1"
"250026","img/neutralC/CFD-BF-208-266-N.jpg","img/neutralC/CFD-WM-038-003-N.jpg","img/neutralC/CFD-BF-003-003-N.jpg","1","1","1","0","0","0","0.550174899981357","0.624460499966517","0.464768500009086","1","1","1","1","1","1","1","1","1"
"250026","img/neutralC/CFD-BF-003-003-N.jpg","img/neutralC/CFD-BF-208-266-N.jpg","img/neutralC/CFD-AM-215-120-N.jpg","1","1","1","0","0","1","0.464768500009086","0.550174899981357","0.53464610001538","1","1","1","1","1","1","1","1","1"
"250026","img/neutralC/CFD-AM-215-120-N.jpg","img/neutralC/CFD-BF-003-003-N.jpg","img/neutralC/CFD-WF-026-002-N.jpg","1","1","1","1","0","1","0.53464610001538","0.464768500009086","0.42996989999665","1","1","1","1","1","1","1","1","1"
"250026","img/neutralC/CFD-WF-026-002-N.jpg","img/neutralC/CFD-AM-215-120-N.jpg","img/neutralC/CFD-BF-255-140-N.jpg","1","1","1","1","1","1","0.42996989999665","0.53464610001538","0.45982260000892","1","1","1","1","1","1","1","1","1"
"250026","img/neutralC/CFD-BF-255-140-N.jpg","img/neutralC/CFD-WF-026-002-N.jpg","img/neutralC/CFD-LF-236-221-N.jpg","1","1","1","1","1","1","0.45982260000892","0.42996989999665","0.355672699981369","1","1","1","1","1","1","1","1","1"
"250026","img/neutralC/CFD-LF-236-221-N.jpg","img/neutralC/CFD-BF-255-140-N.jpg","img/neutralC/CFD-BM-029-024-N.jpg","1","1","1","1","1","1","0.355672699981369","0.45982260000892","0.387587599980179","1","1","1","1","1","1","1","1","1"
"250026","img/neutralC/CFD-BM-029-024-N.jpg","img/neutralC/CFD-LF-236-221-N.jpg","img/neutralC/CFD-BF-204-189-N.jpg","1","1","1","1","1","1","0.387587599980179","0.355672699981369","0.538914100034162","1","1","1","1","1","1","1","1","1"
"250026","img/neutralC/CFD-BF-204-189-N.jpg","img/neutralC/CFD-BM-029-024-N.jpg","img/neutralC/CFD-MM-319-052-N.jpg","1","1","1","1","1","1","0.538914100034162","0.387587599980179","0.46028059994569","1","1","1","1","1","1","1","1","1"
"250026","img/neutralC/CFD-MM-319-052-N.jpg","img/neutralC/CFD-BF-204-189-N.jpg","img/neutralC/CFD-BF-201-080-N.jpg","1","1","1","1","1","1","0.46028059994569","0.538914100034162","0.513508600008208","1","1","1","1","1","1","1","1","1"
"250026","img/neutralC/CFD-BF-201-080-N.jpg","img/neutralC/CFD-MM-319-052-N.jpg","img/neutralC/CFD-LM-252-076-N.jpg","1","1","1","1","1","1","0.513508600008208","0.46028059994569","0.394819399982225","1","1","1","1","1","1","1","1","1"
"250026","img/neutralC/CFD-LM-252-076-N.jpg","img/neutralC/CFD-BF-201-080-N.jpg","img/neutralC/CFD-WM-257-161-N.jpg","1","1","1","1","1","1","0.394819399982225","0.513508600008208","0.407972500019241","1","1","1","1","1","1","1","1","1"
"250026","img/neutralC/CFD-WM-257-161-N.jpg","img/neutralC/CFD-LM-252-076-N.jpg","img/neutralC/CFD-WM-002-009-N.jpg","1","1","1","1","1","0","0.407972500019241","0.394819399982225","0.556833899987396","1","1","1","1","1","1","1","1","1"
"250026","img/neutralC/CFD-WM-002-009-N.jpg","img/neutralC/CFD-WM-257-161-N.jpg","img/neutralC/CFD-WM-225-127-N.jpg","1","1","1","0","1","0","0.556833899987396","0.407972500019241","0.517034400021657","1","1","1","1","1","1","1","1","1"
"250026","img/neutralC/CFD-WM-225-127-N.jpg","img/neutralC/CFD-WM-002-009-N.jpg","img/neutralC/CFD-IM-674-281-N.jpg","1","1","1","0","0","1","0.517034400021657","0.556833899987396","0.420858900004532","1","1","1","1","1","1","1","1","1"
"250026","img/neutralC/CFD-IM-674-281-N.jpg","img/neutralC/CFD-WM-225-127-N.jpg","img/neutralC/CFD-WF-002-004-N.jpg","1","1","1","1","0","0","0.420858900004532","0.517034400021657","0.462327999994159","1","1","1","1","1","1","1","1","1"
"250026","img/neutralC/CFD-WF-002-004-N.jpg","img/neutralC/CFD-IM-674-281-N.jpg","img/neutralC/CFD-IF-672-305-N.jpg","1","1","1","0","1","0","0.462327999994159","0.420858900004532","0.641614500025753","1","1","1","1","1","1","1","1","1"
"250026","img/neutralC/CFD-IF-672-305-N.jpg","img/neutralC/CFD-WF-002-004-N.jpg","img/neutralC/CFD-IF-718-001-N.jpg","1","1","1","0","0","1","0.641614500025753","0.462327999994159","0.423899100045674","1","1","1","1","1","1","1","1","1"
"250026","img/neutralC/CFD-IF-718-001-N.jpg","img/neutralC/CFD-IF-672-305-N.jpg","img/neutralC/CFD-WM-040-022-N.jpg","1","1","1","1","0","0","0.423899100045674","0.641614500025753","0.659718000038993","1","1","1","1","1","1","1","1","1"
"250026","img/neutralC/CFD-WM-040-022-N.jpg","img/neutralC/CFD-IF-718-001-N.jpg","img/neutralC/CFD-AM-217-085-N.jpg","1","1","1","0","1","0","0.659718000038993","0.423899100045674","0.60021509998478","1","1","1","1","1","1","1","1","1"
"250026","img/neutralC/CFD-AM-217-085-N.jpg","img/neutralC/CFD-WM-040-022-N.jpg","img/neutralC/CFD-BM-211-174-N.jpg","1","1","1","0","0","0","0.60021509998478","0.659718000038993","0.60045110003557","1","1","1","1","1","1","1","1","1"
"250026","img/neutralC/CFD-BM-211-174-N.jpg","img/neutralC/CFD-AM-217-085-N.jpg","img/neutralC/CFD-BF-023-010-N.jpg","1","1","1","0","0","1","0.60045110003557","0.60021509998478","0.47889780002879","1","1","1","1","1","1","1","1","1"
"250026","img/neutralC/CFD-BF-023-010-N.jpg","img/neutralC/CFD-BM-211-174-N.jpg","img/neutralC/CFD-WF-022-017-N.jpg","1","1","1","1","0","0","0.47889780002879","0.60045110003557","0.520888700033538","1","1","1","1","1","1","1","1","1"
"250026","img/neutralC/CFD-WF-022-017-N.jpg","img/neutralC/CFD-BF-023-010-N.jpg","img/neutralC/CFD-BM-015-015-N.jpg","1","1","1","0","1","0","0.520888700033538","0.47889780002879","0.705860000045504","1","1","1","1","1","1","1","1","1"
"250026","img/neutralC/CFD-BM-015-015-N.jpg","img/neutralC/CFD-WF-022-017-N.jpg","img/neutralC/CFD-BF-028-001-N.jpg","1","1","1","0","0","1","0.705860000045504","0.520888700033538","0.493770399945788","1","1","1","1","1","1","1","1","1"
"250026","img/neutralC/CFD-BF-028-001-N.jpg","img/neutralC/CFD-BM-015-015-N.jpg","img/neutralC/CFD-AM-235-241-N.jpg","1","1","1","1","0","0","0.493770399945788","0.705860000045504","0.674706999969203","1","1","1","1","1","1","1","1","1"
"250026","img/neutralC/CFD-AM-235-241-N.jpg","img/neutralC/CFD-BF-028-001-N.jpg","img/neutralC/CFD-LF-216-121-N.jpg","1","1","1","0","1","1","0.674706999969203","0.493770399945788","0.410656399966683","1","1","1","1","1","1","1","1","1"
"250026","img/neutralC/CFD-LF-216-121-N.jpg","img/neutralC/CFD-AM-235-241-N.jpg","img/neutralC/CFD-IM-728-041-N.jpg","1","1","1","1","0","0","0.410656399966683","0.674706999969203","0.592694199993275","1","1","1","1","1","1","1","1","1"
"250026","img/neutralC/CFD-IM-728-041-N.jpg","img/neutralC/CFD-LF-216-121-N.jpg","img/neutralC/CFD-BM-247-240-N.jpg","1","1","1","0","1","0","0.592694199993275","0.410656399966683","0.490312300040387","1","1","1","1","1","1","1","1","1"
"250026","img/neutralC/CFD-BM-247-240-N.jpg","img/neutralC/CFD-IM-728-041-N.jpg",NA,"1","1",NA,"0","0",NA,"0.490312300040387","0.592694199993275",NA,"1","1",NA,"1","1",NA,"1","1",NA
"250026","img/neutralC/CFD-WM-025-002-N.jpg",NA,"img/neutralC/CFD-LF-238-154-N.jpg","1",NA,"1","0",NA,"1","0.956850000016857",NA,"0.522182199987583","1",NA,"1","1",NA,"1","1",NA,"1"
"250026","img/neutralC/CFD-LF-238-154-N.jpg","img/neutralC/CFD-WM-025-002-N.jpg","img/neutralC/CFD-IF-676-017-N.jpg","1","1","1","1","0","1","0.522182199987583","0.956850000016857","0.562558599980548","1","1","1","1","1","1","1","1","1"
"250026","img/neutralC/CFD-IF-676-017-N.jpg","img/neutralC/CFD-LF-238-154-N.jpg","img/neutralC/CFD-BM-020-001-N.jpg","1","1","1","1","1","0","0.562558599980548","0.522182199987583","0.481365099956747","1","1","1","1","1","1","1","1","1"
"250026","img/neutralC/CFD-BM-020-001-N.jpg","img/neutralC/CFD-IF-676-017-N.jpg","img/neutralC/CFD-BF-012-001-N.jpg","1","1","1","0","1","0","0.481365099956747","0.562558599980548","0.413856200000737","1","1","1","1","1","1","1","1","1"
"250026","img/neutralC/CFD-BF-012-001-N.jpg","img/neutralC/CFD-BM-020-001-N.jpg","img/neutralC/CFD-IM-606-008-N.jpg","1","1","1","0","0","0","0.413856200000737","0.481365099956747","0.430783400021028","1","1","1","1","1","1","1","1","1"
"250026","img/neutralC/CFD-IM-606-008-N.jpg","img/neutralC/CFD-BF-012-001-N.jpg","img/neutralC/CFD-MM-306-010-N.jpg","1","1","1","0","0","0","0.430783400021028","0.413856200000737","0.517204299976584","1","1","1","1","1","1","1","1","1"
"250026","img/neutralC/CFD-MM-306-010-N.jpg","img/neutralC/CFD-IM-606-008-N.jpg","img/neutralC/CFD-AM-249-163-N.jpg","1","1","1","0","0","1","0.517204299976584","0.430783400021028","0.499665999959689","1","1","1","1","1","1","1","1","1"
"250026","img/neutralC/CFD-AM-249-163-N.jpg","img/neutralC/CFD-MM-306-010-N.jpg","img/neutralC/CFD-BF-244-231-N.jpg","1","1","1","1","0","1","0.499665999959689","0.517204299976584","0.526342199998908","1","1","1","1","1","1","1","1","1"
"250026","img/neutralC/CFD-BF-244-231-N.jpg","img/neutralC/CFD-AM-249-163-N.jpg","img/neutralC/CFD-WF-207-014-N.jpg","1","1","1","1","1","1","0.526342199998908","0.499665999959689","0.522822099970654","1","1","1","1","1","1","1","1","1"
"250026","img/neutralC/CFD-WF-207-014-N.jpg","img/neutralC/CFD-BF-244-231-N.jpg","img/neutralC/CFD-LF-222-147-N.jpg","1","1","1","1","1","0","0.522822099970654","0.526342199998908","0.526300900033675","1","1","1","1","1","1","1","1","1"
"250026","img/neutralC/CFD-LF-222-147-N.jpg","img/neutralC/CFD-WF-207-014-N.jpg","img/neutralC/CFD-WF-009-001-N.jpg","1","1","1","0","1","1","0.526300900033675","0.522822099970654","0.43722359999083","1","1","1","1","1","1","1","1","1"
"250026","img/neutralC/CFD-WF-009-001-N.jpg","img/neutralC/CFD-LF-222-147-N.jpg","img/neutralC/CFD-WM-028-003-N.jpg","1","1","1","1","0","1","0.43722359999083","0.526300900033675","0.442953900026623","1","1","1","1","1","1","1","1","1"
"250026","img/neutralC/CFD-WM-028-003-N.jpg","img/neutralC/CFD-WF-009-001-N.jpg","img/neutralC/CFD-BM-030-003-N.jpg","1","1","1","1","1","0","0.442953900026623","0.43722359999083","0.502474999986589","1","1","1","1","1","1","1","1","1"
"250026","img/neutralC/CFD-BM-030-003-N.jpg","img/neutralC/CFD-WM-028-003-N.jpg","img/neutralC/CFD-AM-205-153-N.jpg","1","1","1","0","1","1","0.502474999986589","0.442953900026623","0.417066999943927","1","1","1","1","1","1","1","1","1"
"250026","img/neutralC/CFD-AM-205-153-N.jpg","img/neutralC/CFD-BM-030-003-N.jpg","img/neutralC/CFD-WF-221-005-N.jpg","1","1","1","1","0","0","0.417066999943927","0.502474999986589","0.487826700031292","1","1","1","1","1","1","1","1","1"
"250026","img/neutralC/CFD-WF-221-005-N.jpg","img/neutralC/CFD-AM-205-153-N.jpg","img/neutralC/CFD-IM-689-263-N.jpg","1","1","1","0","1","1","0.487826700031292","0.417066999943927","0.457365799986292","1","1","1","1","1","1","1","1","1"
"250026","img/neutralC/CFD-IM-689-263-N.jpg","img/neutralC/CFD-WF-221-005-N.jpg","img/neutralC/CFD-BM-043-071-N.jpg","1","1","1","1","0","0","0.457365799986292","0.487826700031292","0.507134000014048","1","1","1","1","1","1","1","1","1"
"250026","img/neutralC/CFD-BM-043-071-N.jpg","img/neutralC/CFD-IM-689-263-N.jpg","img/neutralC/CFD-IM-697-015-N.jpg","1","1","1","0","1","1","0.507134000014048","0.457365799986292","0.431621700001415","1","1","1","1","1","1","1","1","1"
"250026","img/neutralC/CFD-IM-697-015-N.jpg","img/neutralC/CFD-BM-043-071-N.jpg","img/neutralC/CFD-IM-615-167-N.jpg","1","1","1","1","0","0","0.431621700001415","0.507134000014048","0.539542399987113","1","1","1","1","1","1","1","1","1"
"250026","img/neutralC/CFD-IM-615-167-N.jpg","img/neutralC/CFD-IM-697-015-N.jpg","img/neutralC/CFD-WF-241-210-N.jpg","1","1","1","0","1","0","0.539542399987113","0.431621700001415","0.47463880002033","1","1","1","1","1","1","1","1","1"
"250026","img/neutralC/CFD-WF-241-210-N.jpg","img/neutralC/CFD-IM-615-167-N.jpg","img/neutralC/CFD-MF-328-020-N.jpg","1","1","1","0","0","0","0.47463880002033","0.539542399987113","0.547883199993521","1","1","1","1","1","1","1","1","1"
"250026","img/neutralC/CFD-MF-328-020-N.jpg","img/neutralC/CFD-WF-241-210-N.jpg","img/neutralC/CFD-LM-240-013-N.jpg","1","1","1","0","0","1","0.547883199993521","0.47463880002033","0.414794499985874","1","1","1","1","1","1","1","1","1"
"250026","img/neutralC/CFD-LM-240-013-N.jpg","img/neutralC/CFD-MF-328-020-N.jpg","img/neutralC/CFD-BM-227-191-N.jpg","1","1","1","1","0","1","0.414794499985874","0.547883199993521","0.422135900007561","1","1","1","1","1","1","1","1","1"
"250026","img/neutralC/CFD-BM-227-191-N.jpg","img/neutralC/CFD-LM-240-013-N.jpg","img/neutralC/CFD-AM-243-212-N.jpg","1","1","1","1","1","1","0.422135900007561","0.414794499985874","0.41248140000971","1","1","1","1","1","1","1","1","1"
"250026","img/neutralC/CFD-AM-243-212-N.jpg","img/neutralC/CFD-BM-227-191-N.jpg","img/neutralC/CFD-LF-212-066-N.jpg","1","1","1","1","1","1","0.41248140000971","0.422135900007561","0.485709300031886","1","1","1","1","1","1","1","1","1"
"250026","img/neutralC/CFD-LF-212-066-N.jpg","img/neutralC/CFD-AM-243-212-N.jpg","img/neutralC/CFD-BM-021-021-N.jpg","1","1","1","1","1","1","0.485709300031886","0.41248140000971","0.507847199973185","1","1","1","1","1","1","1","1","1"
"250026","img/neutralC/CFD-BM-021-021-N.jpg","img/neutralC/CFD-LF-212-066-N.jpg","img/neutralC/CFD-WF-243-148-N.jpg","1","1","1","1","1","0","0.507847199973185","0.485709300031886","0.441576299956068","1","1","1","1","1","1","1","1","1"
"250026","img/neutralC/CFD-WF-243-148-N.jpg","img/neutralC/CFD-BM-021-021-N.jpg","img/neutralC/CFD-AM-219-101-N.jpg","1","1","0","0","1","0","0.441576299956068","0.507847199973185","0.407216600026004","1","1","1","1","1","1","1","1","1"
"250026","img/neutralC/CFD-AM-219-101-N.jpg","img/neutralC/CFD-WF-243-148-N.jpg","img/neutralC/CFD-AF-237-223-N.jpg","0","1","1","0","0","0","0.407216600026004","0.441576299956068","0.911617999954615","1","1","1","1","1","1","1","1","1"
"250026","img/neutralC/CFD-AF-237-223-N.jpg","img/neutralC/CFD-AM-219-101-N.jpg","img/neutralC/CFD-WM-023-001-N.jpg","1","0","1","0","0","0","0.911617999954615","0.407216600026004","0.613525099994149","1","1","1","1","1","1","1","1","1"
"250026","img/neutralC/CFD-WM-023-001-N.jpg","img/neutralC/CFD-AF-237-223-N.jpg","img/neutralC/CFD-BM-009-002-N.jpg","1","1","1","0","0","1","0.613525099994149","0.911617999954615","0.460514300037175","1","1","1","1","1","1","1","1","1"
"250026","img/neutralC/CFD-BM-009-002-N.jpg","img/neutralC/CFD-WM-023-001-N.jpg",NA,"1","1",NA,"1","0",NA,"0.460514300037175","0.613525099994149",NA,"1","1",NA,"1","1",NA,"1","1",NA
"250026","img/neutralC/CFD-WM-249-239-N.jpg",NA,"img/neutralC/CFD-BF-228-212-N.jpg","1",NA,"1","1",NA,"0","0.680168399994727",NA,"0.5797035000287","1",NA,"1","1",NA,"1","1",NA,"1"
"250026","img/neutralC/CFD-BF-228-212-N.jpg","img/neutralC/CFD-WM-249-239-N.jpg","img/neutralC/CFD-AF-240-206-N.jpg","1","1","1","0","1","0","0.5797035000287","0.680168399994727","0.54026649997104","1","1","1","1","1","1","1","1","1"
"250026","img/neutralC/CFD-AF-240-206-N.jpg","img/neutralC/CFD-BF-228-212-N.jpg","img/neutralC/CFD-LM-216-082-N.jpg","1","1","1","0","0","0","0.54026649997104","0.5797035000287","0.523725800041575","1","1","1","1","1","1","1","1","1"
"250026","img/neutralC/CFD-LM-216-082-N.jpg","img/neutralC/CFD-AF-240-206-N.jpg","img/neutralC/CFD-LM-214-165-N.jpg","1","1","1","0","0","1","0.523725800041575","0.54026649997104","0.425162900006399","1","1","1","1","1","1","1","1","1"
"250026","img/neutralC/CFD-LM-214-165-N.jpg","img/neutralC/CFD-LM-216-082-N.jpg","img/neutralC/CFD-WF-017-003-N.jpg","1","1","1","1","0","1","0.425162900006399","0.523725800041575","0.531186899985187","1","1","1","1","1","1","1","1","1"
"250026","img/neutralC/CFD-WF-017-003-N.jpg","img/neutralC/CFD-LM-214-165-N.jpg","img/neutralC/CFD-LM-243-075-N.jpg","1","1","1","1","1","0","0.531186899985187","0.425162900006399","0.586392900033388","1","1","1","1","1","1","1","1","1"
"250026","img/neutralC/CFD-LM-243-075-N.jpg","img/neutralC/CFD-WF-017-003-N.jpg","img/neutralC/CFD-IM-646-023-N.jpg","1","1","1","0","1","1","0.586392900033388","0.531186899985187","0.466136600007303","1","1","1","1","1","1","1","1","1"
"250026","img/neutralC/CFD-IM-646-023-N.jpg","img/neutralC/CFD-LM-243-075-N.jpg","img/neutralC/CFD-BM-248-128-N.jpg","1","1","0","1","0","0","0.466136600007303","0.586392900033388","0.545255600009114","1","1","1","1","1","1","1","1","1"
"250026","img/neutralC/CFD-BM-248-128-N.jpg","img/neutralC/CFD-IM-646-023-N.jpg","img/neutralC/CFD-IM-648-337-N.jpg","0","1","1","0","1","0","0.545255600009114","0.466136600007303","0.536091100017074","1","1","1","1","1","1","1","1","1"
"250026","img/neutralC/CFD-IM-648-337-N.jpg","img/neutralC/CFD-BM-248-128-N.jpg","img/neutralC/CFD-WF-228-196-N.jpg","1","0","1","0","0","0","0.536091100017074","0.545255600009114","0.533439100021496","1","1","1","1","1","1","1","1","1"
"250026","img/neutralC/CFD-WF-228-196-N.jpg","img/neutralC/CFD-IM-648-337-N.jpg","img/neutralC/CFD-IF-642-295-N.jpg","1","1","1","0","0","1","0.533439100021496","0.536091100017074","0.40718989999732","1","1","1","1","1","1","1","1","1"
"250026","img/neutralC/CFD-IF-642-295-N.jpg","img/neutralC/CFD-WF-228-196-N.jpg","img/neutralC/CFD-MM-317-061-N.jpg","1","1","1","1","0","1","0.40718989999732","0.533439100021496","0.45116140000755","1","1","1","1","1","1","1","1","1"
"250026","img/neutralC/CFD-MM-317-061-N.jpg","img/neutralC/CFD-IF-642-295-N.jpg","img/neutralC/CFD-BF-025-002-N.jpg","1","1","1","1","1","0","0.45116140000755","0.40718989999732","0.534338199999183","1","1","1","1","1","1","1","1","1"
"250026","img/neutralC/CFD-BF-025-002-N.jpg","img/neutralC/CFD-MM-317-061-N.jpg","img/neutralC/CFD-WF-240-083-N.jpg","1","1","1","0","1","0","0.534338199999183","0.45116140000755","0.565173999988474","1","1","1","1","1","1","1","1","1"
"250026","img/neutralC/CFD-WF-240-083-N.jpg","img/neutralC/CFD-BF-025-002-N.jpg","img/neutralC/CFD-WM-019-003-N.jpg","1","1","1","0","0","1","0.565173999988474","0.534338199999183","0.465805099986028","1","1","1","1","1","1","1","1","1"
"250026","img/neutralC/CFD-WM-019-003-N.jpg","img/neutralC/CFD-WF-240-083-N.jpg","img/neutralC/CFD-BM-251-013-N.jpg","1","1","1","1","0","1","0.465805099986028","0.565173999988474","0.432579699961934","1","1","1","1","1","1","1","1","1"
"250026","img/neutralC/CFD-BM-251-013-N.jpg","img/neutralC/CFD-WM-019-003-N.jpg","img/neutralC/CFD-WM-212-097-N.jpg","1","1","1","1","1","0","0.432579699961934","0.465805099986028","0.58077969995793","1","1","1","1","1","1","1","1","1"
"250026","img/neutralC/CFD-WM-212-097-N.jpg","img/neutralC/CFD-BM-251-013-N.jpg","img/neutralC/CFD-WM-215-041-N.jpg","1","1","1","0","1","0","0.58077969995793","0.432579699961934","0.492505299975164","1","1","1","1","1","1","1","1","1"
"250026","img/neutralC/CFD-WM-215-041-N.jpg","img/neutralC/CFD-WM-212-097-N.jpg","img/neutralC/CFD-BF-041-001-N.jpg","1","1","1","0","0","1","0.492505299975164","0.58077969995793","0.481979600037448","1","1","1","1","1","1","1","1","1"
"250026","img/neutralC/CFD-BF-041-001-N.jpg","img/neutralC/CFD-WM-215-041-N.jpg","img/neutralC/CFD-WM-012-001-N.jpg","1","1","1","1","0","1","0.481979600037448","0.492505299975164","0.419457799987867","1","1","1","1","1","1","1","1","1"
"250026","img/neutralC/CFD-WM-012-001-N.jpg","img/neutralC/CFD-BF-041-001-N.jpg","img/neutralC/CFD-AM-247-165-N.jpg","1","1","1","1","1","1","0.419457799987867","0.481979600037448","0.447572199977003","1","1","1","1","1","1","1","1","1"
"250026","img/neutralC/CFD-AM-247-165-N.jpg","img/neutralC/CFD-WM-012-001-N.jpg","img/neutralC/CFD-WM-006-002-N.jpg","1","1","1","1","1","0","0.447572199977003","0.419457799987867","0.527143700048327","1","1","1","1","1","1","1","1","1"
"250026","img/neutralC/CFD-WM-006-002-N.jpg","img/neutralC/CFD-AM-247-165-N.jpg","img/neutralC/CFD-LM-201-057-N.jpg","1","1","1","0","1","1","0.527143700048327","0.447572199977003","0.445292600023095","1","1","1","1","1","1","1","1","1"
"250026","img/neutralC/CFD-LM-201-057-N.jpg","img/neutralC/CFD-WM-006-002-N.jpg","img/neutralC/CFD-MF-309-002-N.jpg","1","1","1","1","0","0","0.445292600023095","0.527143700048327","0.627796199987642","1","1","1","1","1","1","1","1","1"
"250026","img/neutralC/CFD-MF-309-002-N.jpg","img/neutralC/CFD-LM-201-057-N.jpg","img/neutralC/CFD-LM-244-068-N.jpg","1","1","1","0","1","1","0.627796199987642","0.445292600023095","0.462830699980259","1","1","1","1","1","1","1","1","1"
"250026","img/neutralC/CFD-LM-244-068-N.jpg","img/neutralC/CFD-MF-309-002-N.jpg","img/neutralC/CFD-BF-202-109-N.jpg","1","1","1","1","0","1","0.462830699980259","0.627796199987642","0.433573400019668","1","1","1","1","1","1","1","1","1"
"250026","img/neutralC/CFD-BF-202-109-N.jpg","img/neutralC/CFD-LM-244-068-N.jpg","img/neutralC/CFD-BF-212-315-N.jpg","1","1","1","1","1","1","0.433573400019668","0.462830699980259","0.419186999963131","1","1","1","1","1","1","1","1","1"
"250026","img/neutralC/CFD-BF-212-315-N.jpg","img/neutralC/CFD-BF-202-109-N.jpg","img/neutralC/CFD-WM-026-001-N.jpg","1","1","1","1","1","1","0.419186999963131","0.433573400019668","0.540385400003288","1","1","1","1","1","1","1","1","1"
"250026","img/neutralC/CFD-WM-026-001-N.jpg","img/neutralC/CFD-BF-212-315-N.jpg","img/neutralC/CFD-WF-005-010-N.jpg","1","1","1","1","1","0","0.540385400003288","0.419186999963131","0.55318270000862","1","1","1","1","1","1","1","1","1"
"250026","img/neutralC/CFD-WF-005-010-N.jpg","img/neutralC/CFD-WM-026-001-N.jpg","img/neutralC/CFD-MF-335-002-N.jpg","1","1","1","0","1","0","0.55318270000862","0.540385400003288","0.621944299957249","1","1","1","1","1","1","1","1","1"
"250026","img/neutralC/CFD-MF-335-002-N.jpg","img/neutralC/CFD-WF-005-010-N.jpg","img/neutralC/CFD-BM-205-001-N.jpg","1","1","1","0","0","0","0.621944299957249","0.55318270000862","0.474754300026689","1","1","1","1","1","1","1","1","1"
"250026","img/neutralC/CFD-BM-205-001-N.jpg","img/neutralC/CFD-MF-335-002-N.jpg",NA,"1","1",NA,"0","0",NA,"0.474754300026689","0.621944299957249",NA,"1","1",NA,"1","1",NA,"1","1",NA
"250026","img/neutralC/CFD-WM-209-038-N.jpg",NA,"img/neutralC/CFD-MF-316-001-N.jpg","1",NA,"0","0",NA,"0","0.566328299988527",NA,"0.797068500018213","1",NA,"1","1",NA,"1","1",NA,"1"
"250026","img/neutralC/CFD-MF-316-001-N.jpg","img/neutralC/CFD-WM-209-038-N.jpg","img/neutralC/CFD-AF-233-190-N.jpg","0","1","1","0","0","0","0.797068500018213","0.566328299988527","0.53875089995563","1","1","1","1","1","1","1","1","1"
"250026","img/neutralC/CFD-AF-233-190-N.jpg","img/neutralC/CFD-MF-316-001-N.jpg","img/neutralC/CFD-AM-220-134-N.jpg","1","0","1","0","0","0","0.53875089995563","0.797068500018213","0.543633900000714","1","1","1","1","1","1","1","1","1"
"250026","img/neutralC/CFD-AM-220-134-N.jpg","img/neutralC/CFD-AF-233-190-N.jpg","img/neutralC/CFD-MF-343-001-N.jpg","1","1","1","0","0","1","0.543633900000714","0.53875089995563","0.467337500012945","1","1","1","1","1","1","1","1","1"
"250026","img/neutralC/CFD-MF-343-001-N.jpg","img/neutralC/CFD-AM-220-134-N.jpg","img/neutralC/CFD-IF-626-375-N.jpg","1","1","1","1","0","0","0.467337500012945","0.543633900000714","0.497758099983912","1","1","1","1","1","1","1","1","1"
"250026","img/neutralC/CFD-IF-626-375-N.jpg","img/neutralC/CFD-MF-343-001-N.jpg","img/neutralC/CFD-WF-244-163-N.jpg","1","1","1","0","1","1","0.497758099983912","0.467337500012945","0.475481400033459","1","1","1","1","1","1","1","1","1"
"250026","img/neutralC/CFD-WF-244-163-N.jpg","img/neutralC/CFD-IF-626-375-N.jpg","img/neutralC/CFD-WF-222-092-N.jpg","1","1","1","1","0","1","0.475481400033459","0.497758099983912","0.42124120000517","1","1","1","1","1","1","1","1","1"
"250026","img/neutralC/CFD-WF-222-092-N.jpg","img/neutralC/CFD-WF-244-163-N.jpg","img/neutralC/CFD-BM-217-082-N.jpg","1","1","1","1","1","0","0.42124120000517","0.475481400033459","0.499553300032858","1","1","1","1","1","1","1","1","1"
"250026","img/neutralC/CFD-BM-217-082-N.jpg","img/neutralC/CFD-WF-222-092-N.jpg","img/neutralC/CFD-MM-324-069-N.jpg","1","1","1","0","1","1","0.499553300032858","0.42124120000517","0.468923499982338","1","1","1","1","1","1","1","1","1"
"250026","img/neutralC/CFD-MM-324-069-N.jpg","img/neutralC/CFD-BM-217-082-N.jpg","img/neutralC/CFD-WF-030-002-N.jpg","1","1","1","1","0","0","0.468923499982338","0.499553300032858","0.444726499961689","1","1","1","1","1","1","1","1","1"
"250026","img/neutralC/CFD-WF-030-002-N.jpg","img/neutralC/CFD-MM-324-069-N.jpg","img/neutralC/CFD-IM-667-369-N.jpg","1","1","1","0","1","0","0.444726499961689","0.468923499982338","0.54211799998302","1","1","1","1","1","1","1","1","1"
"250026","img/neutralC/CFD-IM-667-369-N.jpg","img/neutralC/CFD-WF-030-002-N.jpg","img/neutralC/CFD-IM-664-651-N.jpg","1","1","1","0","0","1","0.54211799998302","0.444726499961689","0.443110099993646","1","1","1","1","1","1","1","1","1"
"250026","img/neutralC/CFD-IM-664-651-N.jpg","img/neutralC/CFD-IM-667-369-N.jpg","img/neutralC/CFD-LF-255-088-N.jpg","1","1","1","1","0","0","0.443110099993646","0.54211799998302","0.529763300030027","1","1","1","1","1","1","1","1","1"
"250026","img/neutralC/CFD-LF-255-088-N.jpg","img/neutralC/CFD-IM-664-651-N.jpg","img/neutralC/CFD-BM-001-014-N.jpg","1","1","1","0","1","0","0.529763300030027","0.443110099993646","0.57900620001601","1","1","1","1","1","1","1","1","1"
"250026","img/neutralC/CFD-BM-001-014-N.jpg","img/neutralC/CFD-LF-255-088-N.jpg","img/neutralC/CFD-LM-225-130-N.jpg","1","1","1","0","0","0","0.57900620001601","0.529763300030027","0.499469800037332","1","1","1","1","1","1","1","1","1"
"250026","img/neutralC/CFD-LM-225-130-N.jpg","img/neutralC/CFD-BM-001-014-N.jpg","img/neutralC/CFD-WM-218-074-N.jpg","1","1","1","0","0","1","0.499469800037332","0.57900620001601","0.611993499973323","1","1","1","1","1","1","1","1","1"
"250026","img/neutralC/CFD-WM-218-074-N.jpg","img/neutralC/CFD-LM-225-130-N.jpg","img/neutralC/CFD-IF-660-464-N.jpg","1","1","1","1","0","0","0.611993499973323","0.499469800037332","0.545504699985031","1","1","1","1","1","1","1","1","1"
"250026","img/neutralC/CFD-IF-660-464-N.jpg","img/neutralC/CFD-WM-218-074-N.jpg","img/neutralC/CFD-WF-007-001-N.jpg","1","1","1","0","1","1","0.545504699985031","0.611993499973323","0.45280459994683","1","1","1","1","1","1","1","1","1"
"250026","img/neutralC/CFD-WF-007-001-N.jpg","img/neutralC/CFD-IF-660-464-N.jpg","img/neutralC/CFD-BM-250-170-N.jpg","1","1","1","1","0","1","0.45280459994683","0.545504699985031","0.483089999994263","1","1","1","1","1","1","1","1","1"
"250026","img/neutralC/CFD-BM-250-170-N.jpg","img/neutralC/CFD-WF-007-001-N.jpg","img/neutralC/CFD-BF-014-002-N.jpg","1","1","1","1","1","1","0.483089999994263","0.45280459994683","0.572923999978229","1","1","1","1","1","1","1","1","1"
"250026","img/neutralC/CFD-BF-014-002-N.jpg","img/neutralC/CFD-BM-250-170-N.jpg","img/neutralC/CFD-LF-206-078-N.jpg","1","1","1","1","1","1","0.572923999978229","0.483089999994263","0.440319199988153","1","1","1","1","1","1","1","1","1"
"250026","img/neutralC/CFD-LF-206-078-N.jpg","img/neutralC/CFD-BF-014-002-N.jpg","img/neutralC/CFD-MF-357-002-N.jpg","1","1","1","1","1","0","0.440319199988153","0.572923999978229","0.632664399978239","1","1","1","1","1","1","1","1","1"
"250026","img/neutralC/CFD-MF-357-002-N.jpg","img/neutralC/CFD-LF-206-078-N.jpg","img/neutralC/CFD-IM-702-101-N.jpg","1","1","1","0","1","1","0.632664399978239","0.440319199988153","0.428758699970786","1","1","1","1","1","1","1","1","1"
"250026","img/neutralC/CFD-IM-702-101-N.jpg","img/neutralC/CFD-MF-357-002-N.jpg","img/neutralC/CFD-WM-015-002-N.jpg","1","1","1","1","0","0","0.428758699970786","0.632664399978239","0.553691700042691","1","1","1","1","1","1","1","1","1"
"250026","img/neutralC/CFD-WM-015-002-N.jpg","img/neutralC/CFD-IM-702-101-N.jpg","img/neutralC/CFD-MF-305-014-N.jpg","1","1","1","0","1","1","0.553691700042691","0.428758699970786","0.579567299981136","1","1","1","1","1","1","1","1","1"
"250026","img/neutralC/CFD-MF-305-014-N.jpg","img/neutralC/CFD-WM-015-002-N.jpg","img/neutralC/CFD-MF-303-013-N.jpg","1","1","1","1","0","0","0.579567299981136","0.553691700042691","0.634352800028864","1","1","1","1","1","1","1","1","1"
"250026","img/neutralC/CFD-MF-303-013-N.jpg","img/neutralC/CFD-MF-305-014-N.jpg","img/neutralC/CFD-BF-237-172-N.jpg","1","1","1","0","1","1","0.634352800028864","0.579567299981136","0.578934099990875","1","1","1","1","1","1","1","1","1"
"250026","img/neutralC/CFD-BF-237-172-N.jpg","img/neutralC/CFD-MF-303-013-N.jpg","img/neutralC/CFD-LM-200-045-N.jpg","1","1","1","1","0","1","0.578934099990875","0.634352800028864","0.425340400019195","1","1","1","1","1","1","1","1","1"
"250026","img/neutralC/CFD-LM-200-045-N.jpg","img/neutralC/CFD-BF-237-172-N.jpg","img/neutralC/CFD-IM-706-002-N.jpg","1","1","1","1","1","0","0.425340400019195","0.578934099990875","0.642517899977975","1","1","1","1","1","1","1","1","1"
"250026","img/neutralC/CFD-IM-706-002-N.jpg","img/neutralC/CFD-LM-200-045-N.jpg","img/neutralC/CFD-IM-680-369-N.jpg","1","1","1","0","1","1","0.642517899977975","0.425340400019195","0.492281699960586","1","1","1","1","1","1","1","1","1"
"250026","img/neutralC/CFD-IM-680-369-N.jpg","img/neutralC/CFD-IM-706-002-N.jpg","img/neutralC/CFD-AF-253-130-N.jpg","1","1","1","1","0","1","0.492281699960586","0.642517899977975","0.621770099969581","1","1","1","1","1","1","1","1","1"
"250026","img/neutralC/CFD-AF-253-130-N.jpg","img/neutralC/CFD-IM-680-369-N.jpg",NA,"1","1",NA,"1","1",NA,"0.621770099969581","0.492281699960586",NA,"1","1",NA,"1","1",NA,"1","1",NA
