"participant_id","face","surpAcc","memory_surp_responses","memory_surp_rt","keep_surp_memory_trial_based_on_rt","surp_block_num","exclude_block","number_of_surp_resp_items_used","num_blocks_excluded"
"250015","img/neutralC/CFD-LF-242-121-N.jpg","1","k","5.74194350000471",1,1,0,2,0
"250015","img/neutralC/CFD-MF-340-026-N.jpg","1","k","1.79157970001688",1,1,0,2,0
"250015","img/neutralC/CFD-WF-027-003-N.jpg","0","s","1.60557170002721",1,1,0,2,0
"250015","img/neutralC/CFD-WF-029-002-N.jpg","0","k","3.14954040001612",1,1,0,2,0
"250015","img/neutralC/CFD-IM-606-008-N.jpg","1","s","1.047062299971",1,1,0,2,0
"250015","img/neutralC/CFD-BF-207-004-N.jpg","1","s","1.16687539999839",1,1,0,2,0
"250015","img/neutralC/CFD-MF-336-016-N.jpg","1","s","1.59257249999791",1,1,0,2,0
"250015","img/neutralC/CFD-WF-224-099-N.jpg","0","s","2.2444211000111",1,1,0,2,0
"250015","img/neutralC/CFD-AF-254-167-N.jpg","0","s","1.21733069996117",1,1,0,2,0
"250015","img/neutralC/CFD-WF-221-005-N.jpg","0","k","1.38467100000707",1,1,0,2,0
"250015","img/neutralC/CFD-AM-220-134-N.jpg","1","s","1.2642076999764",1,1,0,2,0
"250015","img/neutralC/CFD-AM-221-184-N.jpg","0","k","1.26616459997604",1,1,0,2,0
"250015","img/neutralC/CFD-BM-029-024-N.jpg","1","k","1.11697259999346",1,1,0,2,0
"250015","img/neutralC/CFD-WF-002-004-N.jpg","1","k","1.46894680004334",1,1,0,2,0
"250015","img/neutralC/CFD-BF-237-172-N.jpg","0","s","1.11120439996012",1,1,0,2,0
"250015","img/neutralC/CFD-AM-236-090-N.jpg","1","s","1.65137639996829",1,1,0,2,0
"250015","img/neutralC/CFD-WF-207-014-N.jpg","0","s","1.68742109998129",1,1,0,2,0
"250015","img/neutralC/CFD-IM-638-250-1-N.jpg","1","s","2.01322640001308",1,1,0,2,0
"250015","img/neutralC/CFD-LF-239-148-N.jpg","1","s","1.33919869997771",1,1,0,2,0
"250015","img/neutralC/CFD-WF-005-010-N.jpg","1","k","1.17361589998472",1,1,0,2,0
"250015","img/neutralC/CFD-IM-635-010-N.jpg","1","s","1.04840530001093",1,1,0,2,0
"250015","img/neutralC/CFD-BF-201-080-N.jpg","1","s","1.63904639997054",1,1,0,2,0
"250015","img/neutralC/CFD-LF-211-003-N.jpg","0","k","1.34094710001955",1,1,0,2,0
"250015","img/neutralC/CFD-AF-233-190-N.jpg","1","s","2.24031480000122",1,1,0,2,0
"250015","img/neutralC/CFD-IM-743-006-N.jpg","1","k","2.49882269999944",1,1,0,2,0
"250015","img/neutralC/CFD-LM-244-068-N.jpg","0","s","1.35309009999037",1,1,0,2,0
"250015","img/neutralC/CFD-WF-245-084-N.jpg","1","k","1.70107650000136",1,1,0,2,0
"250015","img/neutralC/CFD-WF-243-148-N.jpg","1","k","1.56995399994776",1,1,0,2,0
"250015","img/neutralC/CFD-WM-221-091-N.jpg","0","k","1.3311727999826",1,1,0,2,0
"250015","img/neutralC/CFD-AF-205-155-N.jpg","1","s","3.05717039998854",1,1,0,2,0
"250015","img/neutralC/CFD-LM-252-076-N.jpg","0","k","4.56682990002446",1,1,0,2,0
"250015","img/neutralC/CFD-IF-642-295-N.jpg","1","s","1.18472509999992",1,1,0,2,0
"250015","img/neutralC/CFD-BF-236-177-N.jpg","0","s","1.93900150002446",1,1,0,2,0
"250015","img/neutralC/CFD-BF-202-109-N.jpg","1","s","1.41858669999056",1,1,0,2,0
"250015","img/neutralC/CFD-LF-203-066-N.jpg","1","s","1.26501299999654",1,1,0,2,0
"250015","img/neutralC/CFD-BM-027-001-N.jpg","1","k","3.31104289996438",1,1,0,2,0
"250015","img/neutralC/CFD-BF-041-001-N.jpg","1","k","0.899971899983939",1,1,0,2,0
"250015","img/neutralC/CFD-MF-328-020-N.jpg","1","k","1.75322359998245",1,1,0,2,0
"250015","img/neutralC/CFD-WM-249-239-N.jpg","1","k","2.75861439999426",1,1,0,2,0
"250015","img/neutralC/CFD-WF-228-196-N.jpg","1","k","1.64586660003988",1,1,0,2,0
"250015","img/neutralC/CFD-IF-625-225-N.jpg","1","s","2.13406230002875",1,1,0,2,0
"250015","img/neutralC/CFD-IM-684-008-N.jpg","1","k","1.82951619999949",1,1,0,2,0
"250015","img/neutralC/CFD-AF-240-206-N.jpg","1","s","1.30025030003162",1,1,0,2,0
"250015","img/neutralC/CFD-WM-225-127-N.jpg","0","k","2.05798570002662",1,1,0,2,0
"250015","img/neutralC/CFD-WM-021-001-N.jpg","0","k","1.75051230000099",1,1,0,2,0
"250015","img/neutralC/CFD-BF-217-189-N.jpg","1","k","1.12193830002798",1,1,0,2,0
"250015","img/neutralC/CFD-BM-010-003-N.jpg","1","s","1.33497919997899",1,1,0,2,0
"250015","img/neutralC/CFD-BF-014-002-N.jpg","1","k","2.34418559999904",1,1,0,2,0
"250015","img/neutralC/CFD-BF-039-031-N.jpg","0","k","0.929224799969234",1,2,0,2,0
"250015","img/neutralC/CFD-LF-222-147-N.jpg","1","k","2.3793452999671",1,2,0,2,0
"250015","img/neutralC/CFD-IM-675-015-N.jpg","0","k","1.41776039998513",1,2,0,2,0
"250015","img/neutralC/CFD-IM-696-001-N.jpg","1","k","0.926760300004389",1,2,0,2,0
"250015","img/neutralC/CFD-MF-318-022-N.jpg","1","s","2.46100670000305",1,2,0,2,0
"250015","img/neutralC/CFD-BF-020-002-N.jpg","0","k","0.956638799980283",1,2,0,2,0
"250015","img/neutralC/CFD-AF-215-70-N.jpg","1","k","2.30357099999674",1,2,0,2,0
"250015","img/neutralC/CFD-MF-301-024-N.jpg","1","k","1.23679740005173",1,2,0,2,0
"250015","img/neutralC/CFD-WF-007-001-N.jpg","1","s","1.06539130001329",1,2,0,2,0
"250015","img/neutralC/CFD-WF-226-095-N.jpg","1","k","1.09215270000277",1,2,0,2,0
"250015","img/neutralC/CFD-BF-226-119-N.jpg","1","k","1.37842570000794",1,2,0,2,0
"250015","img/neutralC/CFD-WF-209-052-N.jpg","0","s","1.0490813999786",1,2,0,2,0
"250015","img/neutralC/CFD-LF-214-090-N.jpg","0","s","1.48301429999992",1,2,0,2,0
"250015","img/neutralC/CFD-AF-237-223-N.jpg","1","k","0.983302699984051",1,2,0,2,0
"250015","img/neutralC/CFD-LM-218-183-N.jpg","0","k","0.831935099966358",1,2,0,2,0
"250015","img/neutralC/CFD-MF-309-002-N.jpg","0","k","1.33142890001182",1,2,0,2,0
"250015","img/neutralC/CFD-AM-235-241-N.jpg","0","k","1.81710159999784",1,2,0,2,0
"250015","img/neutralC/CFD-LF-208-127-N.jpg","0","s","1.37957639998058",1,2,0,2,0
"250015","img/neutralC/CFD-BF-232-187-N.jpg","0","s","1.10821089998353",1,2,0,2,0
"250015","img/neutralC/CFD-AM-245-111-N.jpg","1","s","1.54338429996278",1,2,0,2,0
"250015","img/neutralC/CFD-BF-028-001-N.jpg","1","k","1.03080559999216",1,2,0,2,0
"250015","img/neutralC/CFD-MF-335-002-N.jpg","1","k","1.83907629997702",1,2,0,2,0
"250015","img/neutralC/CFD-WM-024-015-N.jpg","0","k","2.33578319998924",1,2,0,2,0
"250015","img/neutralC/CFD-BM-001-014-N.jpg","1","s","1.2201184000005",1,2,0,2,0
"250015","img/neutralC/CFD-AF-229-160-N.jpg","0","k","1.64599490002729",1,2,0,2,0
"250015","img/neutralC/CFD-LM-243-075-N.jpg","1","k","1.76232149999123",1,2,0,2,0
"250015","img/neutralC/CFD-BF-002-001-N.jpg","0","k","2.346397300018",1,2,0,2,0
"250015","img/neutralC/CFD-LM-219-295-N.jpg","0","k","1.01934239995899",1,2,0,2,0
"250015","img/neutralC/CFD-LM-200-045-N.jpg","1","s","1.68145309999818",1,2,0,2,0
"250015","img/neutralC/CFD-BM-250-170-N.jpg","1","k","3.8323275000439",1,2,0,2,0
"250015","img/neutralC/CFD-WM-018-002-N.jpg","1","k","2.66917220002506",1,2,0,2,0
"250015","img/neutralC/CFD-BM-247-240-N.jpg","1","k","1.47390830004588",1,2,0,2,0
"250015","img/neutralC/CFD-LF-212-066-N.jpg","1","s","2.58933779998915",1,2,0,2,0
"250015","img/neutralC/CFD-AM-247-165-N.jpg","1","s","3.52367389999563",1,2,0,2,0
"250015","img/neutralC/CFD-LM-238-129-N.jpg","0","s","1.31403210002463",1,2,0,2,0
"250015","img/neutralC/CFD-WM-253-119-N.jpg","0","k","1.16077429999132",1,2,0,2,0
"250015","img/neutralC/CFD-LM-226-175-N.jpg","1","s","5.75703370000701",1,2,0,2,0
"250015","img/neutralC/CFD-BF-010-001-N.jpg","1","k","1.19059439998819",1,2,0,2,0
"250015","img/neutralC/CFD-WF-006-002-N.jpg","0","k","1.87151050003013",1,2,0,2,0
"250015","img/neutralC/CFD-AF-221-147-N.jpg","0","s","2.48718599998392",1,2,0,2,0
"250015","img/neutralC/CFD-BM-013-002-N.jpg","1","k","1.02164360001916",1,2,0,2,0
"250015","img/neutralC/CFD-WF-238-023-N.jpg","0","k","1.13964010000927",1,2,0,2,0
"250015","img/neutralC/CFD-WM-006-002-N.jpg","0","k","1.098775499966",1,2,0,2,0
"250015","img/neutralC/CFD-IM-703-182-N.jpg","1","k","1.90962590003619",1,2,0,2,0
"250015","img/neutralC/CFD-BF-212-315-N.jpg","0","k","1.25783459999366",1,2,0,2,0
"250015","img/neutralC/CFD-AM-230-150-N.jpg","1","s","0.927992100012489",1,2,0,2,0
"250015","img/neutralC/CFD-WF-235-121-N.jpg","1","k","1.44318880001083",1,2,0,2,0
"250015","img/neutralC/CFD-BM-018-001-N.jpg","1","k","0.702945699973498",1,2,0,2,0
"250015","img/neutralC/CFD-BM-021-021-N.jpg","0","k","1.30542619997868",1,3,0,2,0
"250015","img/neutralC/CFD-LM-215-247-N.jpg","0","k","0.846271599992178",1,3,0,2,0
"250015","img/neutralC/CFD-WF-223-133-N.jpg","0","k","1.9182857000269",1,3,0,2,0
"250015","img/neutralC/CFD-BM-225-154-N.jpg","1","k","0.634691499988548",1,3,0,2,0
"250015","img/neutralC/CFD-LM-253-075-N.jpg","1","s","1.13652960001491",1,3,0,2,0
"250015","img/neutralC/CFD-IM-604-014-N.jpg","0","s","1.49073250003858",1,3,0,2,0
"250015","img/neutralC/CFD-BF-254-201-N.jpg","1","k","1.50577599997632",1,3,0,2,0
"250015","img/neutralC/CFD-AF-206-079-N.jpg","1","s","1.30830480001168",1,3,0,2,0
"250015","img/neutralC/CFD-LM-233-171-N.jpg","0","s","0.808228700014297",1,3,0,2,0
"250015","img/neutralC/CFD-LM-214-165-N.jpg","0","s","1.05555330001516",1,3,0,2,0
"250015","img/neutralC/CFD-AM-244-222-N.jpg","1","k","1.25937540002633",1,3,0,2,0
"250015","img/neutralC/CFD-BF-214-308-N.jpg","1","k","1.82926820003195",1,3,0,2,0
"250015","img/neutralC/CFD-LF-250-169-N.jpg","0","k","0.772064000018872",1,3,0,2,0
"250015","img/neutralC/CFD-BF-006-017-N.jpg","1","s","0.6607419999782",1,3,0,2,0
"250015","img/neutralC/CFD-LF-230-203-N.jpg","0","s","0.997918399982154",1,3,0,2,0
"250015","img/neutralC/CFD-WF-241-210-N.jpg","0","s","2.09339629998431",1,3,0,2,0
"250015","img/neutralC/CFD-AF-202-122-N.jpg","0","k","2.08058619999792",1,3,0,2,0
"250015","img/neutralC/CFD-BM-241-235-N.jpg","1","s","1.21074390003923",1,3,0,2,0
"250015","img/neutralC/CFD-IF-608-390-N.jpg","0","s","2.3973304000101",1,3,0,2,0
"250015","img/neutralC/CFD-LF-236-221-N.jpg","1","k","1.19964810000965",1,3,0,2,0
"250015","img/neutralC/CFD-IF-629-234-N.jpg","0","k","0.86371569999028",1,3,0,2,0
"250015","img/neutralC/CFD-LF-238-154-N.jpg","0","k","1.77894129999913",1,3,0,2,0
"250015","img/neutralC/CFD-BF-042-026-N.jpg","0","k","2.00269029999617",1,3,0,2,0
"250015","img/neutralC/CFD-WM-041-021-N.jpg","1","s","2.5688525000005",1,3,0,2,0
"250015","img/neutralC/CFD-BF-253-202-N.jpg","0","s","1.23975459998474",1,3,0,2,0
"250015","img/neutralC/CFD-MF-343-001-N.jpg","0","k","2.45236979995389",1,3,0,2,0
"250015","img/neutralC/CFD-IM-646-023-N.jpg","1","k","0.855074099963531",1,3,0,2,0
"250015","img/neutralC/CFD-WF-018-017-N.jpg","0","k","2.20849339995766",1,3,0,2,0
"250015","img/neutralC/CFD-BM-019-002-N.jpg","1","k","0.702843900013249",1,3,0,2,0
"250015","img/neutralC/CFD-WM-002-009-N.jpg","1","k","1.84552009997424",1,3,0,2,0
"250015","img/neutralC/CFD-WM-237-052-N.jpg","1","k","1.57652770000277",1,3,0,2,0
"250015","img/neutralC/CFD-WF-222-092-N.jpg","1","s","1.71211840002798",1,3,0,2,0
"250015","img/neutralC/CFD-IM-697-015-N.jpg","1","k","1.09842440002831",1,3,0,2,0
"250015","img/neutralC/CFD-BM-215-155-N.jpg","1","k","1.87081569997827",1,3,0,2,0
"250015","img/neutralC/CFD-BF-222-240-N.jpg","1","k","1.13605740002822",1,3,0,2,0
"250015","img/neutralC/CFD-IF-676-017-N.jpg","1","k","2.03714369999943",1,3,0,2,0
"250015","img/neutralC/CFD-BM-243-218-N.jpg","1","s","2.57815079996362",1,3,0,2,0
"250015","img/neutralC/CFD-MF-302-027-N.jpg","0","s","1.51118890004",1,3,0,2,0
"250015","img/neutralC/CFD-IF-620-218-N.jpg","0","k","3.25531079998473",1,3,0,2,0
"250015","img/neutralC/CFD-IM-637-007-N.jpg","1","s","1.42496169998776",1,3,0,2,0
"250015","img/neutralC/CFD-IM-702-101-N.jpg","1","k","0.98157500004163",1,3,0,2,0
"250015","img/neutralC/CFD-LF-218-072-N.jpg","1","s","1.8809449999826",1,3,0,2,0
"250015","img/neutralC/CFD-LF-210-220-N.jpg","0","s","2.90450879995478",1,3,0,2,0
"250015","img/neutralC/CFD-IM-616-214-N.jpg","0","k","1.0303305000416",1,3,0,2,0
"250015","img/neutralC/CFD-IM-719-221-N.jpg","1","s","1.21027770004002",1,3,0,2,0
"250015","img/neutralC/CFD-IM-615-167-N.jpg","1","k","1.75838150002528",1,3,0,2,0
"250015","img/neutralC/CFD-MF-337-026-N.jpg","0","s","1.17888680001488",1,3,0,2,0
"250015","img/neutralC/CFD-LF-247-051-N.jpg","1","k","1.53242120001232",1,3,0,2,0
"250015","img/neutralC/CFD-BF-224-002-N.jpg","1","s","2.09262249997118",1,4,0,2,0
"250015","img/neutralC/CFD-IF-650-315-N.jpg","1","k","1.3390535999788",1,4,0,2,0
"250015","img/neutralC/CFD-MF-312-002-N.jpg","1","s","1.44661220000125",1,4,0,2,0
"250015","img/neutralC/CFD-MF-303-013-N.jpg","1","k","1.14334020001115",1,4,0,2,0
"250015","img/neutralC/CFD-WM-025-002-N.jpg","0","k","1.30008080002153",1,4,0,2,0
"250015","img/neutralC/CFD-IM-706-002-N.jpg","0","s","1.14617940003518",1,4,0,2,0
"250015","img/neutralC/CFD-WF-210-086-N.jpg","1","k","0.826704699953552",1,4,0,2,0
"250015","img/neutralC/CFD-LM-225-130-N.jpg","1","k","0.888553400000092",1,4,0,2,0
"250015","img/neutralC/CFD-WF-012-002-N.jpg","0","k","1.01450889999978",1,4,0,2,0
"250015","img/neutralC/CFD-MF-342-022-N.jpg","1","s","0.811391199997161",1,4,0,2,0
"250015","img/neutralC/CFD-IM-709-103-N.jpg","1","k","0.940474400005769",1,4,0,2,0
"250015","img/neutralC/CFD-BM-211-174-N.jpg","1","s","0.983382200007327",1,4,0,2,0
"250015","img/neutralC/CFD-IM-721-341-N.jpg","1","k","1.30987040000036",1,4,0,2,0
"250015","img/neutralC/CFD-AF-241-141-N.jpg","0","s","1.03168999997433",1,4,0,2,0
"250015","img/neutralC/CFD-AM-249-163-N.jpg","0","k","2.27180220000446",1,4,0,2,0
"250015","img/neutralC/CFD-IM-648-337-N.jpg","1","k","1.07158429996343",1,4,0,2,0
"250015","img/neutralC/CFD-LF-220-120-N.jpg","1","s","1.31465920002665",1,4,0,2,0
"250015","img/neutralC/CFD-IF-742-103-N.jpg","1","k","2.84952430002159",1,4,0,2,0
"250015","img/neutralC/CFD-BF-206-143-N.jpg","1","k","1.35917819995666",1,4,0,2,0
"250015","img/neutralC/CFD-BM-204-003-N.jpg","1","k","0.966264799993951",1,4,0,2,0
"250015","img/neutralC/CFD-IM-653-008-N.jpg","1","k","1.15529439999955",1,4,0,2,0
"250015","img/neutralC/CFD-WM-257-161-N.jpg","1","k","1.19889200001489",1,4,0,2,0
"250015","img/neutralC/CFD-WF-214-122-N.jpg","0","k","1.17530910001369",1,4,0,2,0
"250015","img/neutralC/CFD-MF-327-002-N.jpg","0","k","1.20043480000459",1,4,0,2,0
"250015","img/neutralC/CFD-MF-316-001-N.jpg","0","s","1.61903930001426",1,4,0,2,0
"250015","img/neutralC/CFD-WM-232-070-N.jpg","1","k","0.65525140002137",1,4,0,2,0
"250015","img/neutralC/CFD-IF-729-393-N.jpg","1","k","1.09982960001798",1,4,0,2,0
"250015","img/neutralC/CFD-WF-248-129-N.jpg","1","k","0.914830399968196",1,4,0,2,0
"250015","img/neutralC/CFD-IM-685-004-N.jpg","1","k","1.66820900002494",1,4,0,2,0
"250015","img/neutralC/CFD-WM-026-001-N.jpg","1","k","3.28078450000612",1,4,0,2,0
"250015","img/neutralC/CFD-BM-200-046-N.jpg","1","k","1.42165129998466",1,4,0,2,0
"250015","img/neutralC/CFD-AM-205-153-N.jpg","0","s","0.79332339996472",1,4,0,2,0
"250015","img/neutralC/CFD-IF-732-260-N.jpg","1","k","1.54448959999718",1,4,0,2,0
"250015","img/neutralC/CFD-BF-213-188-N.jpg","1","s","1.214192799991",1,4,0,2,0
"250015","img/neutralC/CFD-LF-226-174-N.jpg","0","s","0.917242900002748",1,4,0,2,0
"250015","img/neutralC/CFD-BM-033-003-N.jpg","1","k","1.53039470000658",1,4,0,2,0
"250015","img/neutralC/CFD-MF-357-002-N.jpg","1","s","2.0480755000026",1,4,0,2,0
"250015","img/neutralC/CFD-BF-029-031-N.jpg","0","s","2.7986597000272",1,4,0,2,0
"250015","img/neutralC/CFD-LF-205-100-N.jpg","1","k","1.35299529996701",1,4,0,2,0
"250015","img/neutralC/CFD-AM-243-212-N.jpg","1","k","1.80722260003677",1,4,0,2,0
"250015","img/neutralC/CFD-AF-210-050-N.jpg","1","s","1.95864989998518",1,4,0,2,0
"250015","img/neutralC/CFD-WF-009-001-N.jpg","0","k","4.54647780000232",1,4,0,2,0
"250015","img/neutralC/CFD-WM-040-022-N.jpg","0","k","1.04822559998138",1,4,0,2,0
"250015","img/neutralC/CFD-MF-329-001-N.jpg","0","s","1.57562239997787",1,4,0,2,0
"250015","img/neutralC/CFD-IM-727-195-N.jpg","1","k","0.814831700001378",1,4,0,2,0
"250015","img/neutralC/CFD-BM-248-128-N.jpg","1","k","0.996949699998368",1,4,0,2,0
"250015","img/neutralC/CFD-AM-201-076-N.jpg","1","k","1.04129239998292",1,4,0,2,0
"250015","img/neutralC/CFD-BM-212-117-N.jpg","0","s","1.41389610001352",1,4,0,2,0
"250015","img/neutralC/CFD-MM-321-021-N.jpg","0","k","0.909102800011169",1,5,0,2,0
"250015","img/neutralC/CFD-AM-212-050-N.jpg","1","s","0.546055200044066",1,5,0,2,0
"250015","img/neutralC/CFD-BM-005-003-N.jpg","1","k","0.499035899993032",1,5,0,2,0
"250015","img/neutralC/CFD-LM-217-162-N.jpg","0","s","0.68499179999344",1,5,0,2,0
"250015","img/neutralC/CFD-MM-316-156-N.jpg","0","k","0.619613900023978",1,5,0,2,0
"250015","img/neutralC/CFD-WM-213-076-N.jpg","0","s","0.848567400011234",1,5,0,2,0
"250015","img/neutralC/CFD-AM-242-176-N.jpg","0","s","1.18452700000489",1,5,0,2,0
"250015","img/neutralC/CFD-WM-254-152-N.jpg","0","k","1.12335519999033",1,5,0,2,0
"250015","img/neutralC/CFD-AF-227-207-N.jpg","0","k","0.889221599965822",1,5,0,2,0
"250015","img/neutralC/CFD-BF-003-003-N.jpg","1","k","0.792597299965564",1,5,0,2,0
"250015","img/neutralC/CFD-WF-008-002-N.jpg","0","k","0.934896699967794",1,5,0,2,0
"250015","img/neutralC/CFD-WM-258-125-N.jpg","0","s","0.997065700008534",1,5,0,2,0
"250015","img/neutralC/CFD-IM-659-359-N.jpg","0","s","0.987109100038651",1,5,0,2,0
"250015","img/neutralC/CFD-LF-241-188-N.jpg","0","s","0.684240000031423",1,5,0,2,0
"250015","img/neutralC/CFD-IF-673-389-N.jpg","1","k","0.734456899983343",1,5,0,2,0
"250015","img/neutralC/CFD-BF-025-002-N.jpg","1","k","0.804554700036533",1,5,0,2,0
"250015","img/neutralC/CFD-IM-639-263-N.jpg","0","k","0.851770700013731",1,5,0,2,0
"250015","img/neutralC/CFD-BF-033-028-N.jpg","1","s","0.597322100016754",1,5,0,2,0
"250015","img/neutralC/CFD-IM-680-369-N.jpg","1","s","0.84136599994963",1,5,0,2,0
"250015","img/neutralC/CFD-BF-255-140-N.jpg","1","s","1.29442470002687",1,5,0,2,0
"250015","img/neutralC/CFD-BM-251-013-N.jpg","1","k","0.895640000002459",1,5,0,2,0
"250015","img/neutralC/CFD-LM-216-082-N.jpg","1","k","1.81782609998481",1,5,0,2,0
"250015","img/neutralC/CFD-WF-036-023-N.jpg","1","k","0.641110499971546",1,5,0,2,0
"250015","img/neutralC/CFD-WM-014-002-N.jpg","0","k","1.02805510000326",1,5,0,2,0
"250015","img/neutralC/CFD-BF-004-014-N.jpg","1","k","0.645805699983612",1,5,0,2,0
"250015","img/neutralC/CFD-AM-251-124-N.jpg","1","s","1.02105370000936",1,5,0,2,0
"250015","img/neutralC/CFD-LF-255-088-N.jpg","0","s","0.711721699975897",1,5,0,2,0
"250015","img/neutralC/CFD-IM-738-191-N.jpg","1","s","0.819719500024803",1,5,0,2,0
"250015","img/neutralC/CFD-BF-208-266-N.jpg","1","s","0.968705099949148",1,5,0,2,0
"250015","img/neutralC/CFD-WF-026-002-N.jpg","1","s","1.02371620002668",1,5,0,2,0
"250015","img/neutralC/CFD-AF-213-126-N.jpg","0","s","3.56359340000199",1,5,0,2,0
"250015","img/neutralC/CFD-AF-232-078-N.jpg","1","s","0.789646600023843",1,5,0,2,0
"250015","img/neutralC/CFD-WM-202-107-N.jpg","0","s","1.03567670000484",1,5,0,2,0
"250015","img/neutralC/CFD-BF-038-037-N.jpg","1","s","0.764926999981981",1,5,0,2,0
"250015","img/neutralC/CFD-WM-038-003-N.jpg","1","s","0.917886900017038",1,5,0,2,0
"250015","img/neutralC/CFD-LM-204-001-N.jpg","1","s","1.21969599998556",1,5,0,2,0
"250015","img/neutralC/CFD-BF-238-190-N.jpg","1","k","0.91917970002396",1,5,0,2,0
"250015","img/neutralC/CFD-IM-701-312-N.jpg","1","k","1.03858210000908",1,5,0,2,0
"250015","img/neutralC/CFD-AF-244-168-N.jpg","1","k","1.0322285000002",1,5,0,2,0
"250015","img/neutralC/CFD-WM-255-219-N.jpg","1","s","1.04802059999201",1,5,0,2,0
"250015","img/neutralC/CFD-BF-018-039-N.jpg","1","k","0.684328400006052",1,5,0,2,0
"250015","img/neutralC/CFD-BM-039-029-N.jpg","1","s","0.927065199997742",1,5,0,2,0
"250015","img/neutralC/CFD-WM-209-038-N.jpg","0","s","1.67663679999532",1,5,0,2,0
"250015","img/neutralC/CFD-LF-206-078-N.jpg","0","k","2.26201159995981",1,5,0,2,0
"250015","img/neutralC/CFD-BF-045-003-N.jpg","1","s","2.01089209999191",1,5,0,2,0
"250015","img/neutralC/CFD-AM-225-102-N.jpg","1","k","0.886102999967989",1,5,0,2,0
"250015","img/neutralC/CFD-IF-677-452-1-N.jpg","1","s","1.20766760001425",1,5,0,2,0
"250015","img/neutralC/CFD-BF-027-002-N.jpg","1","k","0.790028799965512",1,5,0,2,0
"250015","img/neutralC/CFD-BF-043-003-N.jpg","1","s","0.86700159998145",1,6,0,2,0
"250015","img/neutralC/CFD-IF-634-382-N.jpg","0","k","0.818162299983669",1,6,0,2,0
"250015","img/neutralC/CFD-IF-665-015-N.jpg","0","s","0.558461100037675",1,6,0,2,0
"250015","img/neutralC/CFD-LM-213-061-N.jpg","1","s","1.20613510004478",1,6,0,2,0
"250015","img/neutralC/CFD-BM-023-029-N.jpg","0","s","1.94465559994569",1,6,0,2,0
"250015","img/neutralC/CFD-IF-693-172-N.jpg","1","s","1.06235429999651",1,6,0,2,0
"250015","img/neutralC/CFD-IF-718-001-N.jpg","1","s","1.1445032999618",1,6,0,2,0
"250015","img/neutralC/CFD-BM-030-003-N.jpg","1","k","0.819075700012036",1,6,0,2,0
"250015","img/neutralC/CFD-BF-218-207-N.jpg","1","s","0.661301600048319",1,6,0,2,0
"250015","img/neutralC/CFD-BF-051-035-N.jpg","1","k","0.796967400005087",1,6,0,2,0
"250015","img/neutralC/CFD-WM-017-002-N.jpg","0","k","0.71733640000457",1,6,0,2,0
"250015","img/neutralC/CFD-IM-689-263-N.jpg","1","k","0.867510499956552",1,6,0,2,0
"250015","img/neutralC/CFD-WM-228-065-N.jpg","0","k","2.07751279999502",1,6,0,2,0
"250015","img/neutralC/CFD-AM-211-052-N.jpg","1","k","1.18392480001785",1,6,0,2,0
"250015","img/neutralC/CFD-IM-667-369-N.jpg","1","s","1.64959589997306",1,6,0,2,0
"250015","img/neutralC/CFD-IM-651-308-N.jpg","1","s","0.991249200014863",1,6,0,2,0
"250015","img/neutralC/CFD-WF-200-099-N.jpg","0","k","1.21676300000399",1,6,0,2,0
"250015","img/neutralC/CFD-WF-208-068-N.jpg","0","s","0.692350399971474",1,6,0,2,0
"250015","img/neutralC/CFD-WM-015-002-N.jpg","0","s","1.72609880001983",1,6,0,2,0
"250015","img/neutralC/CFD-WM-019-003-N.jpg","0","s","1.20692520000739",1,6,0,2,0
"250015","img/neutralC/CFD-AF-239-171-N.jpg","0","s","1.08724950003671",1,6,0,2,0
"250015","img/neutralC/CFD-WM-242-011-N.jpg","0","s","0.986813800001983",1,6,0,2,0
"250015","img/neutralC/CFD-IF-710-016-N.jpg","0","k","0.691291499999352",1,6,0,2,0
"250015","img/neutralC/CFD-LM-241-125-N.jpg","0","s","0.637250000028871",1,6,0,2,0
"250015","img/neutralC/CFD-BM-026-002-N.jpg","1","s","1.2544373999699",1,6,0,2,0
"250015","img/neutralC/CFD-BM-036-003-N.jpg","1","k","3.79787510004826",1,6,0,2,0
"250015","img/neutralC/CFD-IM-664-651-N.jpg","0","s","1.20813649997581",1,6,0,2,0
"250015","img/neutralC/CFD-WM-248-036-N.jpg","1","s","1.74312450003345",1,6,0,2,0
"250015","img/neutralC/CFD-LF-224-176-N.jpg","1","k","1.59609020000789",1,6,0,2,0
"250015","img/neutralC/CFD-BM-015-015-N.jpg","1","s","1.36006529995939",1,6,0,2,0
"250015","img/neutralC/CFD-BM-207-024-N.jpg","1","s","1.28386119997595",1,6,0,2,0
"250015","img/neutralC/CFD-BM-003-003-N.jpg","1","s","1.4852561999578",1,6,0,2,0
"250015","img/neutralC/CFD-BF-044-034-N.jpg","0","k","0.659560500003863",1,6,0,2,0
"250015","img/neutralC/CFD-WF-240-083-N.jpg","1","k","1.60550410003634",1,6,0,2,0
"250015","img/neutralC/CFD-WF-033-002-N.jpg","1","k","0.890088899992406",1,6,0,2,0
"250015","img/neutralC/CFD-WF-023-003-N.jpg","0","k","1.059413400013",1,6,0,2,0
"250015","img/neutralC/CFD-MM-306-010-N.jpg","1","s","1.66054229997098",1,6,0,2,0
"250015","img/neutralC/CFD-MF-313-002-N.jpg","1","k","1.40439330000663",1,6,0,2,0
"250015","img/neutralC/CFD-IM-627-178-N.jpg","1","s","1.86545370001113",1,6,0,2,0
"250015","img/neutralC/CFD-BM-217-082-N.jpg","1","k","0.982897499983665",1,6,0,2,0
"250015","img/neutralC/CFD-MM-319-052-N.jpg","1","s","1.41189270000905",1,6,0,2,0
"250015","img/neutralC/CFD-MF-321-003-N.jpg","1","k","0.85863029997563",1,6,0,2,0
"250015","img/neutralC/CFD-LM-237-264-N.jpg","0","k","0.66096569999354",1,6,0,2,0
"250015","img/neutralC/CFD-WM-009-002-N.jpg","1","s","4.31032170000253",1,6,0,2,0
"250015","img/neutralC/CFD-IF-672-305-N.jpg","1","k","1.08059520000825",1,6,0,2,0
"250015","img/neutralC/CFD-AF-250-200-N.jpg","1","k","1.01922039996134",1,6,0,2,0
"250015","img/neutralC/CFD-IM-669-111-N.jpg","1","s","1.0959145000088",1,6,0,2,0
"250015","img/neutralC/CFD-WM-219-008-N.jpg","0","k","1.57157069997629",1,6,0,2,0
"250015","img/neutralC/CFD-WM-227-099-N.jpg","0","s","1.88874740002211",1,7,0,2,0
"250015","img/neutralC/CFD-IM-700-009-N.jpg","1","s","1.79033960000379",1,7,0,2,0
"250015","img/neutralC/CFD-WF-030-002-N.jpg","1","k","4.72133279999252",1,7,0,2,0
"250015","img/neutralC/CFD-LF-204-133-N.jpg","0","k","1.65301720000571",1,7,0,2,0
"250015","img/neutralC/CFD-WF-244-163-N.jpg","0","s","0.607216799980961",1,7,0,2,0
"250015","img/neutralC/CFD-BM-253-004-N.jpg","0","s","1.07705520000309",1,7,0,2,0
"250015","img/neutralC/CFD-MF-307-002-N.jpg","1","s","1.08654029999161",1,7,0,2,0
"250015","img/neutralC/CFD-AF-253-130-N.jpg","1","k","1.27554830000736",1,7,0,2,0
"250015","img/neutralC/CFD-MM-304-002-N.jpg","0","k","1.39944579999428",1,7,0,2,0
"250015","img/neutralC/CFD-BM-213-134-N.jpg","0","k","1.03820440004347",1,7,0,2,0
"250015","img/neutralC/CFD-LM-247-095-N.jpg","1","k","1.0655231999699",1,7,0,2,0
"250015","img/neutralC/CFD-BM-238-242-N.jpg","1","k","0.992381400021259",1,7,0,2,0
"250015","img/neutralC/CFD-IM-617-174-N.jpg","1","s","0.666119300003629",1,7,0,2,0
"250015","img/neutralC/CFD-AM-219-101-N.jpg","1","k","1.32406710000942",1,7,0,2,0
"250015","img/neutralC/CFD-LF-225-164-N.jpg","0","s","1.35819110000739",1,7,0,2,0
"250015","img/neutralC/CFD-WM-215-041-N.jpg","1","s","1.02762050001184",1,7,0,2,0
"250015","img/neutralC/CFD-BM-004-002-N.jpg","1","s","1.04098710004473",1,7,0,2,0
"250015","img/neutralC/CFD-BM-020-001-N.jpg","1","s","1.39986520004459",1,7,0,2,0
"250015","img/neutralC/CFD-IM-671-601-N.jpg","1","k","0.689785800001118",1,7,0,2,0
"250015","img/neutralC/CFD-WM-023-001-N.jpg","0","k","1.03911259997403",1,7,0,2,0
"250015","img/neutralC/CFD-MF-300-002-N.jpg","0","k","0.843015399994329",1,7,0,2,0
"250015","img/neutralC/CFD-IM-674-281-N.jpg","1","k","0.904593300016131",1,7,0,2,0
"250015","img/neutralC/CFD-AF-246-242-N.jpg","1","k","1.31460179999704",1,7,0,2,0
"250015","img/neutralC/CFD-BF-012-001-N.jpg","1","k","1.09316230000695",1,7,0,2,0
"250015","img/neutralC/CFD-BM-227-191-N.jpg","0","k","1.08449500001734",1,7,0,2,0
"250015","img/neutralC/CFD-MF-305-014-N.jpg","1","k","2.2949814000167",1,7,0,2,0
"250015","img/neutralC/CFD-IF-744-114-N.jpg","0","k","1.79677060001995",1,7,0,2,0
"250015","img/neutralC/CFD-WM-020-001-N.jpg","0","k","0.917540599999484",1,7,0,2,0
"250015","img/neutralC/CFD-WM-212-097-N.jpg","0","k","1.77682859997731",1,7,0,2,0
"250015","img/neutralC/CFD-WF-213-031-N.jpg","0","k","0.839142099954188",1,7,0,2,0
"250015","img/neutralC/CFD-BM-009-002-N.jpg","1","s","1.12831780000124",1,7,0,2,0
"250015","img/neutralC/CFD-IM-632-097-N.jpg","0","s","1.26474959996995",1,7,0,2,0
"250015","img/neutralC/CFD-WF-234-086-N.jpg","0","k","0.995642800000496",1,7,0,2,0
"250015","img/neutralC/CFD-BF-205-141-N.jpg","1","k","1.0652424999862",1,7,0,2,0
"250015","img/neutralC/CFD-BM-239-136-N.jpg","1","s","1.52210010000272",1,7,0,2,0
"250015","img/neutralC/CFD-IF-660-464-N.jpg","1","k","2.35332870000275",1,7,0,2,0
"250015","img/neutralC/CFD-WM-012-001-N.jpg","0","s","1.06728129996918",1,7,0,2,0
"250015","img/neutralC/CFD-IM-657-308-N.jpg","1","s","1.37568659998942",1,7,0,2,0
"250015","img/neutralC/CFD-LF-245-166-N.jpg","1","k","1.16454029997112",1,7,0,2,0
"250015","img/neutralC/CFD-WM-028-003-N.jpg","1","s","0.91646729997592",1,7,0,2,0
"250015","img/neutralC/CFD-WF-001-003-N.jpg","0","k","1.61814929998945",1,7,0,2,0
"250015","img/neutralC/CFD-WF-233-112-N.jpg","0","k","1.56706200004555",1,7,0,2,0
"250015","img/neutralC/CFD-IM-707-105-N.jpg","0","k","0.840549699962139",1,7,0,2,0
"250015","img/neutralC/CFD-WM-033-025-N.jpg","0","s","1.01077870000154",1,7,0,2,0
"250015","img/neutralC/CFD-AM-233-236-N.jpg","0","k","1.20738649996929",1,7,0,2,0
"250015","img/neutralC/CFD-WM-034-030-N.jpg","0","k","1.12801169999875",1,7,0,2,0
"250015","img/neutralC/CFD-WM-004-010-N.jpg","0","k","1.33796820003772",1,7,0,2,0
"250015","img/neutralC/CFD-WF-250-167-N.jpg","1","s","1.11527349997777",1,7,0,2,0
"250015","img/neutralC/CFD-AF-234-208-N.jpg","1","s","1.79076510004234",1,8,0,2,0
"250015","img/neutralC/CFD-MM-324-069-N.jpg","1","s","1.03627320000669",1,8,0,2,0
"250015","img/neutralC/CFD-WF-017-003-N.jpg","0","k","2.12864290003199",1,8,0,2,0
"250015","img/neutralC/CFD-LM-228-188-N.jpg","0","s","0.724074799974915",1,8,0,2,0
"250015","img/neutralC/CFD-BF-023-010-N.jpg","1","k","0.776020099991001",1,8,0,2,0
"250015","img/neutralC/CFD-BF-235-168-N.jpg","0","k","0.739412800001446",1,8,0,2,0
"250015","img/neutralC/CFD-AM-217-085-N.jpg","0","k","0.789959600020666",1,8,0,2,0
"250015","img/neutralC/CFD-IM-678-482-N.jpg","1","s","2.18521359999431",1,8,0,2,0
"250015","img/neutralC/CFD-LF-215-157-N.jpg","1","s","1.02085630001966",1,8,0,2,0
"250015","img/neutralC/CFD-AF-231-357-N.jpg","0","s","0.82365179999033",1,8,0,2,0
"250015","img/neutralC/CFD-BM-205-001-N.jpg","1","s","0.899699300003704",1,8,0,2,0
"250015","img/neutralC/CFD-LM-240-013-N.jpg","0","s","0.831526299996767",1,8,0,2,0
"250015","img/neutralC/CFD-LF-201-035-N.jpg","0","k","1.0306838999968",1,8,0,2,0
"250015","img/neutralC/CFD-LF-216-121-N.jpg","0","k","1.05909870000323",1,8,0,2,0
"250015","img/neutralC/CFD-BF-036-027-N.jpg","1","s","1.35154020000482",1,8,0,2,0
"250015","img/neutralC/CFD-BM-041-035-N.jpg","0","k","1.08110330003547",1,8,0,2,0
"250015","img/neutralC/CFD-IM-686-097-N.jpg","1","s","0.981446099991444",1,8,0,2,0
"250015","img/neutralC/CFD-IF-619-197-N.jpg","1","k","1.3453602999798",1,8,0,2,0
"250015","img/neutralC/CFD-BF-247-179-N.jpg","0","k","1.13605540001299",1,8,0,2,0
"250015","img/neutralC/CFD-IF-626-375-N.jpg","1","k","2.23886889999267",1,8,0,2,0
"250015","img/neutralC/CFD-WM-218-074-N.jpg","1","k","1.19562499999302",1,8,0,2,0
"250015","img/neutralC/CFD-LM-201-057-N.jpg","0","k","0.672038000018802",1,8,0,2,0
"250015","img/neutralC/CFD-MF-333-012-N.jpg","1","s","0.658085600007325",1,8,0,2,0
"250015","img/neutralC/CFD-IF-636-011-N.jpg","1","k","2.30825239996193",1,8,0,2,0
"250015","img/neutralC/CFD-WM-013-001-N.jpg","0","s","1.51110360003076",1,8,0,2,0
"250015","img/neutralC/CFD-BF-011-002-N.jpg","1","k","0.758963200030848",1,8,0,2,0
"250015","img/neutralC/CFD-IM-645-001-N.jpg","0","s","1.27192129998002",1,8,0,2,0
"250015","img/neutralC/CFD-BF-040-003-N.jpg","1","s","1.22803060000297",1,8,0,2,0
"250015","img/neutralC/CFD-WM-201-063-N.jpg","0","k","1.28479150001658",1,8,0,2,0
"250015","img/neutralC/CFD-MM-317-061-N.jpg","0","s","0.958912200003397",1,8,0,2,0
"250015","img/neutralC/CFD-IM-728-041-N.jpg","1","k","0.932405899977312",1,8,0,2,0
"250015","img/neutralC/CFD-MF-359-019-N.jpg","0","k","2.56804719998036",1,8,0,2,0
"250015","img/neutralC/CFD-MF-352-054-N.jpg","1","k","1.44796299998416",1,8,0,2,0
"250015","img/neutralC/CFD-WF-022-017-N.jpg","0","k","0.990551700000651",1,8,0,2,0
"250015","img/neutralC/CFD-AM-215-120-N.jpg","0","k","1.49397460004548",1,8,0,2,0
"250015","img/neutralC/CFD-WF-212-050-N.jpg","0","k","0.639451999973971",1,8,0,2,0
"250015","img/neutralC/CFD-BF-244-231-N.jpg","1","k","0.693067700020038",1,8,0,2,0
"250015","img/neutralC/CFD-WM-011-002-N.jpg","1","k","1.09513850003714",1,8,0,2,0
"250015","img/neutralC/CFD-WM-235-147-N.jpg","1","s","2.12423549999949",1,8,0,2,0
"250015","img/neutralC/CFD-IF-623-129-N.jpg","0","k","1.00983220001217",1,8,0,2,0
"250015","img/neutralC/CFD-BF-228-212-N.jpg","1","s","0.648453500005417",1,8,0,2,0
"250015","img/neutralC/CFD-BF-229-179-N.jpg","1","k","0.792546200042125",1,8,0,2,0
"250015","img/neutralC/CFD-WF-217-085-N.jpg","0","k","0.700608899991494",1,8,0,2,0
"250015","img/neutralC/CFD-IM-726-248-N.jpg","1","k","0.862600499996915",1,8,0,2,0
"250015","img/neutralC/CFD-BM-231-155-N.jpg","1","s","1.32772129995283",1,8,0,2,0
"250015","img/neutralC/CFD-BM-028-002-N.jpg","1","k","1.21093980001751",1,8,0,2,0
"250015","img/neutralC/CFD-BF-204-189-N.jpg","0","k","0.614560200017877",1,8,0,2,0
"250015","img/neutralC/CFD-BM-043-071-N.jpg","1","k","1.20530859997962",1,8,0,2,0
