"participant_id","current_trial_face","pre_trial_face","post_trial_face","current_trial_accuracy","pre_trial_accuracy","post_trial_accuracy","current_trial_congruency","pre_trial_congruency","post_trial_congruency","current_trial_rt","pre_trial_rt","post_trial_rt","current_trial_responded","pre_trial_responded","post_trial_responded","current_trial_legitResponse","pre_trial_legitResponse","post_trial_legitResponse","current_trial_resp_nums","pre_trial_resp_nums","post_trial_resp_nums"
"250007","img/neutralC/CFD-WF-224-099-N.jpg",NA,"img/neutralC/CFD-IM-684-008-N.jpg","1",NA,"1","0",NA,"1","0.739979499951005",NA,"0.820809400058351","1",NA,"1","1",NA,"1","1",NA,"1"
"250007","img/neutralC/CFD-IM-684-008-N.jpg","img/neutralC/CFD-WF-224-099-N.jpg","img/neutralC/CFD-WM-011-002-N.jpg","1","1","1","1","0","0","0.820809400058351","0.739979499951005","0.454739699955098","1","1","1","1","1","1","1","1","1"
"250007","img/neutralC/CFD-WM-011-002-N.jpg","img/neutralC/CFD-IM-684-008-N.jpg","img/neutralC/CFD-LM-215-247-N.jpg","1","1","1","0","1","0","0.454739699955098","0.820809400058351","0.596009799977764","1","1","1","1","1","1","1","1","1"
"250007","img/neutralC/CFD-LM-215-247-N.jpg","img/neutralC/CFD-WM-011-002-N.jpg","img/neutralC/CFD-WM-041-021-N.jpg","1","1","1","0","0","0","0.596009799977764","0.454739699955098","0.462033999967389","1","1","1","1","1","1","1","1","1"
"250007","img/neutralC/CFD-WM-041-021-N.jpg","img/neutralC/CFD-LM-215-247-N.jpg","img/neutralC/CFD-WF-213-031-N.jpg","1","1","1","0","0","1","0.462033999967389","0.596009799977764","0.367600700003095","1","1","1","1","1","1","1","1","1"
"250007","img/neutralC/CFD-WF-213-031-N.jpg","img/neutralC/CFD-WM-041-021-N.jpg","img/neutralC/CFD-IF-710-016-N.jpg","1","1","1","1","0","0","0.367600700003095","0.462033999967389","0.379062399966642","1","1","1","1","1","1","1","1","1"
"250007","img/neutralC/CFD-IF-710-016-N.jpg","img/neutralC/CFD-WF-213-031-N.jpg","img/neutralC/CFD-IM-651-308-N.jpg","1","1","1","0","1","0","0.379062399966642","0.367600700003095","0.402564899995923","1","1","1","1","1","1","1","1","1"
"250007","img/neutralC/CFD-IM-651-308-N.jpg","img/neutralC/CFD-IF-710-016-N.jpg","img/neutralC/CFD-BF-213-188-N.jpg","1","1","1","0","0","1","0.402564899995923","0.379062399966642","0.315484600025229","1","1","1","1","1","1","1","1","1"
"250007","img/neutralC/CFD-BF-213-188-N.jpg","img/neutralC/CFD-IM-651-308-N.jpg","img/neutralC/CFD-WF-250-167-N.jpg","1","1","1","1","0","1","0.315484600025229","0.402564899995923","0.394543700036593","1","1","1","1","1","1","1","1","1"
"250007","img/neutralC/CFD-WF-250-167-N.jpg","img/neutralC/CFD-BF-213-188-N.jpg","img/neutralC/CFD-LM-218-183-N.jpg","1","1","1","1","1","1","0.394543700036593","0.315484600025229","0.46421999996528","1","1","1","1","1","1","1","1","1"
"250007","img/neutralC/CFD-LM-218-183-N.jpg","img/neutralC/CFD-WF-250-167-N.jpg","img/neutralC/CFD-LF-224-176-N.jpg","1","1","1","1","1","0","0.46421999996528","0.394543700036593","0.340051500010304","1","1","1","1","1","1","1","1","1"
"250007","img/neutralC/CFD-LF-224-176-N.jpg","img/neutralC/CFD-LM-218-183-N.jpg","img/neutralC/CFD-MF-337-026-N.jpg","1","1","1","0","1","1","0.340051500010304","0.46421999996528","0.258711999980733","1","1","1","1","1","1","1","1","1"
"250007","img/neutralC/CFD-MF-337-026-N.jpg","img/neutralC/CFD-LF-224-176-N.jpg","img/neutralC/CFD-BF-039-031-N.jpg","1","1","1","1","0","1","0.258711999980733","0.340051500010304","0.290749900043011","1","1","1","1","1","1","1","1","1"
"250007","img/neutralC/CFD-BF-039-031-N.jpg","img/neutralC/CFD-MF-337-026-N.jpg","img/neutralC/CFD-LF-214-090-N.jpg","1","1","1","1","1","0","0.290749900043011","0.258711999980733","0.606868700007908","1","1","1","1","1","1","1","1","1"
"250007","img/neutralC/CFD-LF-214-090-N.jpg","img/neutralC/CFD-BF-039-031-N.jpg","img/neutralC/CFD-AM-212-050-N.jpg","1","1","1","0","1","1","0.606868700007908","0.290749900043011","0.44577130000107","1","1","1","1","1","1","1","1","1"
"250007","img/neutralC/CFD-AM-212-050-N.jpg","img/neutralC/CFD-LF-214-090-N.jpg","img/neutralC/CFD-BM-019-002-N.jpg","1","1","1","1","0","0","0.44577130000107","0.606868700007908","0.468207099940628","1","1","1","1","1","1","1","1","1"
"250007","img/neutralC/CFD-BM-019-002-N.jpg","img/neutralC/CFD-AM-212-050-N.jpg","img/neutralC/CFD-BF-029-031-N.jpg","1","1","0","0","1","1","0.468207099940628","0.44577130000107","0.445410599932075","1","1","1","1","1","1","1","1","1"
"250007","img/neutralC/CFD-BF-029-031-N.jpg","img/neutralC/CFD-BM-019-002-N.jpg","img/neutralC/CFD-AM-201-076-N.jpg","0","1","1","1","0","1","0.445410599932075","0.468207099940628","0.44420759996865","1","1","1","1","1","1","1","1","1"
"250007","img/neutralC/CFD-AM-201-076-N.jpg","img/neutralC/CFD-BF-029-031-N.jpg","img/neutralC/CFD-LF-203-066-N.jpg","1","0","1","1","1","0","0.44420759996865","0.445410599932075","0.506917899940163","1","1","1","1","1","1","1","1","1"
"250007","img/neutralC/CFD-LF-203-066-N.jpg","img/neutralC/CFD-AM-201-076-N.jpg","img/neutralC/CFD-AF-231-357-N.jpg","1","1","1","0","1","1","0.506917899940163","0.44420759996865","0.488279299926944","1","1","1","1","1","1","1","1","1"
"250007","img/neutralC/CFD-AF-231-357-N.jpg","img/neutralC/CFD-LF-203-066-N.jpg","img/neutralC/CFD-IF-634-382-N.jpg","1","1","1","1","0","1","0.488279299926944","0.506917899940163","0.422865899978206","1","1","1","1","1","1","1","1","1"
"250007","img/neutralC/CFD-IF-634-382-N.jpg","img/neutralC/CFD-AF-231-357-N.jpg","img/neutralC/CFD-MM-316-156-N.jpg","1","1","1","1","1","1","0.422865899978206","0.488279299926944","0.369991000043228","1","1","1","1","1","1","1","1","1"
"250007","img/neutralC/CFD-MM-316-156-N.jpg","img/neutralC/CFD-IF-634-382-N.jpg","img/neutralC/CFD-IF-693-172-N.jpg","1","1","1","1","1","0","0.369991000043228","0.422865899978206","0.519846200011671","1","1","1","1","1","1","1","1","1"
"250007","img/neutralC/CFD-IF-693-172-N.jpg","img/neutralC/CFD-MM-316-156-N.jpg","img/neutralC/CFD-LF-205-100-N.jpg","1","1","1","0","1","1","0.519846200011671","0.369991000043228","0.352429099963047","1","1","1","1","1","1","1","1","1"
"250007","img/neutralC/CFD-LF-205-100-N.jpg","img/neutralC/CFD-IF-693-172-N.jpg","img/neutralC/CFD-BM-239-136-N.jpg","1","1","1","1","0","1","0.352429099963047","0.519846200011671","0.509539099992253","1","1","1","1","1","1","1","1","1"
"250007","img/neutralC/CFD-BM-239-136-N.jpg","img/neutralC/CFD-LF-205-100-N.jpg","img/neutralC/CFD-BM-041-035-N.jpg","1","1","1","1","1","0","0.509539099992253","0.352429099963047","0.412619800074026","1","1","1","1","1","1","1","1","1"
"250007","img/neutralC/CFD-BM-041-035-N.jpg","img/neutralC/CFD-BM-239-136-N.jpg","img/neutralC/CFD-BF-205-141-N.jpg","1","1","1","0","1","0","0.412619800074026","0.509539099992253","0.510668199975044","1","1","1","1","1","1","1","1","1"
"250007","img/neutralC/CFD-BF-205-141-N.jpg","img/neutralC/CFD-BM-041-035-N.jpg","img/neutralC/CFD-BF-253-202-N.jpg","1","1","1","0","0","0","0.510668199975044","0.412619800074026","0.544494699919596","1","1","1","1","1","1","1","1","1"
"250007","img/neutralC/CFD-BF-253-202-N.jpg","img/neutralC/CFD-BF-205-141-N.jpg","img/neutralC/CFD-WM-021-001-N.jpg","1","1","1","0","0","1","0.544494699919596","0.510668199975044","0.3591410999652","1","1","1","1","1","1","1","1","1"
"250007","img/neutralC/CFD-WM-021-001-N.jpg","img/neutralC/CFD-BF-253-202-N.jpg","img/neutralC/CFD-BM-033-003-N.jpg","1","1","1","1","0","0","0.3591410999652","0.544494699919596","0.410238399985246","1","1","1","1","1","1","1","1","1"
"250007","img/neutralC/CFD-BM-033-003-N.jpg","img/neutralC/CFD-WM-021-001-N.jpg","img/neutralC/CFD-LF-230-203-N.jpg","1","1","1","0","1","0","0.410238399985246","0.3591410999652","0.705433600000106","1","1","1","1","1","1","1","1","1"
"250007","img/neutralC/CFD-LF-230-203-N.jpg","img/neutralC/CFD-BM-033-003-N.jpg",NA,"1","1",NA,"0","0",NA,"0.705433600000106","0.410238399985246",NA,"1","1",NA,"1","1",NA,"1","1",NA
"250007","img/neutralC/CFD-MF-321-003-N.jpg",NA,"img/neutralC/CFD-IF-629-234-N.jpg","1",NA,"1","0",NA,"0","0.512117699952796",NA,"0.441087399958633","1",NA,"1","1",NA,"1","1",NA,"1"
"250007","img/neutralC/CFD-IF-629-234-N.jpg","img/neutralC/CFD-MF-321-003-N.jpg","img/neutralC/CFD-WF-027-003-N.jpg","1","1","1","0","0","1","0.441087399958633","0.512117699952796","0.376432999968529","1","1","1","1","1","1","1","1","1"
"250007","img/neutralC/CFD-WF-027-003-N.jpg","img/neutralC/CFD-IF-629-234-N.jpg","img/neutralC/CFD-MF-318-022-N.jpg","1","1","1","1","0","1","0.376432999968529","0.441087399958633","0.394309199997224","1","1","1","1","1","1","1","1","1"
"250007","img/neutralC/CFD-MF-318-022-N.jpg","img/neutralC/CFD-WF-027-003-N.jpg","img/neutralC/CFD-WF-226-095-N.jpg","1","1","1","1","1","1","0.394309199997224","0.376432999968529","0.388568399939686","1","1","1","1","1","1","1","1","1"
"250007","img/neutralC/CFD-WF-226-095-N.jpg","img/neutralC/CFD-MF-318-022-N.jpg","img/neutralC/CFD-WM-013-001-N.jpg","1","1","1","1","1","1","0.388568399939686","0.394309199997224","0.445060899946839","1","1","1","1","1","1","1","1","1"
"250007","img/neutralC/CFD-WM-013-001-N.jpg","img/neutralC/CFD-WF-226-095-N.jpg","img/neutralC/CFD-MM-321-021-N.jpg","1","1","1","1","1","0","0.445060899946839","0.388568399939686","0.402104799984954","1","1","1","1","1","1","1","1","1"
"250007","img/neutralC/CFD-MM-321-021-N.jpg","img/neutralC/CFD-WM-013-001-N.jpg","img/neutralC/CFD-IM-627-178-N.jpg","1","1","1","0","1","1","0.402104799984954","0.445060899946839","0.455422000028193","1","1","1","1","1","1","1","1","1"
"250007","img/neutralC/CFD-IM-627-178-N.jpg","img/neutralC/CFD-MM-321-021-N.jpg","img/neutralC/CFD-LF-215-157-N.jpg","1","1","1","1","0","0","0.455422000028193","0.402104799984954","0.446432999917306","1","1","1","1","1","1","1","1","1"
"250007","img/neutralC/CFD-LF-215-157-N.jpg","img/neutralC/CFD-IM-627-178-N.jpg","img/neutralC/CFD-AF-221-147-N.jpg","1","1","1","0","1","0","0.446432999917306","0.455422000028193","0.46087599999737","1","1","1","1","1","1","1","1","1"
"250007","img/neutralC/CFD-AF-221-147-N.jpg","img/neutralC/CFD-LF-215-157-N.jpg","img/neutralC/CFD-WM-237-052-N.jpg","1","1","1","0","0","1","0.46087599999737","0.446432999917306","0.327482799999416","1","1","1","1","1","1","1","1","1"
"250007","img/neutralC/CFD-WM-237-052-N.jpg","img/neutralC/CFD-AF-221-147-N.jpg","img/neutralC/CFD-AM-244-222-N.jpg","1","1","1","1","0","0","0.327482799999416","0.46087599999737","0.455523299984634","1","1","1","1","1","1","1","1","1"
"250007","img/neutralC/CFD-AM-244-222-N.jpg","img/neutralC/CFD-WM-237-052-N.jpg","img/neutralC/CFD-WF-023-003-N.jpg","1","1","1","0","1","1","0.455523299984634","0.327482799999416","0.428835400030948","1","1","1","1","1","1","1","1","1"
"250007","img/neutralC/CFD-WF-023-003-N.jpg","img/neutralC/CFD-AM-244-222-N.jpg","img/neutralC/CFD-AF-232-078-N.jpg","1","1","1","1","0","1","0.428835400030948","0.455523299984634","0.436819599941373","1","1","1","1","1","1","1","1","1"
"250007","img/neutralC/CFD-AF-232-078-N.jpg","img/neutralC/CFD-WF-023-003-N.jpg","img/neutralC/CFD-WM-009-002-N.jpg","1","1","0","1","1","0","0.436819599941373","0.428835400030948","0.412526999949478","1","1","1","1","1","1","1","1","1"
"250007","img/neutralC/CFD-WM-009-002-N.jpg","img/neutralC/CFD-AF-232-078-N.jpg","img/neutralC/CFD-LF-211-003-N.jpg","0","1","1","0","1","0","0.412526999949478","0.436819599941373","0.442361499997787","1","1","1","1","1","1","1","1","1"
"250007","img/neutralC/CFD-LF-211-003-N.jpg","img/neutralC/CFD-WM-009-002-N.jpg","img/neutralC/CFD-BF-254-201-N.jpg","1","0","1","0","0","0","0.442361499997787","0.412526999949478","0.445450400002301","1","1","1","1","1","1","1","1","1"
"250007","img/neutralC/CFD-BF-254-201-N.jpg","img/neutralC/CFD-LF-211-003-N.jpg","img/neutralC/CFD-BF-218-207-N.jpg","1","1","1","0","0","1","0.445450400002301","0.442361499997787","0.374826699960977","1","1","1","1","1","1","1","1","1"
"250007","img/neutralC/CFD-BF-218-207-N.jpg","img/neutralC/CFD-BF-254-201-N.jpg","img/neutralC/CFD-WM-255-219-N.jpg","1","1","0","1","0","0","0.374826699960977","0.445450400002301","0.428410399938002","1","1","1","1","1","1","1","1","2"
"250007","img/neutralC/CFD-WM-255-219-N.jpg","img/neutralC/CFD-BF-218-207-N.jpg","img/neutralC/CFD-BF-018-039-N.jpg","0","1","1","0","1","1","0.428410399938002","0.374826699960977","0.52271229994949","1","1","1","1","1","1","2","1","1"
"250007","img/neutralC/CFD-BF-018-039-N.jpg","img/neutralC/CFD-WM-255-219-N.jpg","img/neutralC/CFD-WM-201-063-N.jpg","1","0","1","1","0","1","0.52271229994949","0.428410399938002","0.411731299944222","1","1","1","1","1","1","1","2","1"
"250007","img/neutralC/CFD-WM-201-063-N.jpg","img/neutralC/CFD-BF-018-039-N.jpg","img/neutralC/CFD-WF-238-023-N.jpg","1","1","1","1","1","0","0.411731299944222","0.52271229994949","0.533812599955127","1","1","1","1","1","1","1","1","1"
"250007","img/neutralC/CFD-WF-238-023-N.jpg","img/neutralC/CFD-WM-201-063-N.jpg","img/neutralC/CFD-WM-221-091-N.jpg","1","1","1","0","1","0","0.533812599955127","0.411731299944222","0.360397899989039","1","1","1","1","1","1","1","1","1"
"250007","img/neutralC/CFD-WM-221-091-N.jpg","img/neutralC/CFD-WF-238-023-N.jpg","img/neutralC/CFD-WF-245-084-N.jpg","1","1","1","0","0","1","0.360397899989039","0.533812599955127","0.735441499971785","1","1","1","1","1","1","1","1","1"
"250007","img/neutralC/CFD-WF-245-084-N.jpg","img/neutralC/CFD-WM-221-091-N.jpg","img/neutralC/CFD-BM-023-029-N.jpg","1","1","1","1","0","1","0.735441499971785","0.360397899989039","0.393510100082494","1","1","1","1","1","1","1","1","1"
"250007","img/neutralC/CFD-BM-023-029-N.jpg","img/neutralC/CFD-WF-245-084-N.jpg","img/neutralC/CFD-WF-018-017-N.jpg","1","1","1","1","1","1","0.393510100082494","0.735441499971785","0.594969699974172","1","1","1","1","1","1","1","1","1"
"250007","img/neutralC/CFD-WF-018-017-N.jpg","img/neutralC/CFD-BM-023-029-N.jpg","img/neutralC/CFD-MF-342-022-N.jpg","1","1","1","1","1","1","0.594969699974172","0.393510100082494","0.392826999886893","1","1","1","1","1","1","1","1","1"
"250007","img/neutralC/CFD-MF-342-022-N.jpg","img/neutralC/CFD-WF-018-017-N.jpg","img/neutralC/CFD-BM-200-046-N.jpg","1","1","1","1","1","0","0.392826999886893","0.594969699974172","0.517569500021636","1","1","1","1","1","1","1","1","1"
"250007","img/neutralC/CFD-BM-200-046-N.jpg","img/neutralC/CFD-MF-342-022-N.jpg","img/neutralC/CFD-IM-719-221-N.jpg","1","1","1","0","1","0","0.517569500021636","0.392826999886893","0.505206599947996","1","1","1","1","1","1","1","1","1"
"250007","img/neutralC/CFD-IM-719-221-N.jpg","img/neutralC/CFD-BM-200-046-N.jpg","img/neutralC/CFD-BM-204-003-N.jpg","1","1","1","0","0","0","0.505206599947996","0.517569500021636","0.422796900034882","1","1","1","1","1","1","1","1","1"
"250007","img/neutralC/CFD-BM-204-003-N.jpg","img/neutralC/CFD-IM-719-221-N.jpg","img/neutralC/CFD-IM-700-009-N.jpg","1","1","1","0","0","1","0.422796900034882","0.505206599947996","0.493360499967821","1","1","1","1","1","1","1","1","1"
"250007","img/neutralC/CFD-IM-700-009-N.jpg","img/neutralC/CFD-BM-204-003-N.jpg","img/neutralC/CFD-LM-253-075-N.jpg","1","1","1","1","0","0","0.493360499967821","0.422796900034882","0.4182249000296","1","1","1","1","1","1","1","1","1"
"250007","img/neutralC/CFD-LM-253-075-N.jpg","img/neutralC/CFD-IM-700-009-N.jpg",NA,"1","1",NA,"0","1",NA,"0.4182249000296","0.493360499967821",NA,"1","1",NA,"1","1",NA,"1","1",NA
"250007","img/neutralC/CFD-BM-207-024-N.jpg",NA,"img/neutralC/CFD-IM-726-248-N.jpg","1",NA,"1","1",NA,"0","0.497015299974009",NA,"0.490658299997449","1",NA,"1","1",NA,"1","1",NA,"1"
"250007","img/neutralC/CFD-IM-726-248-N.jpg","img/neutralC/CFD-BM-207-024-N.jpg","img/neutralC/CFD-WF-029-002-N.jpg","1","1","1","0","1","0","0.490658299997449","0.497015299974009","0.39739650010597","1","1","1","1","1","1","1","1","1"
"250007","img/neutralC/CFD-WF-029-002-N.jpg","img/neutralC/CFD-IM-726-248-N.jpg","img/neutralC/CFD-BF-006-017-N.jpg","1","1","1","0","0","0","0.39739650010597","0.490658299997449","0.501683300011791","1","1","1","1","1","1","1","1","1"
"250007","img/neutralC/CFD-BF-006-017-N.jpg","img/neutralC/CFD-WF-029-002-N.jpg","img/neutralC/CFD-BF-036-027-N.jpg","1","1","1","0","0","0","0.501683300011791","0.39739650010597","0.410502300015651","1","1","1","1","1","1","1","1","1"
"250007","img/neutralC/CFD-BF-036-027-N.jpg","img/neutralC/CFD-BF-006-017-N.jpg","img/neutralC/CFD-WF-208-068-N.jpg","1","1","1","0","0","1","0.410502300015651","0.501683300011791","0.425486200023443","1","1","1","1","1","1","1","1","1"
"250007","img/neutralC/CFD-WF-208-068-N.jpg","img/neutralC/CFD-BF-036-027-N.jpg","img/neutralC/CFD-WF-233-112-N.jpg","1","1","1","1","0","1","0.425486200023443","0.410502300015651","0.444010499981232","1","1","1","1","1","1","1","1","1"
"250007","img/neutralC/CFD-WF-233-112-N.jpg","img/neutralC/CFD-WF-208-068-N.jpg","img/neutralC/CFD-BF-214-308-N.jpg","1","1","1","1","1","1","0.444010499981232","0.425486200023443","0.344334099907428","1","1","1","1","1","1","1","1","1"
"250007","img/neutralC/CFD-BF-214-308-N.jpg","img/neutralC/CFD-WF-233-112-N.jpg","img/neutralC/CFD-BF-002-001-N.jpg","1","1","1","1","1","0","0.344334099907428","0.444010499981232","0.445242799934931","1","1","1","1","1","1","1","1","1"
"250007","img/neutralC/CFD-BF-002-001-N.jpg","img/neutralC/CFD-BF-214-308-N.jpg","img/neutralC/CFD-WF-234-086-N.jpg","1","1","1","0","1","1","0.445242799934931","0.344334099907428","0.52156320004724","1","1","1","1","1","1","1","1","1"
"250007","img/neutralC/CFD-WF-234-086-N.jpg","img/neutralC/CFD-BF-002-001-N.jpg","img/neutralC/CFD-AM-230-150-N.jpg","1","1","1","1","0","0","0.52156320004724","0.445242799934931","0.447796499938704","1","1","1","1","1","1","1","1","1"
"250007","img/neutralC/CFD-AM-230-150-N.jpg","img/neutralC/CFD-WF-234-086-N.jpg","img/neutralC/CFD-BM-238-242-N.jpg","1","1","1","0","1","0","0.447796499938704","0.52156320004724","0.389118599938229","1","1","1","1","1","1","1","1","1"
"250007","img/neutralC/CFD-BM-238-242-N.jpg","img/neutralC/CFD-AM-230-150-N.jpg","img/neutralC/CFD-IF-729-393-N.jpg","1","1","1","0","0","0","0.389118599938229","0.447796499938704","0.534519999986514","1","1","1","1","1","1","1","1","1"
"250007","img/neutralC/CFD-IF-729-393-N.jpg","img/neutralC/CFD-BM-238-242-N.jpg","img/neutralC/CFD-IF-677-452-1-N.jpg","1","1","1","0","0","1","0.534519999986514","0.389118599938229","0.472236400004476","1","1","1","1","1","1","1","1","1"
"250007","img/neutralC/CFD-IF-677-452-1-N.jpg","img/neutralC/CFD-IF-729-393-N.jpg","img/neutralC/CFD-WM-014-002-N.jpg","1","1","1","1","0","0","0.472236400004476","0.534519999986514","0.381352400057949","1","1","1","1","1","1","1","1","1"
"250007","img/neutralC/CFD-WM-014-002-N.jpg","img/neutralC/CFD-IF-677-452-1-N.jpg","img/neutralC/CFD-IM-696-001-N.jpg","1","1","0","0","1","0","0.381352400057949","0.472236400004476","0.456502099987119","1","1","1","1","1","1","1","1","2"
"250007","img/neutralC/CFD-IM-696-001-N.jpg","img/neutralC/CFD-WM-014-002-N.jpg","img/neutralC/CFD-WM-034-030-N.jpg","0","1","1","0","0","1","0.456502099987119","0.381352400057949","0.565405700006522","1","1","1","1","1","1","2","1","1"
"250007","img/neutralC/CFD-WM-034-030-N.jpg","img/neutralC/CFD-IM-696-001-N.jpg","img/neutralC/CFD-BF-044-034-N.jpg","1","0","1","1","0","0","0.565405700006522","0.456502099987119","0.491224299999885","1","1","1","1","1","1","1","2","1"
"250007","img/neutralC/CFD-BF-044-034-N.jpg","img/neutralC/CFD-WM-034-030-N.jpg","img/neutralC/CFD-BF-027-002-N.jpg","1","1","1","0","1","1","0.491224299999885","0.565405700006522","0.410444999928586","1","1","1","1","1","1","1","1","1"
"250007","img/neutralC/CFD-BF-027-002-N.jpg","img/neutralC/CFD-BF-044-034-N.jpg","img/neutralC/CFD-IM-707-105-N.jpg","1","1","1","1","0","1","0.410444999928586","0.491224299999885","0.375367000000551","1","1","1","1","1","1","1","1","1"
"250007","img/neutralC/CFD-IM-707-105-N.jpg","img/neutralC/CFD-BF-027-002-N.jpg","img/neutralC/CFD-IM-721-341-N.jpg","1","1","1","1","1","1","0.375367000000551","0.410444999928586","0.725421500043012","1","1","1","1","1","1","1","1","1"
"250007","img/neutralC/CFD-IM-721-341-N.jpg","img/neutralC/CFD-IM-707-105-N.jpg","img/neutralC/CFD-BM-241-235-N.jpg","1","1","1","1","1","0","0.725421500043012","0.375367000000551","0.491378900012933","1","1","1","1","1","1","1","1","1"
"250007","img/neutralC/CFD-BM-241-235-N.jpg","img/neutralC/CFD-IM-721-341-N.jpg","img/neutralC/CFD-IF-742-103-N.jpg","1","1","1","0","1","1","0.491378900012933","0.725421500043012","0.498370299930684","1","1","1","1","1","1","1","1","1"
"250007","img/neutralC/CFD-IF-742-103-N.jpg","img/neutralC/CFD-BM-241-235-N.jpg","img/neutralC/CFD-LM-213-061-N.jpg","1","1","1","1","0","0","0.498370299930684","0.491378900012933","0.661713399924338","1","1","1","1","1","1","1","1","1"
"250007","img/neutralC/CFD-LM-213-061-N.jpg","img/neutralC/CFD-IF-742-103-N.jpg","img/neutralC/CFD-BF-011-002-N.jpg","1","1","1","0","1","1","0.661713399924338","0.498370299930684","0.451722500030883","1","1","1","1","1","1","1","1","1"
"250007","img/neutralC/CFD-BF-011-002-N.jpg","img/neutralC/CFD-LM-213-061-N.jpg","img/neutralC/CFD-BF-247-179-N.jpg","1","1","1","1","0","0","0.451722500030883","0.661713399924338","0.608249900047667","1","1","1","1","1","1","1","1","1"
"250007","img/neutralC/CFD-BF-247-179-N.jpg","img/neutralC/CFD-BF-011-002-N.jpg","img/neutralC/CFD-BM-036-003-N.jpg","1","1","1","0","1","1","0.608249900047667","0.451722500030883","0.690660299966112","1","1","1","1","1","1","1","1","1"
"250007","img/neutralC/CFD-BM-036-003-N.jpg","img/neutralC/CFD-BF-247-179-N.jpg","img/neutralC/CFD-BF-207-004-N.jpg","1","1","1","1","0","1","0.690660299966112","0.608249900047667","0.584850199986249","1","1","1","1","1","1","1","1","1"
"250007","img/neutralC/CFD-BF-207-004-N.jpg","img/neutralC/CFD-BM-036-003-N.jpg","img/neutralC/CFD-BF-236-177-N.jpg","1","1","1","1","1","0","0.584850199986249","0.690660299966112","0.458917500101961","1","1","1","1","1","1","1","1","1"
"250007","img/neutralC/CFD-BF-236-177-N.jpg","img/neutralC/CFD-BF-207-004-N.jpg","img/neutralC/CFD-WM-248-036-N.jpg","1","1","1","0","1","1","0.458917500101961","0.584850199986249","0.410598500049673","1","1","1","1","1","1","1","1","1"
"250007","img/neutralC/CFD-WM-248-036-N.jpg","img/neutralC/CFD-BF-236-177-N.jpg","img/neutralC/CFD-LF-204-133-N.jpg","1","1","1","1","0","1","0.410598500049673","0.458917500101961","0.487861500005238","1","1","1","1","1","1","1","1","1"
"250007","img/neutralC/CFD-LF-204-133-N.jpg","img/neutralC/CFD-WM-248-036-N.jpg","img/neutralC/CFD-MF-301-024-N.jpg","1","1","1","1","1","0","0.487861500005238","0.410598500049673","0.548185499967076","1","1","1","1","1","1","1","1","1"
"250007","img/neutralC/CFD-MF-301-024-N.jpg","img/neutralC/CFD-LF-204-133-N.jpg",NA,"1","1",NA,"0","1",NA,"0.548185499967076","0.487861500005238",NA,"1","1",NA,"1","1",NA,"1","1",NA
"250007","img/neutralC/CFD-WM-202-107-N.jpg",NA,"img/neutralC/CFD-BM-010-003-N.jpg","1",NA,"1","1",NA,"0","0.651764800073579",NA,"0.544344699941576","1",NA,"1","1",NA,"1","1",NA,"1"
"250007","img/neutralC/CFD-BM-010-003-N.jpg","img/neutralC/CFD-WM-202-107-N.jpg","img/neutralC/CFD-AF-239-171-N.jpg","1","1","1","0","1","1","0.544344699941576","0.651764800073579","0.521902899956331","1","1","1","1","1","1","1","1","1"
"250007","img/neutralC/CFD-AF-239-171-N.jpg","img/neutralC/CFD-BM-010-003-N.jpg","img/neutralC/CFD-LM-247-095-N.jpg","1","1","1","1","0","0","0.521902899956331","0.544344699941576","0.449293599929661","1","1","1","1","1","1","1","1","1"
"250007","img/neutralC/CFD-LM-247-095-N.jpg","img/neutralC/CFD-AF-239-171-N.jpg","img/neutralC/CFD-WF-033-002-N.jpg","1","1","1","0","1","1","0.449293599929661","0.521902899956331","0.386202099965885","1","1","1","1","1","1","1","1","1"
"250007","img/neutralC/CFD-WF-033-002-N.jpg","img/neutralC/CFD-LM-247-095-N.jpg","img/neutralC/CFD-BF-222-240-N.jpg","1","1","1","1","0","0","0.386202099965885","0.449293599929661","0.325977799948305","1","1","1","1","1","1","1","1","1"
"250007","img/neutralC/CFD-BF-222-240-N.jpg","img/neutralC/CFD-WF-033-002-N.jpg","img/neutralC/CFD-LF-208-127-N.jpg","1","1","0","0","1","0","0.325977799948305","0.386202099965885","0.354957900010049","1","1","1","1","1","1","1","1","1"
"250007","img/neutralC/CFD-LF-208-127-N.jpg","img/neutralC/CFD-BF-222-240-N.jpg","img/neutralC/CFD-WF-006-002-N.jpg","0","1","1","0","0","0","0.354957900010049","0.325977799948305","0.479447799967602","1","1","1","1","1","1","1","1","1"
"250007","img/neutralC/CFD-WF-006-002-N.jpg","img/neutralC/CFD-LF-208-127-N.jpg","img/neutralC/CFD-BM-013-002-N.jpg","1","0","1","0","0","1","0.479447799967602","0.354957900010049","0.443636899930425","1","1","1","1","1","1","1","1","1"
"250007","img/neutralC/CFD-BM-013-002-N.jpg","img/neutralC/CFD-WF-006-002-N.jpg","img/neutralC/CFD-IF-744-114-N.jpg","1","1","1","1","0","0","0.443636899930425","0.479447799967602","0.479942500009202","1","1","1","1","1","1","1","1","1"
"250007","img/neutralC/CFD-IF-744-114-N.jpg","img/neutralC/CFD-BM-013-002-N.jpg","img/neutralC/CFD-IF-625-225-N.jpg","1","1","1","0","1","0","0.479942500009202","0.443636899930425","0.523669900023378","1","1","1","1","1","1","1","1","1"
"250007","img/neutralC/CFD-IF-625-225-N.jpg","img/neutralC/CFD-IF-744-114-N.jpg","img/neutralC/CFD-BM-003-003-N.jpg","1","1","1","0","0","0","0.523669900023378","0.479942500009202","0.523798499954864","1","1","1","1","1","1","1","1","1"
"250007","img/neutralC/CFD-BM-003-003-N.jpg","img/neutralC/CFD-IF-625-225-N.jpg","img/neutralC/CFD-IM-701-312-N.jpg","1","1","1","0","0","0","0.523798499954864","0.523669900023378","0.509726600022987","1","1","1","1","1","1","1","1","1"
"250007","img/neutralC/CFD-IM-701-312-N.jpg","img/neutralC/CFD-BM-003-003-N.jpg","img/neutralC/CFD-LF-241-188-N.jpg","1","1","1","0","0","0","0.509726600022987","0.523798499954864","0.463563000084832","1","1","1","1","1","1","1","1","1"
"250007","img/neutralC/CFD-LF-241-188-N.jpg","img/neutralC/CFD-IM-701-312-N.jpg","img/neutralC/CFD-AM-221-184-N.jpg","1","1","1","0","0","1","0.463563000084832","0.509726600022987","1.750966600026","1","1","1","1","1","1","1","1","1"
"250007","img/neutralC/CFD-AM-221-184-N.jpg","img/neutralC/CFD-LF-241-188-N.jpg","img/neutralC/CFD-MF-336-016-N.jpg","1","1","1","1","0","1","1.750966600026","0.463563000084832","0.631722999969497","1","1","1","1","1","1","1","1","1"
"250007","img/neutralC/CFD-MF-336-016-N.jpg","img/neutralC/CFD-AM-221-184-N.jpg","img/neutralC/CFD-LF-225-164-N.jpg","1","1","1","1","1","1","0.631722999969497","1.750966600026","0.50593550002668","1","1","1","1","1","1","1","1","1"
"250007","img/neutralC/CFD-LF-225-164-N.jpg","img/neutralC/CFD-MF-336-016-N.jpg","img/neutralC/CFD-AF-227-207-N.jpg","1","1","1","1","1","1","0.50593550002668","0.631722999969497","0.42781769996509","1","1","1","1","1","1","1","1","1"
"250007","img/neutralC/CFD-AF-227-207-N.jpg","img/neutralC/CFD-LF-225-164-N.jpg","img/neutralC/CFD-WM-228-065-N.jpg","1","1","1","1","1","0","0.42781769996509","0.50593550002668","0.430796100059524","1","1","1","1","1","1","1","1","1"
"250007","img/neutralC/CFD-WM-228-065-N.jpg","img/neutralC/CFD-AF-227-207-N.jpg","img/neutralC/CFD-MF-312-002-N.jpg","1","1","1","0","1","1","0.430796100059524","0.42781769996509","0.494969499995932","1","1","1","1","1","1","1","1","1"
"250007","img/neutralC/CFD-MF-312-002-N.jpg","img/neutralC/CFD-WM-228-065-N.jpg","img/neutralC/CFD-IF-673-389-N.jpg","1","1","1","1","0","0","0.494969499995932","0.430796100059524","0.409148199949414","1","1","1","1","1","1","1","1","1"
"250007","img/neutralC/CFD-IF-673-389-N.jpg","img/neutralC/CFD-MF-312-002-N.jpg","img/neutralC/CFD-AF-210-050-N.jpg","1","1","1","0","1","1","0.409148199949414","0.494969499995932","0.385236500063911","1","1","1","1","1","1","1","1","1"
"250007","img/neutralC/CFD-AF-210-050-N.jpg","img/neutralC/CFD-IF-673-389-N.jpg","img/neutralC/CFD-LF-210-220-N.jpg","1","1","1","1","0","1","0.385236500063911","0.409148199949414","0.456828900030814","1","1","1","1","1","1","1","1","1"
"250007","img/neutralC/CFD-LF-210-220-N.jpg","img/neutralC/CFD-AF-210-050-N.jpg","img/neutralC/CFD-LM-238-129-N.jpg","1","1","1","1","1","1","0.456828900030814","0.385236500063911","0.441265399917029","1","1","1","1","1","1","1","1","1"
"250007","img/neutralC/CFD-LM-238-129-N.jpg","img/neutralC/CFD-LF-210-220-N.jpg","img/neutralC/CFD-BM-028-002-N.jpg","1","1","1","1","1","1","0.441265399917029","0.456828900030814","0.564014700008556","1","1","1","1","1","1","1","1","1"
"250007","img/neutralC/CFD-BM-028-002-N.jpg","img/neutralC/CFD-LM-238-129-N.jpg","img/neutralC/CFD-BF-045-003-N.jpg","1","1","0","1","1","0","0.564014700008556","0.441265399917029","0.949491200037301","1","1","1","1","1","1","1","1","1"
"250007","img/neutralC/CFD-BF-045-003-N.jpg","img/neutralC/CFD-BM-028-002-N.jpg","img/neutralC/CFD-BM-213-134-N.jpg","0","1","1","0","1","1","0.949491200037301","0.564014700008556","0.504503700067289","1","1","1","1","1","1","1","1","1"
"250007","img/neutralC/CFD-BM-213-134-N.jpg","img/neutralC/CFD-BF-045-003-N.jpg","img/neutralC/CFD-IM-659-359-N.jpg","1","0","1","1","0","0","0.504503700067289","0.949491200037301","0.66135180008132","1","1","1","1","1","1","1","1","1"
"250007","img/neutralC/CFD-IM-659-359-N.jpg","img/neutralC/CFD-BM-213-134-N.jpg","img/neutralC/CFD-WM-254-152-N.jpg","1","1","1","0","1","1","0.66135180008132","0.504503700067289","0.423854599939659","1","1","1","1","1","1","1","1","1"
"250007","img/neutralC/CFD-WM-254-152-N.jpg","img/neutralC/CFD-IM-659-359-N.jpg","img/neutralC/CFD-IM-738-191-N.jpg","1","1","1","1","0","0","0.423854599939659","0.66135180008132","0.514761000056751","1","1","1","1","1","1","1","1","1"
"250007","img/neutralC/CFD-IM-738-191-N.jpg","img/neutralC/CFD-WM-254-152-N.jpg","img/neutralC/CFD-BF-004-014-N.jpg","1","1","1","0","1","1","0.514761000056751","0.423854599939659","0.483854299993254","1","1","1","1","1","1","1","1","1"
"250007","img/neutralC/CFD-BF-004-014-N.jpg","img/neutralC/CFD-IM-738-191-N.jpg","img/neutralC/CFD-WF-223-133-N.jpg","1","1","1","1","0","0","0.483854299993254","0.514761000056751","0.453333900077268","1","1","1","1","1","1","1","1","1"
"250007","img/neutralC/CFD-WF-223-133-N.jpg","img/neutralC/CFD-BF-004-014-N.jpg",NA,"1","1",NA,"0","1",NA,"0.453333900077268","0.483854299993254",NA,"1","1",NA,"1","1",NA,"1","1",NA
"250007","img/neutralC/CFD-BM-020-001-N.jpg",NA,"img/neutralC/CFD-AM-249-163-N.jpg","1",NA,"1","0",NA,"1","0.476398100028746",NA,"0.562904899939895","1",NA,"1","1",NA,"1","1",NA,"1"
"250007","img/neutralC/CFD-AM-249-163-N.jpg","img/neutralC/CFD-BM-020-001-N.jpg","img/neutralC/CFD-IM-615-167-N.jpg","1","1","1","1","0","0","0.562904899939895","0.476398100028746","0.414673799998127","1","1","1","1","1","1","1","1","1"
"250007","img/neutralC/CFD-IM-615-167-N.jpg","img/neutralC/CFD-AM-249-163-N.jpg","img/neutralC/CFD-LM-240-013-N.jpg","1","1","1","0","1","1","0.414673799998127","0.562904899939895","0.451174299931154","1","1","1","1","1","1","1","1","1"
"250007","img/neutralC/CFD-LM-240-013-N.jpg","img/neutralC/CFD-IM-615-167-N.jpg","img/neutralC/CFD-IM-689-263-N.jpg","1","1","1","1","0","1","0.451174299931154","0.414673799998127","0.459601700073108","1","1","1","1","1","1","1","1","1"
"250007","img/neutralC/CFD-IM-689-263-N.jpg","img/neutralC/CFD-LM-240-013-N.jpg","img/neutralC/CFD-MM-306-010-N.jpg","1","1","1","1","1","0","0.459601700073108","0.451174299931154","0.499333799933083","1","1","1","1","1","1","1","1","1"
"250007","img/neutralC/CFD-MM-306-010-N.jpg","img/neutralC/CFD-IM-689-263-N.jpg","img/neutralC/CFD-AM-219-101-N.jpg","1","1","1","0","1","0","0.499333799933083","0.459601700073108","0.477109499974176","1","1","1","1","1","1","1","1","1"
"250007","img/neutralC/CFD-AM-219-101-N.jpg","img/neutralC/CFD-MM-306-010-N.jpg","img/neutralC/CFD-BF-012-001-N.jpg","1","1","1","0","0","0","0.477109499974176","0.499333799933083","0.38320569996722","1","1","1","1","1","1","1","1","1"
"250007","img/neutralC/CFD-BF-012-001-N.jpg","img/neutralC/CFD-AM-219-101-N.jpg","img/neutralC/CFD-LF-238-154-N.jpg","1","1","1","0","0","1","0.38320569996722","0.477109499974176","0.500029999995604","1","1","1","1","1","1","1","1","1"
"250007","img/neutralC/CFD-LF-238-154-N.jpg","img/neutralC/CFD-BF-012-001-N.jpg","img/neutralC/CFD-WF-207-014-N.jpg","1","1","1","1","0","1","0.500029999995604","0.38320569996722","0.52143989992328","1","1","1","1","1","1","1","1","1"
"250007","img/neutralC/CFD-WF-207-014-N.jpg","img/neutralC/CFD-LF-238-154-N.jpg","img/neutralC/CFD-BM-227-191-N.jpg","1","1","1","1","1","1","0.52143989992328","0.500029999995604","0.544110800023191","1","1","1","1","1","1","1","1","1"
"250007","img/neutralC/CFD-BM-227-191-N.jpg","img/neutralC/CFD-WF-207-014-N.jpg","img/neutralC/CFD-LF-212-066-N.jpg","1","1","1","1","1","1","0.544110800023191","0.52143989992328","0.452153899939731","1","1","1","1","1","1","1","1","1"
"250007","img/neutralC/CFD-LF-212-066-N.jpg","img/neutralC/CFD-BM-227-191-N.jpg","img/neutralC/CFD-WF-009-001-N.jpg","1","1","1","1","1","1","0.452153899939731","0.544110800023191","0.64423849992454","1","1","1","1","1","1","1","1","1"
"250007","img/neutralC/CFD-WF-009-001-N.jpg","img/neutralC/CFD-LF-212-066-N.jpg","img/neutralC/CFD-WF-241-210-N.jpg","1","1","1","1","1","0","0.64423849992454","0.452153899939731","0.534653500071727","1","1","1","1","1","1","1","1","1"
"250007","img/neutralC/CFD-WF-241-210-N.jpg","img/neutralC/CFD-WF-009-001-N.jpg","img/neutralC/CFD-WF-243-148-N.jpg","1","1","1","0","1","0","0.534653500071727","0.64423849992454","0.448280600016005","1","1","1","1","1","1","1","1","1"
"250007","img/neutralC/CFD-WF-243-148-N.jpg","img/neutralC/CFD-WF-241-210-N.jpg","img/neutralC/CFD-WF-221-005-N.jpg","1","1","1","0","0","0","0.448280600016005","0.534653500071727","0.479407100006938","1","1","1","1","1","1","1","1","1"
"250007","img/neutralC/CFD-WF-221-005-N.jpg","img/neutralC/CFD-WF-243-148-N.jpg","img/neutralC/CFD-BM-021-021-N.jpg","1","1","1","0","0","1","0.479407100006938","0.448280600016005","0.462356199976057","1","1","1","1","1","1","1","1","1"
"250007","img/neutralC/CFD-BM-021-021-N.jpg","img/neutralC/CFD-WF-221-005-N.jpg","img/neutralC/CFD-BM-009-002-N.jpg","1","1","1","1","0","1","0.462356199976057","0.479407100006938","0.425473600043915","1","1","1","1","1","1","1","1","1"
"250007","img/neutralC/CFD-BM-009-002-N.jpg","img/neutralC/CFD-BM-021-021-N.jpg","img/neutralC/CFD-LF-222-147-N.jpg","1","1","1","1","1","0","0.425473600043915","0.462356199976057","0.408140299958177","1","1","1","1","1","1","1","1","1"
"250007","img/neutralC/CFD-LF-222-147-N.jpg","img/neutralC/CFD-BM-009-002-N.jpg","img/neutralC/CFD-AM-243-212-N.jpg","1","1","1","0","1","1","0.408140299958177","0.425473600043915","0.472809900064021","1","1","1","1","1","1","1","1","1"
"250007","img/neutralC/CFD-AM-243-212-N.jpg","img/neutralC/CFD-LF-222-147-N.jpg","img/neutralC/CFD-IM-697-015-N.jpg","1","1","1","1","0","1","0.472809900064021","0.408140299958177","0.559434499940835","1","1","1","1","1","1","1","1","1"
"250007","img/neutralC/CFD-IM-697-015-N.jpg","img/neutralC/CFD-AM-243-212-N.jpg","img/neutralC/CFD-AM-205-153-N.jpg","1","1","1","1","1","1","0.559434499940835","0.472809900064021","0.493642400018871","1","1","1","1","1","1","1","1","1"
"250007","img/neutralC/CFD-AM-205-153-N.jpg","img/neutralC/CFD-IM-697-015-N.jpg","img/neutralC/CFD-MF-328-020-N.jpg","1","1","1","1","1","0","0.493642400018871","0.559434499940835","0.513324299943633","1","1","1","1","1","1","1","1","1"
"250007","img/neutralC/CFD-MF-328-020-N.jpg","img/neutralC/CFD-AM-205-153-N.jpg","img/neutralC/CFD-BM-030-003-N.jpg","1","1","1","0","1","0","0.513324299943633","0.493642400018871","0.438792500062846","1","1","1","1","1","1","1","1","1"
"250007","img/neutralC/CFD-BM-030-003-N.jpg","img/neutralC/CFD-MF-328-020-N.jpg","img/neutralC/CFD-WM-023-001-N.jpg","1","1","1","0","0","0","0.438792500062846","0.513324299943633","0.437442699912935","1","1","1","1","1","1","1","1","1"
"250007","img/neutralC/CFD-WM-023-001-N.jpg","img/neutralC/CFD-BM-030-003-N.jpg","img/neutralC/CFD-IF-676-017-N.jpg","1","1","1","0","0","1","0.437442699912935","0.438792500062846","0.540092600043863","1","1","1","1","1","1","1","1","1"
"250007","img/neutralC/CFD-IF-676-017-N.jpg","img/neutralC/CFD-WM-023-001-N.jpg","img/neutralC/CFD-WM-025-002-N.jpg","1","1","1","1","0","0","0.540092600043863","0.437442699912935","0.558772000018507","1","1","1","1","1","1","1","1","1"
"250007","img/neutralC/CFD-WM-025-002-N.jpg","img/neutralC/CFD-IF-676-017-N.jpg","img/neutralC/CFD-AF-237-223-N.jpg","1","1","1","0","1","0","0.558772000018507","0.540092600043863","0.447095499956049","1","1","1","1","1","1","1","1","1"
"250007","img/neutralC/CFD-AF-237-223-N.jpg","img/neutralC/CFD-WM-025-002-N.jpg","img/neutralC/CFD-IM-606-008-N.jpg","1","1","1","0","0","0","0.447095499956049","0.558772000018507","0.495605999953113","1","1","1","1","1","1","1","1","1"
"250007","img/neutralC/CFD-IM-606-008-N.jpg","img/neutralC/CFD-AF-237-223-N.jpg","img/neutralC/CFD-BM-043-071-N.jpg","1","1","1","0","0","0","0.495605999953113","0.447095499956049","0.50268130004406","1","1","1","1","1","1","1","1","1"
"250007","img/neutralC/CFD-BM-043-071-N.jpg","img/neutralC/CFD-IM-606-008-N.jpg","img/neutralC/CFD-BF-244-231-N.jpg","1","1","1","0","0","1","0.50268130004406","0.495605999953113","0.471448799944483","1","1","1","1","1","1","1","1","1"
"250007","img/neutralC/CFD-BF-244-231-N.jpg","img/neutralC/CFD-BM-043-071-N.jpg","img/neutralC/CFD-WM-028-003-N.jpg","1","1","1","1","0","1","0.471448799944483","0.50268130004406","0.357670800061896","1","1","1","1","1","1","1","1","1"
"250007","img/neutralC/CFD-WM-028-003-N.jpg","img/neutralC/CFD-BF-244-231-N.jpg",NA,"1","1",NA,"1","1",NA,"0.357670800061896","0.471448799944483",NA,"1","1",NA,"1","1",NA,"1","1",NA
"250007","img/neutralC/CFD-BF-255-140-N.jpg",NA,"img/neutralC/CFD-BF-204-189-N.jpg","1",NA,"1","1",NA,"1","0.519058900070377",NA,"0.485337099991739","1",NA,"1","1",NA,"1","1",NA,"1"
"250007","img/neutralC/CFD-BF-204-189-N.jpg","img/neutralC/CFD-BF-255-140-N.jpg","img/neutralC/CFD-WM-038-003-N.jpg","1","1","1","1","1","0","0.485337099991739","0.519058900070377","0.3459528000094","1","1","1","1","1","1","1","1","1"
"250007","img/neutralC/CFD-WM-038-003-N.jpg","img/neutralC/CFD-BF-204-189-N.jpg","img/neutralC/CFD-BF-003-003-N.jpg","1","1","1","0","1","0","0.3459528000094","0.485337099991739","0.43358250008896","1","1","1","1","1","1","1","1","1"
"250007","img/neutralC/CFD-BF-003-003-N.jpg","img/neutralC/CFD-WM-038-003-N.jpg","img/neutralC/CFD-BM-247-240-N.jpg","1","1","1","0","0","0","0.43358250008896","0.3459528000094","0.491156599950045","1","1","1","1","1","1","1","1","1"
"250007","img/neutralC/CFD-BM-247-240-N.jpg","img/neutralC/CFD-BF-003-003-N.jpg","img/neutralC/CFD-IM-639-263-N.jpg","1","1","1","0","0","1","0.491156599950045","0.43358250008896","0.556951099890284","1","1","1","1","1","1","1","1","1"
"250007","img/neutralC/CFD-IM-639-263-N.jpg","img/neutralC/CFD-BM-247-240-N.jpg","img/neutralC/CFD-BF-023-010-N.jpg","1","1","1","1","0","1","0.556951099890284","0.491156599950045","0.427436700090766","1","1","1","1","1","1","1","1","1"
"250007","img/neutralC/CFD-BF-023-010-N.jpg","img/neutralC/CFD-IM-639-263-N.jpg","img/neutralC/CFD-MM-319-052-N.jpg","1","1","1","1","1","1","0.427436700090766","0.556951099890284","0.39687039994169","1","1","1","1","1","1","1","1","1"
"250007","img/neutralC/CFD-MM-319-052-N.jpg","img/neutralC/CFD-BF-023-010-N.jpg","img/neutralC/CFD-WF-026-002-N.jpg","1","1","1","1","1","1","0.39687039994169","0.427436700090766","0.376476000063121","1","1","1","1","1","1","1","1","1"
"250007","img/neutralC/CFD-WF-026-002-N.jpg","img/neutralC/CFD-MM-319-052-N.jpg","img/neutralC/CFD-LM-252-076-N.jpg","1","1","1","1","1","1","0.376476000063121","0.39687039994169","0.433763400069438","1","1","1","1","1","1","1","1","1"
"250007","img/neutralC/CFD-LM-252-076-N.jpg","img/neutralC/CFD-WF-026-002-N.jpg","img/neutralC/CFD-BM-211-174-N.jpg","1","1","1","1","1","0","0.433763400069438","0.376476000063121","0.437409700010903","1","1","1","1","1","1","1","1","1"
"250007","img/neutralC/CFD-BM-211-174-N.jpg","img/neutralC/CFD-LM-252-076-N.jpg","img/neutralC/CFD-BM-029-024-N.jpg","1","1","1","0","1","1","0.437409700010903","0.433763400069438","0.3886301999446","1","1","1","1","1","1","1","1","1"
"250007","img/neutralC/CFD-BM-029-024-N.jpg","img/neutralC/CFD-BM-211-174-N.jpg","img/neutralC/CFD-BF-201-080-N.jpg","1","1","1","1","0","1","0.3886301999446","0.437409700010903","0.433790799928829","1","1","1","1","1","1","1","1","1"
"250007","img/neutralC/CFD-BF-201-080-N.jpg","img/neutralC/CFD-BM-029-024-N.jpg","img/neutralC/CFD-AM-217-085-N.jpg","1","1","0","1","1","0","0.433790799928829","0.3886301999446","0.304818900069222","1","1","1","1","1","1","1","1","1"
"250007","img/neutralC/CFD-AM-217-085-N.jpg","img/neutralC/CFD-BF-201-080-N.jpg","img/neutralC/CFD-LF-236-221-N.jpg","0","1","1","0","1","1","0.304818900069222","0.433790799928829","0.410314399981871","1","1","1","1","1","1","1","1","1"
"250007","img/neutralC/CFD-LF-236-221-N.jpg","img/neutralC/CFD-AM-217-085-N.jpg","img/neutralC/CFD-WM-225-127-N.jpg","1","0","1","1","0","0","0.410314399981871","0.304818900069222","0.40278720005881","1","1","1","1","1","1","1","1","1"
"250007","img/neutralC/CFD-WM-225-127-N.jpg","img/neutralC/CFD-LF-236-221-N.jpg","img/neutralC/CFD-AM-235-241-N.jpg","1","1","1","0","1","0","0.40278720005881","0.410314399981871","0.45657779998146","1","1","1","1","1","1","1","1","1"
"250007","img/neutralC/CFD-AM-235-241-N.jpg","img/neutralC/CFD-WM-225-127-N.jpg","img/neutralC/CFD-IM-728-041-N.jpg","1","1","1","0","0","0","0.45657779998146","0.40278720005881","0.625643000006676","1","1","1","1","1","1","1","1","1"
"250007","img/neutralC/CFD-IM-728-041-N.jpg","img/neutralC/CFD-AM-235-241-N.jpg","img/neutralC/CFD-IF-672-305-N.jpg","1","1","1","0","0","0","0.625643000006676","0.45657779998146","0.521187099977396","1","1","1","1","1","1","1","1","1"
"250007","img/neutralC/CFD-IF-672-305-N.jpg","img/neutralC/CFD-IM-728-041-N.jpg","img/neutralC/CFD-AM-215-120-N.jpg","1","1","1","0","0","1","0.521187099977396","0.625643000006676","0.465530900051817","1","1","1","1","1","1","1","1","1"
"250007","img/neutralC/CFD-AM-215-120-N.jpg","img/neutralC/CFD-IF-672-305-N.jpg","img/neutralC/CFD-BM-027-001-N.jpg","1","1","1","1","0","0","0.465530900051817","0.521187099977396","0.562942099990323","1","1","1","1","1","1","1","1","1"
"250007","img/neutralC/CFD-BM-027-001-N.jpg","img/neutralC/CFD-AM-215-120-N.jpg","img/neutralC/CFD-LF-216-121-N.jpg","1","1","1","0","1","1","0.562942099990323","0.465530900051817","0.572263299953192","1","1","1","1","1","1","1","1","1"
"250007","img/neutralC/CFD-LF-216-121-N.jpg","img/neutralC/CFD-BM-027-001-N.jpg","img/neutralC/CFD-WM-257-161-N.jpg","1","1","1","1","0","1","0.572263299953192","0.562942099990323","0.578431400004774","1","1","1","1","1","1","1","1","1"
"250007","img/neutralC/CFD-WM-257-161-N.jpg","img/neutralC/CFD-LF-216-121-N.jpg","img/neutralC/CFD-WF-002-004-N.jpg","1","1","0","1","1","0","0.578431400004774","0.572263299953192","0.702388499979861","1","1","1","1","1","1","1","1","1"
"250007","img/neutralC/CFD-WF-002-004-N.jpg","img/neutralC/CFD-WM-257-161-N.jpg","img/neutralC/CFD-BM-015-015-N.jpg","0","1","1","0","1","0","0.702388499979861","0.578431400004774","0.543646999984048","1","1","1","1","1","1","1","1","1"
"250007","img/neutralC/CFD-BM-015-015-N.jpg","img/neutralC/CFD-WF-002-004-N.jpg","img/neutralC/CFD-IM-674-281-N.jpg","1","0","1","0","0","1","0.543646999984048","0.702388499979861","0.486236500088126","1","1","1","1","1","1","1","1","1"
"250007","img/neutralC/CFD-IM-674-281-N.jpg","img/neutralC/CFD-BM-015-015-N.jpg","img/neutralC/CFD-WM-040-022-N.jpg","1","1","1","1","0","0","0.486236500088126","0.543646999984048","0.539299600059167","1","1","1","1","1","1","1","1","1"
"250007","img/neutralC/CFD-WM-040-022-N.jpg","img/neutralC/CFD-IM-674-281-N.jpg","img/neutralC/CFD-BF-208-266-N.jpg","1","1","1","0","1","0","0.539299600059167","0.486236500088126","0.497746799956076","1","1","1","1","1","1","1","1","1"
"250007","img/neutralC/CFD-BF-208-266-N.jpg","img/neutralC/CFD-WM-040-022-N.jpg","img/neutralC/CFD-BF-028-001-N.jpg","1","1","1","0","0","1","0.497746799956076","0.539299600059167","0.564868799992837","1","1","1","1","1","1","1","1","1"
"250007","img/neutralC/CFD-BF-028-001-N.jpg","img/neutralC/CFD-BF-208-266-N.jpg","img/neutralC/CFD-WF-022-017-N.jpg","1","1","1","1","0","0","0.564868799992837","0.497746799956076","0.492957799928263","1","1","1","1","1","1","1","1","1"
"250007","img/neutralC/CFD-WF-022-017-N.jpg","img/neutralC/CFD-BF-028-001-N.jpg","img/neutralC/CFD-WM-002-009-N.jpg","1","1","1","0","1","0","0.492957799928263","0.564868799992837","0.571095400024205","1","1","1","1","1","1","1","1","1"
"250007","img/neutralC/CFD-WM-002-009-N.jpg","img/neutralC/CFD-WF-022-017-N.jpg","img/neutralC/CFD-IF-718-001-N.jpg","1","1","1","0","0","1","0.571095400024205","0.492957799928263","0.474606100004166","1","1","1","1","1","1","1","1","1"
"250007","img/neutralC/CFD-IF-718-001-N.jpg","img/neutralC/CFD-WM-002-009-N.jpg",NA,"1","1",NA,"1","0",NA,"0.474606100004166","0.571095400024205",NA,"1","1",NA,"1","1",NA,"1","1",NA
"250007","img/neutralC/CFD-IM-709-103-N.jpg",NA,"img/neutralC/CFD-LM-217-162-N.jpg","1",NA,"1","0",NA,"0","0.520116699975915",NA,"0.470287199947052","1",NA,"1","1",NA,"1","1",NA,"1"
"250007","img/neutralC/CFD-LM-217-162-N.jpg","img/neutralC/CFD-IM-709-103-N.jpg","img/neutralC/CFD-AF-229-160-N.jpg","1","1","1","0","0","0","0.470287199947052","0.520116699975915","0.374547000043094","1","1","1","1","1","1","1","1","1"
"250007","img/neutralC/CFD-AF-229-160-N.jpg","img/neutralC/CFD-LM-217-162-N.jpg","img/neutralC/CFD-MF-340-026-N.jpg","1","1","1","0","0","1","0.374547000043094","0.470287199947052","0.537746499991044","1","1","1","1","1","1","1","1","1"
"250007","img/neutralC/CFD-MF-340-026-N.jpg","img/neutralC/CFD-AF-229-160-N.jpg","img/neutralC/CFD-WF-212-050-N.jpg","1","1","1","1","0","0","0.537746499991044","0.374547000043094","0.401642499957234","1","1","1","1","1","1","1","1","1"
"250007","img/neutralC/CFD-WF-212-050-N.jpg","img/neutralC/CFD-MF-340-026-N.jpg","img/neutralC/CFD-BF-224-002-N.jpg","1","1","1","0","1","1","0.401642499957234","0.537746499991044","0.457729400019161","1","1","1","1","1","1","1","1","1"
"250007","img/neutralC/CFD-BF-224-002-N.jpg","img/neutralC/CFD-WF-212-050-N.jpg","img/neutralC/CFD-MM-304-002-N.jpg","1","1","1","1","0","1","0.457729400019161","0.401642499957234","0.476113999960944","1","1","1","1","1","1","1","1","1"
"250007","img/neutralC/CFD-MM-304-002-N.jpg","img/neutralC/CFD-BF-224-002-N.jpg","img/neutralC/CFD-LF-226-174-N.jpg","1","1","1","1","1","0","0.476113999960944","0.457729400019161","0.382688899990171","1","1","1","1","1","1","1","1","1"
"250007","img/neutralC/CFD-LF-226-174-N.jpg","img/neutralC/CFD-MM-304-002-N.jpg","img/neutralC/CFD-MF-327-002-N.jpg","1","1","1","0","1","0","0.382688899990171","0.476113999960944","0.486015100032091","1","1","1","1","1","1","1","1","1"
"250007","img/neutralC/CFD-MF-327-002-N.jpg","img/neutralC/CFD-LF-226-174-N.jpg","img/neutralC/CFD-IM-637-007-N.jpg","1","1","0","0","0","0","0.486015100032091","0.382688899990171","0.421604700037278","1","1","1","1","1","1","1","1","1"
"250007","img/neutralC/CFD-IM-637-007-N.jpg","img/neutralC/CFD-MF-327-002-N.jpg","img/neutralC/CFD-BF-051-035-N.jpg","0","1","1","0","0","0","0.421604700037278","0.486015100032091","0.467407600022852","1","1","1","1","1","1","1","1","1"
"250007","img/neutralC/CFD-BF-051-035-N.jpg","img/neutralC/CFD-IM-637-007-N.jpg","img/neutralC/CFD-IF-608-390-N.jpg","1","0","1","0","0","1","0.467407600022852","0.421604700037278","0.470642999978736","1","1","1","1","1","1","1","1","1"
"250007","img/neutralC/CFD-IF-608-390-N.jpg","img/neutralC/CFD-BF-051-035-N.jpg","img/neutralC/CFD-IM-675-015-N.jpg","1","1","1","1","0","1","0.470642999978736","0.467407600022852","0.475906200008467","1","1","1","1","1","1","1","1","1"
"250007","img/neutralC/CFD-IM-675-015-N.jpg","img/neutralC/CFD-IF-608-390-N.jpg","img/neutralC/CFD-IM-685-004-N.jpg","1","1","1","1","1","1","0.475906200008467","0.470642999978736","0.509008400025778","1","1","1","1","1","1","1","1","1"
"250007","img/neutralC/CFD-IM-685-004-N.jpg","img/neutralC/CFD-IM-675-015-N.jpg","img/neutralC/CFD-WF-012-002-N.jpg","1","1","1","1","1","1","0.509008400025778","0.475906200008467","0.536550499964505","1","1","1","1","1","1","1","1","1"
"250007","img/neutralC/CFD-WF-012-002-N.jpg","img/neutralC/CFD-IM-685-004-N.jpg","img/neutralC/CFD-MF-300-002-N.jpg","1","1","1","1","1","0","0.536550499964505","0.509008400025778","0.505704700015485","1","1","1","1","1","1","1","1","1"
"250007","img/neutralC/CFD-MF-300-002-N.jpg","img/neutralC/CFD-WF-012-002-N.jpg","img/neutralC/CFD-BF-043-003-N.jpg","1","1","1","0","1","0","0.505704700015485","0.536550499964505","0.426084099919535","1","1","1","1","1","1","1","1","1"
"250007","img/neutralC/CFD-BF-043-003-N.jpg","img/neutralC/CFD-MF-300-002-N.jpg","img/neutralC/CFD-MF-329-001-N.jpg","1","1","1","0","0","0","0.426084099919535","0.505704700015485","0.619356099981815","1","1","1","1","1","1","1","1","1"
"250007","img/neutralC/CFD-MF-329-001-N.jpg","img/neutralC/CFD-BF-043-003-N.jpg","img/neutralC/CFD-AF-215-70-N.jpg","1","1","1","0","0","0","0.619356099981815","0.426084099919535","0.578293500002474","1","1","1","1","1","1","1","1","1"
"250007","img/neutralC/CFD-AF-215-70-N.jpg","img/neutralC/CFD-MF-329-001-N.jpg","img/neutralC/CFD-AF-254-167-N.jpg","1","1","1","0","0","1","0.578293500002474","0.619356099981815","0.44116390007548","1","1","1","1","1","1","1","1","1"
"250007","img/neutralC/CFD-AF-254-167-N.jpg","img/neutralC/CFD-AF-215-70-N.jpg","img/neutralC/CFD-IF-619-197-N.jpg","1","1","1","1","0","0","0.44116390007548","0.578293500002474","0.384651400032453","1","1","1","1","1","1","1","1","1"
"250007","img/neutralC/CFD-IF-619-197-N.jpg","img/neutralC/CFD-AF-254-167-N.jpg","img/neutralC/CFD-BM-243-218-N.jpg","1","1","1","0","1","1","0.384651400032453","0.44116390007548","0.527018900029361","1","1","1","1","1","1","1","1","1"
"250007","img/neutralC/CFD-BM-243-218-N.jpg","img/neutralC/CFD-IF-619-197-N.jpg","img/neutralC/CFD-LF-201-035-N.jpg","1","1","1","1","0","1","0.527018900029361","0.384651400032453","0.465234700008295","1","1","1","1","1","1","1","1","1"
"250007","img/neutralC/CFD-LF-201-035-N.jpg","img/neutralC/CFD-BM-243-218-N.jpg","img/neutralC/CFD-BM-039-029-N.jpg","1","1","1","1","1","1","0.465234700008295","0.527018900029361","0.439024699968286","1","1","1","1","1","1","1","1","1"
"250007","img/neutralC/CFD-BM-039-029-N.jpg","img/neutralC/CFD-LF-201-035-N.jpg","img/neutralC/CFD-IM-604-014-N.jpg","1","1","1","1","1","0","0.439024699968286","0.465234700008295","0.643513299990445","1","1","1","1","1","1","1","1","1"
"250007","img/neutralC/CFD-IM-604-014-N.jpg","img/neutralC/CFD-BM-039-029-N.jpg","img/neutralC/CFD-AM-236-090-N.jpg","1","1","1","0","1","1","0.643513299990445","0.439024699968286","0.542896599974483","1","1","1","1","1","1","1","1","1"
"250007","img/neutralC/CFD-AM-236-090-N.jpg","img/neutralC/CFD-IM-604-014-N.jpg","img/neutralC/CFD-WM-213-076-N.jpg","1","1","1","1","0","1","0.542896599974483","0.643513299990445","0.426411199965514","1","1","1","1","1","1","1","1","1"
"250007","img/neutralC/CFD-WM-213-076-N.jpg","img/neutralC/CFD-AM-236-090-N.jpg","img/neutralC/CFD-WM-024-015-N.jpg","1","1","1","1","1","1","0.426411199965514","0.542896599974483","0.381026799906977","1","1","1","1","1","1","1","1","1"
"250007","img/neutralC/CFD-WM-024-015-N.jpg","img/neutralC/CFD-WM-213-076-N.jpg","img/neutralC/CFD-WF-248-129-N.jpg","1","1","0","1","1","0","0.381026799906977","0.426411199965514","0.335004099993967","1","1","1","1","1","1","1","1","1"
"250007","img/neutralC/CFD-WF-248-129-N.jpg","img/neutralC/CFD-WM-024-015-N.jpg","img/neutralC/CFD-WM-232-070-N.jpg","0","1","1","0","1","0","0.335004099993967","0.381026799906977","0.448369299992919","1","1","1","1","1","1","1","1","1"
"250007","img/neutralC/CFD-WM-232-070-N.jpg","img/neutralC/CFD-WF-248-129-N.jpg","img/neutralC/CFD-WF-217-085-N.jpg","1","0","1","0","0","1","0.448369299992919","0.335004099993967","0.472702899947762","1","1","1","1","1","1","1","1","1"
"250007","img/neutralC/CFD-WF-217-085-N.jpg","img/neutralC/CFD-WM-232-070-N.jpg","img/neutralC/CFD-WF-008-002-N.jpg","1","1","1","1","0","1","0.472702899947762","0.448369299992919","0.425903100054711","1","1","1","1","1","1","1","1","1"
"250007","img/neutralC/CFD-WF-008-002-N.jpg","img/neutralC/CFD-WF-217-085-N.jpg",NA,"1","1",NA,"1","1",NA,"0.425903100054711","0.472702899947762",NA,"1","1",NA,"1","1",NA,"1","1",NA
"250007","img/neutralC/CFD-AF-246-242-N.jpg",NA,"img/neutralC/CFD-LF-239-148-N.jpg","1",NA,"1","0",NA,"0","0.38253820000682",NA,"0.322737999958917","1",NA,"1","1",NA,"1","1",NA,"1"
"250007","img/neutralC/CFD-LF-239-148-N.jpg","img/neutralC/CFD-AF-246-242-N.jpg","img/neutralC/CFD-AF-234-208-N.jpg","1","1","1","0","0","1","0.322737999958917","0.38253820000682","0.388113499968313","1","1","1","1","1","1","1","1","1"
"250007","img/neutralC/CFD-AF-234-208-N.jpg","img/neutralC/CFD-LF-239-148-N.jpg","img/neutralC/CFD-IM-669-111-N.jpg","1","1","1","1","0","1","0.388113499968313","0.322737999958917","0.37770139996428","1","1","1","1","1","1","1","1","1"
"250007","img/neutralC/CFD-IM-669-111-N.jpg","img/neutralC/CFD-AF-234-208-N.jpg","img/neutralC/CFD-IM-678-482-N.jpg","1","1","1","1","1","0","0.37770139996428","0.388113499968313","0.353796499897726","1","1","1","1","1","1","1","1","1"
"250007","img/neutralC/CFD-IM-678-482-N.jpg","img/neutralC/CFD-IM-669-111-N.jpg","img/neutralC/CFD-AF-205-155-N.jpg","1","1","1","0","1","0","0.353796499897726","0.37770139996428","0.399571799905971","1","1","1","1","1","1","1","1","1"
"250007","img/neutralC/CFD-AF-205-155-N.jpg","img/neutralC/CFD-IM-678-482-N.jpg","img/neutralC/CFD-MF-302-027-N.jpg","1","1","1","0","0","0","0.399571799905971","0.353796499897726","0.416364400065504","1","1","1","1","1","1","1","1","1"
"250007","img/neutralC/CFD-MF-302-027-N.jpg","img/neutralC/CFD-AF-205-155-N.jpg","img/neutralC/CFD-WM-018-002-N.jpg","1","1","1","0","0","0","0.416364400065504","0.399571799905971","0.440160500002094","1","1","1","1","1","1","1","1","1"
"250007","img/neutralC/CFD-WM-018-002-N.jpg","img/neutralC/CFD-MF-302-027-N.jpg","img/neutralC/CFD-WM-253-119-N.jpg","1","1","1","0","0","1","0.440160500002094","0.416364400065504","0.493862999952398","1","1","1","1","1","1","1","1","1"
"250007","img/neutralC/CFD-WM-253-119-N.jpg","img/neutralC/CFD-WM-018-002-N.jpg","img/neutralC/CFD-AM-225-102-N.jpg","1","1","0","1","0","0","0.493862999952398","0.440160500002094","1.46364780003205","1","1","1","1","1","1","1","1","1"
"250007","img/neutralC/CFD-AM-225-102-N.jpg","img/neutralC/CFD-WM-253-119-N.jpg","img/neutralC/CFD-AM-245-111-N.jpg","0","1","1","0","1","1","1.46364780003205","0.493862999952398","0.473007099935785","1","1","1","1","1","1","1","1","1"
"250007","img/neutralC/CFD-AM-245-111-N.jpg","img/neutralC/CFD-AM-225-102-N.jpg","img/neutralC/CFD-WF-235-121-N.jpg","1","0","1","1","0","0","0.473007099935785","1.46364780003205","0.427180900005624","1","1","1","1","1","1","1","1","1"
"250007","img/neutralC/CFD-WF-235-121-N.jpg","img/neutralC/CFD-AM-245-111-N.jpg","img/neutralC/CFD-IF-732-260-N.jpg","1","1","1","0","1","0","0.427180900005624","0.473007099935785","0.401582199963741","1","1","1","1","1","1","1","1","1"
"250007","img/neutralC/CFD-IF-732-260-N.jpg","img/neutralC/CFD-WF-235-121-N.jpg","img/neutralC/CFD-IM-635-010-N.jpg","1","1","1","0","0","1","0.401582199963741","0.427180900005624","0.435902699944563","1","1","1","1","1","1","1","1","1"
"250007","img/neutralC/CFD-IM-635-010-N.jpg","img/neutralC/CFD-IF-732-260-N.jpg","img/neutralC/CFD-MF-307-002-N.jpg","1","1","1","1","0","1","0.435902699944563","0.401582199963741","0.401613599970006","1","1","1","1","1","1","1","1","1"
"250007","img/neutralC/CFD-MF-307-002-N.jpg","img/neutralC/CFD-IM-635-010-N.jpg","img/neutralC/CFD-LM-241-125-N.jpg","1","1","1","1","1","1","0.401613599970006","0.435902699944563","0.468078000005335","1","1","1","1","1","1","1","1","1"
"250007","img/neutralC/CFD-LM-241-125-N.jpg","img/neutralC/CFD-MF-307-002-N.jpg","img/neutralC/CFD-BM-215-155-N.jpg","1","1","1","1","1","0","0.468078000005335","0.401613599970006","0.239842599956319","1","1","1","1","1","1","1","1","1"
"250007","img/neutralC/CFD-BM-215-155-N.jpg","img/neutralC/CFD-LM-241-125-N.jpg","img/neutralC/CFD-LM-204-001-N.jpg","1","1","1","0","1","0","0.239842599956319","0.468078000005335","0.365797499893233","1","1","1","1","1","1","1","1","1"
"250007","img/neutralC/CFD-LM-204-001-N.jpg","img/neutralC/CFD-BM-215-155-N.jpg","img/neutralC/CFD-AM-233-236-N.jpg","1","1","1","0","0","1","0.365797499893233","0.239842599956319","0.951582200010307","1","1","1","1","1","1","1","1","1"
"250007","img/neutralC/CFD-AM-233-236-N.jpg","img/neutralC/CFD-LM-204-001-N.jpg","img/neutralC/CFD-BF-217-189-N.jpg","1","1","0","1","0","0","0.951582200010307","0.365797499893233","0.395989799988456","1","1","1","1","1","1","1","1","2"
"250007","img/neutralC/CFD-BF-217-189-N.jpg","img/neutralC/CFD-AM-233-236-N.jpg","img/neutralC/CFD-BF-020-002-N.jpg","0","1","1","0","1","1","0.395989799988456","0.951582200010307","0.584327399963513","1","1","1","1","1","1","2","1","1"
"250007","img/neutralC/CFD-BF-020-002-N.jpg","img/neutralC/CFD-BF-217-189-N.jpg","img/neutralC/CFD-BF-042-026-N.jpg","1","0","1","1","0","1","0.584327399963513","0.395989799988456","0.515990899992175","1","1","1","1","1","1","1","2","1"
"250007","img/neutralC/CFD-BF-042-026-N.jpg","img/neutralC/CFD-BF-020-002-N.jpg","img/neutralC/CFD-WF-210-086-N.jpg","1","1","1","1","1","0","0.515990899992175","0.584327399963513","0.455851500038989","1","1","1","1","1","1","1","1","2"
"250007","img/neutralC/CFD-WF-210-086-N.jpg","img/neutralC/CFD-BF-042-026-N.jpg","img/neutralC/CFD-AF-244-168-N.jpg","1","1","1","0","1","0","0.455851500038989","0.515990899992175","0.485275199986063","1","1","1","1","1","1","2","1","1"
"250007","img/neutralC/CFD-AF-244-168-N.jpg","img/neutralC/CFD-WF-210-086-N.jpg","img/neutralC/CFD-BF-235-168-N.jpg","1","1","1","0","0","1","0.485275199986063","0.455851500038989","0.399991899961606","1","1","1","1","1","1","1","2","1"
"250007","img/neutralC/CFD-BF-235-168-N.jpg","img/neutralC/CFD-AF-244-168-N.jpg","img/neutralC/CFD-BM-004-002-N.jpg","1","1","1","1","0","0","0.399991899961606","0.485275199986063","0.275687700021081","1","1","1","1","1","1","1","1","1"
"250007","img/neutralC/CFD-BM-004-002-N.jpg","img/neutralC/CFD-BF-235-168-N.jpg","img/neutralC/CFD-AF-213-126-N.jpg","1","1","1","0","1","1","0.275687700021081","0.399991899961606","0.381520499940962","1","1","1","1","1","1","1","1","1"
"250007","img/neutralC/CFD-AF-213-126-N.jpg","img/neutralC/CFD-BM-004-002-N.jpg","img/neutralC/CFD-BF-206-143-N.jpg","1","1","1","1","0","1","0.381520499940962","0.275687700021081","0.450279699987732","1","1","1","1","1","1","1","1","1"
"250007","img/neutralC/CFD-BF-206-143-N.jpg","img/neutralC/CFD-AF-213-126-N.jpg","img/neutralC/CFD-IM-632-097-N.jpg","1","1","1","1","1","0","0.450279699987732","0.381520499940962","0.441740799928084","1","1","1","1","1","1","1","1","1"
"250007","img/neutralC/CFD-IM-632-097-N.jpg","img/neutralC/CFD-BF-206-143-N.jpg","img/neutralC/CFD-AF-250-200-N.jpg","1","1","1","0","1","1","0.441740799928084","0.450279699987732","0.527978099999018","1","1","1","1","1","1","1","1","1"
"250007","img/neutralC/CFD-AF-250-200-N.jpg","img/neutralC/CFD-IM-632-097-N.jpg","img/neutralC/CFD-BF-040-003-N.jpg","1","1","1","1","0","1","0.527978099999018","0.441740799928084","0.543851099908352","1","1","1","1","1","1","1","1","1"
"250007","img/neutralC/CFD-BF-040-003-N.jpg","img/neutralC/CFD-AF-250-200-N.jpg","img/neutralC/CFD-IF-636-011-N.jpg","1","1","1","1","1","1","0.543851099908352","0.527978099999018","0.47137190005742","1","1","1","1","1","1","1","1","1"
"250007","img/neutralC/CFD-IF-636-011-N.jpg","img/neutralC/CFD-BF-040-003-N.jpg",NA,"1","1",NA,"1","1",NA,"0.47137190005742","0.543851099908352",NA,"1","1",NA,"1","1",NA,"1","1",NA
"250007","img/neutralC/CFD-BM-026-002-N.jpg",NA,"img/neutralC/CFD-WF-209-052-N.jpg","0",NA,"1","0",NA,"1","0.981375799980015",NA,"0.457777000032365","1",NA,"1","1",NA,"1","1",NA,"1"
"250007","img/neutralC/CFD-WF-209-052-N.jpg","img/neutralC/CFD-BM-026-002-N.jpg","img/neutralC/CFD-WM-227-099-N.jpg","1","0","1","1","0","1","0.457777000032365","0.981375799980015","0.384361000033095","1","1","1","1","1","1","1","1","1"
"250007","img/neutralC/CFD-WM-227-099-N.jpg","img/neutralC/CFD-WF-209-052-N.jpg","img/neutralC/CFD-AF-202-122-N.jpg","1","1","1","1","1","1","0.384361000033095","0.457777000032365","0.38467469997704","1","1","1","1","1","1","1","1","1"
"250007","img/neutralC/CFD-AF-202-122-N.jpg","img/neutralC/CFD-WM-227-099-N.jpg","img/neutralC/CFD-BM-005-003-N.jpg","1","1","1","1","1","1","0.38467469997704","0.384361000033095","0.402983800042421","1","1","1","1","1","1","1","1","1"
"250007","img/neutralC/CFD-BM-005-003-N.jpg","img/neutralC/CFD-AF-202-122-N.jpg","img/neutralC/CFD-LM-219-295-N.jpg","1","1","1","1","1","1","0.402983800042421","0.38467469997704","0.438199700089172","1","1","1","1","1","1","1","1","1"
"250007","img/neutralC/CFD-LM-219-295-N.jpg","img/neutralC/CFD-BM-005-003-N.jpg","img/neutralC/CFD-IF-665-015-N.jpg","1","1","0","1","1","0","0.438199700089172","0.402983800042421","0.469482899992727","1","1","1","1","1","1","1","1","1"
"250007","img/neutralC/CFD-IF-665-015-N.jpg","img/neutralC/CFD-LM-219-295-N.jpg","img/neutralC/CFD-LF-245-166-N.jpg","0","1","1","0","1","1","0.469482899992727","0.438199700089172","0.371017600060441","1","1","1","1","1","1","1","1","1"
"250007","img/neutralC/CFD-LF-245-166-N.jpg","img/neutralC/CFD-IF-665-015-N.jpg","img/neutralC/CFD-IM-727-195-N.jpg","1","0","1","1","0","1","0.371017600060441","0.469482899992727","0.538212799932808","1","1","1","1","1","1","1","1","1"
"250007","img/neutralC/CFD-IM-727-195-N.jpg","img/neutralC/CFD-LF-245-166-N.jpg","img/neutralC/CFD-WM-017-002-N.jpg","1","1","1","1","1","0","0.538212799932808","0.371017600060441","0.44446639996022","1","1","1","1","1","1","1","1","1"
"250007","img/neutralC/CFD-WM-017-002-N.jpg","img/neutralC/CFD-IM-727-195-N.jpg","img/neutralC/CFD-IF-620-218-N.jpg","1","1","1","0","1","0","0.44446639996022","0.538212799932808","0.377725199912675","1","1","1","1","1","1","1","1","1"
"250007","img/neutralC/CFD-IF-620-218-N.jpg","img/neutralC/CFD-WM-017-002-N.jpg","img/neutralC/CFD-BF-010-001-N.jpg","1","1","1","0","0","1","0.377725199912675","0.44446639996022","0.382773499935865","1","1","1","1","1","1","1","1","1"
"250007","img/neutralC/CFD-BF-010-001-N.jpg","img/neutralC/CFD-IF-620-218-N.jpg","img/neutralC/CFD-LM-233-171-N.jpg","1","1","1","1","0","0","0.382773499935865","0.377725199912675","0.53580250008963","1","1","1","1","1","1","1","1","1"
"250007","img/neutralC/CFD-LM-233-171-N.jpg","img/neutralC/CFD-BF-010-001-N.jpg","img/neutralC/CFD-WM-242-011-N.jpg","1","1","0","0","1","0","0.53580250008963","0.382773499935865","0.0468454000074416","1","1","1","1","1","0","1","1","1"
"250007","img/neutralC/CFD-WM-242-011-N.jpg","img/neutralC/CFD-LM-233-171-N.jpg","img/neutralC/CFD-LF-250-169-N.jpg","0","1","1","0","0","1","0.0468454000074416","0.53580250008963","0.546930899959989","1","1","1","0","1","1","1","1","1"
"250007","img/neutralC/CFD-LF-250-169-N.jpg","img/neutralC/CFD-WM-242-011-N.jpg","img/neutralC/CFD-BF-238-190-N.jpg","1","0","1","1","0","1","0.546930899959989","0.0468454000074416","0.446737500024028","1","1","1","1","0","1","1","1","1"
"250007","img/neutralC/CFD-BF-238-190-N.jpg","img/neutralC/CFD-LF-250-169-N.jpg","img/neutralC/CFD-BM-212-117-N.jpg","1","1","1","1","1","0","0.446737500024028","0.546930899959989","0.550833299988881","1","1","1","1","1","1","1","1","1"
"250007","img/neutralC/CFD-BM-212-117-N.jpg","img/neutralC/CFD-BF-238-190-N.jpg","img/neutralC/CFD-IM-686-097-N.jpg","1","1","1","0","1","0","0.550833299988881","0.446737500024028","0.57090429996606","1","1","1","1","1","1","1","1","1"
"250007","img/neutralC/CFD-IM-686-097-N.jpg","img/neutralC/CFD-BM-212-117-N.jpg","img/neutralC/CFD-IM-653-008-N.jpg","1","1","1","0","0","0","0.57090429996606","0.550833299988881","0.464252599980682","1","1","1","1","1","1","1","1","1"
"250007","img/neutralC/CFD-IM-653-008-N.jpg","img/neutralC/CFD-IM-686-097-N.jpg","img/neutralC/CFD-LF-242-121-N.jpg","1","1","1","0","0","0","0.464252599980682","0.57090429996606","0.513054299983196","1","1","1","1","1","1","1","1","1"
"250007","img/neutralC/CFD-LF-242-121-N.jpg","img/neutralC/CFD-IM-653-008-N.jpg","img/neutralC/CFD-BM-018-001-N.jpg","1","1","1","0","0","1","0.513054299983196","0.464252599980682","0.475846600020304","1","1","1","1","1","1","1","1","1"
"250007","img/neutralC/CFD-BM-018-001-N.jpg","img/neutralC/CFD-LF-242-121-N.jpg","img/neutralC/CFD-IM-617-174-N.jpg","1","1","1","1","0","0","0.475846600020304","0.513054299983196","0.444309399928898","1","1","1","1","1","1","1","1","1"
"250007","img/neutralC/CFD-IM-617-174-N.jpg","img/neutralC/CFD-BM-018-001-N.jpg","img/neutralC/CFD-LF-247-051-N.jpg","1","1","1","0","1","1","0.444309399928898","0.475846600020304","0.365279399906285","1","1","1","1","1","1","1","1","1"
"250007","img/neutralC/CFD-LF-247-051-N.jpg","img/neutralC/CFD-IM-617-174-N.jpg","img/neutralC/CFD-MF-313-002-N.jpg","1","1","1","1","0","0","0.365279399906285","0.444309399928898","0.474366099922918","1","1","1","1","1","1","1","1","1"
"250007","img/neutralC/CFD-MF-313-002-N.jpg","img/neutralC/CFD-LF-247-051-N.jpg","img/neutralC/CFD-BF-033-028-N.jpg","1","1","1","0","1","0","0.474366099922918","0.365279399906285","0.525467199971899","1","1","1","1","1","1","1","1","1"
"250007","img/neutralC/CFD-BF-033-028-N.jpg","img/neutralC/CFD-MF-313-002-N.jpg","img/neutralC/CFD-LM-226-175-N.jpg","1","1","1","0","0","0","0.525467199971899","0.474366099922918","0.574176699970849","1","1","1","1","1","1","1","1","1"
"250007","img/neutralC/CFD-LM-226-175-N.jpg","img/neutralC/CFD-BF-033-028-N.jpg","img/neutralC/CFD-AF-206-079-N.jpg","1","1","1","0","0","1","0.574176699970849","0.525467199971899","0.439667299971916","1","1","1","1","1","1","1","1","1"
"250007","img/neutralC/CFD-AF-206-079-N.jpg","img/neutralC/CFD-LM-226-175-N.jpg","img/neutralC/CFD-IM-657-308-N.jpg","1","1","1","1","0","0","0.439667299971916","0.574176699970849","0.48508810007479","1","1","1","1","1","1","1","1","1"
"250007","img/neutralC/CFD-IM-657-308-N.jpg","img/neutralC/CFD-AF-206-079-N.jpg","img/neutralC/CFD-AF-241-141-N.jpg","1","1","1","0","1","1","0.48508810007479","0.439667299971916","0.522336699999869","1","1","1","1","1","1","1","1","1"
"250007","img/neutralC/CFD-AF-241-141-N.jpg","img/neutralC/CFD-IM-657-308-N.jpg","img/neutralC/CFD-BM-231-155-N.jpg","1","1","1","1","0","1","0.522336699999869","0.48508810007479","0.557354899938218","1","1","1","1","1","1","1","1","1"
"250007","img/neutralC/CFD-BM-231-155-N.jpg","img/neutralC/CFD-AF-241-141-N.jpg","img/neutralC/CFD-IM-638-250-1-N.jpg","1","1","1","1","1","1","0.557354899938218","0.522336699999869","0.419659800012596","1","1","1","1","1","1","1","1","1"
"250007","img/neutralC/CFD-IM-638-250-1-N.jpg","img/neutralC/CFD-BM-231-155-N.jpg","img/neutralC/CFD-WM-258-125-N.jpg","1","1","1","1","1","0","0.419659800012596","0.557354899938218","0.390406299964525","1","1","1","1","1","1","1","1","1"
"250007","img/neutralC/CFD-WM-258-125-N.jpg","img/neutralC/CFD-IM-638-250-1-N.jpg",NA,"1","1",NA,"0","1",NA,"0.390406299964525","0.419659800012596",NA,"1","1",NA,"1","1",NA,"1","1",NA
"250007","img/neutralC/CFD-WF-017-003-N.jpg",NA,"img/neutralC/CFD-WM-019-003-N.jpg","1",NA,"1","1",NA,"1","0.901337699964642",NA,"0.509841299965046","1",NA,"1","1",NA,"1","1",NA,"1"
"250007","img/neutralC/CFD-WM-019-003-N.jpg","img/neutralC/CFD-WF-017-003-N.jpg","img/neutralC/CFD-WF-005-010-N.jpg","1","1","1","1","1","0","0.509841299965046","0.901337699964642","0.33691800001543","1","1","1","1","1","1","1","1","1"
"250007","img/neutralC/CFD-WF-005-010-N.jpg","img/neutralC/CFD-WM-019-003-N.jpg","img/neutralC/CFD-BF-041-001-N.jpg","1","1","1","0","1","1","0.33691800001543","0.509841299965046","0.420477700070478","1","1","1","1","1","1","1","1","1"
"250007","img/neutralC/CFD-BF-041-001-N.jpg","img/neutralC/CFD-WF-005-010-N.jpg","img/neutralC/CFD-LM-243-075-N.jpg","1","1","1","1","0","0","0.420477700070478","0.33691800001543","0.335926200030372","1","1","1","1","1","1","1","1","1"
"250007","img/neutralC/CFD-LM-243-075-N.jpg","img/neutralC/CFD-BF-041-001-N.jpg","img/neutralC/CFD-MF-309-002-N.jpg","1","1","1","0","1","0","0.335926200030372","0.420477700070478","0.432705499930307","1","1","1","1","1","1","1","1","1"
"250007","img/neutralC/CFD-MF-309-002-N.jpg","img/neutralC/CFD-LM-243-075-N.jpg","img/neutralC/CFD-AM-247-165-N.jpg","1","1","1","0","0","1","0.432705499930307","0.335926200030372","0.444504300015979","1","1","1","1","1","1","1","1","1"
"250007","img/neutralC/CFD-AM-247-165-N.jpg","img/neutralC/CFD-MF-309-002-N.jpg","img/neutralC/CFD-WM-215-041-N.jpg","1","1","1","1","0","0","0.444504300015979","0.432705499930307","0.415284399990924","1","1","1","1","1","1","1","1","1"
"250007","img/neutralC/CFD-WM-215-041-N.jpg","img/neutralC/CFD-AM-247-165-N.jpg","img/neutralC/CFD-BF-212-315-N.jpg","1","1","1","0","1","1","0.415284399990924","0.444504300015979","0.551978500094265","1","1","1","1","1","1","1","1","1"
"250007","img/neutralC/CFD-BF-212-315-N.jpg","img/neutralC/CFD-WM-215-041-N.jpg","img/neutralC/CFD-WM-249-239-N.jpg","1","1","1","1","0","1","0.551978500094265","0.415284399990924","0.624439900042489","1","1","1","1","1","1","1","1","1"
"250007","img/neutralC/CFD-WM-249-239-N.jpg","img/neutralC/CFD-BF-212-315-N.jpg","img/neutralC/CFD-LM-201-057-N.jpg","1","1","1","1","1","1","0.624439900042489","0.551978500094265","0.401677399990149","1","1","1","1","1","1","1","1","1"
"250007","img/neutralC/CFD-LM-201-057-N.jpg","img/neutralC/CFD-WM-249-239-N.jpg","img/neutralC/CFD-WF-228-196-N.jpg","1","1","0","1","1","0","0.401677399990149","0.624439900042489","0.522164599969983","1","1","1","1","1","1","1","1","2"
"250007","img/neutralC/CFD-WF-228-196-N.jpg","img/neutralC/CFD-LM-201-057-N.jpg","img/neutralC/CFD-WM-006-002-N.jpg","0","1","1","0","1","0","0.522164599969983","0.401677399990149","0.457060999935493","1","1","1","1","1","1","2","1","1"
"250007","img/neutralC/CFD-WM-006-002-N.jpg","img/neutralC/CFD-WF-228-196-N.jpg","img/neutralC/CFD-MF-335-002-N.jpg","1","0","1","0","0","0","0.457060999935493","0.522164599969983","0.478371400036849","1","1","1","1","1","1","1","2","2"
"250007","img/neutralC/CFD-MF-335-002-N.jpg","img/neutralC/CFD-WM-006-002-N.jpg","img/neutralC/CFD-LM-244-068-N.jpg","1","1","1","0","0","1","0.478371400036849","0.457060999935493","0.487764399964362","1","1","1","1","1","1","2","1","1"
"250007","img/neutralC/CFD-LM-244-068-N.jpg","img/neutralC/CFD-MF-335-002-N.jpg","img/neutralC/CFD-LM-214-165-N.jpg","1","1","1","1","0","1","0.487764399964362","0.478371400036849","0.488871900015511","1","1","1","1","1","1","1","2","1"
"250007","img/neutralC/CFD-LM-214-165-N.jpg","img/neutralC/CFD-LM-244-068-N.jpg","img/neutralC/CFD-WM-012-001-N.jpg","1","1","1","1","1","1","0.488871900015511","0.487764399964362","0.476076100021601","1","1","1","1","1","1","1","1","1"
"250007","img/neutralC/CFD-WM-012-001-N.jpg","img/neutralC/CFD-LM-214-165-N.jpg","img/neutralC/CFD-AF-240-206-N.jpg","1","1","1","1","1","0","0.476076100021601","0.488871900015511","0.422620900091715","1","1","1","1","1","1","1","1","1"
"250007","img/neutralC/CFD-AF-240-206-N.jpg","img/neutralC/CFD-WM-012-001-N.jpg","img/neutralC/CFD-BF-228-212-N.jpg","1","1","0","0","1","0","0.422620900091715","0.476076100021601","0.426766199991107","1","1","1","1","1","1","1","1","2"
"250007","img/neutralC/CFD-BF-228-212-N.jpg","img/neutralC/CFD-AF-240-206-N.jpg","img/neutralC/CFD-WM-026-001-N.jpg","0","1","1","0","0","1","0.426766199991107","0.422620900091715","0.465055599925108","1","1","1","1","1","1","2","1","1"
"250007","img/neutralC/CFD-WM-026-001-N.jpg","img/neutralC/CFD-BF-228-212-N.jpg","img/neutralC/CFD-BM-251-013-N.jpg","1","0","1","1","0","1","0.465055599925108","0.426766199991107","0.896463399985805","1","1","1","1","1","1","1","2","1"
"250007","img/neutralC/CFD-BM-251-013-N.jpg","img/neutralC/CFD-WM-026-001-N.jpg","img/neutralC/CFD-IF-642-295-N.jpg","1","1","1","1","1","1","0.896463399985805","0.465055599925108","0.445083800004795","1","1","1","1","1","1","1","1","1"
"250007","img/neutralC/CFD-IF-642-295-N.jpg","img/neutralC/CFD-BM-251-013-N.jpg","img/neutralC/CFD-LM-216-082-N.jpg","1","1","1","1","1","0","0.445083800004795","0.896463399985805","0.442173699964769","1","1","1","1","1","1","1","1","1"
"250007","img/neutralC/CFD-LM-216-082-N.jpg","img/neutralC/CFD-IF-642-295-N.jpg","img/neutralC/CFD-BM-248-128-N.jpg","1","1","1","0","1","0","0.442173699964769","0.445083800004795","0.588560199947096","1","1","1","1","1","1","1","1","1"
"250007","img/neutralC/CFD-BM-248-128-N.jpg","img/neutralC/CFD-LM-216-082-N.jpg","img/neutralC/CFD-IM-646-023-N.jpg","1","1","1","0","0","1","0.588560199947096","0.442173699964769","0.483764500007965","1","1","1","1","1","1","1","1","1"
"250007","img/neutralC/CFD-IM-646-023-N.jpg","img/neutralC/CFD-BM-248-128-N.jpg","img/neutralC/CFD-BM-205-001-N.jpg","1","1","1","1","0","0","0.483764500007965","0.588560199947096","0.484719399944879","1","1","1","1","1","1","1","1","1"
"250007","img/neutralC/CFD-BM-205-001-N.jpg","img/neutralC/CFD-IM-646-023-N.jpg","img/neutralC/CFD-BF-025-002-N.jpg","1","1","0","0","1","0","0.484719399944879","0.483764500007965","0.971949500031769","1","1","1","1","1","1","1","1","1"
"250007","img/neutralC/CFD-BF-025-002-N.jpg","img/neutralC/CFD-BM-205-001-N.jpg","img/neutralC/CFD-WF-240-083-N.jpg","0","1","0","0","0","0","0.971949500031769","0.484719399944879","0.570558800012805","1","1","1","1","1","1","1","1","2"
"250007","img/neutralC/CFD-WF-240-083-N.jpg","img/neutralC/CFD-BF-025-002-N.jpg","img/neutralC/CFD-BF-202-109-N.jpg","0","0","1","0","0","1","0.570558800012805","0.971949500031769","0.578713699942455","1","1","1","1","1","1","2","1","1"
"250007","img/neutralC/CFD-BF-202-109-N.jpg","img/neutralC/CFD-WF-240-083-N.jpg","img/neutralC/CFD-WM-212-097-N.jpg","1","0","1","1","0","0","0.578713699942455","0.570558800012805","0.47355749993585","1","1","1","1","1","1","1","2","1"
"250007","img/neutralC/CFD-WM-212-097-N.jpg","img/neutralC/CFD-BF-202-109-N.jpg","img/neutralC/CFD-MM-317-061-N.jpg","1","1","1","0","1","1","0.47355749993585","0.578713699942455","0.428948300075717","1","1","1","1","1","1","1","1","1"
"250007","img/neutralC/CFD-MM-317-061-N.jpg","img/neutralC/CFD-WM-212-097-N.jpg","img/neutralC/CFD-IM-648-337-N.jpg","1","1","1","1","0","0","0.428948300075717","0.47355749993585","0.527426999993622","1","1","1","1","1","1","1","1","1"
"250007","img/neutralC/CFD-IM-648-337-N.jpg","img/neutralC/CFD-MM-317-061-N.jpg",NA,"1","1",NA,"0","1",NA,"0.527426999993622","0.428948300075717",NA,"1","1",NA,"1","1",NA,"1","1",NA
"250007","img/neutralC/CFD-WF-222-092-N.jpg",NA,"img/neutralC/CFD-MF-305-014-N.jpg","1",NA,"1","1",NA,"1","1.24524750001729",NA,"0.512915899977088","1",NA,"1","1",NA,"1","1",NA,"1"
"250007","img/neutralC/CFD-MF-305-014-N.jpg","img/neutralC/CFD-WF-222-092-N.jpg","img/neutralC/CFD-LF-255-088-N.jpg","1","1","1","1","1","0","0.512915899977088","1.24524750001729","0.419437699951231","1","1","1","1","1","1","1","1","1"
"250007","img/neutralC/CFD-LF-255-088-N.jpg","img/neutralC/CFD-MF-305-014-N.jpg","img/neutralC/CFD-WF-007-001-N.jpg","1","1","1","0","1","1","0.419437699951231","0.512915899977088","0.405657900031656","1","1","1","1","1","1","1","1","1"
"250007","img/neutralC/CFD-WF-007-001-N.jpg","img/neutralC/CFD-LF-255-088-N.jpg","img/neutralC/CFD-MF-316-001-N.jpg","1","1","0","1","0","0","0.405657900031656","0.419437699951231","0.27590320003219","1","1","1","1","1","1","1","1","2"
"250007","img/neutralC/CFD-MF-316-001-N.jpg","img/neutralC/CFD-WF-007-001-N.jpg","img/neutralC/CFD-BM-217-082-N.jpg","0","1","1","0","1","0","0.27590320003219","0.405657900031656","0.462224600021727","1","1","1","1","1","1","2","1","1"
"250007","img/neutralC/CFD-BM-217-082-N.jpg","img/neutralC/CFD-MF-316-001-N.jpg","img/neutralC/CFD-IF-626-375-N.jpg","1","0","1","0","0","0","0.462224600021727","0.27590320003219","0.43388310004957","1","1","1","1","1","1","1","2","1"
"250007","img/neutralC/CFD-IF-626-375-N.jpg","img/neutralC/CFD-BM-217-082-N.jpg","img/neutralC/CFD-MF-303-013-N.jpg","1","1","1","0","0","0","0.43388310004957","0.462224600021727","0.425785699975677","1","1","1","1","1","1","1","1","1"
"250007","img/neutralC/CFD-MF-303-013-N.jpg","img/neutralC/CFD-IF-626-375-N.jpg","img/neutralC/CFD-IM-680-369-N.jpg","1","1","1","0","0","1","0.425785699975677","0.43388310004957","0.423881600028835","1","1","1","1","1","1","1","1","1"
"250007","img/neutralC/CFD-IM-680-369-N.jpg","img/neutralC/CFD-MF-303-013-N.jpg","img/neutralC/CFD-BM-001-014-N.jpg","1","1","1","1","0","0","0.423881600028835","0.425785699975677","0.437766900053248","1","1","1","1","1","1","1","1","1"
"250007","img/neutralC/CFD-BM-001-014-N.jpg","img/neutralC/CFD-IM-680-369-N.jpg","img/neutralC/CFD-WF-030-002-N.jpg","1","1","1","0","1","0","0.437766900053248","0.423881600028835","0.62140589999035","1","1","1","1","1","1","1","1","1"
"250007","img/neutralC/CFD-WF-030-002-N.jpg","img/neutralC/CFD-BM-001-014-N.jpg","img/neutralC/CFD-AF-233-190-N.jpg","1","1","1","0","0","0","0.62140589999035","0.437766900053248","0.421016999986023","1","1","1","1","1","1","1","1","1"
"250007","img/neutralC/CFD-AF-233-190-N.jpg","img/neutralC/CFD-WF-030-002-N.jpg","img/neutralC/CFD-WM-209-038-N.jpg","1","1","1","0","0","0","0.421016999986023","0.62140589999035","0.457133500021882","1","1","1","1","1","1","1","1","1"
"250007","img/neutralC/CFD-WM-209-038-N.jpg","img/neutralC/CFD-AF-233-190-N.jpg","img/neutralC/CFD-BF-014-002-N.jpg","1","1","1","0","0","1","0.457133500021882","0.421016999986023","0.433525300002657","1","1","1","1","1","1","1","1","1"
"250007","img/neutralC/CFD-BF-014-002-N.jpg","img/neutralC/CFD-WM-209-038-N.jpg","img/neutralC/CFD-MF-357-002-N.jpg","1","1","1","1","0","0","0.433525300002657","0.457133500021882","0.504871999961324","1","1","1","1","1","1","1","1","1"
"250007","img/neutralC/CFD-MF-357-002-N.jpg","img/neutralC/CFD-BF-014-002-N.jpg","img/neutralC/CFD-IF-660-464-N.jpg","1","1","1","0","1","0","0.504871999961324","0.433525300002657","0.505549599998631","1","1","1","1","1","1","1","1","1"
"250007","img/neutralC/CFD-IF-660-464-N.jpg","img/neutralC/CFD-MF-357-002-N.jpg","img/neutralC/CFD-BF-237-172-N.jpg","1","1","1","0","0","1","0.505549599998631","0.504871999961324","0.70035280007869","1","1","1","1","1","1","1","1","1"
"250007","img/neutralC/CFD-BF-237-172-N.jpg","img/neutralC/CFD-IF-660-464-N.jpg","img/neutralC/CFD-MM-324-069-N.jpg","1","1","1","1","0","1","0.70035280007869","0.505549599998631","0.461786000058055","1","1","1","1","1","1","1","1","1"
"250007","img/neutralC/CFD-MM-324-069-N.jpg","img/neutralC/CFD-BF-237-172-N.jpg","img/neutralC/CFD-BM-250-170-N.jpg","1","1","1","1","1","1","0.461786000058055","0.70035280007869","0.378918800037354","1","1","1","1","1","1","1","1","1"
"250007","img/neutralC/CFD-BM-250-170-N.jpg","img/neutralC/CFD-MM-324-069-N.jpg","img/neutralC/CFD-LM-225-130-N.jpg","1","1","1","1","1","0","0.378918800037354","0.461786000058055","0.411064699990675","1","1","1","1","1","1","1","1","1"
"250007","img/neutralC/CFD-LM-225-130-N.jpg","img/neutralC/CFD-BM-250-170-N.jpg","img/neutralC/CFD-MF-343-001-N.jpg","1","1","1","0","1","1","0.411064699990675","0.378918800037354","0.450607100035995","1","1","1","1","1","1","1","1","1"
"250007","img/neutralC/CFD-MF-343-001-N.jpg","img/neutralC/CFD-LM-225-130-N.jpg","img/neutralC/CFD-IM-664-651-N.jpg","1","1","1","1","0","1","0.450607100035995","0.411064699990675","0.620512400055304","1","1","1","1","1","1","1","1","1"
"250007","img/neutralC/CFD-IM-664-651-N.jpg","img/neutralC/CFD-MF-343-001-N.jpg","img/neutralC/CFD-WF-244-163-N.jpg","1","1","1","1","1","1","0.620512400055304","0.450607100035995","0.479806200019084","1","1","1","1","1","1","1","1","1"
"250007","img/neutralC/CFD-WF-244-163-N.jpg","img/neutralC/CFD-IM-664-651-N.jpg","img/neutralC/CFD-LF-206-078-N.jpg","1","1","1","1","1","1","0.479806200019084","0.620512400055304","0.473381199990399","1","1","1","1","1","1","1","1","1"
"250007","img/neutralC/CFD-LF-206-078-N.jpg","img/neutralC/CFD-WF-244-163-N.jpg","img/neutralC/CFD-WM-218-074-N.jpg","1","1","1","1","1","1","0.473381199990399","0.479806200019084","0.469793500029482","1","1","1","1","1","1","1","1","1"
"250007","img/neutralC/CFD-WM-218-074-N.jpg","img/neutralC/CFD-LF-206-078-N.jpg","img/neutralC/CFD-LM-200-045-N.jpg","1","1","1","1","1","1","0.469793500029482","0.473381199990399","0.535659799934365","1","1","1","1","1","1","1","1","1"
"250007","img/neutralC/CFD-LM-200-045-N.jpg","img/neutralC/CFD-WM-218-074-N.jpg","img/neutralC/CFD-AM-220-134-N.jpg","1","1","1","1","1","0","0.535659799934365","0.469793500029482","0.550208900007419","1","1","1","1","1","1","1","1","1"
"250007","img/neutralC/CFD-AM-220-134-N.jpg","img/neutralC/CFD-LM-200-045-N.jpg","img/neutralC/CFD-WM-015-002-N.jpg","1","1","1","0","1","0","0.550208900007419","0.535659799934365","0.428584200097248","1","1","1","1","1","1","1","1","1"
"250007","img/neutralC/CFD-WM-015-002-N.jpg","img/neutralC/CFD-AM-220-134-N.jpg","img/neutralC/CFD-IM-667-369-N.jpg","1","1","1","0","0","0","0.428584200097248","0.550208900007419","0.452149200020358","1","1","1","1","1","1","1","1","1"
"250007","img/neutralC/CFD-IM-667-369-N.jpg","img/neutralC/CFD-WM-015-002-N.jpg","img/neutralC/CFD-IM-706-002-N.jpg","1","1","1","0","0","0","0.452149200020358","0.428584200097248","0.527546099969186","1","1","1","1","1","1","1","1","1"
"250007","img/neutralC/CFD-IM-706-002-N.jpg","img/neutralC/CFD-IM-667-369-N.jpg","img/neutralC/CFD-IM-702-101-N.jpg","1","1","1","0","0","1","0.527546099969186","0.452149200020358","0.426162600051612","1","1","1","1","1","1","1","1","1"
"250007","img/neutralC/CFD-IM-702-101-N.jpg","img/neutralC/CFD-IM-706-002-N.jpg","img/neutralC/CFD-AF-253-130-N.jpg","1","1","1","1","0","1","0.426162600051612","0.527546099969186","0.486405499977991","1","1","1","1","1","1","1","1","1"
"250007","img/neutralC/CFD-AF-253-130-N.jpg","img/neutralC/CFD-IM-702-101-N.jpg",NA,"1","1",NA,"1","1",NA,"0.486405499977991","0.426162600051612",NA,"1","1",NA,"1","1",NA,"1","1",NA
"250007","img/neutralC/CFD-BF-232-187-N.jpg",NA,"img/neutralC/CFD-BF-226-119-N.jpg","1",NA,"1","1",NA,"1","0.510857100016437",NA,"0.441129100043327","1",NA,"1","1",NA,"1","1",NA,"1"
"250007","img/neutralC/CFD-BF-226-119-N.jpg","img/neutralC/CFD-BF-232-187-N.jpg","img/neutralC/CFD-AM-211-052-N.jpg","1","1","1","1","1","1","0.441129100043327","0.510857100016437","0.509632799890824","1","1","1","1","1","1","1","1","1"
"250007","img/neutralC/CFD-AM-211-052-N.jpg","img/neutralC/CFD-BF-226-119-N.jpg","img/neutralC/CFD-WM-020-001-N.jpg","1","1","1","1","1","1","0.509632799890824","0.441129100043327","0.483086499967612","1","1","1","1","1","1","1","1","1"
"250007","img/neutralC/CFD-WM-020-001-N.jpg","img/neutralC/CFD-AM-211-052-N.jpg","img/neutralC/CFD-WM-033-025-N.jpg","1","1","1","1","1","1","0.483086499967612","0.509632799890824","0.444012299994938","1","1","1","1","1","1","1","1","1"
"250007","img/neutralC/CFD-WM-033-025-N.jpg","img/neutralC/CFD-WM-020-001-N.jpg","img/neutralC/CFD-LM-237-264-N.jpg","1","1","1","1","1","0","0.444012299994938","0.483086499967612","0.382822799962014","1","1","1","1","1","1","1","1","1"
"250007","img/neutralC/CFD-LM-237-264-N.jpg","img/neutralC/CFD-WM-033-025-N.jpg","img/neutralC/CFD-IM-743-006-N.jpg","1","1","1","0","1","1","0.382822799962014","0.444012299994938","0.521619100007229","1","1","1","1","1","1","1","1","1"
"250007","img/neutralC/CFD-IM-743-006-N.jpg","img/neutralC/CFD-LM-237-264-N.jpg","img/neutralC/CFD-LF-220-120-N.jpg","1","1","1","1","0","1","0.521619100007229","0.382822799962014","0.554280900047161","1","1","1","1","1","1","1","1","1"
"250007","img/neutralC/CFD-LF-220-120-N.jpg","img/neutralC/CFD-IM-743-006-N.jpg","img/neutralC/CFD-IM-616-214-N.jpg","1","1","1","1","1","0","0.554280900047161","0.521619100007229","0.463538600015454","1","1","1","1","1","1","1","1","1"
"250007","img/neutralC/CFD-IM-616-214-N.jpg","img/neutralC/CFD-LF-220-120-N.jpg","img/neutralC/CFD-MF-333-012-N.jpg","1","1","1","0","1","0","0.463538600015454","0.554280900047161","0.831300099962391","1","1","1","1","1","1","1","1","1"
"250007","img/neutralC/CFD-MF-333-012-N.jpg","img/neutralC/CFD-IM-616-214-N.jpg","img/neutralC/CFD-IF-623-129-N.jpg","1","1","1","0","0","1","0.831300099962391","0.463538600015454","0.696582700009458","1","1","1","1","1","1","1","1","1"
"250007","img/neutralC/CFD-IF-623-129-N.jpg","img/neutralC/CFD-MF-333-012-N.jpg","img/neutralC/CFD-MF-352-054-N.jpg","1","1","1","1","0","0","0.696582700009458","0.831300099962391","0.485767700010911","1","1","1","1","1","1","1","1","1"
"250007","img/neutralC/CFD-MF-352-054-N.jpg","img/neutralC/CFD-IF-623-129-N.jpg","img/neutralC/CFD-LM-228-188-N.jpg","1","1","1","0","1","1","0.485767700010911","0.696582700009458","0.425291200052015","1","1","1","1","1","1","1","1","1"
"250007","img/neutralC/CFD-LM-228-188-N.jpg","img/neutralC/CFD-MF-352-054-N.jpg","img/neutralC/CFD-BM-253-004-N.jpg","1","1","1","1","0","1","0.425291200052015","0.485767700010911","0.503804999985732","1","1","1","1","1","1","1","1","1"
"250007","img/neutralC/CFD-BM-253-004-N.jpg","img/neutralC/CFD-LM-228-188-N.jpg","img/neutralC/CFD-BM-225-154-N.jpg","1","1","1","1","1","1","0.503804999985732","0.425291200052015","0.39699059992563","1","1","1","1","1","1","1","1","1"
"250007","img/neutralC/CFD-BM-225-154-N.jpg","img/neutralC/CFD-BM-253-004-N.jpg","img/neutralC/CFD-AM-251-124-N.jpg","1","1","1","1","1","0","0.39699059992563","0.503804999985732","0.477050699992105","1","1","1","1","1","1","1","1","1"
"250007","img/neutralC/CFD-AM-251-124-N.jpg","img/neutralC/CFD-BM-225-154-N.jpg","img/neutralC/CFD-BF-229-179-N.jpg","1","1","1","0","1","0","0.477050699992105","0.39699059992563","0.4447490000166","1","1","1","1","1","1","1","1","1"
"250007","img/neutralC/CFD-BF-229-179-N.jpg","img/neutralC/CFD-AM-251-124-N.jpg","img/neutralC/CFD-IM-671-601-N.jpg","1","1","1","0","0","0","0.4447490000166","0.477050699992105","0.507860600017011","1","1","1","1","1","1","1","1","1"
"250007","img/neutralC/CFD-IM-671-601-N.jpg","img/neutralC/CFD-BF-229-179-N.jpg","img/neutralC/CFD-WM-235-147-N.jpg","1","1","1","0","0","0","0.507860600017011","0.4447490000166","0.40286319993902","1","1","1","1","1","1","1","1","1"
"250007","img/neutralC/CFD-WM-235-147-N.jpg","img/neutralC/CFD-IM-671-601-N.jpg","img/neutralC/CFD-LF-218-072-N.jpg","1","1","1","0","0","0","0.40286319993902","0.507860600017011","1.02781240001787","1","1","1","1","1","1","1","1","1"
"250007","img/neutralC/CFD-LF-218-072-N.jpg","img/neutralC/CFD-WM-235-147-N.jpg","img/neutralC/CFD-IM-703-182-N.jpg","1","1","1","0","0","1","1.02781240001787","0.40286319993902","0.699143299949355","1","1","1","1","1","1","1","1","1"
"250007","img/neutralC/CFD-IM-703-182-N.jpg","img/neutralC/CFD-LF-218-072-N.jpg","img/neutralC/CFD-WF-001-003-N.jpg","1","1","1","1","0","1","0.699143299949355","1.02781240001787","0.550972600001842","1","1","1","1","1","1","1","1","1"
"250007","img/neutralC/CFD-WF-001-003-N.jpg","img/neutralC/CFD-IM-703-182-N.jpg","img/neutralC/CFD-IM-645-001-N.jpg","1","1","1","1","1","0","0.550972600001842","0.699143299949355","0.688810499967076","1","1","1","1","1","1","1","1","1"
"250007","img/neutralC/CFD-IM-645-001-N.jpg","img/neutralC/CFD-WF-001-003-N.jpg","img/neutralC/CFD-BF-038-037-N.jpg","1","1","1","0","1","1","0.688810499967076","0.550972600001842","0.531401199987158","1","1","1","1","1","1","1","1","1"
"250007","img/neutralC/CFD-BF-038-037-N.jpg","img/neutralC/CFD-IM-645-001-N.jpg","img/neutralC/CFD-WM-219-008-N.jpg","1","1","1","1","0","0","0.531401199987158","0.688810499967076","0.441876400029287","1","1","1","1","1","1","1","1","1"
"250007","img/neutralC/CFD-WM-219-008-N.jpg","img/neutralC/CFD-BF-038-037-N.jpg","img/neutralC/CFD-WM-004-010-N.jpg","1","1","1","0","1","0","0.441876400029287","0.531401199987158","0.515305900014937","1","1","1","1","1","1","1","1","1"
"250007","img/neutralC/CFD-WM-004-010-N.jpg","img/neutralC/CFD-WM-219-008-N.jpg","img/neutralC/CFD-AM-242-176-N.jpg","1","1","1","0","0","1","0.515305900014937","0.441876400029287","0.50706450000871","1","1","1","1","1","1","1","1","1"
"250007","img/neutralC/CFD-AM-242-176-N.jpg","img/neutralC/CFD-WM-004-010-N.jpg","img/neutralC/CFD-WF-036-023-N.jpg","1","1","1","1","0","0","0.50706450000871","0.515305900014937","0.486836199997924","1","1","1","1","1","1","1","1","1"
"250007","img/neutralC/CFD-WF-036-023-N.jpg","img/neutralC/CFD-AM-242-176-N.jpg","img/neutralC/CFD-IF-650-315-N.jpg","1","1","1","0","1","0","0.486836199997924","0.50706450000871","0.697241200017743","1","1","1","1","1","1","1","1","1"
"250007","img/neutralC/CFD-IF-650-315-N.jpg","img/neutralC/CFD-WF-036-023-N.jpg","img/neutralC/CFD-MF-359-019-N.jpg","1","1","1","0","0","0","0.697241200017743","0.486836199997924","0.490494199912064","1","1","1","1","1","1","1","1","1"
"250007","img/neutralC/CFD-MF-359-019-N.jpg","img/neutralC/CFD-IF-650-315-N.jpg","img/neutralC/CFD-WF-214-122-N.jpg","1","1","1","0","0","1","0.490494199912064","0.697241200017743","0.535564000019804","1","1","1","1","1","1","1","1","1"
"250007","img/neutralC/CFD-WF-214-122-N.jpg","img/neutralC/CFD-MF-359-019-N.jpg","img/neutralC/CFD-WF-200-099-N.jpg","1","1","1","1","0","0","0.535564000019804","0.490494199912064","0.474858100060374","1","1","1","1","1","1","1","1","1"
"250007","img/neutralC/CFD-WF-200-099-N.jpg","img/neutralC/CFD-WF-214-122-N.jpg",NA,"1","1",NA,"0","1",NA,"0.474858100060374","0.535564000019804",NA,"1","1",NA,"1","1",NA,"1","1",NA
