"participant_id","face","surpAcc","memory_surp_responses","memory_surp_rt","keep_surp_memory_trial_based_on_rt","surp_block_num","exclude_block","number_of_surp_resp_items_used","num_blocks_excluded"
"250033","img/neutralC/CFD-IM-632-097-N.jpg","1","k","1.84499759995379",1,1,0,2,0
"250033","img/neutralC/CFD-BM-227-191-N.jpg","0","s","1.78388680005446",1,1,0,2,0
"250033","img/neutralC/CFD-IM-671-601-N.jpg","1","s","1.24897359998431",1,1,0,2,0
"250033","img/neutralC/CFD-AF-246-242-N.jpg","1","k","1.27203409990761",1,1,0,2,0
"250033","img/neutralC/CFD-WF-030-002-N.jpg","1","k","1.06988640001509",1,1,0,2,0
"250033","img/neutralC/CFD-IM-657-308-N.jpg","1","s","0.934536900022067",1,1,0,2,0
"250033","img/neutralC/CFD-AM-233-236-N.jpg","0","k","0.952208499889821",1,1,0,2,0
"250033","img/neutralC/CFD-BM-020-001-N.jpg","1","s","2.70979700004682",1,1,0,2,0
"250033","img/neutralC/CFD-IF-660-464-N.jpg","0","s","1.01554709998891",1,1,0,2,0
"250033","img/neutralC/CFD-WF-234-086-N.jpg","1","s","1.30461160000414",1,1,0,2,0
"250033","img/neutralC/CFD-WM-020-001-N.jpg","1","s","1.56744210002944",1,1,0,2,0
"250033","img/neutralC/CFD-IM-700-009-N.jpg","0","k","1.2962612999836",1,1,0,2,0
"250033","img/neutralC/CFD-BM-253-004-N.jpg","1","s","0.831681500072591",1,1,0,2,0
"250033","img/neutralC/CFD-MM-304-002-N.jpg","0","k","2.41867450007703",1,1,0,2,0
"250033","img/neutralC/CFD-WM-212-097-N.jpg","1","s","1.65596959996037",1,1,0,2,0
"250033","img/neutralC/CFD-LF-225-164-N.jpg","0","k","3.0102219999535",1,1,0,2,0
"250033","img/neutralC/CFD-WM-227-099-N.jpg","0","k","0.895063500036485",1,1,0,2,0
"250033","img/neutralC/CFD-WM-034-030-N.jpg","0","s","1.28122140001506",1,1,0,2,0
"250033","img/neutralC/CFD-WM-033-025-N.jpg","0","s","1.08123770006932",1,1,0,2,0
"250033","img/neutralC/CFD-MF-300-002-N.jpg","1","s","1.54644569999073",1,1,0,2,0
"250033","img/neutralC/CFD-WM-012-001-N.jpg","0","s","1.40184740000404",1,1,0,2,0
"250033","img/neutralC/CFD-WM-028-003-N.jpg","0","s","1.55048950004857",1,1,0,2,0
"250033","img/neutralC/CFD-MF-305-014-N.jpg","1","s","1.17015400005039",1,1,0,2,0
"250033","img/neutralC/CFD-LM-247-095-N.jpg","0","k","0.83165100007318",1,1,0,2,0
"250033","img/neutralC/CFD-MF-307-002-N.jpg","0","k","0.998604500084184",1,1,0,2,0
"250033","img/neutralC/CFD-WF-250-167-N.jpg","1","k","1.17762610001955",1,1,0,2,0
"250033","img/neutralC/CFD-WM-023-001-N.jpg","0","s","0.882769500021823",1,1,0,2,0
"250033","img/neutralC/CFD-BM-004-002-N.jpg","1","k","1.70598610001616",1,1,0,2,0
"250033","img/neutralC/CFD-IM-617-174-N.jpg","0","k","1.10832499992102",1,1,0,2,0
"250033","img/neutralC/CFD-IM-707-105-N.jpg","1","k","2.31837420002557",1,1,0,2,0
"250033","img/neutralC/CFD-AF-253-130-N.jpg","1","s","1.39915439998731",1,1,0,2,0
"250033","img/neutralC/CFD-LF-204-133-N.jpg","1","s","1.45702810003422",1,1,0,2,0
"250033","img/neutralC/CFD-BM-009-002-N.jpg","0","k","2.30726479995064",1,1,0,2,0
"250033","img/neutralC/CFD-WM-215-041-N.jpg","0","s","1.92110010003671",1,1,0,2,0
"250033","img/neutralC/CFD-BM-213-134-N.jpg","1","s","1.34921500005294",1,1,0,2,0
"250033","img/neutralC/CFD-WF-233-112-N.jpg","1","s","1.66645300004166",1,1,0,2,0
"250033","img/neutralC/CFD-WF-213-031-N.jpg","1","k","1.86778249999043",1,1,0,2,0
"250033","img/neutralC/CFD-LF-245-166-N.jpg","1","s","1.40876989997923",1,1,0,2,0
"250033","img/neutralC/CFD-BM-238-242-N.jpg","1","s","1.15031029994134",1,1,0,2,0
"250033","img/neutralC/CFD-BF-205-141-N.jpg","1","k","1.22871239995584",1,1,0,2,0
"250033","img/neutralC/CFD-WF-244-163-N.jpg","0","s","1.1592960000271",1,1,0,2,0
"250033","img/neutralC/CFD-BF-012-001-N.jpg","1","k","1.30417929997202",1,1,0,2,0
"250033","img/neutralC/CFD-IF-744-114-N.jpg","0","k","1.53314129996579",1,1,0,2,0
"250033","img/neutralC/CFD-BM-239-136-N.jpg","1","s","0.852086500031874",1,1,0,2,0
"250033","img/neutralC/CFD-IM-674-281-N.jpg","1","s","1.90757170005236",1,1,0,2,0
"250033","img/neutralC/CFD-AM-219-101-N.jpg","1","k","1.13254300004337",1,1,0,2,0
"250033","img/neutralC/CFD-WF-001-003-N.jpg","1","k","0.862722299993038",1,1,0,2,0
"250033","img/neutralC/CFD-WM-004-010-N.jpg","1","s","1.24691370001528",1,1,0,2,0
"250033","img/neutralC/CFD-WM-242-011-N.jpg","0","s","1.36413210001774",1,2,0,2,0
"250033","img/neutralC/CFD-IM-627-178-N.jpg","0","k","0.846858099917881",1,2,0,2,0
"250033","img/neutralC/CFD-IM-667-369-N.jpg","1","s","0.876259700045921",1,2,0,2,0
"250033","img/neutralC/CFD-BM-036-003-N.jpg","0","k","0.879482400021516",1,2,0,2,0
"250033","img/neutralC/CFD-IM-689-263-N.jpg","1","k","1.78120349999517",1,2,0,2,0
"250033","img/neutralC/CFD-WF-033-002-N.jpg","1","s","0.789332100073807",1,2,0,2,0
"250033","img/neutralC/CFD-AF-239-171-N.jpg","1","k","2.02121669996995",1,2,0,2,0
"250033","img/neutralC/CFD-BF-051-035-N.jpg","0","k","0.925487999920733",1,2,0,2,0
"250033","img/neutralC/CFD-BM-030-003-N.jpg","1","s","1.35072980006225",1,2,0,2,0
"250033","img/neutralC/CFD-BM-026-002-N.jpg","1","k","1.52097510010935",1,2,0,2,0
"250033","img/neutralC/CFD-BF-043-003-N.jpg","1","s","0.636844400083646",1,2,0,2,0
"250033","img/neutralC/CFD-WM-009-002-N.jpg","1","k","1.31469659996219",1,2,0,2,0
"250033","img/neutralC/CFD-WM-228-065-N.jpg","0","k","1.02806179993786",1,2,0,2,0
"250033","img/neutralC/CFD-WF-023-003-N.jpg","0","s","0.900460800039582",1,2,0,2,0
"250033","img/neutralC/CFD-BM-015-015-N.jpg","0","s","1.21693380002398",1,2,0,2,0
"250033","img/neutralC/CFD-MM-306-010-N.jpg","0","s","2.16808860003948",1,2,0,2,0
"250033","img/neutralC/CFD-WM-017-002-N.jpg","1","k","1.17415510001592",1,2,0,2,0
"250033","img/neutralC/CFD-IF-693-172-N.jpg","0","s","1.831831999938",1,2,0,2,0
"250033","img/neutralC/CFD-LM-241-125-N.jpg","1","k","1.64882839994971",1,2,0,2,0
"250033","img/neutralC/CFD-IF-710-016-N.jpg","1","k","0.928053300012834",1,2,0,2,0
"250033","img/neutralC/CFD-IM-669-111-N.jpg","1","k","2.22248679993208",1,2,0,2,0
"250033","img/neutralC/CFD-MF-313-002-N.jpg","1","s","1.31830570008606",1,2,0,2,0
"250033","img/neutralC/CFD-MM-319-052-N.jpg","1","s","1.43502380000427",1,2,0,2,0
"250033","img/neutralC/CFD-LM-237-264-N.jpg","0","s","1.49779709998984",1,2,0,2,0
"250033","img/neutralC/CFD-AM-211-052-N.jpg","1","k","1.18095409998205",1,2,0,2,0
"250033","img/neutralC/CFD-IF-665-015-N.jpg","1","s","0.817350500030443",1,2,0,2,0
"250033","img/neutralC/CFD-IM-664-651-N.jpg","1","s","1.74483729992062",1,2,0,2,0
"250033","img/neutralC/CFD-IF-672-305-N.jpg","1","s","1.34577849996276",1,2,0,2,0
"250033","img/neutralC/CFD-BF-044-034-N.jpg","1","s","1.05814310000278",1,2,0,2,0
"250033","img/neutralC/CFD-IM-651-308-N.jpg","1","k","0.83106650004629",1,2,0,2,0
"250033","img/neutralC/CFD-LM-213-061-N.jpg","1","s","1.01143450010568",1,2,0,2,0
"250033","img/neutralC/CFD-AF-250-200-N.jpg","0","k","1.07889919995796",1,2,0,2,0
"250033","img/neutralC/CFD-WF-200-099-N.jpg","1","s","1.32448359997943",1,2,0,2,0
"250033","img/neutralC/CFD-BM-003-003-N.jpg","0","s","1.60610069998074",1,2,0,2,0
"250033","img/neutralC/CFD-WF-240-083-N.jpg","1","s","1.48382530000526",1,2,0,2,0
"250033","img/neutralC/CFD-BM-207-024-N.jpg","1","k","1.0392219000496",1,2,0,2,0
"250033","img/neutralC/CFD-WM-019-003-N.jpg","0","s","1.27351289999206",1,2,0,2,0
"250033","img/neutralC/CFD-MF-321-003-N.jpg","1","k","3.17349779990036",1,2,0,2,0
"250033","img/neutralC/CFD-LF-224-176-N.jpg","0","k","1.20038289995864",1,2,0,2,0
"250033","img/neutralC/CFD-BM-023-029-N.jpg","1","k","1.33368210005574",1,2,0,2,0
"250033","img/neutralC/CFD-BF-218-207-N.jpg","1","s","0.889267700025812",1,2,0,2,0
"250033","img/neutralC/CFD-IF-634-382-N.jpg","1","s","1.19822109991219",1,2,0,2,0
"250033","img/neutralC/CFD-WF-208-068-N.jpg","0","k","1.25229319999926",1,2,0,2,0
"250033","img/neutralC/CFD-WM-015-002-N.jpg","1","s","1.80506229994353",1,2,0,2,0
"250033","img/neutralC/CFD-WM-219-008-N.jpg","0","k","0.70081680000294",1,2,0,2,0
"250033","img/neutralC/CFD-IF-718-001-N.jpg","1","s","2.39528269995935",1,2,0,2,0
"250033","img/neutralC/CFD-BM-217-082-N.jpg","1","s","0.987319100066088",1,2,0,2,0
"250033","img/neutralC/CFD-WM-248-036-N.jpg","1","k","1.08100540004671",1,2,0,2,0
"250033","img/neutralC/CFD-BF-004-014-N.jpg","1","k","0.848782400018536",1,3,0,2,0
"250033","img/neutralC/CFD-IM-701-312-N.jpg","0","s","1.22233030002099",1,3,0,2,0
"250033","img/neutralC/CFD-AM-251-124-N.jpg","0","k","0.916571200010367",1,3,0,2,0
"250033","img/neutralC/CFD-LM-204-001-N.jpg","0","s","0.982855599955656",1,3,0,2,0
"250033","img/neutralC/CFD-WM-209-038-N.jpg","1","s","1.21283769991715",1,3,0,2,0
"250033","img/neutralC/CFD-WM-213-076-N.jpg","0","k","1.10346939996816",1,3,0,2,0
"250033","img/neutralC/CFD-LF-206-078-N.jpg","0","k","1.56796270003542",1,3,0,2,0
"250033","img/neutralC/CFD-AF-232-078-N.jpg","1","s","1.5692609999096",1,3,0,2,0
"250033","img/neutralC/CFD-BM-005-003-N.jpg","1","k","1.07850149995647",1,3,0,2,0
"250033","img/neutralC/CFD-IM-680-369-N.jpg","0","s","1.62708559993189",1,3,0,2,0
"250033","img/neutralC/CFD-IM-659-359-N.jpg","1","k","1.1767088000197",1,3,0,2,0
"250033","img/neutralC/CFD-BF-027-002-N.jpg","1","s","1.09889829996973",1,3,0,2,0
"250033","img/neutralC/CFD-WF-008-002-N.jpg","0","s","1.85670149989892",1,3,0,2,0
"250033","img/neutralC/CFD-AF-213-126-N.jpg","1","k","1.29585610004142",1,3,0,2,0
"250033","img/neutralC/CFD-LF-241-188-N.jpg","1","k","1.61453789996449",1,3,0,2,0
"250033","img/neutralC/CFD-BF-018-039-N.jpg","1","s","0.859958599903621",1,3,0,2,0
"250033","img/neutralC/CFD-LM-216-082-N.jpg","1","s","0.78823609999381",1,3,0,2,0
"250033","img/neutralC/CFD-IM-639-263-N.jpg","1","s","1.3636669999687",1,3,0,2,0
"250033","img/neutralC/CFD-WF-036-023-N.jpg","0","k","1.92717000003904",1,3,0,2,0
"250033","img/neutralC/CFD-BM-039-029-N.jpg","1","s","0.790959800011478",1,3,0,2,0
"250033","img/neutralC/CFD-AM-242-176-N.jpg","0","s","1.07375390001107",1,3,0,2,0
"250033","img/neutralC/CFD-WM-258-125-N.jpg","0","k","1.91524920007214",1,3,0,2,0
"250033","img/neutralC/CFD-IF-673-389-N.jpg","1","k","1.78830480005126",1,3,0,2,0
"250033","img/neutralC/CFD-WM-202-107-N.jpg","0","k","1.39612420008052",1,3,0,2,0
"250033","img/neutralC/CFD-BF-238-190-N.jpg","1","k","0.994380000047386",1,3,0,2,0
"250033","img/neutralC/CFD-AM-225-102-N.jpg","0","k","1.15376250003465",1,3,0,2,0
"250033","img/neutralC/CFD-MM-321-021-N.jpg","0","k","1.11898300005123",1,3,0,2,0
"250033","img/neutralC/CFD-IM-738-191-N.jpg","0","s","1.05864780000411",1,3,0,2,0
"250033","img/neutralC/CFD-BF-045-003-N.jpg","1","k","1.1608661999926",1,3,0,2,0
"250033","img/neutralC/CFD-AF-244-168-N.jpg","0","s","1.61842340009753",1,3,0,2,0
"250033","img/neutralC/CFD-LF-255-088-N.jpg","1","k","1.67112539999653",1,3,0,2,0
"250033","img/neutralC/CFD-WM-038-003-N.jpg","1","k","0.949655900010839",1,3,0,2,0
"250033","img/neutralC/CFD-AM-212-050-N.jpg","1","s","1.63585309998598",1,3,0,2,0
"250033","img/neutralC/CFD-BF-003-003-N.jpg","1","k","1.08914190006908",1,3,0,2,0
"250033","img/neutralC/CFD-BF-033-028-N.jpg","1","k","1.56925930001307",1,3,0,2,0
"250033","img/neutralC/CFD-BF-208-266-N.jpg","1","k","1.14909610000905",1,3,0,2,0
"250033","img/neutralC/CFD-WM-255-219-N.jpg","1","s","1.72421450004913",1,3,0,2,0
"250033","img/neutralC/CFD-BF-038-037-N.jpg","1","k","2.26351089996751",1,3,0,2,0
"250033","img/neutralC/CFD-BM-251-013-N.jpg","0","s","1.05737569998018",1,3,0,2,0
"250033","img/neutralC/CFD-WM-014-002-N.jpg","1","s","1.53134830005001",1,3,0,2,0
"250033","img/neutralC/CFD-MM-316-156-N.jpg","0","s","0.82998509996105",1,3,0,2,0
"250033","img/neutralC/CFD-AF-227-207-N.jpg","0","k","1.12480069999583",1,3,0,2,0
"250033","img/neutralC/CFD-LM-217-162-N.jpg","1","k","1.09627749992069",1,3,0,2,0
"250033","img/neutralC/CFD-BF-255-140-N.jpg","1","s","1.3377102999948",1,3,0,2,0
"250033","img/neutralC/CFD-IF-677-452-1-N.jpg","0","k","1.29473379999399",1,3,0,2,0
"250033","img/neutralC/CFD-BF-025-002-N.jpg","0","k","0.979141999967396",1,3,0,2,0
"250033","img/neutralC/CFD-WF-026-002-N.jpg","1","s","1.75063349993434",1,3,0,2,0
"250033","img/neutralC/CFD-WM-254-152-N.jpg","1","s","1.55343600001652",1,3,0,2,0
"250033","img/neutralC/CFD-LM-243-075-N.jpg","1","s","2.61282779998146",1,4,0,2,0
"250033","img/neutralC/CFD-AM-230-150-N.jpg","1","s","1.16299710003659",1,4,0,2,0
"250033","img/neutralC/CFD-BM-018-001-N.jpg","0","k","1.86252830002923",1,4,0,2,0
"250033","img/neutralC/CFD-BM-247-240-N.jpg","1","s","1.28230830002576",1,4,0,2,0
"250033","img/neutralC/CFD-WF-235-121-N.jpg","1","k","0.702607000013813",1,4,0,2,0
"250033","img/neutralC/CFD-BF-212-315-N.jpg","1","s","2.96744349994697",1,4,0,2,0
"250033","img/neutralC/CFD-BF-232-187-N.jpg","1","s","1.24840250005946",1,4,0,2,0
"250033","img/neutralC/CFD-LM-218-183-N.jpg","0","k","0.992720700101927",1,4,0,2,0
"250033","img/neutralC/CFD-WM-006-002-N.jpg","0","s","3.92785530001856",1,4,0,2,0
"250033","img/neutralC/CFD-LF-208-127-N.jpg","0","k","1.20875220000744",1,4,0,2,0
"250033","img/neutralC/CFD-AF-237-223-N.jpg","1","s","1.5426838999847",1,4,0,2,0
"250033","img/neutralC/CFD-BF-002-001-N.jpg","1","k","0.995844600023702",1,4,0,2,0
"250033","img/neutralC/CFD-AF-215-70-N.jpg","1","k","1.25716949999332",1,4,0,2,0
"250033","img/neutralC/CFD-WM-018-002-N.jpg","0","s","1.45271450001746",1,4,0,2,0
"250033","img/neutralC/CFD-LM-200-045-N.jpg","0","s","2.73093240009621",1,4,0,2,0
"250033","img/neutralC/CFD-AF-221-147-N.jpg","0","s","0.943092299974524",1,4,0,2,0
"250033","img/neutralC/CFD-IM-675-015-N.jpg","1","s","0.825117999920622",1,4,0,2,0
"250033","img/neutralC/CFD-WM-253-119-N.jpg","0","k","1.10025569994468",1,4,0,2,0
"250033","img/neutralC/CFD-WM-024-015-N.jpg","0","s","1.066684099962",1,4,0,2,0
"250033","img/neutralC/CFD-BF-039-031-N.jpg","1","s","1.4405037999386",1,4,0,2,0
"250033","img/neutralC/CFD-LF-212-066-N.jpg","1","k","2.46709079993889",1,4,0,2,0
"250033","img/neutralC/CFD-LF-214-090-N.jpg","0","k","1.51309909997508",1,4,0,2,0
"250033","img/neutralC/CFD-LM-219-295-N.jpg","0","k","1.15349579998292",1,4,0,2,0
"250033","img/neutralC/CFD-MF-335-002-N.jpg","1","s","2.0392462000018",1,4,0,2,0
"250033","img/neutralC/CFD-AM-235-241-N.jpg","1","k","1.2048330999678",1,4,0,2,0
"250033","img/neutralC/CFD-WF-006-002-N.jpg","0","s","0.786081800004467",1,4,0,2,0
"250033","img/neutralC/CFD-BF-020-002-N.jpg","1","k","1.54506180004682",1,4,0,2,0
"250033","img/neutralC/CFD-AM-245-111-N.jpg","0","k","1.25548179994803",1,4,0,2,0
"250033","img/neutralC/CFD-IM-696-001-N.jpg","1","s","1.40352239995264",1,4,0,2,0
"250033","img/neutralC/CFD-BM-250-170-N.jpg","1","k","2.18954569997732",1,4,0,2,0
"250033","img/neutralC/CFD-WF-209-052-N.jpg","0","k","0.814207699964754",1,4,0,2,0
"250033","img/neutralC/CFD-MF-301-024-N.jpg","1","k","1.51287330000196",1,4,0,2,0
"250033","img/neutralC/CFD-WF-226-095-N.jpg","0","s","0.897966700023971",1,4,0,2,0
"250033","img/neutralC/CFD-AM-247-165-N.jpg","0","s","1.20228620001581",1,4,0,2,0
"250033","img/neutralC/CFD-BF-226-119-N.jpg","1","k","0.856456699897535",1,4,0,2,0
"250033","img/neutralC/CFD-WF-238-023-N.jpg","0","s","1.04992789996322",1,4,0,2,0
"250033","img/neutralC/CFD-IM-703-182-N.jpg","1","s","0.900521800038405",1,4,0,2,0
"250033","img/neutralC/CFD-WF-007-001-N.jpg","0","k","0.98744950001128",1,4,0,2,0
"250033","img/neutralC/CFD-AF-229-160-N.jpg","1","s","1.27150909998454",1,4,0,2,0
"250033","img/neutralC/CFD-MF-318-022-N.jpg","0","s","1.3822745999787",1,4,0,2,0
"250033","img/neutralC/CFD-BM-001-014-N.jpg","0","k","1.31685609999113",1,4,0,2,0
"250033","img/neutralC/CFD-LF-222-147-N.jpg","0","s","2.47019999998156",1,4,0,2,0
"250033","img/neutralC/CFD-LM-238-129-N.jpg","0","s","2.77943610004149",1,4,0,2,0
"250033","img/neutralC/CFD-LM-226-175-N.jpg","1","k","2.12298670003656",1,4,0,2,0
"250033","img/neutralC/CFD-BF-010-001-N.jpg","1","k","1.07056839996949",1,4,0,2,0
"250033","img/neutralC/CFD-BM-013-002-N.jpg","1","s","1.5070274999598",1,4,0,2,0
"250033","img/neutralC/CFD-BF-028-001-N.jpg","1","s","2.11980620003305",1,4,0,2,0
"250033","img/neutralC/CFD-MF-309-002-N.jpg","1","k","1.54453149996698",1,4,0,2,0
"250033","img/neutralC/CFD-WF-005-010-N.jpg","0","k","1.79284989996813",1,5,0,2,0
"250033","img/neutralC/CFD-AF-240-206-N.jpg","1","s","1.42928759998176",1,5,0,2,0
"250033","img/neutralC/CFD-BF-014-002-N.jpg","1","k","1.24871580000035",1,5,0,2,0
"250033","img/neutralC/CFD-AM-236-090-N.jpg","1","s","0.961958199972287",1,5,0,2,0
"250033","img/neutralC/CFD-WF-027-003-N.jpg","1","s","1.36699539993424",1,5,0,2,0
"250033","img/neutralC/CFD-LF-242-121-N.jpg","0","s","1.87857930001337",1,5,0,2,0
"250033","img/neutralC/CFD-WM-021-001-N.jpg","0","k","1.23314479994588",1,5,0,2,0
"250033","img/neutralC/CFD-MF-336-016-N.jpg","0","k","0.872715599951334",1,5,0,2,0
"250033","img/neutralC/CFD-IM-743-006-N.jpg","1","k","0.873045700020157",1,5,0,2,0
"250033","img/neutralC/CFD-LM-252-076-N.jpg","1","s","0.818480299902149",1,5,0,2,0
"250033","img/neutralC/CFD-BF-236-177-N.jpg","1","k","0.847296199994162",1,5,0,2,0
"250033","img/neutralC/CFD-LM-244-068-N.jpg","1","k","3.71922229998745",1,5,0,2,0
"250033","img/neutralC/CFD-WM-221-091-N.jpg","0","k","0.717107800068334",1,5,0,2,0
"250033","img/neutralC/CFD-WF-245-084-N.jpg","0","s","1.1363300998928",1,5,0,2,0
"250033","img/neutralC/CFD-BM-029-024-N.jpg","1","s","0.751327499980107",1,5,0,2,0
"250033","img/neutralC/CFD-BM-010-003-N.jpg","1","k","0.764106799964793",1,5,0,2,0
"250033","img/neutralC/CFD-LF-211-003-N.jpg","0","s","1.12726850004401",1,5,0,2,0
"250033","img/neutralC/CFD-AF-205-155-N.jpg","0","s","0.93057399999816",1,5,0,2,0
"250033","img/neutralC/CFD-AM-221-184-N.jpg","0","s","2.84307920001447",1,5,0,2,0
"250033","img/neutralC/CFD-WF-029-002-N.jpg","0","k","2.94874899997376",1,5,0,2,0
"250033","img/neutralC/CFD-MF-340-026-N.jpg","1","k","6.05626689991914",1,5,0,2,0
"250033","img/neutralC/CFD-AF-233-190-N.jpg","1","s","1.35035960003734",1,5,0,2,0
"250033","img/neutralC/CFD-WF-207-014-N.jpg","0","k","1.08335860003717",1,5,0,2,0
"250033","img/neutralC/CFD-LF-239-148-N.jpg","0","k","1.0552994000027",1,5,0,2,0
"250033","img/neutralC/CFD-MF-328-020-N.jpg","0","s","1.05766410008073",1,5,0,2,0
"250033","img/neutralC/CFD-BM-027-001-N.jpg","1","s","2.9113631999353",1,5,0,2,0
"250033","img/neutralC/CFD-WF-224-099-N.jpg","0","s","1.82608890009578",1,5,0,2,0
"250033","img/neutralC/CFD-BF-041-001-N.jpg","1","k","2.50395140005276",1,5,0,2,0
"250033","img/neutralC/CFD-IF-642-295-N.jpg","1","s","1.96955390006769",1,5,0,2,0
"250033","img/neutralC/CFD-WF-243-148-N.jpg","1","k","1.81815790000837",1,5,0,2,0
"250033","img/neutralC/CFD-BF-201-080-N.jpg","1","s","1.72107629990205",1,5,0,2,0
"250033","img/neutralC/CFD-BF-202-109-N.jpg","1","s","0.774121799971908",1,5,0,2,0
"250033","img/neutralC/CFD-LF-203-066-N.jpg","1","s","1.40466810006183",1,5,0,2,0
"250033","img/neutralC/CFD-WF-228-196-N.jpg","0","k","1.72092300001532",1,5,0,2,0
"250033","img/neutralC/CFD-BF-207-004-N.jpg","1","s","1.32777590001933",1,5,0,2,0
"250033","img/neutralC/CFD-IM-638-250-1-N.jpg","1","k","0.980133099947125",1,5,0,2,0
"250033","img/neutralC/CFD-WF-002-004-N.jpg","0","k","1.21618400001898",1,5,0,2,0
"250033","img/neutralC/CFD-IF-625-225-N.jpg","1","k","1.07239069999196",1,5,0,2,0
"250033","img/neutralC/CFD-BF-237-172-N.jpg","1","k","0.917725999956019",1,5,0,2,0
"250033","img/neutralC/CFD-AM-220-134-N.jpg","1","k","0.964159999974072",1,5,0,2,0
"250033","img/neutralC/CFD-WM-225-127-N.jpg","0","s","0.799845999921672",1,5,0,2,0
"250033","img/neutralC/CFD-IM-606-008-N.jpg","0","k","1.26903179998044",1,5,0,2,0
"250033","img/neutralC/CFD-AF-254-167-N.jpg","0","k","2.06449259992223",1,5,0,2,0
"250033","img/neutralC/CFD-IM-635-010-N.jpg","1","k","1.06742420000955",1,5,0,2,0
"250033","img/neutralC/CFD-WM-249-239-N.jpg","1","k","2.01963459991384",1,5,0,2,0
"250033","img/neutralC/CFD-BF-217-189-N.jpg","1","s","1.53216850000899",1,5,0,2,0
"250033","img/neutralC/CFD-IM-684-008-N.jpg","1","s","1.83550380007364",1,5,0,2,0
"250033","img/neutralC/CFD-WF-221-005-N.jpg","1","k","1.08655900007579",1,5,0,2,0
"250033","img/neutralC/CFD-LF-210-220-N.jpg","0","k","3.60838479991071",1,6,0,2,0
"250033","img/neutralC/CFD-BF-006-017-N.jpg","1","s","1.12814909999724",1,6,0,2,0
"250033","img/neutralC/CFD-IM-702-101-N.jpg","1","s","0.922753400052898",1,6,0,2,0
"250033","img/neutralC/CFD-BM-021-021-N.jpg","0","k","0.948404200025834",1,6,0,2,0
"250033","img/neutralC/CFD-WM-237-052-N.jpg","1","k","1.9565102000488",1,6,0,2,0
"250033","img/neutralC/CFD-LM-253-075-N.jpg","0","s","1.29930569999851",1,6,0,2,0
"250033","img/neutralC/CFD-IM-637-007-N.jpg","0","k","1.16983409994282",1,6,0,2,0
"250033","img/neutralC/CFD-IF-620-218-N.jpg","1","s","0.849508100072853",1,6,0,2,0
"250033","img/neutralC/CFD-MF-343-001-N.jpg","1","k","1.52326799998991",1,6,0,2,0
"250033","img/neutralC/CFD-BF-222-240-N.jpg","0","s","1.31919110007584",1,6,0,2,0
"250033","img/neutralC/CFD-BF-214-308-N.jpg","1","k","1.1774335000664",1,6,0,2,0
"250033","img/neutralC/CFD-LF-247-051-N.jpg","0","k","1.49407859996427",1,6,0,2,0
"250033","img/neutralC/CFD-LF-218-072-N.jpg","0","k","0.950590100022964",1,6,0,2,0
"250033","img/neutralC/CFD-BM-241-235-N.jpg","1","s","0.825958299916238",1,6,0,2,0
"250033","img/neutralC/CFD-WM-002-009-N.jpg","1","k","1.56448219995946",1,6,0,2,0
"250033","img/neutralC/CFD-IM-615-167-N.jpg","1","s","1.31036520004272",1,6,0,2,0
"250033","img/neutralC/CFD-BM-215-155-N.jpg","1","k","0.93647630000487",1,6,0,2,0
"250033","img/neutralC/CFD-IM-604-014-N.jpg","1","s","2.3449095999822",1,6,0,2,0
"250033","img/neutralC/CFD-LM-214-165-N.jpg","1","k","2.59272119996604",1,6,0,2,0
"250033","img/neutralC/CFD-IM-719-221-N.jpg","1","k","1.00690429995302",1,6,0,2,0
"250033","img/neutralC/CFD-LM-233-171-N.jpg","0","s","1.33237990003545",1,6,0,2,0
"250033","img/neutralC/CFD-MF-337-026-N.jpg","0","s","1.05125099990983",1,6,0,2,0
"250033","img/neutralC/CFD-IF-676-017-N.jpg","1","k","1.05449760006741",1,6,0,2,0
"250033","img/neutralC/CFD-BM-243-218-N.jpg","1","k","1.48732519999612",1,6,0,2,0
"250033","img/neutralC/CFD-AF-206-079-N.jpg","1","s","1.72491560003255",1,6,0,2,0
"250033","img/neutralC/CFD-IM-646-023-N.jpg","1","k","1.49764219997451",1,6,0,2,0
"250033","img/neutralC/CFD-BF-042-026-N.jpg","0","s","2.56943829997908",1,6,0,2,0
"250033","img/neutralC/CFD-LF-230-203-N.jpg","1","s","1.585575300036",1,6,0,2,0
"250033","img/neutralC/CFD-LF-250-169-N.jpg","1","s","1.26456789998338",1,6,0,2,0
"250033","img/neutralC/CFD-AM-244-222-N.jpg","0","s","1.39920189999975",1,6,0,2,0
"250033","img/neutralC/CFD-WF-222-092-N.jpg","1","s","2.3173448999878",1,6,0,2,0
"250033","img/neutralC/CFD-BM-019-002-N.jpg","1","k","0.840085200034082",1,6,0,2,0
"250033","img/neutralC/CFD-LM-215-247-N.jpg","0","k","2.25296139996499",1,6,0,2,0
"250033","img/neutralC/CFD-IM-616-214-N.jpg","0","s","1.47200359997805",1,6,0,2,0
"250033","img/neutralC/CFD-WM-041-021-N.jpg","0","s","1.53892219997942",1,6,0,2,0
"250033","img/neutralC/CFD-BM-225-154-N.jpg","0","s","2.37090990005527",1,6,0,2,0
"250033","img/neutralC/CFD-WF-018-017-N.jpg","0","k","1.18298099993262",1,6,0,2,0
"250033","img/neutralC/CFD-BF-254-201-N.jpg","1","k","1.14550089999102",1,6,0,2,0
"250033","img/neutralC/CFD-AF-202-122-N.jpg","0","k","1.90754480008036",1,6,0,2,0
"250033","img/neutralC/CFD-WF-223-133-N.jpg","1","k","1.28991699998733",1,6,0,2,0
"250033","img/neutralC/CFD-LF-238-154-N.jpg","1","k","3.69765629991889",1,6,0,2,0
"250033","img/neutralC/CFD-BF-253-202-N.jpg","0","k","2.9633971999865",1,6,0,2,0
"250033","img/neutralC/CFD-IF-629-234-N.jpg","0","s","0.825192300020717",1,6,0,2,0
"250033","img/neutralC/CFD-LF-236-221-N.jpg","0","s","1.02267580002081",1,6,0,2,0
"250033","img/neutralC/CFD-IF-608-390-N.jpg","0","k","0.987725500017405",1,6,0,2,0
"250033","img/neutralC/CFD-MF-302-027-N.jpg","1","s","0.895387599943206",1,6,0,2,0
"250033","img/neutralC/CFD-IM-697-015-N.jpg","1","s","1.14624060003553",1,6,0,2,0
"250033","img/neutralC/CFD-WF-241-210-N.jpg","1","k","1.08897769998293",1,6,0,2,0
"250033","img/neutralC/CFD-LF-205-100-N.jpg","0","s","4.47824970004149",1,7,0,2,0
"250033","img/neutralC/CFD-BM-248-128-N.jpg","0","s","1.15889239998069",1,7,0,2,0
"250033","img/neutralC/CFD-BM-212-117-N.jpg","1","k","0.803548500058241",1,7,0,2,0
"250033","img/neutralC/CFD-AM-249-163-N.jpg","0","s","0.613307900028303",1,7,0,2,0
"250033","img/neutralC/CFD-IF-742-103-N.jpg","1","k","0.734487900044769",1,7,0,2,0
"250033","img/neutralC/CFD-IM-727-195-N.jpg","0","k","0.91137909993995",1,7,0,2,0
"250033","img/neutralC/CFD-WF-210-086-N.jpg","0","s","0.725803799927235",1,7,0,2,0
"250033","img/neutralC/CFD-WM-040-022-N.jpg","0","s","1.06604060006794",1,7,0,2,0
"250033","img/neutralC/CFD-IM-648-337-N.jpg","1","k","0.819707300048321",1,7,0,2,0
"250033","img/neutralC/CFD-IM-706-002-N.jpg","1","k","0.646350299939513",1,7,0,2,0
"250033","img/neutralC/CFD-AF-210-050-N.jpg","1","k","0.770566700026393",1,7,0,2,0
"250033","img/neutralC/CFD-AF-241-141-N.jpg","1","s","0.786356599885039",1,7,0,2,0
"250033","img/neutralC/CFD-BM-211-174-N.jpg","1","k","1.27246890007518",1,7,0,2,0
"250033","img/neutralC/CFD-AM-243-212-N.jpg","0","s","1.01681449997704",1,7,0,2,0
"250033","img/neutralC/CFD-BF-213-188-N.jpg","0","s","1.40495369990822",1,7,0,2,0
"250033","img/neutralC/CFD-AM-201-076-N.jpg","0","k","1.85028550005518",1,7,0,2,0
"250033","img/neutralC/CFD-IM-685-004-N.jpg","1","s","1.31704820005689",1,7,0,2,0
"250033","img/neutralC/CFD-BM-204-003-N.jpg","0","k","1.75276300008409",1,7,0,2,0
"250033","img/neutralC/CFD-WF-248-129-N.jpg","1","s","1.00924150005449",1,7,0,2,0
"250033","img/neutralC/CFD-IM-709-103-N.jpg","1","k","1.50202460004948",1,7,0,2,0
"250033","img/neutralC/CFD-WM-257-161-N.jpg","0","s","0.748520700028166",1,7,0,2,0
"250033","img/neutralC/CFD-BF-206-143-N.jpg","1","k","0.738355199922808",1,7,0,2,0
"250033","img/neutralC/CFD-IF-729-393-N.jpg","1","k","2.96180309995543",1,7,0,2,0
"250033","img/neutralC/CFD-BF-224-002-N.jpg","0","s","1.58313639997505",1,7,0,2,0
"250033","img/neutralC/CFD-MF-342-022-N.jpg","0","s","0.790179000003263",1,7,0,2,0
"250033","img/neutralC/CFD-MF-357-002-N.jpg","1","k","1.99068319995422",1,7,0,2,0
"250033","img/neutralC/CFD-WF-012-002-N.jpg","1","s","1.29682799999136",1,7,0,2,0
"250033","img/neutralC/CFD-BF-029-031-N.jpg","1","k","0.817983399960212",1,7,0,2,0
"250033","img/neutralC/CFD-WM-232-070-N.jpg","0","k","0.975207700044848",1,7,0,2,0
"250033","img/neutralC/CFD-WF-009-001-N.jpg","1","s","1.32951290009078",1,7,0,2,0
"250033","img/neutralC/CFD-IM-653-008-N.jpg","0","s","0.796988700050861",1,7,0,2,0
"250033","img/neutralC/CFD-IM-721-341-N.jpg","0","s","0.78380970004946",1,7,0,2,0
"250033","img/neutralC/CFD-MF-327-002-N.jpg","0","k","1.47836479998659",1,7,0,2,0
"250033","img/neutralC/CFD-MF-329-001-N.jpg","1","k","1.27385060000233",1,7,0,2,0
"250033","img/neutralC/CFD-WM-025-002-N.jpg","0","s","1.29008839989547",1,7,0,2,0
"250033","img/neutralC/CFD-LM-225-130-N.jpg","0","k","1.46487329993397",1,7,0,2,0
"250033","img/neutralC/CFD-BM-033-003-N.jpg","0","s","1.54552819998935",1,7,0,2,0
"250033","img/neutralC/CFD-WF-214-122-N.jpg","0","k","1.33468820003327",1,7,0,2,0
"250033","img/neutralC/CFD-LF-220-120-N.jpg","0","k","0.95710290002171",1,7,0,2,0
"250033","img/neutralC/CFD-IF-650-315-N.jpg","1","k","1.12267579999752",1,7,0,2,0
"250033","img/neutralC/CFD-BM-200-046-N.jpg","0","s","0.86459700006526",1,7,0,2,0
"250033","img/neutralC/CFD-MF-312-002-N.jpg","1","k","1.32802819996141",1,7,0,2,0
"250033","img/neutralC/CFD-LF-226-174-N.jpg","1","k","1.41285730001982",1,7,0,2,0
"250033","img/neutralC/CFD-IF-732-260-N.jpg","1","k","0.884243699954823",1,7,0,2,0
"250033","img/neutralC/CFD-MF-316-001-N.jpg","0","k","0.822348499903455",1,7,0,2,0
"250033","img/neutralC/CFD-AM-205-153-N.jpg","0","s","1.44041850010399",1,7,0,2,0
"250033","img/neutralC/CFD-MF-303-013-N.jpg","0","k","1.98999549995642",1,7,0,2,0
"250033","img/neutralC/CFD-WM-026-001-N.jpg","1","k","1.10644840006717",1,7,0,2,0
"250033","img/neutralC/CFD-IM-686-097-N.jpg","1","s","1.41708839999046",1,8,0,2,0
"250033","img/neutralC/CFD-MM-324-069-N.jpg","0","k","0.680129499989562",1,8,0,2,0
"250033","img/neutralC/CFD-BM-041-035-N.jpg","1","k","1.24715629999992",1,8,0,2,0
"250033","img/neutralC/CFD-BF-244-231-N.jpg","0","k","1.1445226999931",1,8,0,2,0
"250033","img/neutralC/CFD-BM-231-155-N.jpg","1","s","0.829777900013141",1,8,0,2,0
"250033","img/neutralC/CFD-WM-201-063-N.jpg","0","k","0.894626300083473",1,8,0,2,0
"250033","img/neutralC/CFD-IF-619-197-N.jpg","1","s","0.856344699976034",1,8,0,2,0
"250033","img/neutralC/CFD-MF-352-054-N.jpg","0","k","0.663759400020353",1,8,0,2,0
"250033","img/neutralC/CFD-AF-234-208-N.jpg","0","s","0.702449099975638",1,8,0,2,0
"250033","img/neutralC/CFD-WM-235-147-N.jpg","0","s","1.44818429998122",1,8,0,2,0
"250033","img/neutralC/CFD-IF-626-375-N.jpg","1","k","0.789836599957198",1,8,0,2,0
"250033","img/neutralC/CFD-WF-217-085-N.jpg","1","s","0.82976019999478",1,8,0,2,0
"250033","img/neutralC/CFD-BF-204-189-N.jpg","1","k","1.08138449990656",1,8,0,2,0
"250033","img/neutralC/CFD-IM-726-248-N.jpg","1","k","1.78719469998032",1,8,0,2,0
"250033","img/neutralC/CFD-BF-228-212-N.jpg","0","k","1.21165760001168",1,8,0,2,0
"250033","img/neutralC/CFD-LM-228-188-N.jpg","1","s","1.53269440005533",1,8,0,2,0
"250033","img/neutralC/CFD-AM-217-085-N.jpg","0","s","1.03870869998354",1,8,0,2,0
"250033","img/neutralC/CFD-IM-678-482-N.jpg","1","s","0.729001700063236",1,8,0,2,0
"250033","img/neutralC/CFD-LF-201-035-N.jpg","1","s","2.75705080002081",1,8,0,2,0
"250033","img/neutralC/CFD-WF-022-017-N.jpg","0","s","3.33746870001778",1,8,0,2,0
"250033","img/neutralC/CFD-IF-623-129-N.jpg","0","k","1.00128069997299",1,8,0,2,0
"250033","img/neutralC/CFD-LF-215-157-N.jpg","1","k","1.2229974999791",1,8,0,2,0
"250033","img/neutralC/CFD-LM-201-057-N.jpg","1","k","2.03420430002734",1,8,0,2,0
"250033","img/neutralC/CFD-MM-317-061-N.jpg","1","k","2.49230050004553",1,8,0,2,0
"250033","img/neutralC/CFD-BM-028-002-N.jpg","0","k","1.11007330007851",1,8,0,2,0
"250033","img/neutralC/CFD-LF-216-121-N.jpg","0","k","1.53467860003002",1,8,0,2,0
"250033","img/neutralC/CFD-WM-218-074-N.jpg","0","k","0.742445999989286",1,8,0,2,0
"250033","img/neutralC/CFD-AF-231-357-N.jpg","0","s","2.12453060003463",1,8,0,2,0
"250033","img/neutralC/CFD-IM-728-041-N.jpg","1","s","0.815372299985029",1,8,0,2,0
"250033","img/neutralC/CFD-MF-359-019-N.jpg","1","s","1.98324059997685",1,8,0,2,0
"250033","img/neutralC/CFD-LM-240-013-N.jpg","0","k","1.39455899992026",1,8,0,2,0
"250033","img/neutralC/CFD-BF-023-010-N.jpg","1","s","1.4480611999752",1,8,0,2,0
"250033","img/neutralC/CFD-BF-229-179-N.jpg","1","k","0.899749700096436",1,8,0,2,0
"250033","img/neutralC/CFD-BM-205-001-N.jpg","0","k","1.2031466999324",1,8,0,2,0
"250033","img/neutralC/CFD-WF-212-050-N.jpg","1","s","1.09586610004772",1,8,0,2,0
"250033","img/neutralC/CFD-BF-235-168-N.jpg","1","k","1.21757040009834",1,8,0,2,0
"250033","img/neutralC/CFD-BF-247-179-N.jpg","0","k","0.790328699979",1,8,0,2,0
"250033","img/neutralC/CFD-WM-011-002-N.jpg","0","k","0.733028499991633",1,8,0,2,0
"250033","img/neutralC/CFD-MF-333-012-N.jpg","0","s","1.45299579994753",1,8,0,2,0
"250033","img/neutralC/CFD-IM-645-001-N.jpg","1","k","1.43567769997753",1,8,0,2,0
"250033","img/neutralC/CFD-BM-043-071-N.jpg","0","s","1.69992100005038",1,8,0,2,0
"250033","img/neutralC/CFD-IF-636-011-N.jpg","1","k","7.91568859992549",1,8,0,2,0
"250033","img/neutralC/CFD-BF-011-002-N.jpg","1","s","2.15112719999161",1,8,0,2,0
"250033","img/neutralC/CFD-AM-215-120-N.jpg","0","s","1.7261100000469",1,8,0,2,0
"250033","img/neutralC/CFD-BF-040-003-N.jpg","1","k","2.55310209991876",1,8,0,2,0
"250033","img/neutralC/CFD-WF-017-003-N.jpg","0","k","1.59895869996399",1,8,0,2,0
"250033","img/neutralC/CFD-WM-013-001-N.jpg","1","s","2.29059970006347",1,8,0,2,0
"250033","img/neutralC/CFD-BF-036-027-N.jpg","0","k","0.756152899935842",1,8,0,2,0
