"participant_id","current_trial_face","pre_trial_face","post_trial_face","current_trial_accuracy","pre_trial_accuracy","post_trial_accuracy","current_trial_congruency","pre_trial_congruency","post_trial_congruency","current_trial_rt","pre_trial_rt","post_trial_rt","current_trial_responded","pre_trial_responded","post_trial_responded","current_trial_legitResponse","pre_trial_legitResponse","post_trial_legitResponse","current_trial_resp_nums","pre_trial_resp_nums","post_trial_resp_nums"
"250071","img/neutralC/CFD-IM-678-482-N.jpg",NA,"img/neutralC/CFD-IM-632-097-N.jpg","1",NA,"1","0",NA,"0","0.554345799842849",NA,"0.485878399806097","1",NA,"1","1",NA,"1","1",NA,"1"
"250071","img/neutralC/CFD-IM-632-097-N.jpg","img/neutralC/CFD-IM-678-482-N.jpg","img/neutralC/CFD-IM-669-111-N.jpg","1","1","1","0","0","1","0.485878399806097","0.554345799842849","0.48852190002799","1","1","1","1","1","1","1","1","1"
"250071","img/neutralC/CFD-IM-669-111-N.jpg","img/neutralC/CFD-IM-632-097-N.jpg","img/neutralC/CFD-AF-250-200-N.jpg","1","1","1","1","0","1","0.48852190002799","0.485878399806097","0.486278200056404","1","1","1","1","1","1","1","1","1"
"250071","img/neutralC/CFD-AF-250-200-N.jpg","img/neutralC/CFD-IM-669-111-N.jpg","img/neutralC/CFD-AM-225-102-N.jpg","1","1","1","1","1","0","0.486278200056404","0.48852190002799","0.616388299968094","1","1","1","1","1","1","1","1","1"
"250071","img/neutralC/CFD-AM-225-102-N.jpg","img/neutralC/CFD-AF-250-200-N.jpg","img/neutralC/CFD-AF-213-126-N.jpg","1","1","1","0","1","1","0.616388299968094","0.486278200056404","0.712882900144905","1","1","1","1","1","1","1","1","1"
"250071","img/neutralC/CFD-AF-213-126-N.jpg","img/neutralC/CFD-AM-225-102-N.jpg","img/neutralC/CFD-BF-206-143-N.jpg","1","1","0","1","0","1","0.712882900144905","0.616388299968094",NA,"1","1","0","1","1","0","1","1","0"
"250071","img/neutralC/CFD-BF-206-143-N.jpg","img/neutralC/CFD-AF-213-126-N.jpg","img/neutralC/CFD-LF-239-148-N.jpg","0","1","1","1","1","0",NA,"0.712882900144905","0.566496999934316","0","1","1","0","1","1","0","1","1"
"250071","img/neutralC/CFD-LF-239-148-N.jpg","img/neutralC/CFD-BF-206-143-N.jpg","img/neutralC/CFD-BF-040-003-N.jpg","1","0","0","0","1","1","0.566496999934316",NA,NA,"1","0","0","1","0","0","1","0","0"
"250071","img/neutralC/CFD-BF-040-003-N.jpg","img/neutralC/CFD-LF-239-148-N.jpg","img/neutralC/CFD-BM-004-002-N.jpg","0","1","0","1","0","0",NA,"0.566496999934316",NA,"0","1","0","0","1","0","0","1","0"
"250071","img/neutralC/CFD-BM-004-002-N.jpg","img/neutralC/CFD-BF-040-003-N.jpg","img/neutralC/CFD-WF-235-121-N.jpg","0","0","0","0","1","0",NA,NA,NA,"0","0","0","0","0","0","0","0","0"
"250071","img/neutralC/CFD-WF-235-121-N.jpg","img/neutralC/CFD-BM-004-002-N.jpg","img/neutralC/CFD-MF-302-027-N.jpg","0","0","0","0","0","0",NA,NA,NA,"0","0","0","0","0","0","0","0","0"
"250071","img/neutralC/CFD-MF-302-027-N.jpg","img/neutralC/CFD-WF-235-121-N.jpg","img/neutralC/CFD-WF-210-086-N.jpg","0","0","0","0","0","0",NA,NA,NA,"0","0","0","0","0","0","0","0","0"
"250071","img/neutralC/CFD-WF-210-086-N.jpg","img/neutralC/CFD-MF-302-027-N.jpg","img/neutralC/CFD-BF-020-002-N.jpg","0","0","0","0","0","1",NA,NA,NA,"0","0","0","0","0","0","0","0","0"
"250071","img/neutralC/CFD-BF-020-002-N.jpg","img/neutralC/CFD-WF-210-086-N.jpg","img/neutralC/CFD-AM-233-236-N.jpg","0","0","0","1","0","1",NA,NA,NA,"0","0","0","0","0","0","0","0","0"
"250071","img/neutralC/CFD-AM-233-236-N.jpg","img/neutralC/CFD-BF-020-002-N.jpg","img/neutralC/CFD-AF-246-242-N.jpg","0","0","1","1","1","0",NA,NA,"0.626770499860868","0","0","1","0","0","1","0","0","1"
"250071","img/neutralC/CFD-AF-246-242-N.jpg","img/neutralC/CFD-AM-233-236-N.jpg","img/neutralC/CFD-BM-215-155-N.jpg","1","0","0","0","1","0","0.626770499860868",NA,NA,"1","0","0","1","0","0","1","0","0"
"250071","img/neutralC/CFD-BM-215-155-N.jpg","img/neutralC/CFD-AF-246-242-N.jpg","img/neutralC/CFD-AF-234-208-N.jpg","0","1","0","0","0","1",NA,"0.626770499860868",NA,"0","1","0","0","1","0","0","1","0"
"250071","img/neutralC/CFD-AF-234-208-N.jpg","img/neutralC/CFD-BM-215-155-N.jpg","img/neutralC/CFD-BF-235-168-N.jpg","0","0","1","1","0","1",NA,NA,"1.69971209997311","0","0","1","0","0","1","0","0","2"
"250071","img/neutralC/CFD-BF-235-168-N.jpg","img/neutralC/CFD-AF-234-208-N.jpg","img/neutralC/CFD-IF-636-011-N.jpg","1","0","1","1","1","1","1.69971209997311",NA,"0.628492899937555","1","0","1","1","0","1","2","0","1"
"250071","img/neutralC/CFD-IF-636-011-N.jpg","img/neutralC/CFD-BF-235-168-N.jpg","img/neutralC/CFD-BF-042-026-N.jpg","1","1","0","1","1","1","0.628492899937555","1.69971209997311",NA,"1","1","0","1","1","0","1","2","0"
"250071","img/neutralC/CFD-BF-042-026-N.jpg","img/neutralC/CFD-IF-636-011-N.jpg","img/neutralC/CFD-WM-018-002-N.jpg","0","1","0","1","1","0",NA,"0.628492899937555",NA,"0","1","0","0","1","0","0","1","0"
"250071","img/neutralC/CFD-WM-018-002-N.jpg","img/neutralC/CFD-BF-042-026-N.jpg","img/neutralC/CFD-AM-245-111-N.jpg","0","0","1","0","1","1",NA,NA,"0.757958700181916","0","0","1","0","0","1","0","0","1"
"250071","img/neutralC/CFD-AM-245-111-N.jpg","img/neutralC/CFD-WM-018-002-N.jpg","img/neutralC/CFD-IF-732-260-N.jpg","1","0","0","1","0","0","0.757958700181916",NA,NA,"1","0","0","1","0","0","1","0","0"
"250071","img/neutralC/CFD-IF-732-260-N.jpg","img/neutralC/CFD-AM-245-111-N.jpg","img/neutralC/CFD-WM-253-119-N.jpg","0","1","0","0","1","1",NA,"0.757958700181916",NA,"0","1","0","0","1","0","0","1","0"
"250071","img/neutralC/CFD-WM-253-119-N.jpg","img/neutralC/CFD-IF-732-260-N.jpg","img/neutralC/CFD-BF-217-189-N.jpg","0","0","0","1","0","0",NA,NA,NA,"0","0","0","0","0","0","0","0","0"
"250071","img/neutralC/CFD-BF-217-189-N.jpg","img/neutralC/CFD-WM-253-119-N.jpg","img/neutralC/CFD-IM-635-010-N.jpg","0","0","0","0","1","1",NA,NA,NA,"0","0","0","0","0","0","0","0","0"
"250071","img/neutralC/CFD-IM-635-010-N.jpg","img/neutralC/CFD-BF-217-189-N.jpg","img/neutralC/CFD-LM-241-125-N.jpg","0","0","1","1","0","1",NA,NA,"1.28511910000816","0","0","1","0","0","1","0","0","1"
"250071","img/neutralC/CFD-LM-241-125-N.jpg","img/neutralC/CFD-IM-635-010-N.jpg","img/neutralC/CFD-MF-307-002-N.jpg","1","0","0","1","1","1","1.28511910000816",NA,NA,"1","0","0","1","0","0","1","0","0"
"250071","img/neutralC/CFD-MF-307-002-N.jpg","img/neutralC/CFD-LM-241-125-N.jpg","img/neutralC/CFD-LM-204-001-N.jpg","0","1","0","1","1","0",NA,"1.28511910000816",NA,"0","1","0","0","1","0","0","1","0"
"250071","img/neutralC/CFD-LM-204-001-N.jpg","img/neutralC/CFD-MF-307-002-N.jpg","img/neutralC/CFD-AF-205-155-N.jpg","0","0","1","0","1","0",NA,NA,"0.65693619986996","0","0","1","0","0","1","0","0","1"
"250071","img/neutralC/CFD-AF-205-155-N.jpg","img/neutralC/CFD-LM-204-001-N.jpg","img/neutralC/CFD-AF-244-168-N.jpg","1","0","0","0","0","0","0.65693619986996",NA,NA,"1","0","0","1","0","0","1","0","0"
"250071","img/neutralC/CFD-AF-244-168-N.jpg","img/neutralC/CFD-AF-205-155-N.jpg",NA,"0","1",NA,"0","0",NA,NA,"0.65693619986996",NA,"0","1",NA,"0","1",NA,"0","1",NA
"250071","img/neutralC/CFD-BM-251-013-N.jpg",NA,"img/neutralC/CFD-WM-215-041-N.jpg","1",NA,"1","1",NA,"0","0.493236999958754",NA,"0.471625000005588","1",NA,"1","1",NA,"1","1",NA,"1"
"250071","img/neutralC/CFD-WM-215-041-N.jpg","img/neutralC/CFD-BM-251-013-N.jpg","img/neutralC/CFD-BM-248-128-N.jpg","1","1","1","0","1","0","0.471625000005588","0.493236999958754","0.540295399958268","1","1","1","1","1","1","1","1","1"
"250071","img/neutralC/CFD-BM-248-128-N.jpg","img/neutralC/CFD-WM-215-041-N.jpg","img/neutralC/CFD-LM-216-082-N.jpg","1","1","1","0","0","0","0.540295399958268","0.471625000005588","0.655219800071791","1","1","1","1","1","1","1","1","1"
"250071","img/neutralC/CFD-LM-216-082-N.jpg","img/neutralC/CFD-BM-248-128-N.jpg","img/neutralC/CFD-WM-212-097-N.jpg","1","1","1","0","0","0","0.655219800071791","0.540295399958268","0.445669299922884","1","1","1","1","1","1","1","1","1"
"250071","img/neutralC/CFD-WM-212-097-N.jpg","img/neutralC/CFD-LM-216-082-N.jpg","img/neutralC/CFD-WF-240-083-N.jpg","1","1","1","0","0","0","0.445669299922884","0.655219800071791","0.591940399957821","1","1","1","1","1","1","1","1","1"
"250071","img/neutralC/CFD-WF-240-083-N.jpg","img/neutralC/CFD-WM-212-097-N.jpg","img/neutralC/CFD-WF-017-003-N.jpg","1","1","1","0","0","1","0.591940399957821","0.445669299922884","0.492323799990118","1","1","1","1","1","1","1","1","1"
"250071","img/neutralC/CFD-WF-017-003-N.jpg","img/neutralC/CFD-WF-240-083-N.jpg","img/neutralC/CFD-BF-202-109-N.jpg","1","1","1","1","0","1","0.492323799990118","0.591940399957821","0.503695799969137","1","1","1","1","1","1","1","1","1"
"250071","img/neutralC/CFD-BF-202-109-N.jpg","img/neutralC/CFD-WF-017-003-N.jpg","img/neutralC/CFD-BF-025-002-N.jpg","1","1","1","1","1","0","0.503695799969137","0.492323799990118","0.583155900007114","1","1","1","1","1","1","1","1","1"
"250071","img/neutralC/CFD-BF-025-002-N.jpg","img/neutralC/CFD-BF-202-109-N.jpg","img/neutralC/CFD-IF-642-295-N.jpg","1","1","1","0","1","1","0.583155900007114","0.503695799969137","0.3854827999603","1","1","1","1","1","1","1","1","1"
"250071","img/neutralC/CFD-IF-642-295-N.jpg","img/neutralC/CFD-BF-025-002-N.jpg","img/neutralC/CFD-AF-240-206-N.jpg","1","1","1","1","0","0","0.3854827999603","0.583155900007114","0.455293599981815","1","1","1","1","1","1","1","1","1"
"250071","img/neutralC/CFD-AF-240-206-N.jpg","img/neutralC/CFD-IF-642-295-N.jpg","img/neutralC/CFD-WF-005-010-N.jpg","1","1","1","0","1","0","0.455293599981815","0.3854827999603","0.46267639985308","1","1","1","1","1","1","1","1","1"
"250071","img/neutralC/CFD-WF-005-010-N.jpg","img/neutralC/CFD-AF-240-206-N.jpg","img/neutralC/CFD-LM-201-057-N.jpg","1","1","1","0","0","1","0.46267639985308","0.455293599981815","0.4191528998781","1","1","1","1","1","1","1","1","1"
"250071","img/neutralC/CFD-LM-201-057-N.jpg","img/neutralC/CFD-WF-005-010-N.jpg","img/neutralC/CFD-BF-041-001-N.jpg","1","1","0","1","0","1","0.4191528998781","0.46267639985308","0.450582399964333","1","1","1","1","1","1","1","1","1"
"250071","img/neutralC/CFD-BF-041-001-N.jpg","img/neutralC/CFD-LM-201-057-N.jpg","img/neutralC/CFD-MM-317-061-N.jpg","0","1","1","1","1","1","0.450582399964333","0.4191528998781","0.42422080016695","1","1","1","1","1","1","1","1","1"
"250071","img/neutralC/CFD-MM-317-061-N.jpg","img/neutralC/CFD-BF-041-001-N.jpg","img/neutralC/CFD-LM-243-075-N.jpg","1","0","1","1","1","0","0.42422080016695","0.450582399964333","0.517982100136578","1","1","1","1","1","1","1","1","1"
"250071","img/neutralC/CFD-LM-243-075-N.jpg","img/neutralC/CFD-MM-317-061-N.jpg","img/neutralC/CFD-BF-228-212-N.jpg","1","1","1","0","1","0","0.517982100136578","0.42422080016695","0.492343200137839","1","1","1","1","1","1","1","1","1"
"250071","img/neutralC/CFD-BF-228-212-N.jpg","img/neutralC/CFD-LM-243-075-N.jpg","img/neutralC/CFD-IM-648-337-N.jpg","1","1","1","0","0","0","0.492343200137839","0.517982100136578","0.476530000101775","1","1","1","1","1","1","1","1","1"
"250071","img/neutralC/CFD-IM-648-337-N.jpg","img/neutralC/CFD-BF-228-212-N.jpg","img/neutralC/CFD-BM-205-001-N.jpg","1","1","1","0","0","0","0.476530000101775","0.492343200137839","0.502399699995294","1","1","1","1","1","1","1","1","1"
"250071","img/neutralC/CFD-BM-205-001-N.jpg","img/neutralC/CFD-IM-648-337-N.jpg","img/neutralC/CFD-WM-249-239-N.jpg","1","1","1","0","0","1","0.502399699995294","0.476530000101775","0.464831900084391","1","1","1","1","1","1","1","1","1"
"250071","img/neutralC/CFD-WM-249-239-N.jpg","img/neutralC/CFD-BM-205-001-N.jpg","img/neutralC/CFD-WM-006-002-N.jpg","1","1","1","1","0","0","0.464831900084391","0.502399699995294","0.507884200196713","1","1","1","1","1","1","1","1","1"
"250071","img/neutralC/CFD-WM-006-002-N.jpg","img/neutralC/CFD-WM-249-239-N.jpg","img/neutralC/CFD-WM-019-003-N.jpg","1","1","1","0","1","1","0.507884200196713","0.464831900084391","0.520388799952343","1","1","1","1","1","1","1","1","1"
"250071","img/neutralC/CFD-WM-019-003-N.jpg","img/neutralC/CFD-WM-006-002-N.jpg","img/neutralC/CFD-BF-212-315-N.jpg","1","1","1","1","0","1","0.520388799952343","0.507884200196713","0.469435600098222","1","1","1","1","1","1","1","1","1"
"250071","img/neutralC/CFD-BF-212-315-N.jpg","img/neutralC/CFD-WM-019-003-N.jpg","img/neutralC/CFD-WM-026-001-N.jpg","1","1","1","1","1","1","0.469435600098222","0.520388799952343","0.556029199855402","1","1","1","1","1","1","1","1","1"
"250071","img/neutralC/CFD-WM-026-001-N.jpg","img/neutralC/CFD-BF-212-315-N.jpg","img/neutralC/CFD-IM-646-023-N.jpg","1","1","1","1","1","1","0.556029199855402","0.469435600098222","0.427031300030649","1","1","1","1","1","1","1","1","1"
"250071","img/neutralC/CFD-IM-646-023-N.jpg","img/neutralC/CFD-WM-026-001-N.jpg","img/neutralC/CFD-MF-335-002-N.jpg","1","1","1","1","1","0","0.427031300030649","0.556029199855402","0.488031799905002","1","1","1","1","1","1","1","1","1"
"250071","img/neutralC/CFD-MF-335-002-N.jpg","img/neutralC/CFD-IM-646-023-N.jpg","img/neutralC/CFD-AM-247-165-N.jpg","1","1","1","0","1","1","0.488031799905002","0.427031300030649","0.412416599923745","1","1","1","1","1","1","1","1","1"
"250071","img/neutralC/CFD-AM-247-165-N.jpg","img/neutralC/CFD-MF-335-002-N.jpg","img/neutralC/CFD-WF-228-196-N.jpg","1","1","1","1","0","0","0.412416599923745","0.488031799905002","0.476542900083587","1","1","1","1","1","1","1","1","1"
"250071","img/neutralC/CFD-WF-228-196-N.jpg","img/neutralC/CFD-AM-247-165-N.jpg","img/neutralC/CFD-LM-244-068-N.jpg","1","1","1","0","1","1","0.476542900083587","0.412416599923745","0.461993900127709","1","1","1","1","1","1","1","1","1"
"250071","img/neutralC/CFD-LM-244-068-N.jpg","img/neutralC/CFD-WF-228-196-N.jpg","img/neutralC/CFD-WM-012-001-N.jpg","1","1","1","1","0","1","0.461993900127709","0.476542900083587","0.52243380015716","1","1","1","1","1","1","1","1","1"
"250071","img/neutralC/CFD-WM-012-001-N.jpg","img/neutralC/CFD-LM-244-068-N.jpg","img/neutralC/CFD-LM-214-165-N.jpg","1","1","1","1","1","1","0.52243380015716","0.461993900127709","0.476680699968711","1","1","1","1","1","1","1","1","1"
"250071","img/neutralC/CFD-LM-214-165-N.jpg","img/neutralC/CFD-WM-012-001-N.jpg","img/neutralC/CFD-MF-309-002-N.jpg","1","1","1","1","1","0","0.476680699968711","0.52243380015716","0.462873399956152","1","1","1","1","1","1","1","1","1"
"250071","img/neutralC/CFD-MF-309-002-N.jpg","img/neutralC/CFD-LM-214-165-N.jpg",NA,"1","1",NA,"0","1",NA,"0.462873399956152","0.476680699968711",NA,"1","1",NA,"1","1",NA,"1","1",NA
"250071","img/neutralC/CFD-WM-219-008-N.jpg",NA,"img/neutralC/CFD-AM-251-124-N.jpg","1",NA,"0","0",NA,"0","0.446827200008556",NA,"0.339011100120842","1",NA,"1","1",NA,"1","1",NA,"1"
"250071","img/neutralC/CFD-AM-251-124-N.jpg","img/neutralC/CFD-WM-219-008-N.jpg","img/neutralC/CFD-LF-218-072-N.jpg","0","1","1","0","0","0","0.339011100120842","0.446827200008556","0.48766199988313","1","1","1","1","1","1","1","1","1"
"250071","img/neutralC/CFD-LF-218-072-N.jpg","img/neutralC/CFD-AM-251-124-N.jpg","img/neutralC/CFD-BF-232-187-N.jpg","1","0","1","0","0","1","0.48766199988313","0.339011100120842","0.389250800013542","1","1","1","1","1","1","1","1","1"
"250071","img/neutralC/CFD-BF-232-187-N.jpg","img/neutralC/CFD-LF-218-072-N.jpg","img/neutralC/CFD-LM-237-264-N.jpg","1","1","1","1","0","0","0.389250800013542","0.48766199988313","0.45430970005691","1","1","1","1","1","1","1","1","1"
"250071","img/neutralC/CFD-LM-237-264-N.jpg","img/neutralC/CFD-BF-232-187-N.jpg","img/neutralC/CFD-WM-033-025-N.jpg","1","1","1","0","1","1","0.45430970005691","0.389250800013542","0.320036199875176","1","1","1","1","1","1","1","1","1"
"250071","img/neutralC/CFD-WM-033-025-N.jpg","img/neutralC/CFD-LM-237-264-N.jpg","img/neutralC/CFD-WM-235-147-N.jpg","1","1","1","1","0","0","0.320036199875176","0.45430970005691","0.407266499940306","1","1","1","1","1","1","1","1","1"
"250071","img/neutralC/CFD-WM-235-147-N.jpg","img/neutralC/CFD-WM-033-025-N.jpg","img/neutralC/CFD-BF-038-037-N.jpg","1","1","1","0","1","1","0.407266499940306","0.320036199875176","0.385838500224054","1","1","1","1","1","1","1","1","1"
"250071","img/neutralC/CFD-BF-038-037-N.jpg","img/neutralC/CFD-WM-235-147-N.jpg","img/neutralC/CFD-LM-228-188-N.jpg","1","1","1","1","0","1","0.385838500224054","0.407266499940306","0.369461300084367","1","1","1","1","1","1","1","1","1"
"250071","img/neutralC/CFD-LM-228-188-N.jpg","img/neutralC/CFD-BF-038-037-N.jpg","img/neutralC/CFD-WM-020-001-N.jpg","1","1","1","1","1","1","0.369461300084367","0.385838500224054","0.437419000081718","1","1","1","1","1","1","1","1","1"
"250071","img/neutralC/CFD-WM-020-001-N.jpg","img/neutralC/CFD-LM-228-188-N.jpg","img/neutralC/CFD-MF-333-012-N.jpg","1","1","0","1","1","0","0.437419000081718","0.369461300084367","0.389813199872151","1","1","1","1","1","1","1","1","2"
"250071","img/neutralC/CFD-MF-333-012-N.jpg","img/neutralC/CFD-WM-020-001-N.jpg","img/neutralC/CFD-IM-645-001-N.jpg","0","1","1","0","1","0","0.389813199872151","0.437419000081718","0.483371899928898","1","1","1","1","1","1","2","1","1"
"250071","img/neutralC/CFD-IM-645-001-N.jpg","img/neutralC/CFD-MF-333-012-N.jpg","img/neutralC/CFD-MF-359-019-N.jpg","1","0","1","0","0","0","0.483371899928898","0.389813199872151","0.490239500068128","1","1","1","1","1","1","1","2","1"
"250071","img/neutralC/CFD-MF-359-019-N.jpg","img/neutralC/CFD-IM-645-001-N.jpg","img/neutralC/CFD-WM-004-010-N.jpg","1","1","1","0","0","0","0.490239500068128","0.483371899928898","0.43186270003207","1","1","1","1","1","1","1","1","1"
"250071","img/neutralC/CFD-WM-004-010-N.jpg","img/neutralC/CFD-MF-359-019-N.jpg","img/neutralC/CFD-IF-650-315-N.jpg","1","1","1","0","0","0","0.43186270003207","0.490239500068128","0.490223499946296","1","1","1","1","1","1","1","1","1"
"250071","img/neutralC/CFD-IF-650-315-N.jpg","img/neutralC/CFD-WM-004-010-N.jpg","img/neutralC/CFD-WF-214-122-N.jpg","1","1","1","0","0","1","0.490223499946296","0.43186270003207","0.472543299896643","1","1","1","1","1","1","1","1","1"
"250071","img/neutralC/CFD-WF-214-122-N.jpg","img/neutralC/CFD-IF-650-315-N.jpg","img/neutralC/CFD-MF-352-054-N.jpg","1","1","0","1","0","0","0.472543299896643","0.490223499946296","0.318126099882647","1","1","1","1","1","1","1","1","1"
"250071","img/neutralC/CFD-MF-352-054-N.jpg","img/neutralC/CFD-WF-214-122-N.jpg","img/neutralC/CFD-IM-703-182-N.jpg","0","1","1","0","1","1","0.318126099882647","0.472543299896643","0.447266600094736","1","1","1","1","1","1","1","1","1"
"250071","img/neutralC/CFD-IM-703-182-N.jpg","img/neutralC/CFD-MF-352-054-N.jpg","img/neutralC/CFD-IM-616-214-N.jpg","1","0","0","1","0","0","0.447266600094736","0.318126099882647","0.337859900202602","1","1","1","1","1","1","1","1","1"
"250071","img/neutralC/CFD-IM-616-214-N.jpg","img/neutralC/CFD-IM-703-182-N.jpg","img/neutralC/CFD-BM-253-004-N.jpg","0","1","1","0","1","1","0.337859900202602","0.447266600094736","0.417231399798766","1","1","1","1","1","1","1","1","1"
"250071","img/neutralC/CFD-BM-253-004-N.jpg","img/neutralC/CFD-IM-616-214-N.jpg","img/neutralC/CFD-IM-671-601-N.jpg","1","0","1","1","0","0","0.417231399798766","0.337859900202602","0.443196600070223","1","1","1","1","1","1","1","1","1"
"250071","img/neutralC/CFD-IM-671-601-N.jpg","img/neutralC/CFD-BM-253-004-N.jpg","img/neutralC/CFD-BF-229-179-N.jpg","1","1","1","0","1","0","0.443196600070223","0.417231399798766","0.474298799876124","1","1","1","1","1","1","1","1","1"
"250071","img/neutralC/CFD-BF-229-179-N.jpg","img/neutralC/CFD-IM-671-601-N.jpg","img/neutralC/CFD-WF-001-003-N.jpg","1","1","1","0","0","1","0.474298799876124","0.443196600070223","0.447053000098094","1","1","1","1","1","1","1","1","1"
"250071","img/neutralC/CFD-WF-001-003-N.jpg","img/neutralC/CFD-BF-229-179-N.jpg","img/neutralC/CFD-LF-220-120-N.jpg","1","1","1","1","0","1","0.447053000098094","0.474298799876124","0.349731300026178","1","1","1","1","1","1","1","1","1"
"250071","img/neutralC/CFD-LF-220-120-N.jpg","img/neutralC/CFD-WF-001-003-N.jpg","img/neutralC/CFD-AM-242-176-N.jpg","1","1","1","1","1","1","0.349731300026178","0.447053000098094","0.386749299941584","1","1","1","1","1","1","1","1","1"
"250071","img/neutralC/CFD-AM-242-176-N.jpg","img/neutralC/CFD-LF-220-120-N.jpg","img/neutralC/CFD-WF-036-023-N.jpg","1","1","1","1","1","0","0.386749299941584","0.349731300026178","0.509620200144127","1","1","1","1","1","1","1","1","1"
"250071","img/neutralC/CFD-WF-036-023-N.jpg","img/neutralC/CFD-AM-242-176-N.jpg","img/neutralC/CFD-WF-200-099-N.jpg","1","1","0","0","1","0","0.509620200144127","0.386749299941584","0.408421400003135","1","1","1","1","1","1","1","1","2"
"250071","img/neutralC/CFD-WF-200-099-N.jpg","img/neutralC/CFD-WF-036-023-N.jpg","img/neutralC/CFD-BF-226-119-N.jpg","0","1","1","0","0","1","0.408421400003135","0.509620200144127","0.521773799788207","1","1","1","1","1","1","2","1","1"
"250071","img/neutralC/CFD-BF-226-119-N.jpg","img/neutralC/CFD-WF-200-099-N.jpg","img/neutralC/CFD-AM-211-052-N.jpg","1","0","1","1","0","1","0.521773799788207","0.408421400003135","0.408723599975929","1","1","1","1","1","1","1","2","1"
"250071","img/neutralC/CFD-AM-211-052-N.jpg","img/neutralC/CFD-BF-226-119-N.jpg","img/neutralC/CFD-IF-623-129-N.jpg","1","1","1","1","1","1","0.408723599975929","0.521773799788207","0.404608000069857","1","1","1","1","1","1","1","1","1"
"250071","img/neutralC/CFD-IF-623-129-N.jpg","img/neutralC/CFD-AM-211-052-N.jpg","img/neutralC/CFD-BM-225-154-N.jpg","1","1","1","1","1","1","0.404608000069857","0.408723599975929","0.386713800020516","1","1","1","1","1","1","1","1","1"
"250071","img/neutralC/CFD-BM-225-154-N.jpg","img/neutralC/CFD-IF-623-129-N.jpg","img/neutralC/CFD-IM-743-006-N.jpg","1","1","1","1","1","1","0.386713800020516","0.404608000069857","0.396588700124994","1","1","1","1","1","1","1","1","1"
"250071","img/neutralC/CFD-IM-743-006-N.jpg","img/neutralC/CFD-BM-225-154-N.jpg",NA,"1","1",NA,"1","1",NA,"0.396588700124994","0.386713800020516",NA,"1","1",NA,"1","1",NA,"1","1",NA
"250071","img/neutralC/CFD-BF-002-001-N.jpg",NA,"img/neutralC/CFD-MF-301-024-N.jpg","1",NA,"1","0",NA,"0","0.519984100013971",NA,"0.421717500081286","1",NA,"1","1",NA,"1","1",NA,"1"
"250071","img/neutralC/CFD-MF-301-024-N.jpg","img/neutralC/CFD-BF-002-001-N.jpg","img/neutralC/CFD-BM-238-242-N.jpg","1","1","1","0","0","0","0.421717500081286","0.519984100013971","0.386172799859196","1","1","1","1","1","1","1","1","1"
"250071","img/neutralC/CFD-BM-238-242-N.jpg","img/neutralC/CFD-MF-301-024-N.jpg","img/neutralC/CFD-IF-729-393-N.jpg","1","1","1","0","0","0","0.386172799859196","0.421717500081286","0.421860900009051","1","1","1","1","1","1","1","1","1"
"250071","img/neutralC/CFD-IF-729-393-N.jpg","img/neutralC/CFD-BM-238-242-N.jpg","img/neutralC/CFD-AM-230-150-N.jpg","1","1","1","0","0","0","0.421860900009051","0.386172799859196","0.414429999887943","1","1","1","1","1","1","1","1","1"
"250071","img/neutralC/CFD-AM-230-150-N.jpg","img/neutralC/CFD-IF-729-393-N.jpg","img/neutralC/CFD-BF-236-177-N.jpg","1","1","1","0","0","0","0.414429999887943","0.421860900009051","0.421999900136143","1","1","1","1","1","1","1","1","1"
"250071","img/neutralC/CFD-BF-236-177-N.jpg","img/neutralC/CFD-AM-230-150-N.jpg","img/neutralC/CFD-WF-233-112-N.jpg","1","1","1","0","0","1","0.421999900136143","0.414429999887943","0.414412300102413","1","1","1","1","1","1","1","1","1"
"250071","img/neutralC/CFD-WF-233-112-N.jpg","img/neutralC/CFD-BF-236-177-N.jpg","img/neutralC/CFD-IF-742-103-N.jpg","1","1","1","1","0","1","0.414412300102413","0.421999900136143","0.356340999947861","1","1","1","1","1","1","1","1","1"
"250071","img/neutralC/CFD-IF-742-103-N.jpg","img/neutralC/CFD-WF-233-112-N.jpg","img/neutralC/CFD-BF-044-034-N.jpg","1","1","1","1","1","0","0.356340999947861","0.414412300102413","0.517694500042126","1","1","1","1","1","1","1","1","1"
"250071","img/neutralC/CFD-BF-044-034-N.jpg","img/neutralC/CFD-IF-742-103-N.jpg","img/neutralC/CFD-IM-696-001-N.jpg","1","1","1","0","1","0","0.517694500042126","0.356340999947861","0.481771999970078","1","1","1","1","1","1","1","1","1"
"250071","img/neutralC/CFD-IM-696-001-N.jpg","img/neutralC/CFD-BF-044-034-N.jpg","img/neutralC/CFD-BF-006-017-N.jpg","1","1","1","0","0","0","0.481771999970078","0.517694500042126","0.472083000000566","1","1","1","1","1","1","1","1","1"
"250071","img/neutralC/CFD-BF-006-017-N.jpg","img/neutralC/CFD-IM-696-001-N.jpg","img/neutralC/CFD-BM-207-024-N.jpg","1","1","1","0","0","1","0.472083000000566","0.481771999970078","0.363410699879751","1","1","1","1","1","1","1","1","1"
"250071","img/neutralC/CFD-BM-207-024-N.jpg","img/neutralC/CFD-BF-006-017-N.jpg","img/neutralC/CFD-WF-234-086-N.jpg","1","1","1","1","0","1","0.363410699879751","0.472083000000566","0.333664600038901","1","1","1","1","1","1","1","1","1"
"250071","img/neutralC/CFD-WF-234-086-N.jpg","img/neutralC/CFD-BM-207-024-N.jpg","img/neutralC/CFD-BF-027-002-N.jpg","1","1","1","1","1","1","0.333664600038901","0.363410699879751","0.321617200039327","1","1","1","1","1","1","1","1","1"
"250071","img/neutralC/CFD-BF-027-002-N.jpg","img/neutralC/CFD-WF-234-086-N.jpg","img/neutralC/CFD-BF-036-027-N.jpg","1","1","1","1","1","0","0.321617200039327","0.333664600038901","0.470551100093871","1","1","1","1","1","1","1","1","1"
"250071","img/neutralC/CFD-BF-036-027-N.jpg","img/neutralC/CFD-BF-027-002-N.jpg","img/neutralC/CFD-WM-034-030-N.jpg","1","1","1","0","1","1","0.470551100093871","0.321617200039327","0.37748370016925","1","1","1","1","1","1","1","1","1"
"250071","img/neutralC/CFD-WM-034-030-N.jpg","img/neutralC/CFD-BF-036-027-N.jpg","img/neutralC/CFD-IF-677-452-1-N.jpg","1","1","1","1","0","1","0.37748370016925","0.470551100093871","0.422377599868923","1","1","1","1","1","1","1","1","1"
"250071","img/neutralC/CFD-IF-677-452-1-N.jpg","img/neutralC/CFD-WM-034-030-N.jpg","img/neutralC/CFD-WF-029-002-N.jpg","1","1","0","1","1","0","0.422377599868923","0.37748370016925","0.422311800066382","1","1","1","1","1","1","1","1","1"
"250071","img/neutralC/CFD-WF-029-002-N.jpg","img/neutralC/CFD-IF-677-452-1-N.jpg","img/neutralC/CFD-WM-248-036-N.jpg","0","1","1","0","1","1","0.422311800066382","0.422377599868923","0.499727399786934","1","1","1","1","1","1","1","1","1"
"250071","img/neutralC/CFD-WM-248-036-N.jpg","img/neutralC/CFD-WF-029-002-N.jpg","img/neutralC/CFD-WF-208-068-N.jpg","1","0","1","1","0","1","0.499727399786934","0.422311800066382","0.4661053000018","1","1","1","1","1","1","1","1","1"
"250071","img/neutralC/CFD-WF-208-068-N.jpg","img/neutralC/CFD-WM-248-036-N.jpg","img/neutralC/CFD-IM-726-248-N.jpg","1","1","1","1","1","0","0.4661053000018","0.499727399786934","0.411547200055793","1","1","1","1","1","1","1","1","1"
"250071","img/neutralC/CFD-IM-726-248-N.jpg","img/neutralC/CFD-WF-208-068-N.jpg","img/neutralC/CFD-BF-214-308-N.jpg","1","1","1","0","1","1","0.411547200055793","0.4661053000018","0.413222800008953","1","1","1","1","1","1","1","1","1"
"250071","img/neutralC/CFD-BF-214-308-N.jpg","img/neutralC/CFD-IM-726-248-N.jpg","img/neutralC/CFD-WM-014-002-N.jpg","1","1","1","1","0","0","0.413222800008953","0.411547200055793","0.316438500070944","1","1","1","1","1","1","1","1","1"
"250071","img/neutralC/CFD-WM-014-002-N.jpg","img/neutralC/CFD-BF-214-308-N.jpg","img/neutralC/CFD-IM-707-105-N.jpg","1","1","1","0","1","1","0.316438500070944","0.413222800008953","0.361589499982074","1","1","1","1","1","1","1","1","1"
"250071","img/neutralC/CFD-IM-707-105-N.jpg","img/neutralC/CFD-WM-014-002-N.jpg","img/neutralC/CFD-BM-036-003-N.jpg","1","1","1","1","0","1","0.361589499982074","0.316438500070944","0.384902799967676","1","1","1","1","1","1","1","1","1"
"250071","img/neutralC/CFD-BM-036-003-N.jpg","img/neutralC/CFD-IM-707-105-N.jpg","img/neutralC/CFD-LF-204-133-N.jpg","1","1","1","1","1","1","0.384902799967676","0.361589499982074","0.313129900023341","1","1","1","1","1","1","1","1","1"
"250071","img/neutralC/CFD-LF-204-133-N.jpg","img/neutralC/CFD-BM-036-003-N.jpg","img/neutralC/CFD-BM-241-235-N.jpg","1","1","1","1","1","0","0.313129900023341","0.384902799967676","0.414646399905905","1","1","1","1","1","1","1","1","1"
"250071","img/neutralC/CFD-BM-241-235-N.jpg","img/neutralC/CFD-LF-204-133-N.jpg","img/neutralC/CFD-BF-011-002-N.jpg","1","1","1","0","1","1","0.414646399905905","0.313129900023341","0.369011099915951","1","1","1","1","1","1","1","1","1"
"250071","img/neutralC/CFD-BF-011-002-N.jpg","img/neutralC/CFD-BM-241-235-N.jpg","img/neutralC/CFD-BF-207-004-N.jpg","1","1","1","1","0","1","0.369011099915951","0.414646399905905","0.334274200024083","1","1","1","1","1","1","1","1","1"
"250071","img/neutralC/CFD-BF-207-004-N.jpg","img/neutralC/CFD-BF-011-002-N.jpg","img/neutralC/CFD-IM-721-341-N.jpg","1","1","1","1","1","1","0.334274200024083","0.369011099915951","0.392445200122893","1","1","1","1","1","1","1","1","1"
"250071","img/neutralC/CFD-IM-721-341-N.jpg","img/neutralC/CFD-BF-207-004-N.jpg","img/neutralC/CFD-BF-247-179-N.jpg","1","1","1","1","1","0","0.392445200122893","0.334274200024083","0.364311899989843","1","1","1","1","1","1","1","1","1"
"250071","img/neutralC/CFD-BF-247-179-N.jpg","img/neutralC/CFD-IM-721-341-N.jpg","img/neutralC/CFD-LM-213-061-N.jpg","1","1","1","0","1","0","0.364311899989843","0.392445200122893","0.432673400035128","1","1","1","1","1","1","1","1","1"
"250071","img/neutralC/CFD-LM-213-061-N.jpg","img/neutralC/CFD-BF-247-179-N.jpg",NA,"1","1",NA,"0","0",NA,"0.432673400035128","0.364311899989843",NA,"1","1",NA,"1","1",NA,"1","1",NA
"250071","img/neutralC/CFD-LF-222-147-N.jpg",NA,"img/neutralC/CFD-WF-009-001-N.jpg","1",NA,"1","0",NA,"1","0.493647499941289",NA,"0.373792200116441","1",NA,"1","1",NA,"1","1",NA,"1"
"250071","img/neutralC/CFD-WF-009-001-N.jpg","img/neutralC/CFD-LF-222-147-N.jpg","img/neutralC/CFD-WM-028-003-N.jpg","1","1","1","1","0","1","0.373792200116441","0.493647499941289","0.382761099841446","1","1","1","1","1","1","1","1","1"
"250071","img/neutralC/CFD-WM-028-003-N.jpg","img/neutralC/CFD-WF-009-001-N.jpg","img/neutralC/CFD-MF-328-020-N.jpg","1","1","0","1","1","0","0.382761099841446","0.373792200116441","0.431915299966931","1","1","1","1","1","1","1","1","2"
"250071","img/neutralC/CFD-MF-328-020-N.jpg","img/neutralC/CFD-WM-028-003-N.jpg","img/neutralC/CFD-MM-306-010-N.jpg","0","1","1","0","1","0","0.431915299966931","0.382761099841446","0.383205100195482","1","1","1","1","1","1","2","1","1"
"250071","img/neutralC/CFD-MM-306-010-N.jpg","img/neutralC/CFD-MF-328-020-N.jpg","img/neutralC/CFD-BM-030-003-N.jpg","1","0","1","0","0","0","0.383205100195482","0.431915299966931","0.471807700116187","1","1","1","1","1","1","1","2","1"
"250071","img/neutralC/CFD-BM-030-003-N.jpg","img/neutralC/CFD-MM-306-010-N.jpg","img/neutralC/CFD-LM-240-013-N.jpg","1","1","1","0","0","1","0.471807700116187","0.383205100195482","0.360132399946451","1","1","1","1","1","1","1","1","1"
"250071","img/neutralC/CFD-LM-240-013-N.jpg","img/neutralC/CFD-BM-030-003-N.jpg","img/neutralC/CFD-WF-207-014-N.jpg","1","1","1","1","0","1","0.360132399946451","0.471807700116187","0.338504600105807","1","1","1","1","1","1","1","1","1"
"250071","img/neutralC/CFD-WF-207-014-N.jpg","img/neutralC/CFD-LM-240-013-N.jpg","img/neutralC/CFD-WF-243-148-N.jpg","1","1","1","1","1","0","0.338504600105807","0.360132399946451","0.36787430010736","1","1","1","1","1","1","1","1","1"
"250071","img/neutralC/CFD-WF-243-148-N.jpg","img/neutralC/CFD-WF-207-014-N.jpg","img/neutralC/CFD-AF-237-223-N.jpg","1","1","0","0","1","0","0.36787430010736","0.338504600105807","0.37114780000411","1","1","1","1","1","1","1","1","1"
"250071","img/neutralC/CFD-AF-237-223-N.jpg","img/neutralC/CFD-WF-243-148-N.jpg","img/neutralC/CFD-WF-221-005-N.jpg","0","1","1","0","0","0","0.37114780000411","0.36787430010736","0.45823789993301","1","1","1","1","1","1","1","1","1"
"250071","img/neutralC/CFD-WF-221-005-N.jpg","img/neutralC/CFD-AF-237-223-N.jpg","img/neutralC/CFD-AM-249-163-N.jpg","1","0","1","0","0","1","0.45823789993301","0.37114780000411","0.312222099862993","1","1","1","1","1","1","1","1","1"
"250071","img/neutralC/CFD-AM-249-163-N.jpg","img/neutralC/CFD-WF-221-005-N.jpg","img/neutralC/CFD-BM-227-191-N.jpg","1","1","1","1","0","1","0.312222099862993","0.45823789993301","0.31002079998143","1","1","1","1","1","1","1","1","1"
"250071","img/neutralC/CFD-BM-227-191-N.jpg","img/neutralC/CFD-AM-249-163-N.jpg","img/neutralC/CFD-LF-212-066-N.jpg","1","1","1","1","1","1","0.31002079998143","0.312222099862993","0.370496400166303","1","1","1","1","1","1","1","1","1"
"250071","img/neutralC/CFD-LF-212-066-N.jpg","img/neutralC/CFD-BM-227-191-N.jpg","img/neutralC/CFD-BM-020-001-N.jpg","1","1","1","1","1","0","0.370496400166303","0.31002079998143","0.52142749982886","1","1","1","1","1","1","1","1","1"
"250071","img/neutralC/CFD-BM-020-001-N.jpg","img/neutralC/CFD-LF-212-066-N.jpg","img/neutralC/CFD-IM-689-263-N.jpg","1","1","1","0","1","1","0.52142749982886","0.370496400166303","0.368863400071859","1","1","1","1","1","1","1","1","1"
"250071","img/neutralC/CFD-IM-689-263-N.jpg","img/neutralC/CFD-BM-020-001-N.jpg","img/neutralC/CFD-BM-043-071-N.jpg","1","1","0","1","0","0","0.368863400071859","0.52142749982886","0.382740599801764","1","1","1","1","1","1","1","1","1"
"250071","img/neutralC/CFD-BM-043-071-N.jpg","img/neutralC/CFD-IM-689-263-N.jpg","img/neutralC/CFD-BF-244-231-N.jpg","0","1","1","0","1","1","0.382740599801764","0.368863400071859","0.351820699870586","1","1","1","1","1","1","1","1","1"
"250071","img/neutralC/CFD-BF-244-231-N.jpg","img/neutralC/CFD-BM-043-071-N.jpg","img/neutralC/CFD-BF-012-001-N.jpg","1","0","0","1","0","0","0.351820699870586","0.382740599801764","0.345408099936321","1","1","1","1","1","1","1","1","1"
"250071","img/neutralC/CFD-BF-012-001-N.jpg","img/neutralC/CFD-BF-244-231-N.jpg","img/neutralC/CFD-LF-238-154-N.jpg","0","1","1","0","1","1","0.345408099936321","0.351820699870586","0.444731499999762","1","1","1","1","1","1","1","1","1"
"250071","img/neutralC/CFD-LF-238-154-N.jpg","img/neutralC/CFD-BF-012-001-N.jpg","img/neutralC/CFD-WM-025-002-N.jpg","1","0","1","1","0","0","0.444731499999762","0.345408099936321","0.408306599827483","1","1","1","1","1","1","1","1","1"
"250071","img/neutralC/CFD-WM-025-002-N.jpg","img/neutralC/CFD-LF-238-154-N.jpg","img/neutralC/CFD-AM-243-212-N.jpg","1","1","1","0","1","1","0.408306599827483","0.444731499999762","0.396051799878478","1","1","1","1","1","1","1","1","1"
"250071","img/neutralC/CFD-AM-243-212-N.jpg","img/neutralC/CFD-WM-025-002-N.jpg","img/neutralC/CFD-AM-219-101-N.jpg","1","1","1","1","0","0","0.396051799878478","0.408306599827483","0.308986300136894","1","1","1","1","1","1","1","1","1"
"250071","img/neutralC/CFD-AM-219-101-N.jpg","img/neutralC/CFD-AM-243-212-N.jpg","img/neutralC/CFD-BM-009-002-N.jpg","1","1","1","0","1","1","0.308986300136894","0.396051799878478","0.441387499915436","1","1","1","1","1","1","1","1","1"
"250071","img/neutralC/CFD-BM-009-002-N.jpg","img/neutralC/CFD-AM-219-101-N.jpg","img/neutralC/CFD-BM-021-021-N.jpg","1","1","1","1","0","1","0.441387499915436","0.308986300136894","0.383182700024918","1","1","1","1","1","1","1","1","1"
"250071","img/neutralC/CFD-BM-021-021-N.jpg","img/neutralC/CFD-BM-009-002-N.jpg","img/neutralC/CFD-IM-615-167-N.jpg","1","1","1","1","1","0","0.383182700024918","0.441387499915436","0.413350600050762","1","1","1","1","1","1","1","1","1"
"250071","img/neutralC/CFD-IM-615-167-N.jpg","img/neutralC/CFD-BM-021-021-N.jpg","img/neutralC/CFD-AM-205-153-N.jpg","1","1","0","0","1","1","0.413350600050762","0.383182700024918","0.419000299880281","1","1","1","1","1","1","1","1","2"
"250071","img/neutralC/CFD-AM-205-153-N.jpg","img/neutralC/CFD-IM-615-167-N.jpg","img/neutralC/CFD-IM-606-008-N.jpg","0","1","1","1","0","0","0.419000299880281","0.413350600050762","0.418225100031123","1","1","1","1","1","1","2","1","1"
"250071","img/neutralC/CFD-IM-606-008-N.jpg","img/neutralC/CFD-AM-205-153-N.jpg","img/neutralC/CFD-IF-676-017-N.jpg","1","0","1","0","1","1","0.418225100031123","0.419000299880281","0.372140400111675","1","1","1","1","1","1","1","2","1"
"250071","img/neutralC/CFD-IF-676-017-N.jpg","img/neutralC/CFD-IM-606-008-N.jpg","img/neutralC/CFD-WM-023-001-N.jpg","1","1","0","1","0","0","0.372140400111675","0.418225100031123","0.323455200064927","1","1","1","1","1","1","1","1","1"
"250071","img/neutralC/CFD-WM-023-001-N.jpg","img/neutralC/CFD-IF-676-017-N.jpg","img/neutralC/CFD-IM-697-015-N.jpg","0","1","1","0","1","1","0.323455200064927","0.372140400111675","0.422700899885967","1","1","1","1","1","1","1","1","1"
"250071","img/neutralC/CFD-IM-697-015-N.jpg","img/neutralC/CFD-WM-023-001-N.jpg","img/neutralC/CFD-WF-241-210-N.jpg","1","0","1","1","0","0","0.422700899885967","0.323455200064927","0.424176399828866","1","1","1","1","1","1","1","1","1"
"250071","img/neutralC/CFD-WF-241-210-N.jpg","img/neutralC/CFD-IM-697-015-N.jpg",NA,"1","1",NA,"0","1",NA,"0.424176399828866","0.422700899885967",NA,"1","1",NA,"1","1",NA,"1","1",NA
"250071","img/neutralC/CFD-IM-604-014-N.jpg",NA,"img/neutralC/CFD-MM-304-002-N.jpg","1",NA,"1","0",NA,"1","0.570427000056952",NA,"0.404921599896625","1",NA,"1","1",NA,"1","1",NA,"1"
"250071","img/neutralC/CFD-MM-304-002-N.jpg","img/neutralC/CFD-IM-604-014-N.jpg","img/neutralC/CFD-AF-229-160-N.jpg","1","1","1","1","0","0","0.404921599896625","0.570427000056952","0.434536800021306","1","1","1","1","1","1","1","1","1"
"250071","img/neutralC/CFD-AF-229-160-N.jpg","img/neutralC/CFD-MM-304-002-N.jpg","img/neutralC/CFD-LF-201-035-N.jpg","1","1","1","0","1","1","0.434536800021306","0.404921599896625","0.396012200042605","1","1","1","1","1","1","1","1","1"
"250071","img/neutralC/CFD-LF-201-035-N.jpg","img/neutralC/CFD-AF-229-160-N.jpg","img/neutralC/CFD-LF-226-174-N.jpg","1","1","1","1","0","0","0.396012200042605","0.434536800021306","0.362312299897894","1","1","1","1","1","1","1","1","1"
"250071","img/neutralC/CFD-LF-226-174-N.jpg","img/neutralC/CFD-LF-201-035-N.jpg","img/neutralC/CFD-WF-212-050-N.jpg","1","1","1","0","1","0","0.362312299897894","0.396012200042605","0.330922600114718","1","1","1","1","1","1","1","1","1"
"250071","img/neutralC/CFD-WF-212-050-N.jpg","img/neutralC/CFD-LF-226-174-N.jpg","img/neutralC/CFD-WM-232-070-N.jpg","1","1","1","0","0","0","0.330922600114718","0.362312299897894","0.481427200138569","1","1","1","1","1","1","1","1","1"
"250071","img/neutralC/CFD-WM-232-070-N.jpg","img/neutralC/CFD-WF-212-050-N.jpg","img/neutralC/CFD-WM-024-015-N.jpg","1","1","1","0","0","1","0.481427200138569","0.330922600114718","0.365746200084686","1","1","1","1","1","1","1","1","1"
"250071","img/neutralC/CFD-WM-024-015-N.jpg","img/neutralC/CFD-WM-232-070-N.jpg","img/neutralC/CFD-BF-051-035-N.jpg","1","1","1","1","0","0","0.365746200084686","0.481427200138569","0.400927799986675","1","1","1","1","1","1","1","1","1"
"250071","img/neutralC/CFD-BF-051-035-N.jpg","img/neutralC/CFD-WM-024-015-N.jpg","img/neutralC/CFD-AM-236-090-N.jpg","1","1","1","0","1","1","0.400927799986675","0.365746200084686","0.340911500155926","1","1","1","1","1","1","1","1","1"
"250071","img/neutralC/CFD-AM-236-090-N.jpg","img/neutralC/CFD-BF-051-035-N.jpg","img/neutralC/CFD-IF-608-390-N.jpg","1","1","1","1","0","1","0.340911500155926","0.400927799986675","0.365048100007698","1","1","1","1","1","1","1","1","1"
"250071","img/neutralC/CFD-IF-608-390-N.jpg","img/neutralC/CFD-AM-236-090-N.jpg","img/neutralC/CFD-WF-248-129-N.jpg","1","1","1","1","1","0","0.365048100007698","0.340911500155926","0.351709600072354","1","1","1","1","1","1","1","1","1"
"250071","img/neutralC/CFD-WF-248-129-N.jpg","img/neutralC/CFD-IF-608-390-N.jpg","img/neutralC/CFD-IM-685-004-N.jpg","1","1","1","0","1","1","0.351709600072354","0.365048100007698","0.427653999999166","1","1","1","1","1","1","1","1","1"
"250071","img/neutralC/CFD-IM-685-004-N.jpg","img/neutralC/CFD-WF-248-129-N.jpg","img/neutralC/CFD-BF-224-002-N.jpg","1","1","1","1","0","1","0.427653999999166","0.351709600072354","0.3465070000384","1","1","1","1","1","1","1","1","1"
"250071","img/neutralC/CFD-BF-224-002-N.jpg","img/neutralC/CFD-IM-685-004-N.jpg","img/neutralC/CFD-BM-039-029-N.jpg","1","1","1","1","1","1","0.3465070000384","0.427653999999166","0.394386699888855","1","1","1","1","1","1","1","1","1"
"250071","img/neutralC/CFD-BM-039-029-N.jpg","img/neutralC/CFD-BF-224-002-N.jpg","img/neutralC/CFD-MF-329-001-N.jpg","1","1","1","1","1","0","0.394386699888855","0.3465070000384","0.435646299971268","1","1","1","1","1","1","1","1","1"
"250071","img/neutralC/CFD-MF-329-001-N.jpg","img/neutralC/CFD-BM-039-029-N.jpg","img/neutralC/CFD-MF-327-002-N.jpg","1","1","0","0","1","0","0.435646299971268","0.394386699888855","0.372620200039819","1","1","1","1","1","1","1","1","2"
"250071","img/neutralC/CFD-MF-327-002-N.jpg","img/neutralC/CFD-MF-329-001-N.jpg","img/neutralC/CFD-AF-254-167-N.jpg","0","1","1","0","0","1","0.372620200039819","0.435646299971268","0.306633900152519","1","1","1","1","1","1","2","1","1"
"250071","img/neutralC/CFD-AF-254-167-N.jpg","img/neutralC/CFD-MF-327-002-N.jpg","img/neutralC/CFD-BF-043-003-N.jpg","1","0","0","1","0","0","0.306633900152519","0.372620200039819","0.395401299931109","1","1","1","1","1","1","1","2","1"
"250071","img/neutralC/CFD-BF-043-003-N.jpg","img/neutralC/CFD-AF-254-167-N.jpg","img/neutralC/CFD-BM-243-218-N.jpg","0","1","1","0","1","1","0.395401299931109","0.306633900152519","0.46957159996964","1","1","1","1","1","1","1","1","1"
"250071","img/neutralC/CFD-BM-243-218-N.jpg","img/neutralC/CFD-BF-043-003-N.jpg","img/neutralC/CFD-IF-619-197-N.jpg","1","0","1","1","0","0","0.46957159996964","0.395401299931109","0.456171200145036","1","1","1","1","1","1","1","1","1"
"250071","img/neutralC/CFD-IF-619-197-N.jpg","img/neutralC/CFD-BM-243-218-N.jpg","img/neutralC/CFD-IM-709-103-N.jpg","1","1","1","0","1","0","0.456171200145036","0.46957159996964","0.432396299904212","1","1","1","1","1","1","1","1","1"
"250071","img/neutralC/CFD-IM-709-103-N.jpg","img/neutralC/CFD-IF-619-197-N.jpg","img/neutralC/CFD-LM-217-162-N.jpg","1","1","0","0","0","0","0.432396299904212","0.456171200145036","0.319914600113407","1","1","1","1","1","1","1","1","1"
"250071","img/neutralC/CFD-LM-217-162-N.jpg","img/neutralC/CFD-IM-709-103-N.jpg","img/neutralC/CFD-WF-012-002-N.jpg","0","1","1","0","0","1","0.319914600113407","0.432396299904212","0.393279799958691","1","1","1","1","1","1","1","1","1"
"250071","img/neutralC/CFD-WF-012-002-N.jpg","img/neutralC/CFD-LM-217-162-N.jpg","img/neutralC/CFD-MF-300-002-N.jpg","1","0","1","1","0","0","0.393279799958691","0.319914600113407","0.306027200073004","1","1","1","1","1","1","1","1","1"
"250071","img/neutralC/CFD-MF-300-002-N.jpg","img/neutralC/CFD-WF-012-002-N.jpg","img/neutralC/CFD-AF-215-70-N.jpg","1","1","1","0","1","0","0.306027200073004","0.393279799958691","0.620201000012457","1","1","1","1","1","1","1","1","1"
"250071","img/neutralC/CFD-AF-215-70-N.jpg","img/neutralC/CFD-MF-300-002-N.jpg","img/neutralC/CFD-MF-340-026-N.jpg","1","1","1","0","0","1","0.620201000012457","0.306027200073004","0.316297699930146","1","1","1","1","1","1","1","1","1"
"250071","img/neutralC/CFD-MF-340-026-N.jpg","img/neutralC/CFD-AF-215-70-N.jpg","img/neutralC/CFD-WM-213-076-N.jpg","1","1","1","1","0","1","0.316297699930146","0.620201000012457","0.335456500062719","1","1","1","1","1","1","1","1","1"
"250071","img/neutralC/CFD-WM-213-076-N.jpg","img/neutralC/CFD-MF-340-026-N.jpg","img/neutralC/CFD-IM-675-015-N.jpg","1","1","1","1","1","1","0.335456500062719","0.316297699930146","0.403261200059205","1","1","1","1","1","1","1","1","1"
"250071","img/neutralC/CFD-IM-675-015-N.jpg","img/neutralC/CFD-WM-213-076-N.jpg","img/neutralC/CFD-WF-008-002-N.jpg","1","1","1","1","1","1","0.403261200059205","0.335456500062719","0.366873600054532","1","1","1","1","1","1","1","1","1"
"250071","img/neutralC/CFD-WF-008-002-N.jpg","img/neutralC/CFD-IM-675-015-N.jpg","img/neutralC/CFD-IM-637-007-N.jpg","1","1","1","1","1","0","0.366873600054532","0.403261200059205","0.33660010015592","1","1","1","1","1","1","1","1","1"
"250071","img/neutralC/CFD-IM-637-007-N.jpg","img/neutralC/CFD-WF-008-002-N.jpg","img/neutralC/CFD-WF-217-085-N.jpg","1","1","1","0","1","1","0.33660010015592","0.366873600054532","0.388093699933961","1","1","1","1","1","1","1","1","1"
"250071","img/neutralC/CFD-WF-217-085-N.jpg","img/neutralC/CFD-IM-637-007-N.jpg",NA,"1","1",NA,"1","0",NA,"0.388093699933961","0.33660010015592",NA,"1","1",NA,"1","1",NA,"1","1",NA
"250071","img/neutralC/CFD-WF-250-167-N.jpg",NA,"img/neutralC/CFD-IF-634-382-N.jpg","1",NA,"1","1",NA,"1","0.456127200042829",NA,"0.362193200038746","1",NA,"1","1",NA,"1","1",NA,"1"
"250071","img/neutralC/CFD-IF-634-382-N.jpg","img/neutralC/CFD-WF-250-167-N.jpg","img/neutralC/CFD-IM-651-308-N.jpg","1","1","0","1","1","0","0.362193200038746","0.456127200042829","0.379599099978805","1","1","1","1","1","1","1","1","1"
"250071","img/neutralC/CFD-IM-651-308-N.jpg","img/neutralC/CFD-IF-634-382-N.jpg","img/neutralC/CFD-WM-011-002-N.jpg","0","1","1","0","1","0","0.379599099978805","0.362193200038746","0.470717299962416","1","1","1","1","1","1","1","1","1"
"250071","img/neutralC/CFD-WM-011-002-N.jpg","img/neutralC/CFD-IM-651-308-N.jpg","img/neutralC/CFD-MM-316-156-N.jpg","1","0","1","0","0","1","0.470717299962416","0.379599099978805","0.310232399962842","1","1","1","1","1","1","1","1","1"
"250071","img/neutralC/CFD-MM-316-156-N.jpg","img/neutralC/CFD-WM-011-002-N.jpg","img/neutralC/CFD-WM-021-001-N.jpg","1","1","1","1","0","1","0.310232399962842","0.470717299962416","0.352010899921879","1","1","1","1","1","1","1","1","1"
"250071","img/neutralC/CFD-WM-021-001-N.jpg","img/neutralC/CFD-MM-316-156-N.jpg","img/neutralC/CFD-MF-337-026-N.jpg","1","1","1","1","1","1","0.352010899921879","0.310232399962842","0.307355799945071","1","1","1","1","1","1","1","1","1"
"250071","img/neutralC/CFD-MF-337-026-N.jpg","img/neutralC/CFD-WM-021-001-N.jpg","img/neutralC/CFD-BM-033-003-N.jpg","1","1","1","1","1","0","0.307355799945071","0.352010899921879","0.322846400085837","1","1","1","1","1","1","1","1","1"
"250071","img/neutralC/CFD-BM-033-003-N.jpg","img/neutralC/CFD-MF-337-026-N.jpg","img/neutralC/CFD-LF-214-090-N.jpg","1","1","1","0","1","0","0.322846400085837","0.307355799945071","0.31401180010289","1","1","1","1","1","1","1","1","1"
"250071","img/neutralC/CFD-LF-214-090-N.jpg","img/neutralC/CFD-BM-033-003-N.jpg","img/neutralC/CFD-LF-203-066-N.jpg","1","1","1","0","0","0","0.31401180010289","0.322846400085837","0.300932700047269","1","1","1","1","1","1","1","1","1"
"250071","img/neutralC/CFD-LF-203-066-N.jpg","img/neutralC/CFD-LF-214-090-N.jpg","img/neutralC/CFD-WM-041-021-N.jpg","1","1","1","0","0","0","0.300932700047269","0.31401180010289","0.371342699974775","1","1","1","1","1","1","1","1","1"
"250071","img/neutralC/CFD-WM-041-021-N.jpg","img/neutralC/CFD-LF-203-066-N.jpg","img/neutralC/CFD-AM-201-076-N.jpg","1","1","1","0","0","1","0.371342699974775","0.300932700047269","0.432728999992832","1","1","1","1","1","1","1","1","1"
"250071","img/neutralC/CFD-AM-201-076-N.jpg","img/neutralC/CFD-WM-041-021-N.jpg","img/neutralC/CFD-LM-215-247-N.jpg","1","1","1","1","0","0","0.432728999992832","0.371342699974775","0.421665200032294","1","1","1","1","1","1","1","1","1"
"250071","img/neutralC/CFD-LM-215-247-N.jpg","img/neutralC/CFD-AM-201-076-N.jpg","img/neutralC/CFD-AF-231-357-N.jpg","1","1","1","0","1","1","0.421665200032294","0.432728999992832","0.298316000029445","1","1","1","1","1","1","1","1","1"
"250071","img/neutralC/CFD-AF-231-357-N.jpg","img/neutralC/CFD-LM-215-247-N.jpg","img/neutralC/CFD-BM-239-136-N.jpg","1","1","1","1","0","1","0.298316000029445","0.421665200032294","0.395485399989411","1","1","1","1","1","1","1","1","1"
"250071","img/neutralC/CFD-BM-239-136-N.jpg","img/neutralC/CFD-AF-231-357-N.jpg","img/neutralC/CFD-AM-212-050-N.jpg","1","1","1","1","1","1","0.395485399989411","0.298316000029445","0.433662399882451","1","1","1","1","1","1","1","1","1"
"250071","img/neutralC/CFD-AM-212-050-N.jpg","img/neutralC/CFD-BM-239-136-N.jpg","img/neutralC/CFD-LF-230-203-N.jpg","1","1","1","1","1","0","0.433662399882451","0.395485399989411","0.570195100037381","1","1","1","1","1","1","1","1","1"
"250071","img/neutralC/CFD-LF-230-203-N.jpg","img/neutralC/CFD-AM-212-050-N.jpg","img/neutralC/CFD-LF-205-100-N.jpg","1","1","1","0","1","1","0.570195100037381","0.433662399882451","0.384579700184986","1","1","1","1","1","1","1","1","1"
"250071","img/neutralC/CFD-LF-205-100-N.jpg","img/neutralC/CFD-LF-230-203-N.jpg","img/neutralC/CFD-WF-224-099-N.jpg","1","1","1","1","0","0","0.384579700184986","0.570195100037381","0.342464300105348","1","1","1","1","1","1","1","1","1"
"250071","img/neutralC/CFD-WF-224-099-N.jpg","img/neutralC/CFD-LF-205-100-N.jpg","img/neutralC/CFD-BF-253-202-N.jpg","1","1","1","0","1","0","0.342464300105348","0.384579700184986","0.315518900053576","1","1","1","1","1","1","1","1","1"
"250071","img/neutralC/CFD-BF-253-202-N.jpg","img/neutralC/CFD-WF-224-099-N.jpg","img/neutralC/CFD-IF-693-172-N.jpg","1","1","1","0","0","0","0.315518900053576","0.342464300105348","0.375087100081146","1","1","1","1","1","1","1","1","1"
"250071","img/neutralC/CFD-IF-693-172-N.jpg","img/neutralC/CFD-BF-253-202-N.jpg","img/neutralC/CFD-BF-205-141-N.jpg","1","1","1","0","0","0","0.375087100081146","0.315518900053576","0.366503099910915","1","1","1","1","1","1","1","1","1"
"250071","img/neutralC/CFD-BF-205-141-N.jpg","img/neutralC/CFD-IF-693-172-N.jpg","img/neutralC/CFD-WF-213-031-N.jpg","1","1","1","0","0","1","0.366503099910915","0.375087100081146","0.378689300036058","1","1","1","1","1","1","1","1","1"
"250071","img/neutralC/CFD-WF-213-031-N.jpg","img/neutralC/CFD-BF-205-141-N.jpg","img/neutralC/CFD-BM-041-035-N.jpg","1","1","1","1","0","0","0.378689300036058","0.366503099910915","0.413410399807617","1","1","1","1","1","1","1","1","1"
"250071","img/neutralC/CFD-BM-041-035-N.jpg","img/neutralC/CFD-WF-213-031-N.jpg","img/neutralC/CFD-IF-710-016-N.jpg","1","1","0","0","1","0","0.413410399807617","0.378689300036058","0.4139153000433","1","1","1","1","1","1","1","1","2"
"250071","img/neutralC/CFD-IF-710-016-N.jpg","img/neutralC/CFD-BM-041-035-N.jpg","img/neutralC/CFD-LF-224-176-N.jpg","0","1","1","0","0","0","0.4139153000433","0.413410399807617","0.369083099998534","1","1","1","1","1","1","2","1","1"
"250071","img/neutralC/CFD-LF-224-176-N.jpg","img/neutralC/CFD-IF-710-016-N.jpg","img/neutralC/CFD-BF-039-031-N.jpg","1","0","1","0","0","1","0.369083099998534","0.4139153000433","0.38083490007557","1","1","1","1","1","1","1","2","1"
"250071","img/neutralC/CFD-BF-039-031-N.jpg","img/neutralC/CFD-LF-224-176-N.jpg","img/neutralC/CFD-BF-213-188-N.jpg","1","1","1","1","0","1","0.38083490007557","0.369083099998534","0.405087999999523","1","1","1","1","1","1","1","1","1"
"250071","img/neutralC/CFD-BF-213-188-N.jpg","img/neutralC/CFD-BF-039-031-N.jpg","img/neutralC/CFD-LM-218-183-N.jpg","1","1","0","1","1","1","0.405087999999523","0.38083490007557","0.350705000106245","1","1","1","1","1","1","1","1","2"
"250071","img/neutralC/CFD-LM-218-183-N.jpg","img/neutralC/CFD-BF-213-188-N.jpg","img/neutralC/CFD-BF-029-031-N.jpg","0","1","1","1","1","1","0.350705000106245","0.405087999999523","0.3837570999749","1","1","1","1","1","1","2","1","1"
"250071","img/neutralC/CFD-BF-029-031-N.jpg","img/neutralC/CFD-LM-218-183-N.jpg","img/neutralC/CFD-BM-019-002-N.jpg","1","0","1","1","1","0","0.3837570999749","0.350705000106245","0.37545739999041","1","1","1","1","1","1","1","2","1"
"250071","img/neutralC/CFD-BM-019-002-N.jpg","img/neutralC/CFD-BF-029-031-N.jpg","img/neutralC/CFD-IM-684-008-N.jpg","1","1","1","0","1","1","0.37545739999041","0.3837570999749","0.344873900059611","1","1","1","1","1","1","1","1","1"
"250071","img/neutralC/CFD-IM-684-008-N.jpg","img/neutralC/CFD-BM-019-002-N.jpg",NA,"1","1",NA,"1","0",NA,"0.344873900059611","0.37545739999041",NA,"1","1",NA,"1","1",NA,"1","1",NA
"250071","img/neutralC/CFD-BF-254-201-N.jpg",NA,"img/neutralC/CFD-MF-318-022-N.jpg","1",NA,"1","0",NA,"1","0.337637000018731",NA,"0.333334499970078","1",NA,"1","1",NA,"1","1",NA,"1"
"250071","img/neutralC/CFD-MF-318-022-N.jpg","img/neutralC/CFD-BF-254-201-N.jpg","img/neutralC/CFD-LF-215-157-N.jpg","1","1","0","1","0","0","0.333334499970078","0.337637000018731","0.376197300152853","1","1","1","1","1","1","1","1","1"
"250071","img/neutralC/CFD-LF-215-157-N.jpg","img/neutralC/CFD-MF-318-022-N.jpg","img/neutralC/CFD-BM-023-029-N.jpg","0","1","0","0","1","1","0.376197300152853","0.333334499970078",NA,"1","1","0","1","1","0","1","1","0"
"250071","img/neutralC/CFD-BM-023-029-N.jpg","img/neutralC/CFD-LF-215-157-N.jpg","img/neutralC/CFD-WM-237-052-N.jpg","0","0","1","1","0","1",NA,"0.376197300152853","0.342910399893299","0","1","1","0","1","1","0","1","1"
"250071","img/neutralC/CFD-WM-237-052-N.jpg","img/neutralC/CFD-BM-023-029-N.jpg","img/neutralC/CFD-IM-700-009-N.jpg","1","0","1","1","1","1","0.342910399893299",NA,"0.380081900162622","1","0","1","1","0","1","1","0","1"
"250071","img/neutralC/CFD-IM-700-009-N.jpg","img/neutralC/CFD-WM-237-052-N.jpg","img/neutralC/CFD-WF-238-023-N.jpg","1","1","0","1","1","0","0.380081900162622","0.342910399893299","0.412658500019461","1","1","1","1","1","1","1","1","1"
"250071","img/neutralC/CFD-WF-238-023-N.jpg","img/neutralC/CFD-IM-700-009-N.jpg","img/neutralC/CFD-MM-321-021-N.jpg","0","1","1","0","1","0","0.412658500019461","0.380081900162622","0.318972300039604","1","1","1","1","1","1","1","1","1"
"250071","img/neutralC/CFD-MM-321-021-N.jpg","img/neutralC/CFD-WF-238-023-N.jpg","img/neutralC/CFD-WF-027-003-N.jpg","1","0","1","0","0","1","0.318972300039604","0.412658500019461","0.432672700146213","1","1","1","1","1","1","1","1","1"
"250071","img/neutralC/CFD-WF-027-003-N.jpg","img/neutralC/CFD-MM-321-021-N.jpg","img/neutralC/CFD-AF-221-147-N.jpg","1","1","1","1","0","0","0.432672700146213","0.318972300039604","0.379690599860623","1","1","1","1","1","1","1","1","1"
"250071","img/neutralC/CFD-AF-221-147-N.jpg","img/neutralC/CFD-WF-027-003-N.jpg","img/neutralC/CFD-BF-018-039-N.jpg","1","1","1","0","1","1","0.379690599860623","0.432672700146213","0.299356300150976","1","1","1","1","1","1","1","1","1"
"250071","img/neutralC/CFD-BF-018-039-N.jpg","img/neutralC/CFD-AF-221-147-N.jpg","img/neutralC/CFD-WM-221-091-N.jpg","1","1","1","1","0","0","0.299356300150976","0.379690599860623","0.397174100158736","1","1","1","1","1","1","1","1","1"
"250071","img/neutralC/CFD-WM-221-091-N.jpg","img/neutralC/CFD-BF-018-039-N.jpg","img/neutralC/CFD-AM-244-222-N.jpg","1","1","1","0","1","0","0.397174100158736","0.299356300150976","0.453211400192231","1","1","1","1","1","1","1","1","1"
"250071","img/neutralC/CFD-AM-244-222-N.jpg","img/neutralC/CFD-WM-221-091-N.jpg","img/neutralC/CFD-WM-009-002-N.jpg","1","1","1","0","0","0","0.453211400192231","0.397174100158736","0.480363399954513","1","1","1","1","1","1","1","1","1"
"250071","img/neutralC/CFD-WM-009-002-N.jpg","img/neutralC/CFD-AM-244-222-N.jpg","img/neutralC/CFD-WF-226-095-N.jpg","1","1","1","0","0","1","0.480363399954513","0.453211400192231","0.385157800046727","1","1","1","1","1","1","1","1","1"
"250071","img/neutralC/CFD-WF-226-095-N.jpg","img/neutralC/CFD-WM-009-002-N.jpg","img/neutralC/CFD-AF-232-078-N.jpg","1","1","1","1","0","1","0.385157800046727","0.480363399954513","0.33724240004085","1","1","1","1","1","1","1","1","1"
"250071","img/neutralC/CFD-AF-232-078-N.jpg","img/neutralC/CFD-WF-226-095-N.jpg","img/neutralC/CFD-BM-204-003-N.jpg","1","1","0","1","1","0","0.33724240004085","0.385157800046727","0.33165799989365","1","1","1","1","1","1","1","1","2"
"250071","img/neutralC/CFD-BM-204-003-N.jpg","img/neutralC/CFD-AF-232-078-N.jpg","img/neutralC/CFD-WF-018-017-N.jpg","0","1","1","0","1","1","0.33165799989365","0.33724240004085","0.390618399949744","1","1","1","1","1","1","2","1","1"
"250071","img/neutralC/CFD-WF-018-017-N.jpg","img/neutralC/CFD-BM-204-003-N.jpg","img/neutralC/CFD-BF-218-207-N.jpg","1","0","1","1","0","1","0.390618399949744","0.33165799989365","0.317273699911311","1","1","1","1","1","1","1","2","1"
"250071","img/neutralC/CFD-BF-218-207-N.jpg","img/neutralC/CFD-WF-018-017-N.jpg","img/neutralC/CFD-IF-629-234-N.jpg","1","1","1","1","1","0","0.317273699911311","0.390618399949744","0.397147899959236","1","1","1","1","1","1","1","1","1"
"250071","img/neutralC/CFD-IF-629-234-N.jpg","img/neutralC/CFD-BF-218-207-N.jpg","img/neutralC/CFD-MF-342-022-N.jpg","1","1","1","0","1","1","0.397147899959236","0.317273699911311","0.356550700031221","1","1","1","1","1","1","1","1","1"
"250071","img/neutralC/CFD-MF-342-022-N.jpg","img/neutralC/CFD-IF-629-234-N.jpg","img/neutralC/CFD-LM-253-075-N.jpg","1","1","1","1","0","0","0.356550700031221","0.397147899959236","0.398154299939051","1","1","1","1","1","1","1","1","1"
"250071","img/neutralC/CFD-LM-253-075-N.jpg","img/neutralC/CFD-MF-342-022-N.jpg","img/neutralC/CFD-WF-245-084-N.jpg","1","1","1","0","1","1","0.398154299939051","0.356550700031221","0.428866500034928","1","1","1","1","1","1","1","1","1"
"250071","img/neutralC/CFD-WF-245-084-N.jpg","img/neutralC/CFD-LM-253-075-N.jpg","img/neutralC/CFD-WM-201-063-N.jpg","1","1","1","1","0","1","0.428866500034928","0.398154299939051","0.409855399979279","1","1","1","1","1","1","1","1","1"
"250071","img/neutralC/CFD-WM-201-063-N.jpg","img/neutralC/CFD-WF-245-084-N.jpg","img/neutralC/CFD-WM-255-219-N.jpg","1","1","1","1","1","0","0.409855399979279","0.428866500034928","0.449535600142554","1","1","1","1","1","1","1","1","1"
"250071","img/neutralC/CFD-WM-255-219-N.jpg","img/neutralC/CFD-WM-201-063-N.jpg","img/neutralC/CFD-WF-023-003-N.jpg","1","1","1","0","1","1","0.449535600142554","0.409855399979279","0.258050100179389","1","1","1","1","1","1","1","1","1"
"250071","img/neutralC/CFD-WF-023-003-N.jpg","img/neutralC/CFD-WM-255-219-N.jpg","img/neutralC/CFD-BM-200-046-N.jpg","1","1","1","1","0","0","0.258050100179389","0.449535600142554","0.392343999817967","1","1","1","1","1","1","1","1","1"
"250071","img/neutralC/CFD-BM-200-046-N.jpg","img/neutralC/CFD-WF-023-003-N.jpg","img/neutralC/CFD-WM-013-001-N.jpg","1","1","1","0","1","1","0.392343999817967","0.258050100179389","0.384333800058812","1","1","1","1","1","1","1","1","1"
"250071","img/neutralC/CFD-WM-013-001-N.jpg","img/neutralC/CFD-BM-200-046-N.jpg","img/neutralC/CFD-MF-321-003-N.jpg","1","1","1","1","0","0","0.384333800058812","0.392343999817967","0.282527700066566","1","1","1","1","1","1","1","1","1"
"250071","img/neutralC/CFD-MF-321-003-N.jpg","img/neutralC/CFD-WM-013-001-N.jpg","img/neutralC/CFD-IM-719-221-N.jpg","1","1","0","0","1","0","0.282527700066566","0.384333800058812","0.384797600097954","1","1","1","1","1","1","1","1","2"
"250071","img/neutralC/CFD-IM-719-221-N.jpg","img/neutralC/CFD-MF-321-003-N.jpg","img/neutralC/CFD-IM-627-178-N.jpg","0","1","1","0","0","1","0.384797600097954","0.282527700066566","0.358374000061303","1","1","1","1","1","1","2","1","1"
"250071","img/neutralC/CFD-IM-627-178-N.jpg","img/neutralC/CFD-IM-719-221-N.jpg","img/neutralC/CFD-LF-211-003-N.jpg","1","0","1","1","0","0","0.358374000061303","0.384797600097954","0.454682900104672","1","1","1","1","1","1","1","2","1"
"250071","img/neutralC/CFD-LF-211-003-N.jpg","img/neutralC/CFD-IM-627-178-N.jpg",NA,"1","1",NA,"0","1",NA,"0.454682900104672","0.358374000061303",NA,"1","1",NA,"1","1",NA,"1","1",NA
"250071","img/neutralC/CFD-AF-202-122-N.jpg",NA,"img/neutralC/CFD-BM-231-155-N.jpg","1",NA,"1","1",NA,"1","0.654042399954051",NA,"0.274014999857172","1",NA,"1","1",NA,"1","1",NA,"1"
"250071","img/neutralC/CFD-BM-231-155-N.jpg","img/neutralC/CFD-AF-202-122-N.jpg","img/neutralC/CFD-BM-005-003-N.jpg","1","1","1","1","1","1","0.274014999857172","0.654042399954051","0.307977499905974","1","1","1","1","1","1","1","1","1"
"250071","img/neutralC/CFD-BM-005-003-N.jpg","img/neutralC/CFD-BM-231-155-N.jpg","img/neutralC/CFD-LM-226-175-N.jpg","1","1","0","1","1","0","0.307977499905974","0.274014999857172","0.310760200023651","1","1","1","1","1","1","1","1","1"
"250071","img/neutralC/CFD-LM-226-175-N.jpg","img/neutralC/CFD-BM-005-003-N.jpg","img/neutralC/CFD-BM-018-001-N.jpg","0","1","1","0","1","1","0.310760200023651","0.307977499905974","0.399163800058886","1","1","1","1","1","1","1","1","1"
"250071","img/neutralC/CFD-BM-018-001-N.jpg","img/neutralC/CFD-LM-226-175-N.jpg","img/neutralC/CFD-WF-209-052-N.jpg","1","0","1","1","0","1","0.399163800058886","0.310760200023651","0.360602400032803","1","1","1","1","1","1","1","1","1"
"250071","img/neutralC/CFD-WF-209-052-N.jpg","img/neutralC/CFD-BM-018-001-N.jpg","img/neutralC/CFD-IF-620-218-N.jpg","1","1","1","1","1","0","0.360602400032803","0.399163800058886","0.392599400132895","1","1","1","1","1","1","1","1","1"
"250071","img/neutralC/CFD-IF-620-218-N.jpg","img/neutralC/CFD-WF-209-052-N.jpg","img/neutralC/CFD-MF-313-002-N.jpg","1","1","1","0","1","0","0.392599400132895","0.360602400032803","0.334490499924868","1","1","1","1","1","1","1","1","1"
"250071","img/neutralC/CFD-MF-313-002-N.jpg","img/neutralC/CFD-IF-620-218-N.jpg","img/neutralC/CFD-BF-010-001-N.jpg","1","1","1","0","0","1","0.334490499924868","0.392599400132895","0.344537100056186","1","1","1","1","1","1","1","1","1"
"250071","img/neutralC/CFD-BF-010-001-N.jpg","img/neutralC/CFD-MF-313-002-N.jpg","img/neutralC/CFD-LF-250-169-N.jpg","1","1","1","1","0","1","0.344537100056186","0.334490499924868","0.293317299801856","1","1","1","1","1","1","1","1","1"
"250071","img/neutralC/CFD-LF-250-169-N.jpg","img/neutralC/CFD-BF-010-001-N.jpg","img/neutralC/CFD-IM-653-008-N.jpg","1","1","0","1","1","0","0.293317299801856","0.344537100056186","0.317316500004381","1","1","1","1","1","1","1","1","2"
"250071","img/neutralC/CFD-IM-653-008-N.jpg","img/neutralC/CFD-LF-250-169-N.jpg","img/neutralC/CFD-LF-242-121-N.jpg","0","1","1","0","1","0","0.317316500004381","0.293317299801856","0.534028300084174","1","1","1","1","1","1","2","1","1"
"250071","img/neutralC/CFD-LF-242-121-N.jpg","img/neutralC/CFD-IM-653-008-N.jpg","img/neutralC/CFD-IM-657-308-N.jpg","1","0","1","0","0","0","0.534028300084174","0.317316500004381","0.382639100076631","1","1","1","1","1","1","1","2","1"
"250071","img/neutralC/CFD-IM-657-308-N.jpg","img/neutralC/CFD-LF-242-121-N.jpg","img/neutralC/CFD-IM-638-250-1-N.jpg","1","1","1","0","0","1","0.382639100076631","0.534028300084174","0.313459899974987","1","1","1","1","1","1","1","1","1"
"250071","img/neutralC/CFD-IM-638-250-1-N.jpg","img/neutralC/CFD-IM-657-308-N.jpg","img/neutralC/CFD-IF-665-015-N.jpg","1","1","1","1","0","0","0.313459899974987","0.382639100076631","0.322693699970841","1","1","1","1","1","1","1","1","1"
"250071","img/neutralC/CFD-IF-665-015-N.jpg","img/neutralC/CFD-IM-638-250-1-N.jpg","img/neutralC/CFD-BF-033-028-N.jpg","1","1","0","0","1","0","0.322693699970841","0.313459899974987","0.356765999924392","1","1","1","1","1","1","1","1","1"
"250071","img/neutralC/CFD-BF-033-028-N.jpg","img/neutralC/CFD-IF-665-015-N.jpg","img/neutralC/CFD-WM-017-002-N.jpg","0","1","1","0","0","0","0.356765999924392","0.322693699970841","0.339027300011367","1","1","1","1","1","1","1","1","1"
"250071","img/neutralC/CFD-WM-017-002-N.jpg","img/neutralC/CFD-BF-033-028-N.jpg","img/neutralC/CFD-IM-686-097-N.jpg","1","0","1","0","0","0","0.339027300011367","0.356765999924392","0.352539399871603","1","1","1","1","1","1","1","1","1"
"250071","img/neutralC/CFD-IM-686-097-N.jpg","img/neutralC/CFD-WM-017-002-N.jpg","img/neutralC/CFD-LF-245-166-N.jpg","1","1","1","0","0","1","0.352539399871603","0.339027300011367","0.431112399790436","1","1","1","1","1","1","1","1","1"
"250071","img/neutralC/CFD-LF-245-166-N.jpg","img/neutralC/CFD-IM-686-097-N.jpg","img/neutralC/CFD-AF-241-141-N.jpg","1","1","1","1","0","1","0.431112399790436","0.352539399871603","0.359331700019538","1","1","1","1","1","1","1","1","1"
"250071","img/neutralC/CFD-AF-241-141-N.jpg","img/neutralC/CFD-LF-245-166-N.jpg","img/neutralC/CFD-IM-617-174-N.jpg","1","1","1","1","1","0","0.359331700019538","0.431112399790436","0.398768199840561","1","1","1","1","1","1","1","1","1"
"250071","img/neutralC/CFD-IM-617-174-N.jpg","img/neutralC/CFD-AF-241-141-N.jpg","img/neutralC/CFD-LM-233-171-N.jpg","1","1","0","0","1","0","0.398768199840561","0.359331700019538","0.326666800072417","1","1","1","1","1","1","1","1","2"
"250071","img/neutralC/CFD-LM-233-171-N.jpg","img/neutralC/CFD-IM-617-174-N.jpg","img/neutralC/CFD-AF-206-079-N.jpg","0","1","1","0","0","1","0.326666800072417","0.398768199840561","0.384441899834201","1","1","1","1","1","1","2","1","2"
"250071","img/neutralC/CFD-AF-206-079-N.jpg","img/neutralC/CFD-LM-233-171-N.jpg","img/neutralC/CFD-LM-219-295-N.jpg","1","0","1","1","0","1","0.384441899834201","0.326666800072417","0.422636499861255","1","1","1","1","1","1","2","2","1"
"250071","img/neutralC/CFD-LM-219-295-N.jpg","img/neutralC/CFD-AF-206-079-N.jpg","img/neutralC/CFD-WM-242-011-N.jpg","1","1","1","1","1","0","0.422636499861255","0.384441899834201","0.358542500063777","1","1","1","1","1","1","1","2","1"
"250071","img/neutralC/CFD-WM-242-011-N.jpg","img/neutralC/CFD-LM-219-295-N.jpg","img/neutralC/CFD-WM-258-125-N.jpg","1","1","1","0","1","0","0.358542500063777","0.422636499861255","0.29585689981468","1","1","1","1","1","1","1","1","1"
"250071","img/neutralC/CFD-WM-258-125-N.jpg","img/neutralC/CFD-WM-242-011-N.jpg","img/neutralC/CFD-BF-238-190-N.jpg","1","1","1","0","0","1","0.29585689981468","0.358542500063777","0.332690800074488","1","1","1","1","1","1","1","1","1"
"250071","img/neutralC/CFD-BF-238-190-N.jpg","img/neutralC/CFD-WM-258-125-N.jpg","img/neutralC/CFD-LF-247-051-N.jpg","1","1","1","1","0","1","0.332690800074488","0.29585689981468","0.38274860009551","1","1","1","1","1","1","1","1","1"
"250071","img/neutralC/CFD-LF-247-051-N.jpg","img/neutralC/CFD-BF-238-190-N.jpg","img/neutralC/CFD-BM-026-002-N.jpg","1","1","1","1","1","0","0.38274860009551","0.332690800074488","0.420513600111008","1","1","1","1","1","1","1","1","1"
"250071","img/neutralC/CFD-BM-026-002-N.jpg","img/neutralC/CFD-LF-247-051-N.jpg","img/neutralC/CFD-BM-212-117-N.jpg","1","1","1","0","1","0","0.420513600111008","0.38274860009551","0.30231810011901","1","1","1","1","1","1","1","1","1"
"250071","img/neutralC/CFD-BM-212-117-N.jpg","img/neutralC/CFD-BM-026-002-N.jpg","img/neutralC/CFD-WM-227-099-N.jpg","1","1","1","0","0","1","0.30231810011901","0.420513600111008","0.304392800200731","1","1","1","1","1","1","1","1","1"
"250071","img/neutralC/CFD-WM-227-099-N.jpg","img/neutralC/CFD-BM-212-117-N.jpg","img/neutralC/CFD-IM-727-195-N.jpg","1","1","1","1","0","1","0.304392800200731","0.30231810011901","0.329422400100157","1","1","1","1","1","1","1","1","1"
"250071","img/neutralC/CFD-IM-727-195-N.jpg","img/neutralC/CFD-WM-227-099-N.jpg",NA,"1","1",NA,"1","1",NA,"0.329422400100157","0.304392800200731",NA,"1","1",NA,"1","1",NA,"1","1",NA
"250071","img/neutralC/CFD-LM-247-095-N.jpg",NA,"img/neutralC/CFD-BM-028-002-N.jpg","1",NA,"1","0",NA,"1","0.386109599843621",NA,"0.383862500078976","1",NA,"1","1",NA,"1","1",NA,"1"
"250071","img/neutralC/CFD-BM-028-002-N.jpg","img/neutralC/CFD-LM-247-095-N.jpg","img/neutralC/CFD-MF-312-002-N.jpg","1","1","1","1","0","1","0.383862500078976","0.386109599843621","0.300543799996376","1","1","1","1","1","1","1","1","1"
"250071","img/neutralC/CFD-MF-312-002-N.jpg","img/neutralC/CFD-BM-028-002-N.jpg","img/neutralC/CFD-LF-225-164-N.jpg","1","1","1","1","1","1","0.300543799996376","0.383862500078976","0.305923700099811","1","1","1","1","1","1","1","1","1"
"250071","img/neutralC/CFD-LF-225-164-N.jpg","img/neutralC/CFD-MF-312-002-N.jpg","img/neutralC/CFD-WF-033-002-N.jpg","1","1","1","1","1","1","0.305923700099811","0.300543799996376","0.346542100189254","1","1","1","1","1","1","1","1","1"
"250071","img/neutralC/CFD-WF-033-002-N.jpg","img/neutralC/CFD-LF-225-164-N.jpg","img/neutralC/CFD-IF-673-389-N.jpg","1","1","1","1","1","0","0.346542100189254","0.305923700099811","0.422397000016645","1","1","1","1","1","1","1","1","1"
"250071","img/neutralC/CFD-IF-673-389-N.jpg","img/neutralC/CFD-WF-033-002-N.jpg","img/neutralC/CFD-AM-221-184-N.jpg","1","1","1","0","1","1","0.422397000016645","0.346542100189254","0.280154899926856","1","1","1","1","1","1","1","1","1"
"250071","img/neutralC/CFD-AM-221-184-N.jpg","img/neutralC/CFD-IF-673-389-N.jpg","img/neutralC/CFD-AF-210-050-N.jpg","1","1","1","1","0","1","0.280154899926856","0.422397000016645","0.373967400053516","1","1","1","1","1","1","1","1","1"
"250071","img/neutralC/CFD-AF-210-050-N.jpg","img/neutralC/CFD-AM-221-184-N.jpg","img/neutralC/CFD-MF-336-016-N.jpg","1","1","1","1","1","1","0.373967400053516","0.280154899926856","0.402918000007048","1","1","1","1","1","1","1","1","1"
"250071","img/neutralC/CFD-MF-336-016-N.jpg","img/neutralC/CFD-AF-210-050-N.jpg","img/neutralC/CFD-BF-045-003-N.jpg","1","1","1","1","1","0","0.402918000007048","0.373967400053516","0.441623599966988","1","1","1","1","1","1","1","1","1"
"250071","img/neutralC/CFD-BF-045-003-N.jpg","img/neutralC/CFD-MF-336-016-N.jpg","img/neutralC/CFD-AF-239-171-N.jpg","1","1","1","0","1","1","0.441623599966988","0.402918000007048","0.525554499821737","1","1","1","1","1","1","1","1","1"
"250071","img/neutralC/CFD-AF-239-171-N.jpg","img/neutralC/CFD-BF-045-003-N.jpg","img/neutralC/CFD-LF-241-188-N.jpg","1","1","0","1","0","0","0.525554499821737","0.441623599966988","0.367889400105923","1","1","1","1","1","1","1","1","1"
"250071","img/neutralC/CFD-LF-241-188-N.jpg","img/neutralC/CFD-AF-239-171-N.jpg","img/neutralC/CFD-IF-744-114-N.jpg","0","1","0","0","1","0","0.367889400105923","0.525554499821737","0.40168959996663","1","1","1","1","1","1","1","1","2"
"250071","img/neutralC/CFD-IF-744-114-N.jpg","img/neutralC/CFD-LF-241-188-N.jpg","img/neutralC/CFD-LM-238-129-N.jpg","0","0","1","0","0","1","0.40168959996663","0.367889400105923","0.39298120001331","1","1","1","1","1","1","2","1","1"
"250071","img/neutralC/CFD-LM-238-129-N.jpg","img/neutralC/CFD-IF-744-114-N.jpg","img/neutralC/CFD-IM-701-312-N.jpg","1","0","0","1","0","0","0.39298120001331","0.40168959996663","0.307599999941885","1","1","1","1","1","1","1","2","1"
"250071","img/neutralC/CFD-IM-701-312-N.jpg","img/neutralC/CFD-LM-238-129-N.jpg","img/neutralC/CFD-BM-010-003-N.jpg","0","1","1","0","1","0","0.307599999941885","0.39298120001331","0.474252799991518","1","1","1","1","1","1","1","1","1"
"250071","img/neutralC/CFD-BM-010-003-N.jpg","img/neutralC/CFD-IM-701-312-N.jpg","img/neutralC/CFD-BM-003-003-N.jpg","1","0","1","0","0","0","0.474252799991518","0.307599999941885","0.395787799963728","1","1","1","1","1","1","1","1","1"
"250071","img/neutralC/CFD-BM-003-003-N.jpg","img/neutralC/CFD-BM-010-003-N.jpg","img/neutralC/CFD-WF-006-002-N.jpg","1","1","0","0","0","0","0.395787799963728","0.474252799991518","0.365586099913344","1","1","1","1","1","1","1","1","1"
"250071","img/neutralC/CFD-WF-006-002-N.jpg","img/neutralC/CFD-BM-003-003-N.jpg","img/neutralC/CFD-BF-004-014-N.jpg","0","1","1","0","0","1","0.365586099913344","0.395787799963728","0.404963699867949","1","1","1","1","1","1","1","1","1"
"250071","img/neutralC/CFD-BF-004-014-N.jpg","img/neutralC/CFD-WF-006-002-N.jpg","img/neutralC/CFD-IM-659-359-N.jpg","1","0","1","1","0","0","0.404963699867949","0.365586099913344","0.308125800220296","1","1","1","1","1","1","1","1","1"
"250071","img/neutralC/CFD-IM-659-359-N.jpg","img/neutralC/CFD-BF-004-014-N.jpg","img/neutralC/CFD-BM-213-134-N.jpg","1","1","1","0","1","1","0.308125800220296","0.404963699867949","0.502739100018516","1","1","1","1","1","1","1","1","1"
"250071","img/neutralC/CFD-BM-213-134-N.jpg","img/neutralC/CFD-IM-659-359-N.jpg","img/neutralC/CFD-WM-228-065-N.jpg","1","1","1","1","0","0","0.502739100018516","0.308125800220296","0.411360400030389","1","1","1","1","1","1","1","1","1"
"250071","img/neutralC/CFD-WM-228-065-N.jpg","img/neutralC/CFD-BM-213-134-N.jpg","img/neutralC/CFD-BM-013-002-N.jpg","1","1","1","0","1","1","0.411360400030389","0.502739100018516","0.32614569994621","1","1","1","1","1","1","1","1","1"
"250071","img/neutralC/CFD-BM-013-002-N.jpg","img/neutralC/CFD-WM-228-065-N.jpg","img/neutralC/CFD-WM-254-152-N.jpg","1","1","1","1","0","1","0.32614569994621","0.411360400030389","0.328288299962878","1","1","1","1","1","1","1","1","1"
"250071","img/neutralC/CFD-WM-254-152-N.jpg","img/neutralC/CFD-BM-013-002-N.jpg","img/neutralC/CFD-IF-625-225-N.jpg","1","1","1","1","1","0","0.328288299962878","0.32614569994621","0.300550900166854","1","1","1","1","1","1","1","1","1"
"250071","img/neutralC/CFD-IF-625-225-N.jpg","img/neutralC/CFD-WM-254-152-N.jpg","img/neutralC/CFD-LF-210-220-N.jpg","1","1","1","0","1","1","0.300550900166854","0.328288299962878","0.386613299837336","1","1","1","1","1","1","1","1","1"
"250071","img/neutralC/CFD-LF-210-220-N.jpg","img/neutralC/CFD-IF-625-225-N.jpg","img/neutralC/CFD-BF-222-240-N.jpg","1","1","1","1","0","0","0.386613299837336","0.300550900166854","0.422076100017875","1","1","1","1","1","1","1","1","1"
"250071","img/neutralC/CFD-BF-222-240-N.jpg","img/neutralC/CFD-LF-210-220-N.jpg","img/neutralC/CFD-WM-202-107-N.jpg","1","1","1","0","1","1","0.422076100017875","0.386613299837336","0.366172099951655","1","1","1","1","1","1","1","1","1"
"250071","img/neutralC/CFD-WM-202-107-N.jpg","img/neutralC/CFD-BF-222-240-N.jpg","img/neutralC/CFD-WF-223-133-N.jpg","1","1","1","1","0","0","0.366172099951655","0.422076100017875","0.355660100001842","1","1","1","1","1","1","1","1","1"
"250071","img/neutralC/CFD-WF-223-133-N.jpg","img/neutralC/CFD-WM-202-107-N.jpg","img/neutralC/CFD-LF-208-127-N.jpg","1","1","1","0","1","0","0.355660100001842","0.366172099951655","0.379521799972281","1","1","1","1","1","1","1","1","1"
"250071","img/neutralC/CFD-LF-208-127-N.jpg","img/neutralC/CFD-WF-223-133-N.jpg","img/neutralC/CFD-IM-738-191-N.jpg","1","1","0","0","0","0","0.379521799972281","0.355660100001842","0.331397500121966","1","1","1","1","1","1","1","1","1"
"250071","img/neutralC/CFD-IM-738-191-N.jpg","img/neutralC/CFD-LF-208-127-N.jpg","img/neutralC/CFD-AF-227-207-N.jpg","0","1","1","0","0","1","0.331397500121966","0.379521799972281","0.350837199948728","1","1","1","1","1","1","1","1","1"
"250071","img/neutralC/CFD-AF-227-207-N.jpg","img/neutralC/CFD-IM-738-191-N.jpg",NA,"1","0",NA,"1","0",NA,"0.350837199948728","0.331397500121966",NA,"1","1",NA,"1","1",NA,"1","1",NA
"250071","img/neutralC/CFD-WF-022-017-N.jpg",NA,"img/neutralC/CFD-BF-208-266-N.jpg","1",NA,"0","0",NA,"0","0.435892899986356",NA,"0.355175899807364","1",NA,"1","1",NA,"1","1",NA,"1"
"250071","img/neutralC/CFD-BF-208-266-N.jpg","img/neutralC/CFD-WF-022-017-N.jpg","img/neutralC/CFD-MM-319-052-N.jpg","0","1","0","0","0","1","0.355175899807364","0.435892899986356",NA,"1","1","0","1","1","0","1","1","0"
"250071","img/neutralC/CFD-MM-319-052-N.jpg","img/neutralC/CFD-BF-208-266-N.jpg","img/neutralC/CFD-BF-023-010-N.jpg","0","0","1","1","0","1",NA,"0.355175899807364","0.308286499930546","0","1","1","0","1","1","0","1","1"
"250071","img/neutralC/CFD-BF-023-010-N.jpg","img/neutralC/CFD-MM-319-052-N.jpg","img/neutralC/CFD-AM-215-120-N.jpg","1","0","1","1","1","1","0.308286499930546",NA,"0.375497499946505","1","0","1","1","0","1","1","0","1"
"250071","img/neutralC/CFD-AM-215-120-N.jpg","img/neutralC/CFD-BF-023-010-N.jpg","img/neutralC/CFD-IM-728-041-N.jpg","1","1","1","1","1","0","0.375497499946505","0.308286499930546","0.327847299864516","1","1","1","1","1","1","1","1","1"
"250071","img/neutralC/CFD-IM-728-041-N.jpg","img/neutralC/CFD-AM-215-120-N.jpg","img/neutralC/CFD-LF-236-221-N.jpg","1","1","1","0","1","1","0.327847299864516","0.375497499946505","0.359255000017583","1","1","1","1","1","1","1","1","1"
"250071","img/neutralC/CFD-LF-236-221-N.jpg","img/neutralC/CFD-IM-728-041-N.jpg","img/neutralC/CFD-LM-252-076-N.jpg","1","1","1","1","0","1","0.359255000017583","0.327847299864516","0.336221399949864","1","1","1","1","1","1","1","1","1"
"250071","img/neutralC/CFD-LM-252-076-N.jpg","img/neutralC/CFD-LF-236-221-N.jpg","img/neutralC/CFD-WF-026-002-N.jpg","1","1","0","1","1","1","0.336221399949864","0.359255000017583",NA,"1","1","0","1","1","0","1","1","0"
"250071","img/neutralC/CFD-WF-026-002-N.jpg","img/neutralC/CFD-LM-252-076-N.jpg","img/neutralC/CFD-WM-257-161-N.jpg","0","1","0","1","1","1",NA,"0.336221399949864",NA,"0","1","0","0","1","0","0","1","0"
"250071","img/neutralC/CFD-WM-257-161-N.jpg","img/neutralC/CFD-WF-026-002-N.jpg","img/neutralC/CFD-IF-718-001-N.jpg","0","0","1","1","1","1",NA,NA,"0.29619470005855","0","0","1","0","0","1","0","0","1"
"250071","img/neutralC/CFD-IF-718-001-N.jpg","img/neutralC/CFD-WM-257-161-N.jpg","img/neutralC/CFD-LF-216-121-N.jpg","1","0","0","1","1","1","0.29619470005855",NA,NA,"1","0","0","1","0","0","1","0","0"
"250071","img/neutralC/CFD-LF-216-121-N.jpg","img/neutralC/CFD-IF-718-001-N.jpg","img/neutralC/CFD-IF-672-305-N.jpg","0","1","1","1","1","0",NA,"0.29619470005855","0.454297499964014","0","1","1","0","1","1","0","1","1"
"250071","img/neutralC/CFD-IF-672-305-N.jpg","img/neutralC/CFD-LF-216-121-N.jpg","img/neutralC/CFD-BM-211-174-N.jpg","1","0","1","0","1","0","0.454297499964014",NA,"0.468237700173631","1","0","1","1","0","1","1","0","1"
"250071","img/neutralC/CFD-BM-211-174-N.jpg","img/neutralC/CFD-IF-672-305-N.jpg","img/neutralC/CFD-BM-027-001-N.jpg","1","1","0","0","0","0","0.468237700173631","0.454297499964014",NA,"1","1","0","1","1","0","1","1","0"
"250071","img/neutralC/CFD-BM-027-001-N.jpg","img/neutralC/CFD-BM-211-174-N.jpg","img/neutralC/CFD-BF-204-189-N.jpg","0","1","0","0","0","1",NA,"0.468237700173631",NA,"0","1","0","0","1","0","0","1","0"
"250071","img/neutralC/CFD-BF-204-189-N.jpg","img/neutralC/CFD-BM-027-001-N.jpg","img/neutralC/CFD-WM-038-003-N.jpg","0","0","0","1","0","0",NA,NA,NA,"0","0","0","0","0","0","0","0","0"
"250071","img/neutralC/CFD-WM-038-003-N.jpg","img/neutralC/CFD-BF-204-189-N.jpg","img/neutralC/CFD-BM-015-015-N.jpg","0","0","1","0","1","0",NA,NA,"0.421635000035167","0","0","1","0","0","1","0","0","1"
"250071","img/neutralC/CFD-BM-015-015-N.jpg","img/neutralC/CFD-WM-038-003-N.jpg","img/neutralC/CFD-AM-217-085-N.jpg","1","0","0","0","0","0","0.421635000035167",NA,NA,"1","0","0","1","0","0","1","0","0"
"250071","img/neutralC/CFD-AM-217-085-N.jpg","img/neutralC/CFD-BM-015-015-N.jpg","img/neutralC/CFD-WM-040-022-N.jpg","0","1","0","0","0","0",NA,"0.421635000035167",NA,"0","1","0","0","1","0","0","1","0"
"250071","img/neutralC/CFD-WM-040-022-N.jpg","img/neutralC/CFD-AM-217-085-N.jpg","img/neutralC/CFD-BF-028-001-N.jpg","0","0","1","0","0","1",NA,NA,"0.307823300128803","0","0","1","0","0","1","0","0","1"
"250071","img/neutralC/CFD-BF-028-001-N.jpg","img/neutralC/CFD-WM-040-022-N.jpg","img/neutralC/CFD-IM-674-281-N.jpg","1","0","0","1","0","1","0.307823300128803",NA,NA,"1","0","0","1","0","0","1","0","0"
"250071","img/neutralC/CFD-IM-674-281-N.jpg","img/neutralC/CFD-BF-028-001-N.jpg","img/neutralC/CFD-BF-255-140-N.jpg","0","1","0","1","1","1",NA,"0.307823300128803",NA,"0","1","0","0","1","0","0","1","0"
"250071","img/neutralC/CFD-BF-255-140-N.jpg","img/neutralC/CFD-IM-674-281-N.jpg","img/neutralC/CFD-AM-235-241-N.jpg","0","0","1","1","1","0",NA,NA,"0.39423600002192","0","0","1","0","0","1","0","0","1"
"250071","img/neutralC/CFD-AM-235-241-N.jpg","img/neutralC/CFD-BF-255-140-N.jpg","img/neutralC/CFD-BM-029-024-N.jpg","1","0","1","0","1","1","0.39423600002192",NA,"0.270604299847037","1","0","1","1","0","1","1","0","1"
"250071","img/neutralC/CFD-BM-029-024-N.jpg","img/neutralC/CFD-AM-235-241-N.jpg","img/neutralC/CFD-WM-225-127-N.jpg","1","1","0","1","0","0","0.270604299847037","0.39423600002192","0.367706699995324","1","1","1","1","1","1","1","1","1"
"250071","img/neutralC/CFD-WM-225-127-N.jpg","img/neutralC/CFD-BM-029-024-N.jpg","img/neutralC/CFD-BF-003-003-N.jpg","0","1","0","0","1","0","0.367706699995324","0.270604299847037",NA,"1","1","0","1","1","0","1","1","0"
"250071","img/neutralC/CFD-BF-003-003-N.jpg","img/neutralC/CFD-WM-225-127-N.jpg","img/neutralC/CFD-WF-002-004-N.jpg","0","0","0","0","0","0",NA,"0.367706699995324",NA,"0","1","0","0","1","0","0","1","0"
"250071","img/neutralC/CFD-WF-002-004-N.jpg","img/neutralC/CFD-BF-003-003-N.jpg","img/neutralC/CFD-BM-247-240-N.jpg","0","0","0","0","0","0",NA,NA,NA,"0","0","0","0","0","0","0","0","0"
"250071","img/neutralC/CFD-BM-247-240-N.jpg","img/neutralC/CFD-WF-002-004-N.jpg","img/neutralC/CFD-IM-639-263-N.jpg","0","0","1","0","0","1",NA,NA,"0.314402400050312","0","0","1","0","0","1","0","0","1"
"250071","img/neutralC/CFD-IM-639-263-N.jpg","img/neutralC/CFD-BM-247-240-N.jpg","img/neutralC/CFD-WM-002-009-N.jpg","1","0","0","1","0","0","0.314402400050312",NA,"0.284262100001797","1","0","1","1","0","1","1","0","1"
"250071","img/neutralC/CFD-WM-002-009-N.jpg","img/neutralC/CFD-IM-639-263-N.jpg","img/neutralC/CFD-BF-201-080-N.jpg","0","1","1","0","1","1","0.284262100001797","0.314402400050312","0.370879400055856","1","1","1","1","1","1","1","1","1"
"250071","img/neutralC/CFD-BF-201-080-N.jpg","img/neutralC/CFD-WM-002-009-N.jpg",NA,"1","0",NA,"1","0",NA,"0.370879400055856","0.284262100001797",NA,"1","1",NA,"1","1",NA,"1","1",NA
"250071","img/neutralC/CFD-AF-233-190-N.jpg",NA,"img/neutralC/CFD-MM-324-069-N.jpg","1",NA,"1","0",NA,"1","0.396614899858832",NA,"0.285699600121006","1",NA,"1","1",NA,"1","1",NA,"1"
"250071","img/neutralC/CFD-MM-324-069-N.jpg","img/neutralC/CFD-AF-233-190-N.jpg","img/neutralC/CFD-IM-702-101-N.jpg","1","1","1","1","0","1","0.285699600121006","0.396614899858832","0.33756610006094","1","1","1","1","1","1","1","1","1"
"250071","img/neutralC/CFD-IM-702-101-N.jpg","img/neutralC/CFD-MM-324-069-N.jpg","img/neutralC/CFD-MF-357-002-N.jpg","1","1","1","1","1","0","0.33756610006094","0.285699600121006","0.321240300079808","1","1","1","1","1","1","1","1","1"
"250071","img/neutralC/CFD-MF-357-002-N.jpg","img/neutralC/CFD-IM-702-101-N.jpg","img/neutralC/CFD-WF-244-163-N.jpg","1","1","1","0","1","1","0.321240300079808","0.33756610006094","0.385754599934444","1","1","1","1","1","1","1","1","1"
"250071","img/neutralC/CFD-WF-244-163-N.jpg","img/neutralC/CFD-MF-357-002-N.jpg","img/neutralC/CFD-WM-015-002-N.jpg","1","1","1","1","0","0","0.385754599934444","0.321240300079808","0.306996800005436","1","1","1","1","1","1","1","1","1"
"250071","img/neutralC/CFD-WM-015-002-N.jpg","img/neutralC/CFD-WF-244-163-N.jpg","img/neutralC/CFD-LM-225-130-N.jpg","1","1","1","0","1","0","0.306996800005436","0.385754599934444","0.366638599894941","1","1","1","1","1","1","1","1","1"
"250071","img/neutralC/CFD-LM-225-130-N.jpg","img/neutralC/CFD-WM-015-002-N.jpg","img/neutralC/CFD-IM-680-369-N.jpg","1","1","1","0","0","1","0.366638599894941","0.306996800005436","0.420821500010788","1","1","1","1","1","1","1","1","1"
"250071","img/neutralC/CFD-IM-680-369-N.jpg","img/neutralC/CFD-LM-225-130-N.jpg","img/neutralC/CFD-MF-305-014-N.jpg","1","1","1","1","0","1","0.420821500010788","0.366638599894941","0.335333799943328","1","1","1","1","1","1","1","1","1"
"250071","img/neutralC/CFD-MF-305-014-N.jpg","img/neutralC/CFD-IM-680-369-N.jpg","img/neutralC/CFD-BF-014-002-N.jpg","1","1","1","1","1","1","0.335333799943328","0.420821500010788","0.304358600173146","1","1","1","1","1","1","1","1","1"
"250071","img/neutralC/CFD-BF-014-002-N.jpg","img/neutralC/CFD-MF-305-014-N.jpg","img/neutralC/CFD-AM-220-134-N.jpg","1","1","1","1","1","0","0.304358600173146","0.335333799943328","0.397105599986389","1","1","1","1","1","1","1","1","1"
"250071","img/neutralC/CFD-AM-220-134-N.jpg","img/neutralC/CFD-BF-014-002-N.jpg","img/neutralC/CFD-LM-200-045-N.jpg","1","1","1","0","1","1","0.397105599986389","0.304358600173146","0.322824699804187","1","1","1","1","1","1","1","1","1"
"250071","img/neutralC/CFD-LM-200-045-N.jpg","img/neutralC/CFD-AM-220-134-N.jpg","img/neutralC/CFD-BM-001-014-N.jpg","1","1","1","1","0","0","0.322824699804187","0.397105599986389","0.271178600145504","1","1","1","1","1","1","1","1","1"
"250071","img/neutralC/CFD-BM-001-014-N.jpg","img/neutralC/CFD-LM-200-045-N.jpg","img/neutralC/CFD-MF-303-013-N.jpg","1","1","1","0","1","0","0.271178600145504","0.322824699804187","0.448715399950743","1","1","1","1","1","1","1","1","1"
"250071","img/neutralC/CFD-MF-303-013-N.jpg","img/neutralC/CFD-BM-001-014-N.jpg","img/neutralC/CFD-AF-253-130-N.jpg","1","1","1","0","0","1","0.448715399950743","0.271178600145504","0.340260200202465","1","1","1","1","1","1","1","1","1"
"250071","img/neutralC/CFD-AF-253-130-N.jpg","img/neutralC/CFD-MF-303-013-N.jpg","img/neutralC/CFD-MF-316-001-N.jpg","1","1","1","1","0","0","0.340260200202465","0.448715399950743","0.32315340009518","1","1","1","1","1","1","1","1","1"
"250071","img/neutralC/CFD-MF-316-001-N.jpg","img/neutralC/CFD-AF-253-130-N.jpg","img/neutralC/CFD-WF-222-092-N.jpg","1","1","1","0","1","1","0.32315340009518","0.340260200202465","0.322595299920067","1","1","1","1","1","1","1","1","1"
"250071","img/neutralC/CFD-WF-222-092-N.jpg","img/neutralC/CFD-MF-316-001-N.jpg","img/neutralC/CFD-BF-237-172-N.jpg","1","1","1","1","0","1","0.322595299920067","0.32315340009518","0.338722999906167","1","1","1","1","1","1","1","1","1"
"250071","img/neutralC/CFD-BF-237-172-N.jpg","img/neutralC/CFD-WF-222-092-N.jpg","img/neutralC/CFD-WF-030-002-N.jpg","1","1","1","1","1","0","0.338722999906167","0.322595299920067","0.476796599803492","1","1","1","1","1","1","1","1","1"
"250071","img/neutralC/CFD-WF-030-002-N.jpg","img/neutralC/CFD-BF-237-172-N.jpg","img/neutralC/CFD-IM-667-369-N.jpg","1","1","1","0","1","0","0.476796599803492","0.338722999906167","0.551054100040346","1","1","1","1","1","1","1","1","1"
"250071","img/neutralC/CFD-IM-667-369-N.jpg","img/neutralC/CFD-WF-030-002-N.jpg","img/neutralC/CFD-WM-218-074-N.jpg","1","1","1","0","0","1","0.551054100040346","0.476796599803492","0.366417699959129","1","1","1","1","1","1","1","1","1"
"250071","img/neutralC/CFD-WM-218-074-N.jpg","img/neutralC/CFD-IM-667-369-N.jpg","img/neutralC/CFD-BM-217-082-N.jpg","1","1","1","1","0","0","0.366417699959129","0.551054100040346","0.417381400009617","1","1","1","1","1","1","1","1","1"
"250071","img/neutralC/CFD-BM-217-082-N.jpg","img/neutralC/CFD-WM-218-074-N.jpg","img/neutralC/CFD-IF-626-375-N.jpg","1","1","1","0","1","0","0.417381400009617","0.366417699959129","0.359334099804983","1","1","1","1","1","1","1","1","1"
"250071","img/neutralC/CFD-IF-626-375-N.jpg","img/neutralC/CFD-BM-217-082-N.jpg","img/neutralC/CFD-WF-007-001-N.jpg","1","1","1","0","0","1","0.359334099804983","0.417381400009617","0.390074899885803","1","1","1","1","1","1","1","1","1"
"250071","img/neutralC/CFD-WF-007-001-N.jpg","img/neutralC/CFD-IF-626-375-N.jpg","img/neutralC/CFD-LF-206-078-N.jpg","1","1","1","1","0","1","0.390074899885803","0.359334099804983","0.336341599933803","1","1","1","1","1","1","1","1","1"
"250071","img/neutralC/CFD-LF-206-078-N.jpg","img/neutralC/CFD-WF-007-001-N.jpg","img/neutralC/CFD-IM-706-002-N.jpg","1","1","1","1","1","0","0.336341599933803","0.390074899885803","0.362098500132561","1","1","1","1","1","1","1","1","1"
"250071","img/neutralC/CFD-IM-706-002-N.jpg","img/neutralC/CFD-LF-206-078-N.jpg","img/neutralC/CFD-LF-255-088-N.jpg","1","1","1","0","1","0","0.362098500132561","0.336341599933803","0.330432099988684","1","1","1","1","1","1","1","1","1"
"250071","img/neutralC/CFD-LF-255-088-N.jpg","img/neutralC/CFD-IM-706-002-N.jpg","img/neutralC/CFD-BM-250-170-N.jpg","1","1","1","0","0","1","0.330432099988684","0.362098500132561","0.371803199872374","1","1","1","1","1","1","1","1","1"
"250071","img/neutralC/CFD-BM-250-170-N.jpg","img/neutralC/CFD-LF-255-088-N.jpg","img/neutralC/CFD-IM-664-651-N.jpg","1","1","1","1","0","1","0.371803199872374","0.330432099988684","0.34161249990575","1","1","1","1","1","1","1","1","1"
"250071","img/neutralC/CFD-IM-664-651-N.jpg","img/neutralC/CFD-BM-250-170-N.jpg","img/neutralC/CFD-WM-209-038-N.jpg","1","1","1","1","1","0","0.34161249990575","0.371803199872374","0.381425499916077","1","1","1","1","1","1","1","1","1"
"250071","img/neutralC/CFD-WM-209-038-N.jpg","img/neutralC/CFD-IM-664-651-N.jpg","img/neutralC/CFD-MF-343-001-N.jpg","1","1","1","0","1","1","0.381425499916077","0.34161249990575","0.300501999910921","1","1","1","1","1","1","1","1","1"
"250071","img/neutralC/CFD-MF-343-001-N.jpg","img/neutralC/CFD-WM-209-038-N.jpg","img/neutralC/CFD-IF-660-464-N.jpg","1","1","1","1","0","0","0.300501999910921","0.381425499916077","0.364283100003377","1","1","1","1","1","1","1","1","1"
"250071","img/neutralC/CFD-IF-660-464-N.jpg","img/neutralC/CFD-MF-343-001-N.jpg",NA,"1","1",NA,"0","1",NA,"0.364283100003377","0.300501999910921",NA,"1","1",NA,"1","1",NA,"1","1",NA
