"participant_id","current_trial_face","pre_trial_face","post_trial_face","current_trial_accuracy","pre_trial_accuracy","post_trial_accuracy","current_trial_congruency","pre_trial_congruency","post_trial_congruency","current_trial_rt","pre_trial_rt","post_trial_rt","current_trial_responded","pre_trial_responded","post_trial_responded","current_trial_legitResponse","pre_trial_legitResponse","post_trial_legitResponse","current_trial_resp_nums","pre_trial_resp_nums","post_trial_resp_nums"
"250004","img/neutralC/CFD-WF-002-004-N.jpg",NA,"img/neutralC/CFD-IF-672-305-N.jpg","1",NA,"1","0",NA,"0","0.694663700007368",NA,"0.604711399995722","1",NA,"1","1",NA,"1","1",NA,"1"
"250004","img/neutralC/CFD-IF-672-305-N.jpg","img/neutralC/CFD-WF-002-004-N.jpg","img/neutralC/CFD-IM-674-281-N.jpg","1","1","1","0","0","1","0.604711399995722","0.694663700007368","0.481647099950351","1","1","1","1","1","1","1","1","1"
"250004","img/neutralC/CFD-IM-674-281-N.jpg","img/neutralC/CFD-IF-672-305-N.jpg","img/neutralC/CFD-IF-718-001-N.jpg","1","1","1","1","0","1","0.481647099950351","0.604711399995722","0.343484099954367","1","1","1","1","1","1","1","1","1"
"250004","img/neutralC/CFD-IF-718-001-N.jpg","img/neutralC/CFD-IM-674-281-N.jpg","img/neutralC/CFD-BM-015-015-N.jpg","1","1","1","1","1","0","0.343484099954367","0.481647099950351","0.463243899983354","1","1","1","1","1","1","1","1","1"
"250004","img/neutralC/CFD-BM-015-015-N.jpg","img/neutralC/CFD-IF-718-001-N.jpg","img/neutralC/CFD-LM-252-076-N.jpg","1","1","1","0","1","1","0.463243899983354","0.343484099954367","0.432678000011947","1","1","1","1","1","1","1","1","1"
"250004","img/neutralC/CFD-LM-252-076-N.jpg","img/neutralC/CFD-BM-015-015-N.jpg","img/neutralC/CFD-MM-319-052-N.jpg","1","1","1","1","0","1","0.432678000011947","0.463243899983354","0.457640299980994","1","1","1","1","1","1","1","1","1"
"250004","img/neutralC/CFD-MM-319-052-N.jpg","img/neutralC/CFD-LM-252-076-N.jpg","img/neutralC/CFD-WM-038-003-N.jpg","1","1","1","1","1","0","0.457640299980994","0.432678000011947","0.535028500016779","1","1","1","1","1","1","1","1","1"
"250004","img/neutralC/CFD-WM-038-003-N.jpg","img/neutralC/CFD-MM-319-052-N.jpg","img/neutralC/CFD-BF-204-189-N.jpg","1","1","1","0","1","1","0.535028500016779","0.457640299980994","0.404520199983381","1","1","1","1","1","1","1","1","1"
"250004","img/neutralC/CFD-BF-204-189-N.jpg","img/neutralC/CFD-WM-038-003-N.jpg","img/neutralC/CFD-BF-023-010-N.jpg","1","1","1","1","0","1","0.404520199983381","0.535028500016779","0.568767699995078","1","1","1","1","1","1","1","1","1"
"250004","img/neutralC/CFD-BF-023-010-N.jpg","img/neutralC/CFD-BF-204-189-N.jpg","img/neutralC/CFD-BM-247-240-N.jpg","1","1","1","1","1","0","0.568767699995078","0.404520199983381","0.56714939995436","1","1","1","1","1","1","1","1","1"
"250004","img/neutralC/CFD-BM-247-240-N.jpg","img/neutralC/CFD-BF-023-010-N.jpg","img/neutralC/CFD-BF-028-001-N.jpg","1","1","1","0","1","1","0.56714939995436","0.568767699995078","0.607349899946712","1","1","1","1","1","1","1","1","1"
"250004","img/neutralC/CFD-BF-028-001-N.jpg","img/neutralC/CFD-BM-247-240-N.jpg","img/neutralC/CFD-AM-217-085-N.jpg","1","1","1","1","0","0","0.607349899946712","0.56714939995436","0.796325400006026","1","1","1","1","1","1","1","1","1"
"250004","img/neutralC/CFD-AM-217-085-N.jpg","img/neutralC/CFD-BF-028-001-N.jpg","img/neutralC/CFD-AM-235-241-N.jpg","1","1","1","0","1","0","0.796325400006026","0.607349899946712","0.501780599995982","1","1","1","1","1","1","1","1","1"
"250004","img/neutralC/CFD-AM-235-241-N.jpg","img/neutralC/CFD-AM-217-085-N.jpg","img/neutralC/CFD-WM-002-009-N.jpg","1","1","1","0","0","0","0.501780599995982","0.796325400006026","0.511194600025192","1","1","1","1","1","1","1","1","1"
"250004","img/neutralC/CFD-WM-002-009-N.jpg","img/neutralC/CFD-AM-235-241-N.jpg","img/neutralC/CFD-BF-208-266-N.jpg","1","1","1","0","0","0","0.511194600025192","0.501780599995982","0.482935899985023","1","1","1","1","1","1","1","1","1"
"250004","img/neutralC/CFD-BF-208-266-N.jpg","img/neutralC/CFD-WM-002-009-N.jpg","img/neutralC/CFD-WM-257-161-N.jpg","1","1","1","0","0","1","0.482935899985023","0.511194600025192","0.492347699997481","1","1","1","1","1","1","1","1","1"
"250004","img/neutralC/CFD-WM-257-161-N.jpg","img/neutralC/CFD-BF-208-266-N.jpg","img/neutralC/CFD-BM-027-001-N.jpg","1","1","1","1","0","0","0.492347699997481","0.482935899985023","0.509704700030852","1","1","1","1","1","1","1","1","1"
"250004","img/neutralC/CFD-BM-027-001-N.jpg","img/neutralC/CFD-WM-257-161-N.jpg","img/neutralC/CFD-BF-255-140-N.jpg","1","1","1","0","1","1","0.509704700030852","0.492347699997481","0.431144999980461","1","1","1","1","1","1","1","1","1"
"250004","img/neutralC/CFD-BF-255-140-N.jpg","img/neutralC/CFD-BM-027-001-N.jpg","img/neutralC/CFD-WF-026-002-N.jpg","1","1","1","1","0","1","0.431144999980461","0.509704700030852","0.419361200009007","1","1","1","1","1","1","1","1","1"
"250004","img/neutralC/CFD-WF-026-002-N.jpg","img/neutralC/CFD-BF-255-140-N.jpg","img/neutralC/CFD-WF-022-017-N.jpg","1","1","1","1","1","0","0.419361200009007","0.431144999980461","0.92742039996665","1","1","1","1","1","1","1","1","1"
"250004","img/neutralC/CFD-WF-022-017-N.jpg","img/neutralC/CFD-WF-026-002-N.jpg","img/neutralC/CFD-WM-040-022-N.jpg","1","1","1","0","1","0","0.92742039996665","0.419361200009007","0.419237099995371","1","1","1","1","1","1","1","1","1"
"250004","img/neutralC/CFD-WM-040-022-N.jpg","img/neutralC/CFD-WF-022-017-N.jpg","img/neutralC/CFD-AM-215-120-N.jpg","1","1","1","0","0","1","0.419237099995371","0.92742039996665","0.497768400004134","1","1","1","1","1","1","1","1","1"
"250004","img/neutralC/CFD-AM-215-120-N.jpg","img/neutralC/CFD-WM-040-022-N.jpg","img/neutralC/CFD-IM-639-263-N.jpg","1","1","1","1","0","1","0.497768400004134","0.419237099995371","0.584792599955108","1","1","1","1","1","1","1","1","1"
"250004","img/neutralC/CFD-IM-639-263-N.jpg","img/neutralC/CFD-AM-215-120-N.jpg","img/neutralC/CFD-BM-211-174-N.jpg","1","1","1","1","1","0","0.584792599955108","0.497768400004134","0.663177200010978","1","1","1","1","1","1","1","1","1"
"250004","img/neutralC/CFD-BM-211-174-N.jpg","img/neutralC/CFD-IM-639-263-N.jpg","img/neutralC/CFD-LF-236-221-N.jpg","1","1","1","0","1","1","0.663177200010978","0.584792599955108","0.454064799996559","1","1","1","1","1","1","1","1","1"
"250004","img/neutralC/CFD-LF-236-221-N.jpg","img/neutralC/CFD-BM-211-174-N.jpg","img/neutralC/CFD-BM-029-024-N.jpg","1","1","1","1","0","1","0.454064799996559","0.663177200010978","0.496068499982357","1","1","1","1","1","1","1","1","1"
"250004","img/neutralC/CFD-BM-029-024-N.jpg","img/neutralC/CFD-LF-236-221-N.jpg","img/neutralC/CFD-BF-003-003-N.jpg","1","1","1","1","1","0","0.496068499982357","0.454064799996559","0.52294549997896","1","1","1","1","1","1","1","1","1"
"250004","img/neutralC/CFD-BF-003-003-N.jpg","img/neutralC/CFD-BM-029-024-N.jpg","img/neutralC/CFD-WM-225-127-N.jpg","1","1","1","0","1","0","0.52294549997896","0.496068499982357","0.492066100006923","1","1","1","1","1","1","1","1","1"
"250004","img/neutralC/CFD-WM-225-127-N.jpg","img/neutralC/CFD-BF-003-003-N.jpg","img/neutralC/CFD-LF-216-121-N.jpg","1","1","1","0","0","1","0.492066100006923","0.52294549997896","0.415190799976699","1","1","1","1","1","1","1","1","1"
"250004","img/neutralC/CFD-LF-216-121-N.jpg","img/neutralC/CFD-WM-225-127-N.jpg","img/neutralC/CFD-IM-728-041-N.jpg","1","1","1","1","0","0","0.415190799976699","0.492066100006923","0.503726699971594","1","1","1","1","1","1","1","1","1"
"250004","img/neutralC/CFD-IM-728-041-N.jpg","img/neutralC/CFD-LF-216-121-N.jpg","img/neutralC/CFD-BF-201-080-N.jpg","1","1","1","0","1","1","0.503726699971594","0.415190799976699","0.455760499986354","1","1","1","1","1","1","1","1","1"
"250004","img/neutralC/CFD-BF-201-080-N.jpg","img/neutralC/CFD-IM-728-041-N.jpg",NA,"1","1",NA,"1","0",NA,"0.455760499986354","0.503726699971594",NA,"1","1",NA,"1","1",NA,"1","1",NA
"250004","img/neutralC/CFD-BM-004-002-N.jpg",NA,"img/neutralC/CFD-LM-241-125-N.jpg","1",NA,"1","0",NA,"1","0.380589200009126",NA,"0.384704300027806","1",NA,"1","1",NA,"1","1",NA,"1"
"250004","img/neutralC/CFD-LM-241-125-N.jpg","img/neutralC/CFD-BM-004-002-N.jpg","img/neutralC/CFD-MF-307-002-N.jpg","1","1","1","1","0","1","0.384704300027806","0.380589200009126","0.382339899952058","1","1","1","1","1","1","1","1","1"
"250004","img/neutralC/CFD-MF-307-002-N.jpg","img/neutralC/CFD-LM-241-125-N.jpg","img/neutralC/CFD-IF-732-260-N.jpg","1","1","1","1","1","0","0.382339899952058","0.384704300027806","0.393355599953793","1","1","1","1","1","1","1","1","1"
"250004","img/neutralC/CFD-IF-732-260-N.jpg","img/neutralC/CFD-MF-307-002-N.jpg","img/neutralC/CFD-IM-635-010-N.jpg","1","1","1","0","1","1","0.393355599953793","0.382339899952058","0.344403900031466","1","1","1","1","1","1","1","1","1"
"250004","img/neutralC/CFD-IM-635-010-N.jpg","img/neutralC/CFD-IF-732-260-N.jpg","img/neutralC/CFD-AF-213-126-N.jpg","1","1","1","1","0","1","0.344403900031466","0.393355599953793","0.429169000010006","1","1","1","1","1","1","1","1","1"
"250004","img/neutralC/CFD-AF-213-126-N.jpg","img/neutralC/CFD-IM-635-010-N.jpg","img/neutralC/CFD-LF-239-148-N.jpg","1","1","0","1","1","0","0.429169000010006","0.344403900031466","0.310459300002549","1","1","1","1","1","1","1","1","1"
"250004","img/neutralC/CFD-LF-239-148-N.jpg","img/neutralC/CFD-AF-213-126-N.jpg","img/neutralC/CFD-IF-636-011-N.jpg","0","1","1","0","1","1","0.310459300002549","0.429169000010006","0.577775299956556","1","1","1","1","1","1","1","1","1"
"250004","img/neutralC/CFD-IF-636-011-N.jpg","img/neutralC/CFD-LF-239-148-N.jpg","img/neutralC/CFD-IM-669-111-N.jpg","1","0","1","1","0","1","0.577775299956556","0.310459300002549","0.39436159998877","1","1","1","1","1","1","1","1","1"
"250004","img/neutralC/CFD-IM-669-111-N.jpg","img/neutralC/CFD-IF-636-011-N.jpg","img/neutralC/CFD-MF-302-027-N.jpg","1","1","1","1","1","0","0.39436159998877","0.577775299956556","0.467130499950144","1","1","1","1","1","1","1","1","1"
"250004","img/neutralC/CFD-MF-302-027-N.jpg","img/neutralC/CFD-IM-669-111-N.jpg","img/neutralC/CFD-AF-250-200-N.jpg","1","1","1","0","1","1","0.467130499950144","0.39436159998877","0.362510700011626","1","1","1","1","1","1","1","1","1"
"250004","img/neutralC/CFD-AF-250-200-N.jpg","img/neutralC/CFD-MF-302-027-N.jpg","img/neutralC/CFD-BF-020-002-N.jpg","1","1","1","1","0","1","0.362510700011626","0.467130499950144","0.349506799946539","1","1","1","1","1","1","1","1","1"
"250004","img/neutralC/CFD-BF-020-002-N.jpg","img/neutralC/CFD-AF-250-200-N.jpg","img/neutralC/CFD-IM-678-482-N.jpg","1","1","1","1","1","0","0.349506799946539","0.362510700011626","0.385436700016726","1","1","1","1","1","1","1","1","1"
"250004","img/neutralC/CFD-IM-678-482-N.jpg","img/neutralC/CFD-BF-020-002-N.jpg","img/neutralC/CFD-BF-217-189-N.jpg","1","1","1","0","1","0","0.385436700016726","0.349506799946539","0.392692699970212","1","1","1","1","1","1","1","1","1"
"250004","img/neutralC/CFD-BF-217-189-N.jpg","img/neutralC/CFD-IM-678-482-N.jpg","img/neutralC/CFD-AM-233-236-N.jpg","1","1","1","0","0","1","0.392692699970212","0.385436700016726","0.39146209997125","1","1","1","1","1","1","1","1","1"
"250004","img/neutralC/CFD-AM-233-236-N.jpg","img/neutralC/CFD-BF-217-189-N.jpg","img/neutralC/CFD-BM-215-155-N.jpg","1","1","1","1","0","0","0.39146209997125","0.392692699970212","0.389716000005137","1","1","1","1","1","1","1","1","1"
"250004","img/neutralC/CFD-BM-215-155-N.jpg","img/neutralC/CFD-AM-233-236-N.jpg","img/neutralC/CFD-LM-204-001-N.jpg","1","1","1","0","1","0","0.389716000005137","0.39146209997125","0.378375199972652","1","1","1","1","1","1","1","1","1"
"250004","img/neutralC/CFD-LM-204-001-N.jpg","img/neutralC/CFD-BM-215-155-N.jpg","img/neutralC/CFD-BF-042-026-N.jpg","1","1","0","0","0","1","0.378375199972652","0.389716000005137","0.331911399960518","1","1","1","1","1","1","1","1","1"
"250004","img/neutralC/CFD-BF-042-026-N.jpg","img/neutralC/CFD-LM-204-001-N.jpg","img/neutralC/CFD-AF-234-208-N.jpg","0","1","1","1","0","1","0.331911399960518","0.378375199972652","0.463192200055346","1","1","1","1","1","1","1","1","1"
"250004","img/neutralC/CFD-AF-234-208-N.jpg","img/neutralC/CFD-BF-042-026-N.jpg","img/neutralC/CFD-IM-632-097-N.jpg","1","0","1","1","1","0","0.463192200055346","0.331911399960518","0.408072099962737","1","1","1","1","1","1","1","1","1"
"250004","img/neutralC/CFD-IM-632-097-N.jpg","img/neutralC/CFD-AF-234-208-N.jpg","img/neutralC/CFD-WF-235-121-N.jpg","1","1","1","0","1","0","0.408072099962737","0.463192200055346","0.478882400027942","1","1","1","1","1","1","1","1","1"
"250004","img/neutralC/CFD-WF-235-121-N.jpg","img/neutralC/CFD-IM-632-097-N.jpg","img/neutralC/CFD-BF-040-003-N.jpg","1","1","1","0","0","1","0.478882400027942","0.408072099962737","0.494908399996348","1","1","1","1","1","1","1","1","1"
"250004","img/neutralC/CFD-BF-040-003-N.jpg","img/neutralC/CFD-WF-235-121-N.jpg","img/neutralC/CFD-WF-210-086-N.jpg","1","1","1","1","0","0","0.494908399996348","0.478882400027942","0.43864859995665","1","1","1","1","1","1","1","1","1"
"250004","img/neutralC/CFD-WF-210-086-N.jpg","img/neutralC/CFD-BF-040-003-N.jpg","img/neutralC/CFD-AF-244-168-N.jpg","1","1","1","0","1","0","0.43864859995665","0.494908399996348","0.44227190001402","1","1","1","1","1","1","1","1","1"
"250004","img/neutralC/CFD-AF-244-168-N.jpg","img/neutralC/CFD-WF-210-086-N.jpg","img/neutralC/CFD-BF-235-168-N.jpg","1","1","1","0","0","1","0.44227190001402","0.43864859995665","0.468157600029372","1","1","1","1","1","1","1","1","1"
"250004","img/neutralC/CFD-BF-235-168-N.jpg","img/neutralC/CFD-AF-244-168-N.jpg","img/neutralC/CFD-BF-206-143-N.jpg","1","1","1","1","0","1","0.468157600029372","0.44227190001402","0.40887569996994","1","1","1","1","1","1","1","1","1"
"250004","img/neutralC/CFD-BF-206-143-N.jpg","img/neutralC/CFD-BF-235-168-N.jpg","img/neutralC/CFD-WM-018-002-N.jpg","1","1","1","1","1","0","0.40887569996994","0.468157600029372","0.459866299992427","1","1","1","1","1","1","1","1","1"
"250004","img/neutralC/CFD-WM-018-002-N.jpg","img/neutralC/CFD-BF-206-143-N.jpg","img/neutralC/CFD-AF-205-155-N.jpg","1","1","0","0","1","0","0.459866299992427","0.40887569996994","0.441696299996693","1","1","1","1","1","1","1","1","2"
"250004","img/neutralC/CFD-AF-205-155-N.jpg","img/neutralC/CFD-WM-018-002-N.jpg","img/neutralC/CFD-AM-225-102-N.jpg","0","1","1","0","0","0","0.441696299996693","0.459866299992427","0.46180310001364","1","1","1","1","1","1","2","1","1"
"250004","img/neutralC/CFD-AM-225-102-N.jpg","img/neutralC/CFD-AF-205-155-N.jpg","img/neutralC/CFD-WM-253-119-N.jpg","1","0","1","0","0","1","0.46180310001364","0.441696299996693","0.390268000017386","1","1","1","1","1","1","1","2","1"
"250004","img/neutralC/CFD-WM-253-119-N.jpg","img/neutralC/CFD-AM-225-102-N.jpg","img/neutralC/CFD-AF-246-242-N.jpg","1","1","1","1","0","0","0.390268000017386","0.46180310001364","0.431654699961655","1","1","1","1","1","1","1","1","1"
"250004","img/neutralC/CFD-AF-246-242-N.jpg","img/neutralC/CFD-WM-253-119-N.jpg","img/neutralC/CFD-AM-245-111-N.jpg","1","1","1","0","1","1","0.431654699961655","0.390268000017386","0.365867000014987","1","1","1","1","1","1","1","1","1"
"250004","img/neutralC/CFD-AM-245-111-N.jpg","img/neutralC/CFD-AF-246-242-N.jpg",NA,"1","1",NA,"1","0",NA,"0.365867000014987","0.431654699961655",NA,"1","1",NA,"1","1",NA,"1","1",NA
"250004","img/neutralC/CFD-LF-206-078-N.jpg",NA,"img/neutralC/CFD-IM-702-101-N.jpg","1",NA,"1","1",NA,"1","0.497778299963102",NA,"0.446655999985524","1",NA,"1","1",NA,"1","1",NA,"1"
"250004","img/neutralC/CFD-IM-702-101-N.jpg","img/neutralC/CFD-LF-206-078-N.jpg","img/neutralC/CFD-WM-015-002-N.jpg","1","1","1","1","1","0","0.446655999985524","0.497778299963102","0.414835300005507","1","1","1","1","1","1","1","1","1"
"250004","img/neutralC/CFD-WM-015-002-N.jpg","img/neutralC/CFD-IM-702-101-N.jpg","img/neutralC/CFD-BF-014-002-N.jpg","1","1","1","0","1","1","0.414835300005507","0.446655999985524","0.419653300021309","1","1","1","1","1","1","1","1","1"
"250004","img/neutralC/CFD-BF-014-002-N.jpg","img/neutralC/CFD-WM-015-002-N.jpg","img/neutralC/CFD-IM-664-651-N.jpg","1","1","1","1","0","1","0.419653300021309","0.414835300005507","0.433139399974607","1","1","1","1","1","1","1","1","1"
"250004","img/neutralC/CFD-IM-664-651-N.jpg","img/neutralC/CFD-BF-014-002-N.jpg","img/neutralC/CFD-WF-030-002-N.jpg","1","1","0","1","1","0","0.433139399974607","0.419653300021309","0.262872499995865","1","1","1","1","1","1","1","1","1"
"250004","img/neutralC/CFD-WF-030-002-N.jpg","img/neutralC/CFD-IM-664-651-N.jpg","img/neutralC/CFD-AM-220-134-N.jpg","0","1","1","0","1","0","0.262872499995865","0.433139399974607","0.478648899996188","1","1","1","1","1","1","1","1","1"
"250004","img/neutralC/CFD-AM-220-134-N.jpg","img/neutralC/CFD-WF-030-002-N.jpg","img/neutralC/CFD-AF-253-130-N.jpg","1","0","1","0","0","1","0.478648899996188","0.262872499995865","0.321968700038269","1","1","1","1","1","1","1","1","1"
"250004","img/neutralC/CFD-AF-253-130-N.jpg","img/neutralC/CFD-AM-220-134-N.jpg","img/neutralC/CFD-LF-255-088-N.jpg","1","1","1","1","0","0","0.321968700038269","0.478648899996188","0.420433399965987","1","1","1","1","1","1","1","1","1"
"250004","img/neutralC/CFD-LF-255-088-N.jpg","img/neutralC/CFD-AF-253-130-N.jpg","img/neutralC/CFD-BM-217-082-N.jpg","1","1","1","0","1","0","0.420433399965987","0.321968700038269","0.29942709999159","1","1","1","1","1","1","1","1","1"
"250004","img/neutralC/CFD-BM-217-082-N.jpg","img/neutralC/CFD-LF-255-088-N.jpg","img/neutralC/CFD-IF-660-464-N.jpg","1","1","1","0","0","0","0.29942709999159","0.420433399965987","0.354402000026312","1","1","1","1","1","1","1","1","1"
"250004","img/neutralC/CFD-IF-660-464-N.jpg","img/neutralC/CFD-BM-217-082-N.jpg","img/neutralC/CFD-WF-007-001-N.jpg","1","1","1","0","0","1","0.354402000026312","0.29942709999159","0.452619799994864","1","1","1","1","1","1","1","1","1"
"250004","img/neutralC/CFD-WF-007-001-N.jpg","img/neutralC/CFD-IF-660-464-N.jpg","img/neutralC/CFD-MF-305-014-N.jpg","1","1","1","1","0","1","0.452619799994864","0.354402000026312","0.433862800011411","1","1","1","1","1","1","1","1","1"
"250004","img/neutralC/CFD-MF-305-014-N.jpg","img/neutralC/CFD-WF-007-001-N.jpg","img/neutralC/CFD-IM-667-369-N.jpg","1","1","1","1","1","0","0.433862800011411","0.452619799994864","0.410530400054995","1","1","1","1","1","1","1","1","1"
"250004","img/neutralC/CFD-IM-667-369-N.jpg","img/neutralC/CFD-MF-305-014-N.jpg","img/neutralC/CFD-AF-233-190-N.jpg","1","1","1","0","1","0","0.410530400054995","0.433862800011411","0.373283799970523","1","1","1","1","1","1","1","1","1"
"250004","img/neutralC/CFD-AF-233-190-N.jpg","img/neutralC/CFD-IM-667-369-N.jpg","img/neutralC/CFD-LM-225-130-N.jpg","1","1","1","0","0","0","0.373283799970523","0.410530400054995","0.40762640000321","1","1","1","1","1","1","1","1","1"
"250004","img/neutralC/CFD-LM-225-130-N.jpg","img/neutralC/CFD-AF-233-190-N.jpg","img/neutralC/CFD-MF-303-013-N.jpg","1","1","1","0","0","0","0.40762640000321","0.373283799970523","0.395639900001697","1","1","1","1","1","1","1","1","1"
"250004","img/neutralC/CFD-MF-303-013-N.jpg","img/neutralC/CFD-LM-225-130-N.jpg","img/neutralC/CFD-IF-626-375-N.jpg","1","1","1","0","0","0","0.395639900001697","0.40762640000321","0.384549000009429","1","1","1","1","1","1","1","1","1"
"250004","img/neutralC/CFD-IF-626-375-N.jpg","img/neutralC/CFD-MF-303-013-N.jpg","img/neutralC/CFD-BM-250-170-N.jpg","1","1","0","0","0","1","0.384549000009429","0.395639900001697","0.218129199987743","1","1","1","1","1","1","1","1","1"
"250004","img/neutralC/CFD-BM-250-170-N.jpg","img/neutralC/CFD-IF-626-375-N.jpg","img/neutralC/CFD-MF-316-001-N.jpg","0","1","1","1","0","0","0.218129199987743","0.384549000009429","0.538681300007738","1","1","1","1","1","1","1","1","1"
"250004","img/neutralC/CFD-MF-316-001-N.jpg","img/neutralC/CFD-BM-250-170-N.jpg","img/neutralC/CFD-WM-209-038-N.jpg","1","0","1","0","1","0","0.538681300007738","0.218129199987743","0.40611350000836","1","1","1","1","1","1","1","1","1"
"250004","img/neutralC/CFD-WM-209-038-N.jpg","img/neutralC/CFD-MF-316-001-N.jpg","img/neutralC/CFD-IM-706-002-N.jpg","1","1","1","0","0","0","0.40611350000836","0.538681300007738","0.357164300046861","1","1","1","1","1","1","1","1","1"
"250004","img/neutralC/CFD-IM-706-002-N.jpg","img/neutralC/CFD-WM-209-038-N.jpg","img/neutralC/CFD-BF-237-172-N.jpg","1","1","1","0","0","1","0.357164300046861","0.40611350000836","0.405614999996033","1","1","1","1","1","1","1","1","1"
"250004","img/neutralC/CFD-BF-237-172-N.jpg","img/neutralC/CFD-IM-706-002-N.jpg","img/neutralC/CFD-WF-222-092-N.jpg","1","1","1","1","0","1","0.405614999996033","0.357164300046861","0.432135300012305","1","1","1","1","1","1","1","1","1"
"250004","img/neutralC/CFD-WF-222-092-N.jpg","img/neutralC/CFD-BF-237-172-N.jpg","img/neutralC/CFD-MF-357-002-N.jpg","1","1","1","1","1","0","0.432135300012305","0.405614999996033","0.400488900020719","1","1","1","1","1","1","1","1","1"
"250004","img/neutralC/CFD-MF-357-002-N.jpg","img/neutralC/CFD-WF-222-092-N.jpg","img/neutralC/CFD-MM-324-069-N.jpg","1","1","1","0","1","1","0.400488900020719","0.432135300012305","0.37778719997732","1","1","1","1","1","1","1","1","1"
"250004","img/neutralC/CFD-MM-324-069-N.jpg","img/neutralC/CFD-MF-357-002-N.jpg","img/neutralC/CFD-BM-001-014-N.jpg","1","1","1","1","0","0","0.37778719997732","0.400488900020719","0.38234139996348","1","1","1","1","1","1","1","1","1"
"250004","img/neutralC/CFD-BM-001-014-N.jpg","img/neutralC/CFD-MM-324-069-N.jpg","img/neutralC/CFD-LM-200-045-N.jpg","1","1","1","0","1","1","0.38234139996348","0.37778719997732","0.371225800015964","1","1","1","1","1","1","1","1","1"
"250004","img/neutralC/CFD-LM-200-045-N.jpg","img/neutralC/CFD-BM-001-014-N.jpg","img/neutralC/CFD-WM-218-074-N.jpg","1","1","1","1","0","1","0.371225800015964","0.38234139996348","0.378305899968836","1","1","1","1","1","1","1","1","1"
"250004","img/neutralC/CFD-WM-218-074-N.jpg","img/neutralC/CFD-LM-200-045-N.jpg","img/neutralC/CFD-WF-244-163-N.jpg","1","1","1","1","1","1","0.378305899968836","0.371225800015964","0.308055599976797","1","1","1","1","1","1","1","1","1"
"250004","img/neutralC/CFD-WF-244-163-N.jpg","img/neutralC/CFD-WM-218-074-N.jpg","img/neutralC/CFD-MF-343-001-N.jpg","1","1","0","1","1","1","0.308055599976797","0.378305899968836","0.352135599998292","1","1","1","1","1","1","1","1","1"
"250004","img/neutralC/CFD-MF-343-001-N.jpg","img/neutralC/CFD-WF-244-163-N.jpg","img/neutralC/CFD-IM-680-369-N.jpg","0","1","1","1","1","1","0.352135599998292","0.308055599976797","0.356489700032398","1","1","1","1","1","1","1","1","1"
"250004","img/neutralC/CFD-IM-680-369-N.jpg","img/neutralC/CFD-MF-343-001-N.jpg",NA,"1","0",NA,"1","1",NA,"0.356489700032398","0.352135599998292",NA,"1","1",NA,"1","1",NA,"1","1",NA
"250004","img/neutralC/CFD-AF-254-167-N.jpg",NA,"img/neutralC/CFD-IM-675-015-N.jpg","1",NA,"1","1",NA,"1","0.587916099990252",NA,"0.414319399977103","1",NA,"1","1",NA,"1","1",NA,"1"
"250004","img/neutralC/CFD-IM-675-015-N.jpg","img/neutralC/CFD-AF-254-167-N.jpg","img/neutralC/CFD-WF-212-050-N.jpg","1","1","1","1","1","0","0.414319399977103","0.587916099990252","0.430214699998032","1","1","1","1","1","1","1","1","1"
"250004","img/neutralC/CFD-WF-212-050-N.jpg","img/neutralC/CFD-IM-675-015-N.jpg","img/neutralC/CFD-AM-236-090-N.jpg","1","1","1","0","1","1","0.430214699998032","0.414319399977103","0.389577099995222","1","1","1","1","1","1","1","1","1"
"250004","img/neutralC/CFD-AM-236-090-N.jpg","img/neutralC/CFD-WF-212-050-N.jpg","img/neutralC/CFD-LM-217-162-N.jpg","1","1","1","1","0","0","0.389577099995222","0.430214699998032","0.284842399996705","1","1","1","1","1","1","1","1","1"
"250004","img/neutralC/CFD-LM-217-162-N.jpg","img/neutralC/CFD-AM-236-090-N.jpg","img/neutralC/CFD-IM-685-004-N.jpg","1","1","1","0","1","1","0.284842399996705","0.389577099995222","0.381996000010986","1","1","1","1","1","1","1","1","1"
"250004","img/neutralC/CFD-IM-685-004-N.jpg","img/neutralC/CFD-LM-217-162-N.jpg","img/neutralC/CFD-WF-008-002-N.jpg","1","1","1","1","0","1","0.381996000010986","0.284842399996705","0.37275729997782","1","1","1","1","1","1","1","1","1"
"250004","img/neutralC/CFD-WF-008-002-N.jpg","img/neutralC/CFD-IM-685-004-N.jpg","img/neutralC/CFD-MF-340-026-N.jpg","1","1","1","1","1","1","0.37275729997782","0.381996000010986","0.355011600011494","1","1","1","1","1","1","1","1","1"
"250004","img/neutralC/CFD-MF-340-026-N.jpg","img/neutralC/CFD-WF-008-002-N.jpg","img/neutralC/CFD-LF-226-174-N.jpg","1","1","1","1","1","0","0.355011600011494","0.37275729997782","0.38865540002007","1","1","1","1","1","1","1","1","1"
"250004","img/neutralC/CFD-LF-226-174-N.jpg","img/neutralC/CFD-MF-340-026-N.jpg","img/neutralC/CFD-WF-248-129-N.jpg","1","1","0","0","1","0","0.38865540002007","0.355011600011494","0.206521200016141","1","1","1","1","1","1","1","1","1"
"250004","img/neutralC/CFD-WF-248-129-N.jpg","img/neutralC/CFD-LF-226-174-N.jpg","img/neutralC/CFD-WF-217-085-N.jpg","0","1","1","0","0","1","0.206521200016141","0.38865540002007","0.248163099982776","1","1","1","1","1","1","1","1","1"
"250004","img/neutralC/CFD-WF-217-085-N.jpg","img/neutralC/CFD-WF-248-129-N.jpg","img/neutralC/CFD-BM-039-029-N.jpg","1","0","1","1","0","1","0.248163099982776","0.206521200016141","0.414533499977551","1","1","1","1","1","1","1","1","1"
"250004","img/neutralC/CFD-BM-039-029-N.jpg","img/neutralC/CFD-WF-217-085-N.jpg","img/neutralC/CFD-IF-608-390-N.jpg","1","1","1","1","1","1","0.414533499977551","0.248163099982776","0.329143599956296","1","1","1","1","1","1","1","1","1"
"250004","img/neutralC/CFD-IF-608-390-N.jpg","img/neutralC/CFD-BM-039-029-N.jpg","img/neutralC/CFD-BM-243-218-N.jpg","1","1","1","1","1","1","0.329143599956296","0.414533499977551","0.369532499986235","1","1","1","1","1","1","1","1","1"
"250004","img/neutralC/CFD-BM-243-218-N.jpg","img/neutralC/CFD-IF-608-390-N.jpg","img/neutralC/CFD-WM-213-076-N.jpg","1","1","1","1","1","1","0.369532499986235","0.329143599956296","0.400716200005263","1","1","1","1","1","1","1","1","1"
"250004","img/neutralC/CFD-WM-213-076-N.jpg","img/neutralC/CFD-BM-243-218-N.jpg","img/neutralC/CFD-IM-709-103-N.jpg","1","1","1","1","1","0","0.400716200005263","0.369532499986235","0.435245100001339","1","1","1","1","1","1","1","1","1"
"250004","img/neutralC/CFD-IM-709-103-N.jpg","img/neutralC/CFD-WM-213-076-N.jpg","img/neutralC/CFD-MM-304-002-N.jpg","1","1","1","0","1","1","0.435245100001339","0.400716200005263","0.381059900042601","1","1","1","1","1","1","1","1","1"
"250004","img/neutralC/CFD-MM-304-002-N.jpg","img/neutralC/CFD-IM-709-103-N.jpg","img/neutralC/CFD-MF-327-002-N.jpg","1","1","1","1","0","0","0.381059900042601","0.435245100001339","0.39085269998759","1","1","1","1","1","1","1","1","1"
"250004","img/neutralC/CFD-MF-327-002-N.jpg","img/neutralC/CFD-MM-304-002-N.jpg","img/neutralC/CFD-BF-043-003-N.jpg","1","1","1","0","1","0","0.39085269998759","0.381059900042601","0.388761200010777","1","1","1","1","1","1","1","1","1"
"250004","img/neutralC/CFD-BF-043-003-N.jpg","img/neutralC/CFD-MF-327-002-N.jpg","img/neutralC/CFD-AF-215-70-N.jpg","1","1","1","0","0","0","0.388761200010777","0.39085269998759","0.356082099955529","1","1","1","1","1","1","1","1","1"
"250004","img/neutralC/CFD-AF-215-70-N.jpg","img/neutralC/CFD-BF-043-003-N.jpg","img/neutralC/CFD-BF-051-035-N.jpg","1","1","1","0","0","0","0.356082099955529","0.388761200010777","0.392848899995442","1","1","1","1","1","1","1","1","1"
"250004","img/neutralC/CFD-BF-051-035-N.jpg","img/neutralC/CFD-AF-215-70-N.jpg","img/neutralC/CFD-IM-637-007-N.jpg","1","1","1","0","0","0","0.392848899995442","0.356082099955529","0.303650200017728","1","1","1","1","1","1","1","1","1"
"250004","img/neutralC/CFD-IM-637-007-N.jpg","img/neutralC/CFD-BF-051-035-N.jpg","img/neutralC/CFD-WF-012-002-N.jpg","1","1","1","0","0","1","0.303650200017728","0.392848899995442","0.329212399956305","1","1","1","1","1","1","1","1","1"
"250004","img/neutralC/CFD-WF-012-002-N.jpg","img/neutralC/CFD-IM-637-007-N.jpg","img/neutralC/CFD-LF-201-035-N.jpg","1","1","1","1","0","1","0.329212399956305","0.303650200017728","0.377553600003012","1","1","1","1","1","1","1","1","1"
"250004","img/neutralC/CFD-LF-201-035-N.jpg","img/neutralC/CFD-WF-012-002-N.jpg","img/neutralC/CFD-MF-329-001-N.jpg","1","1","1","1","1","0","0.377553600003012","0.329212399956305","0.368486099992879","1","1","1","1","1","1","1","1","1"
"250004","img/neutralC/CFD-MF-329-001-N.jpg","img/neutralC/CFD-LF-201-035-N.jpg","img/neutralC/CFD-WM-024-015-N.jpg","1","1","1","0","1","1","0.368486099992879","0.377553600003012","0.33347870002035","1","1","1","1","1","1","1","1","1"
"250004","img/neutralC/CFD-WM-024-015-N.jpg","img/neutralC/CFD-MF-329-001-N.jpg","img/neutralC/CFD-WM-232-070-N.jpg","1","1","1","1","0","0","0.33347870002035","0.368486099992879","0.406005900003947","1","1","1","1","1","1","1","1","1"
"250004","img/neutralC/CFD-WM-232-070-N.jpg","img/neutralC/CFD-WM-024-015-N.jpg","img/neutralC/CFD-AF-229-160-N.jpg","1","1","1","0","1","0","0.406005900003947","0.33347870002035","0.406089099997189","1","1","1","1","1","1","1","1","1"
"250004","img/neutralC/CFD-AF-229-160-N.jpg","img/neutralC/CFD-WM-232-070-N.jpg","img/neutralC/CFD-IM-604-014-N.jpg","1","1","1","0","0","0","0.406089099997189","0.406005900003947","0.409583400003612","1","1","1","1","1","1","1","1","1"
"250004","img/neutralC/CFD-IM-604-014-N.jpg","img/neutralC/CFD-AF-229-160-N.jpg","img/neutralC/CFD-IF-619-197-N.jpg","1","1","1","0","0","0","0.409583400003612","0.406089099997189","0.391274699999485","1","1","1","1","1","1","1","1","1"
"250004","img/neutralC/CFD-IF-619-197-N.jpg","img/neutralC/CFD-IM-604-014-N.jpg","img/neutralC/CFD-MF-300-002-N.jpg","1","1","1","0","0","0","0.391274699999485","0.409583400003612","0.414258899982087","1","1","1","1","1","1","1","1","1"
"250004","img/neutralC/CFD-MF-300-002-N.jpg","img/neutralC/CFD-IF-619-197-N.jpg","img/neutralC/CFD-BF-224-002-N.jpg","1","1","0","0","0","1","0.414258899982087","0.391274699999485","0.297678599948995","1","1","1","1","1","1","1","1","1"
"250004","img/neutralC/CFD-BF-224-002-N.jpg","img/neutralC/CFD-MF-300-002-N.jpg",NA,"0","1",NA,"1","0",NA,"0.297678599948995","0.414258899982087",NA,"1","1",NA,"1","1",NA,"1","1",NA
"250004","img/neutralC/CFD-WF-243-148-N.jpg",NA,"img/neutralC/CFD-AM-205-153-N.jpg","1",NA,"1","0",NA,"1","0.536595900019165",NA,"0.515828799980227","1",NA,"1","1",NA,"1","1",NA,"1"
"250004","img/neutralC/CFD-AM-205-153-N.jpg","img/neutralC/CFD-WF-243-148-N.jpg","img/neutralC/CFD-LF-212-066-N.jpg","1","1","1","1","0","1","0.515828799980227","0.536595900019165","0.379818800021894","1","1","1","1","1","1","1","1","1"
"250004","img/neutralC/CFD-LF-212-066-N.jpg","img/neutralC/CFD-AM-205-153-N.jpg","img/neutralC/CFD-IM-606-008-N.jpg","1","1","1","1","1","0","0.379818800021894","0.515828799980227","0.3698753999779","1","1","1","1","1","1","1","1","1"
"250004","img/neutralC/CFD-IM-606-008-N.jpg","img/neutralC/CFD-LF-212-066-N.jpg","img/neutralC/CFD-BF-012-001-N.jpg","1","1","1","0","1","0","0.3698753999779","0.379818800021894","0.359721900022123","1","1","1","1","1","1","1","1","1"
"250004","img/neutralC/CFD-BF-012-001-N.jpg","img/neutralC/CFD-IM-606-008-N.jpg","img/neutralC/CFD-BM-020-001-N.jpg","1","1","1","0","0","0","0.359721900022123","0.3698753999779","0.406959900050424","1","1","1","1","1","1","1","1","1"
"250004","img/neutralC/CFD-BM-020-001-N.jpg","img/neutralC/CFD-BF-012-001-N.jpg","img/neutralC/CFD-BF-244-231-N.jpg","1","1","1","0","0","1","0.406959900050424","0.359721900022123","0.442449799971655","1","1","1","1","1","1","1","1","1"
"250004","img/neutralC/CFD-BF-244-231-N.jpg","img/neutralC/CFD-BM-020-001-N.jpg","img/neutralC/CFD-MM-306-010-N.jpg","1","1","1","1","0","0","0.442449799971655","0.406959900050424","0.371125000005122","1","1","1","1","1","1","1","1","1"
"250004","img/neutralC/CFD-MM-306-010-N.jpg","img/neutralC/CFD-BF-244-231-N.jpg","img/neutralC/CFD-BM-009-002-N.jpg","1","1","1","0","1","1","0.371125000005122","0.442449799971655","0.407310800044797","1","1","1","1","1","1","1","1","1"
"250004","img/neutralC/CFD-BM-009-002-N.jpg","img/neutralC/CFD-MM-306-010-N.jpg","img/neutralC/CFD-WF-221-005-N.jpg","1","1","1","1","0","0","0.407310800044797","0.371125000005122","0.524023799982388","1","1","1","1","1","1","1","1","1"
"250004","img/neutralC/CFD-WF-221-005-N.jpg","img/neutralC/CFD-BM-009-002-N.jpg","img/neutralC/CFD-LM-240-013-N.jpg","1","1","1","0","1","1","0.524023799982388","0.407310800044797","0.435229800001252","1","1","1","1","1","1","1","1","1"
"250004","img/neutralC/CFD-LM-240-013-N.jpg","img/neutralC/CFD-WF-221-005-N.jpg","img/neutralC/CFD-BM-021-021-N.jpg","1","1","1","1","0","1","0.435229800001252","0.524023799982388","0.38266190001741","1","1","1","1","1","1","1","1","1"
"250004","img/neutralC/CFD-BM-021-021-N.jpg","img/neutralC/CFD-LM-240-013-N.jpg","img/neutralC/CFD-LF-222-147-N.jpg","1","1","1","1","1","0","0.38266190001741","0.435229800001252","0.39438459998928","1","1","1","1","1","1","1","1","1"
"250004","img/neutralC/CFD-LF-222-147-N.jpg","img/neutralC/CFD-BM-021-021-N.jpg","img/neutralC/CFD-MF-328-020-N.jpg","1","1","1","0","1","0","0.39438459998928","0.38266190001741","0.38930059998529","1","1","1","1","1","1","1","1","1"
"250004","img/neutralC/CFD-MF-328-020-N.jpg","img/neutralC/CFD-LF-222-147-N.jpg","img/neutralC/CFD-AM-243-212-N.jpg","1","1","1","0","0","1","0.38930059998529","0.39438459998928","0.523738600022625","1","1","1","1","1","1","1","1","1"
"250004","img/neutralC/CFD-AM-243-212-N.jpg","img/neutralC/CFD-MF-328-020-N.jpg","img/neutralC/CFD-AF-237-223-N.jpg","1","1","1","1","0","0","0.523738600022625","0.38930059998529","0.429742600012105","1","1","1","1","1","1","1","1","1"
"250004","img/neutralC/CFD-AF-237-223-N.jpg","img/neutralC/CFD-AM-243-212-N.jpg","img/neutralC/CFD-IF-676-017-N.jpg","1","1","1","0","1","1","0.429742600012105","0.523738600022625","0.355846200021915","1","1","1","1","1","1","1","1","1"
"250004","img/neutralC/CFD-IF-676-017-N.jpg","img/neutralC/CFD-AF-237-223-N.jpg","img/neutralC/CFD-BM-030-003-N.jpg","1","1","1","1","0","0","0.355846200021915","0.429742600012105","0.389637599990238","1","1","1","1","1","1","1","1","1"
"250004","img/neutralC/CFD-BM-030-003-N.jpg","img/neutralC/CFD-IF-676-017-N.jpg","img/neutralC/CFD-IM-615-167-N.jpg","1","1","1","0","1","0","0.389637599990238","0.355846200021915","0.433674500032794","1","1","1","1","1","1","1","1","1"
"250004","img/neutralC/CFD-IM-615-167-N.jpg","img/neutralC/CFD-BM-030-003-N.jpg","img/neutralC/CFD-LF-238-154-N.jpg","1","1","1","0","0","1","0.433674500032794","0.389637599990238","0.410035499953665","1","1","1","1","1","1","1","1","1"
"250004","img/neutralC/CFD-LF-238-154-N.jpg","img/neutralC/CFD-IM-615-167-N.jpg","img/neutralC/CFD-BM-227-191-N.jpg","1","1","1","1","0","1","0.410035499953665","0.433674500032794","0.413568899966776","1","1","1","1","1","1","1","1","1"
"250004","img/neutralC/CFD-BM-227-191-N.jpg","img/neutralC/CFD-LF-238-154-N.jpg","img/neutralC/CFD-IM-689-263-N.jpg","1","1","1","1","1","1","0.413568899966776","0.410035499953665","0.33788279996952","1","1","1","1","1","1","1","1","1"
"250004","img/neutralC/CFD-IM-689-263-N.jpg","img/neutralC/CFD-BM-227-191-N.jpg","img/neutralC/CFD-WF-009-001-N.jpg","1","1","1","1","1","1","0.33788279996952","0.413568899966776","0.348452400008682","1","1","1","1","1","1","1","1","1"
"250004","img/neutralC/CFD-WF-009-001-N.jpg","img/neutralC/CFD-IM-689-263-N.jpg","img/neutralC/CFD-AM-249-163-N.jpg","1","1","1","1","1","1","0.348452400008682","0.33788279996952","0.299411499989219","1","1","1","1","1","1","1","1","1"
"250004","img/neutralC/CFD-AM-249-163-N.jpg","img/neutralC/CFD-WF-009-001-N.jpg","img/neutralC/CFD-WM-028-003-N.jpg","1","1","1","1","1","1","0.299411499989219","0.348452400008682","0.321773600007873","1","1","1","1","1","1","1","1","1"
"250004","img/neutralC/CFD-WM-028-003-N.jpg","img/neutralC/CFD-AM-249-163-N.jpg","img/neutralC/CFD-AM-219-101-N.jpg","1","1","1","1","1","0","0.321773600007873","0.299411499989219","0.416271800000686","1","1","1","1","1","1","1","1","1"
"250004","img/neutralC/CFD-AM-219-101-N.jpg","img/neutralC/CFD-WM-028-003-N.jpg","img/neutralC/CFD-BM-043-071-N.jpg","1","1","1","0","1","0","0.416271800000686","0.321773600007873","0.381391200004146","1","1","1","1","1","1","1","1","1"
"250004","img/neutralC/CFD-BM-043-071-N.jpg","img/neutralC/CFD-AM-219-101-N.jpg","img/neutralC/CFD-WF-207-014-N.jpg","1","1","1","0","0","1","0.381391200004146","0.416271800000686","0.504859199980274","1","1","1","1","1","1","1","1","1"
"250004","img/neutralC/CFD-WF-207-014-N.jpg","img/neutralC/CFD-BM-043-071-N.jpg","img/neutralC/CFD-WF-241-210-N.jpg","1","1","1","1","0","0","0.504859199980274","0.381391200004146","0.436494999972638","1","1","1","1","1","1","1","1","1"
"250004","img/neutralC/CFD-WF-241-210-N.jpg","img/neutralC/CFD-WF-207-014-N.jpg","img/neutralC/CFD-IM-697-015-N.jpg","1","1","1","0","1","1","0.436494999972638","0.504859199980274","0.326412700000219","1","1","1","1","1","1","1","1","1"
"250004","img/neutralC/CFD-IM-697-015-N.jpg","img/neutralC/CFD-WF-241-210-N.jpg","img/neutralC/CFD-WM-023-001-N.jpg","1","1","1","1","0","0","0.326412700000219","0.436494999972638","0.333586000022478","1","1","1","1","1","1","1","1","1"
"250004","img/neutralC/CFD-WM-023-001-N.jpg","img/neutralC/CFD-IM-697-015-N.jpg","img/neutralC/CFD-WM-025-002-N.jpg","1","1","1","0","1","0","0.333586000022478","0.326412700000219","0.417959799990058","1","1","1","1","1","1","1","1","1"
"250004","img/neutralC/CFD-WM-025-002-N.jpg","img/neutralC/CFD-WM-023-001-N.jpg",NA,"1","1",NA,"0","0",NA,"0.417959799990058","0.333586000022478",NA,"1","1",NA,"1","1",NA,"1","1",NA
"250004","img/neutralC/CFD-WF-208-068-N.jpg",NA,"img/neutralC/CFD-BF-006-017-N.jpg","1",NA,"1","1",NA,"0","0.358461800031364",NA,"0.333085899997968","1",NA,"1","1",NA,"1","1",NA,"1"
"250004","img/neutralC/CFD-BF-006-017-N.jpg","img/neutralC/CFD-WF-208-068-N.jpg","img/neutralC/CFD-WM-034-030-N.jpg","1","1","0","0","1","1","0.333085899997968","0.358461800031364","0.270318399998359","1","1","1","1","1","1","1","1","1"
"250004","img/neutralC/CFD-WM-034-030-N.jpg","img/neutralC/CFD-BF-006-017-N.jpg","img/neutralC/CFD-IM-707-105-N.jpg","0","1","1","1","0","1","0.270318399998359","0.333085899997968","0.388560599996708","1","1","1","1","1","1","1","1","1"
"250004","img/neutralC/CFD-IM-707-105-N.jpg","img/neutralC/CFD-WM-034-030-N.jpg","img/neutralC/CFD-BM-241-235-N.jpg","1","0","0","1","1","0","0.388560599996708","0.270318399998359","0.375838200037833","1","1","1","1","1","1","1","1","1"
"250004","img/neutralC/CFD-BM-241-235-N.jpg","img/neutralC/CFD-IM-707-105-N.jpg","img/neutralC/CFD-BF-236-177-N.jpg","0","1","1","0","1","0","0.375838200037833","0.388560599996708","0.736174300021958","1","1","1","1","1","1","1","1","1"
"250004","img/neutralC/CFD-BF-236-177-N.jpg","img/neutralC/CFD-BM-241-235-N.jpg","img/neutralC/CFD-IM-726-248-N.jpg","1","0","1","0","0","0","0.736174300021958","0.375838200037833","0.611204799963161","1","1","1","1","1","1","1","1","1"
"250004","img/neutralC/CFD-IM-726-248-N.jpg","img/neutralC/CFD-BF-236-177-N.jpg","img/neutralC/CFD-IF-729-393-N.jpg","1","1","0","0","0","0","0.611204799963161","0.736174300021958","0.387889300007373","1","1","1","1","1","1","1","1","1"
"250004","img/neutralC/CFD-IF-729-393-N.jpg","img/neutralC/CFD-IM-726-248-N.jpg","img/neutralC/CFD-IM-696-001-N.jpg","0","1","1","0","0","0","0.387889300007373","0.611204799963161","0.409605599998031","1","1","1","1","1","1","1","1","1"
"250004","img/neutralC/CFD-IM-696-001-N.jpg","img/neutralC/CFD-IF-729-393-N.jpg","img/neutralC/CFD-WM-014-002-N.jpg","1","0","1","0","0","0","0.409605599998031","0.387889300007373","0.428443900018465","1","1","1","1","1","1","1","1","1"
"250004","img/neutralC/CFD-WM-014-002-N.jpg","img/neutralC/CFD-IM-696-001-N.jpg","img/neutralC/CFD-LF-204-133-N.jpg","1","1","1","0","0","1","0.428443900018465","0.409605599998031","0.424559300008696","1","1","1","1","1","1","1","1","1"
"250004","img/neutralC/CFD-LF-204-133-N.jpg","img/neutralC/CFD-WM-014-002-N.jpg","img/neutralC/CFD-BF-002-001-N.jpg","1","1","1","1","0","0","0.424559300008696","0.428443900018465","0.391273400047794","1","1","1","1","1","1","1","1","1"
"250004","img/neutralC/CFD-BF-002-001-N.jpg","img/neutralC/CFD-LF-204-133-N.jpg","img/neutralC/CFD-MF-301-024-N.jpg","1","1","1","0","1","0","0.391273400047794","0.424559300008696","0.470072800002526","1","1","1","1","1","1","1","1","1"
"250004","img/neutralC/CFD-MF-301-024-N.jpg","img/neutralC/CFD-BF-002-001-N.jpg","img/neutralC/CFD-BF-214-308-N.jpg","1","1","1","0","0","1","0.470072800002526","0.391273400047794","0.333653600013349","1","1","1","1","1","1","1","1","1"
"250004","img/neutralC/CFD-BF-214-308-N.jpg","img/neutralC/CFD-MF-301-024-N.jpg","img/neutralC/CFD-BF-036-027-N.jpg","1","1","1","1","0","0","0.333653600013349","0.470072800002526","0.443947300023865","1","1","1","1","1","1","1","1","1"
"250004","img/neutralC/CFD-BF-036-027-N.jpg","img/neutralC/CFD-BF-214-308-N.jpg","img/neutralC/CFD-BF-207-004-N.jpg","1","1","1","0","1","1","0.443947300023865","0.333653600013349","0.49096239998471","1","1","1","1","1","1","1","1","1"
"250004","img/neutralC/CFD-BF-207-004-N.jpg","img/neutralC/CFD-BF-036-027-N.jpg","img/neutralC/CFD-WM-248-036-N.jpg","1","1","1","1","0","1","0.49096239998471","0.443947300023865","0.399558100034483","1","1","1","1","1","1","1","1","1"
"250004","img/neutralC/CFD-WM-248-036-N.jpg","img/neutralC/CFD-BF-207-004-N.jpg","img/neutralC/CFD-IM-721-341-N.jpg","1","1","1","1","1","1","0.399558100034483","0.49096239998471","0.496627399988938","1","1","1","1","1","1","1","1","1"
"250004","img/neutralC/CFD-IM-721-341-N.jpg","img/neutralC/CFD-WM-248-036-N.jpg","img/neutralC/CFD-BM-207-024-N.jpg","1","1","1","1","1","1","0.496627399988938","0.399558100034483","0.324892900011037","1","1","1","1","1","1","1","1","1"
"250004","img/neutralC/CFD-BM-207-024-N.jpg","img/neutralC/CFD-IM-721-341-N.jpg","img/neutralC/CFD-IF-742-103-N.jpg","1","1","1","1","1","1","0.324892900011037","0.496627399988938","0.443276599980891","1","1","1","1","1","1","1","1","1"
"250004","img/neutralC/CFD-IF-742-103-N.jpg","img/neutralC/CFD-BM-207-024-N.jpg","img/neutralC/CFD-WF-029-002-N.jpg","1","1","1","1","1","0","0.443276599980891","0.324892900011037","0.381536700006109","1","1","1","1","1","1","1","1","1"
"250004","img/neutralC/CFD-WF-029-002-N.jpg","img/neutralC/CFD-IF-742-103-N.jpg","img/neutralC/CFD-BF-247-179-N.jpg","1","1","1","0","1","0","0.381536700006109","0.443276599980891","0.403021799982525","1","1","1","1","1","1","1","1","1"
"250004","img/neutralC/CFD-BF-247-179-N.jpg","img/neutralC/CFD-WF-029-002-N.jpg","img/neutralC/CFD-LM-213-061-N.jpg","1","1","1","0","0","0","0.403021799982525","0.381536700006109","0.372533499961719","1","1","1","1","1","1","1","1","1"
"250004","img/neutralC/CFD-LM-213-061-N.jpg","img/neutralC/CFD-BF-247-179-N.jpg","img/neutralC/CFD-IF-677-452-1-N.jpg","1","1","1","0","0","1","0.372533499961719","0.403021799982525","0.41488479997497","1","1","1","1","1","1","1","1","1"
"250004","img/neutralC/CFD-IF-677-452-1-N.jpg","img/neutralC/CFD-LM-213-061-N.jpg","img/neutralC/CFD-WF-233-112-N.jpg","1","1","1","1","0","1","0.41488479997497","0.372533499961719","0.290997700009029","1","1","1","1","1","1","1","1","1"
"250004","img/neutralC/CFD-WF-233-112-N.jpg","img/neutralC/CFD-IF-677-452-1-N.jpg","img/neutralC/CFD-BM-238-242-N.jpg","1","1","1","1","1","0","0.290997700009029","0.41488479997497","0.408805000013672","1","1","1","1","1","1","1","1","1"
"250004","img/neutralC/CFD-BM-238-242-N.jpg","img/neutralC/CFD-WF-233-112-N.jpg","img/neutralC/CFD-WF-234-086-N.jpg","1","1","0","0","1","1","0.408805000013672","0.290997700009029","0.317800700024236","1","1","1","1","1","1","1","1","1"
"250004","img/neutralC/CFD-WF-234-086-N.jpg","img/neutralC/CFD-BM-238-242-N.jpg","img/neutralC/CFD-BF-011-002-N.jpg","0","1","1","1","0","1","0.317800700024236","0.408805000013672","0.396383599960245","1","1","1","1","1","1","1","1","1"
"250004","img/neutralC/CFD-BF-011-002-N.jpg","img/neutralC/CFD-WF-234-086-N.jpg","img/neutralC/CFD-BF-027-002-N.jpg","1","0","1","1","1","1","0.396383599960245","0.317800700024236","0.455702300008852","1","1","1","1","1","1","1","1","1"
"250004","img/neutralC/CFD-BF-027-002-N.jpg","img/neutralC/CFD-BF-011-002-N.jpg","img/neutralC/CFD-AM-230-150-N.jpg","1","1","1","1","1","0","0.455702300008852","0.396383599960245","0.338308300008066","1","1","1","1","1","1","1","1","1"
"250004","img/neutralC/CFD-AM-230-150-N.jpg","img/neutralC/CFD-BF-027-002-N.jpg","img/neutralC/CFD-BF-044-034-N.jpg","1","1","1","0","1","0","0.338308300008066","0.455702300008852","0.279978000035044","1","1","1","1","1","1","1","1","1"
"250004","img/neutralC/CFD-BF-044-034-N.jpg","img/neutralC/CFD-AM-230-150-N.jpg","img/neutralC/CFD-BM-036-003-N.jpg","1","1","1","0","0","1","0.279978000035044","0.338308300008066","0.385808799997903","1","1","1","1","1","1","1","1","1"
"250004","img/neutralC/CFD-BM-036-003-N.jpg","img/neutralC/CFD-BF-044-034-N.jpg",NA,"1","1",NA,"1","0",NA,"0.385808799997903","0.279978000035044",NA,"1","1",NA,"1","1",NA,"1","1",NA
"250004","img/neutralC/CFD-WF-027-003-N.jpg",NA,"img/neutralC/CFD-IM-700-009-N.jpg","1",NA,"1","1",NA,"1","0.951597900013439",NA,"0.281256099988241","1",NA,"1","1",NA,"1","1",NA,"1"
"250004","img/neutralC/CFD-IM-700-009-N.jpg","img/neutralC/CFD-WF-027-003-N.jpg","img/neutralC/CFD-IM-719-221-N.jpg","1","1","1","1","1","0","0.281256099988241","0.951597900013439","0.33976929995697","1","1","1","1","1","1","1","1","1"
"250004","img/neutralC/CFD-IM-719-221-N.jpg","img/neutralC/CFD-IM-700-009-N.jpg","img/neutralC/CFD-MF-318-022-N.jpg","1","1","1","0","1","1","0.33976929995697","0.281256099988241","0.386912899964955","1","1","1","1","1","1","1","1","1"
"250004","img/neutralC/CFD-MF-318-022-N.jpg","img/neutralC/CFD-IM-719-221-N.jpg","img/neutralC/CFD-MM-321-021-N.jpg","1","1","0","1","0","0","0.386912899964955","0.33976929995697","0.276150499994401","1","1","1","1","1","1","1","1","1"
"250004","img/neutralC/CFD-MM-321-021-N.jpg","img/neutralC/CFD-MF-318-022-N.jpg","img/neutralC/CFD-BF-254-201-N.jpg","0","1","1","0","1","0","0.276150499994401","0.386912899964955","0.421299099980388","1","1","1","1","1","1","1","1","1"
"250004","img/neutralC/CFD-BF-254-201-N.jpg","img/neutralC/CFD-MM-321-021-N.jpg","img/neutralC/CFD-BM-204-003-N.jpg","1","0","1","0","0","0","0.421299099980388","0.276150499994401","0.28265680000186","1","1","1","1","1","1","1","1","1"
"250004","img/neutralC/CFD-BM-204-003-N.jpg","img/neutralC/CFD-BF-254-201-N.jpg","img/neutralC/CFD-WM-255-219-N.jpg","1","1","1","0","0","0","0.28265680000186","0.421299099980388","0.31720900000073","1","1","1","1","1","1","1","1","1"
"250004","img/neutralC/CFD-WM-255-219-N.jpg","img/neutralC/CFD-BM-204-003-N.jpg","img/neutralC/CFD-WM-201-063-N.jpg","1","1","1","0","0","1","0.31720900000073","0.28265680000186","0.376509500027168","1","1","1","1","1","1","1","1","1"
"250004","img/neutralC/CFD-WM-201-063-N.jpg","img/neutralC/CFD-WM-255-219-N.jpg","img/neutralC/CFD-AF-221-147-N.jpg","1","1","1","1","0","0","0.376509500027168","0.31720900000073","0.384468399977777","1","1","1","1","1","1","1","1","1"
"250004","img/neutralC/CFD-AF-221-147-N.jpg","img/neutralC/CFD-WM-201-063-N.jpg","img/neutralC/CFD-WM-009-002-N.jpg","1","1","1","0","1","0","0.384468399977777","0.376509500027168","0.369203200039919","1","1","1","1","1","1","1","1","1"
"250004","img/neutralC/CFD-WM-009-002-N.jpg","img/neutralC/CFD-AF-221-147-N.jpg","img/neutralC/CFD-IM-627-178-N.jpg","1","1","1","0","0","1","0.369203200039919","0.384468399977777","0.394584799942095","1","1","1","1","1","1","1","1","1"
"250004","img/neutralC/CFD-IM-627-178-N.jpg","img/neutralC/CFD-WM-009-002-N.jpg","img/neutralC/CFD-WF-238-023-N.jpg","1","1","1","1","0","0","0.394584799942095","0.369203200039919","0.390434700006153","1","1","1","1","1","1","1","1","1"
"250004","img/neutralC/CFD-WF-238-023-N.jpg","img/neutralC/CFD-IM-627-178-N.jpg","img/neutralC/CFD-WF-245-084-N.jpg","1","1","1","0","1","1","0.390434700006153","0.394584799942095","0.368696100020315","1","1","1","1","1","1","1","1","1"
"250004","img/neutralC/CFD-WF-245-084-N.jpg","img/neutralC/CFD-WF-238-023-N.jpg","img/neutralC/CFD-AM-244-222-N.jpg","1","1","1","1","0","0","0.368696100020315","0.390434700006153","0.357152200012933","1","1","1","1","1","1","1","1","1"
"250004","img/neutralC/CFD-AM-244-222-N.jpg","img/neutralC/CFD-WF-245-084-N.jpg","img/neutralC/CFD-WF-023-003-N.jpg","1","1","1","0","1","1","0.357152200012933","0.368696100020315","0.46910809999099","1","1","1","1","1","1","1","1","1"
"250004","img/neutralC/CFD-WF-023-003-N.jpg","img/neutralC/CFD-AM-244-222-N.jpg","img/neutralC/CFD-LF-211-003-N.jpg","1","1","0","1","0","0","0.46910809999099","0.357152200012933","0.248081800004002","1","1","1","1","1","1","1","1","1"
"250004","img/neutralC/CFD-LF-211-003-N.jpg","img/neutralC/CFD-WF-023-003-N.jpg","img/neutralC/CFD-LF-215-157-N.jpg","0","1","1","0","1","0","0.248081800004002","0.46910809999099","0.382534300035331","1","1","1","1","1","1","1","1","1"
"250004","img/neutralC/CFD-LF-215-157-N.jpg","img/neutralC/CFD-LF-211-003-N.jpg","img/neutralC/CFD-MF-342-022-N.jpg","1","0","1","0","0","1","0.382534300035331","0.248081800004002","0.356392799993046","1","1","1","1","1","1","1","1","1"
"250004","img/neutralC/CFD-MF-342-022-N.jpg","img/neutralC/CFD-LF-215-157-N.jpg","img/neutralC/CFD-BM-023-029-N.jpg","1","1","1","1","0","1","0.356392799993046","0.382534300035331","0.342857900017407","1","1","1","1","1","1","1","1","1"
"250004","img/neutralC/CFD-BM-023-029-N.jpg","img/neutralC/CFD-MF-342-022-N.jpg","img/neutralC/CFD-AF-232-078-N.jpg","1","1","1","1","1","1","0.342857900017407","0.356392799993046","0.353590800019447","1","1","1","1","1","1","1","1","1"
"250004","img/neutralC/CFD-AF-232-078-N.jpg","img/neutralC/CFD-BM-023-029-N.jpg","img/neutralC/CFD-WF-018-017-N.jpg","1","1","0","1","1","1","0.353590800019447","0.342857900017407","0.258101400046144","1","1","1","1","1","1","1","1","1"
"250004","img/neutralC/CFD-WF-018-017-N.jpg","img/neutralC/CFD-AF-232-078-N.jpg","img/neutralC/CFD-WF-226-095-N.jpg","0","1","0","1","1","1","0.258101400046144","0.353590800019447","0.277571499987971","1","1","1","1","1","1","1","1","1"
"250004","img/neutralC/CFD-WF-226-095-N.jpg","img/neutralC/CFD-WF-018-017-N.jpg","img/neutralC/CFD-WM-013-001-N.jpg","0","0","1","1","1","1","0.277571499987971","0.258101400046144","0.347866399970371","1","1","1","1","1","1","1","1","1"
"250004","img/neutralC/CFD-WM-013-001-N.jpg","img/neutralC/CFD-WF-226-095-N.jpg","img/neutralC/CFD-BF-218-207-N.jpg","1","0","1","1","1","1","0.347866399970371","0.277571499987971","0.347686699999031","1","1","1","1","1","1","1","1","1"
"250004","img/neutralC/CFD-BF-218-207-N.jpg","img/neutralC/CFD-WM-013-001-N.jpg","img/neutralC/CFD-BM-200-046-N.jpg","1","1","1","1","1","0","0.347686699999031","0.347866399970371","0.400523499993142","1","1","1","1","1","1","1","1","1"
"250004","img/neutralC/CFD-BM-200-046-N.jpg","img/neutralC/CFD-BF-218-207-N.jpg","img/neutralC/CFD-BF-018-039-N.jpg","1","1","1","0","1","1","0.400523499993142","0.347686699999031","0.329330699983984","1","1","1","1","1","1","1","1","1"
"250004","img/neutralC/CFD-BF-018-039-N.jpg","img/neutralC/CFD-BM-200-046-N.jpg","img/neutralC/CFD-IF-629-234-N.jpg","1","1","0","1","0","0","0.329330699983984","0.400523499993142","0.214400900003966","1","1","1","1","1","1","1","1","1"
"250004","img/neutralC/CFD-IF-629-234-N.jpg","img/neutralC/CFD-BF-018-039-N.jpg","img/neutralC/CFD-WM-237-052-N.jpg","0","1","1","0","1","1","0.214400900003966","0.329330699983984","0.446105199982412","1","1","1","1","1","1","1","1","1"
"250004","img/neutralC/CFD-WM-237-052-N.jpg","img/neutralC/CFD-IF-629-234-N.jpg","img/neutralC/CFD-MF-321-003-N.jpg","1","0","1","1","0","0","0.446105199982412","0.214400900003966","0.40655610000249","1","1","1","1","1","1","1","1","1"
"250004","img/neutralC/CFD-MF-321-003-N.jpg","img/neutralC/CFD-WM-237-052-N.jpg","img/neutralC/CFD-WM-221-091-N.jpg","1","1","1","0","1","0","0.40655610000249","0.446105199982412","0.381106599990744","1","1","1","1","1","1","1","1","1"
"250004","img/neutralC/CFD-WM-221-091-N.jpg","img/neutralC/CFD-MF-321-003-N.jpg","img/neutralC/CFD-LM-253-075-N.jpg","1","1","1","0","0","0","0.381106599990744","0.40655610000249","0.319298600021284","1","1","1","1","1","1","1","1","1"
"250004","img/neutralC/CFD-LM-253-075-N.jpg","img/neutralC/CFD-WM-221-091-N.jpg",NA,"1","1",NA,"0","0",NA,"0.319298600021284","0.381106599990744",NA,"1","1",NA,"1","1",NA,"1","1",NA
"250004","img/neutralC/CFD-AF-202-122-N.jpg",NA,"img/neutralC/CFD-WM-258-125-N.jpg","1",NA,"0","1",NA,"0","0.400651499978267",NA,"0.30272390000755","1",NA,"1","1",NA,"1","1",NA,"1"
"250004","img/neutralC/CFD-WM-258-125-N.jpg","img/neutralC/CFD-AF-202-122-N.jpg","img/neutralC/CFD-LF-245-166-N.jpg","0","1","1","0","1","1","0.30272390000755","0.400651499978267","0.339593400014564","1","1","1","1","1","1","1","1","1"
"250004","img/neutralC/CFD-LF-245-166-N.jpg","img/neutralC/CFD-WM-258-125-N.jpg","img/neutralC/CFD-IM-638-250-1-N.jpg","1","0","1","1","0","1","0.339593400014564","0.30272390000755","0.357632600003853","1","1","1","1","1","1","1","1","1"
"250004","img/neutralC/CFD-IM-638-250-1-N.jpg","img/neutralC/CFD-LF-245-166-N.jpg","img/neutralC/CFD-IM-686-097-N.jpg","1","1","1","1","1","0","0.357632600003853","0.339593400014564","0.334790999942925","1","1","1","1","1","1","1","1","1"
"250004","img/neutralC/CFD-IM-686-097-N.jpg","img/neutralC/CFD-IM-638-250-1-N.jpg","img/neutralC/CFD-WM-242-011-N.jpg","1","1","1","0","1","0","0.334790999942925","0.357632600003853","0.290346599998884","1","1","1","1","1","1","1","1","1"
"250004","img/neutralC/CFD-WM-242-011-N.jpg","img/neutralC/CFD-IM-686-097-N.jpg","img/neutralC/CFD-BM-005-003-N.jpg","1","1","1","0","0","1","0.290346599998884","0.334790999942925","0.401577700045891","1","1","1","1","1","1","1","1","1"
"250004","img/neutralC/CFD-BM-005-003-N.jpg","img/neutralC/CFD-WM-242-011-N.jpg","img/neutralC/CFD-LM-219-295-N.jpg","1","1","1","1","0","1","0.401577700045891","0.290346599998884","0.290713499998674","1","1","1","1","1","1","1","1","1"
"250004","img/neutralC/CFD-LM-219-295-N.jpg","img/neutralC/CFD-BM-005-003-N.jpg","img/neutralC/CFD-IM-653-008-N.jpg","1","1","1","1","1","0","0.290713499998674","0.401577700045891","0.319679999956861","1","1","1","1","1","1","1","1","1"
"250004","img/neutralC/CFD-IM-653-008-N.jpg","img/neutralC/CFD-LM-219-295-N.jpg","img/neutralC/CFD-BM-212-117-N.jpg","1","1","1","0","1","0","0.319679999956861","0.290713499998674","0.379291499964893","1","1","1","1","1","1","1","1","1"
"250004","img/neutralC/CFD-BM-212-117-N.jpg","img/neutralC/CFD-IM-653-008-N.jpg","img/neutralC/CFD-IF-665-015-N.jpg","1","1","1","0","0","0","0.379291499964893","0.319679999956861","0.397848900000099","1","1","1","1","1","1","1","1","1"
"250004","img/neutralC/CFD-IF-665-015-N.jpg","img/neutralC/CFD-BM-212-117-N.jpg","img/neutralC/CFD-WM-227-099-N.jpg","1","1","1","0","0","1","0.397848900000099","0.379291499964893","0.334493999951519","1","1","1","1","1","1","1","1","1"
"250004","img/neutralC/CFD-WM-227-099-N.jpg","img/neutralC/CFD-IF-665-015-N.jpg","img/neutralC/CFD-BF-033-028-N.jpg","1","1","1","1","0","0","0.334493999951519","0.397848900000099","0.374585899990052","1","1","1","1","1","1","1","1","1"
"250004","img/neutralC/CFD-BF-033-028-N.jpg","img/neutralC/CFD-WM-227-099-N.jpg","img/neutralC/CFD-BF-238-190-N.jpg","1","1","1","0","1","1","0.374585899990052","0.334493999951519","0.340587100014091","1","1","1","1","1","1","1","1","1"
"250004","img/neutralC/CFD-BF-238-190-N.jpg","img/neutralC/CFD-BF-033-028-N.jpg","img/neutralC/CFD-IF-620-218-N.jpg","1","1","1","1","0","0","0.340587100014091","0.374585899990052","0.366067800030578","1","1","1","1","1","1","1","1","1"
"250004","img/neutralC/CFD-IF-620-218-N.jpg","img/neutralC/CFD-BF-238-190-N.jpg","img/neutralC/CFD-AF-206-079-N.jpg","1","1","1","0","1","1","0.366067800030578","0.340587100014091","0.290912299999036","1","1","1","1","1","1","1","1","1"
"250004","img/neutralC/CFD-AF-206-079-N.jpg","img/neutralC/CFD-IF-620-218-N.jpg","img/neutralC/CFD-BM-018-001-N.jpg","1","1","1","1","0","1","0.290912299999036","0.366067800030578","0.340130099968519","1","1","1","1","1","1","1","1","1"
"250004","img/neutralC/CFD-BM-018-001-N.jpg","img/neutralC/CFD-AF-206-079-N.jpg","img/neutralC/CFD-WF-209-052-N.jpg","1","1","1","1","1","1","0.340130099968519","0.290912299999036","0.413354599964805","1","1","1","1","1","1","1","1","1"
"250004","img/neutralC/CFD-WF-209-052-N.jpg","img/neutralC/CFD-BM-018-001-N.jpg","img/neutralC/CFD-IM-657-308-N.jpg","1","1","1","1","1","0","0.413354599964805","0.340130099968519","0.37148019997403","1","1","1","1","1","1","1","1","1"
"250004","img/neutralC/CFD-IM-657-308-N.jpg","img/neutralC/CFD-WF-209-052-N.jpg","img/neutralC/CFD-AF-241-141-N.jpg","1","1","1","0","1","1","0.37148019997403","0.413354599964805","0.380992499995045","1","1","1","1","1","1","1","1","1"
"250004","img/neutralC/CFD-AF-241-141-N.jpg","img/neutralC/CFD-IM-657-308-N.jpg","img/neutralC/CFD-LF-242-121-N.jpg","1","1","1","1","0","0","0.380992499995045","0.37148019997403","0.365435199986678","1","1","1","1","1","1","1","1","1"
"250004","img/neutralC/CFD-LF-242-121-N.jpg","img/neutralC/CFD-AF-241-141-N.jpg","img/neutralC/CFD-IM-727-195-N.jpg","1","1","1","0","1","1","0.365435199986678","0.380992499995045","0.345879599975888","1","1","1","1","1","1","1","1","1"
"250004","img/neutralC/CFD-IM-727-195-N.jpg","img/neutralC/CFD-LF-242-121-N.jpg","img/neutralC/CFD-MF-313-002-N.jpg","1","1","0","1","0","0","0.345879599975888","0.365435199986678","0.381779499992263","1","1","1","1","1","1","1","1","1"
"250004","img/neutralC/CFD-MF-313-002-N.jpg","img/neutralC/CFD-IM-727-195-N.jpg","img/neutralC/CFD-BF-010-001-N.jpg","0","1","1","0","1","1","0.381779499992263","0.345879599975888","0.392218499968294","1","1","1","1","1","1","1","1","1"
"250004","img/neutralC/CFD-BF-010-001-N.jpg","img/neutralC/CFD-MF-313-002-N.jpg","img/neutralC/CFD-BM-231-155-N.jpg","1","0","1","1","0","1","0.392218499968294","0.381779499992263","0.395885500009172","1","1","1","1","1","1","1","1","1"
"250004","img/neutralC/CFD-BM-231-155-N.jpg","img/neutralC/CFD-BF-010-001-N.jpg","img/neutralC/CFD-WM-017-002-N.jpg","1","1","1","1","1","0","0.395885500009172","0.392218499968294","0.348729499964975","1","1","1","1","1","1","1","1","1"
"250004","img/neutralC/CFD-WM-017-002-N.jpg","img/neutralC/CFD-BM-231-155-N.jpg","img/neutralC/CFD-BM-026-002-N.jpg","1","1","1","0","1","0","0.348729499964975","0.395885500009172","0.405863299965858","1","1","1","1","1","1","1","1","1"
"250004","img/neutralC/CFD-BM-026-002-N.jpg","img/neutralC/CFD-WM-017-002-N.jpg","img/neutralC/CFD-LF-247-051-N.jpg","1","1","0","0","0","1","0.405863299965858","0.348729499964975","0.379400700039696","1","1","1","1","1","1","1","1","2"
"250004","img/neutralC/CFD-LF-247-051-N.jpg","img/neutralC/CFD-BM-026-002-N.jpg","img/neutralC/CFD-IM-617-174-N.jpg","0","1","1","1","0","0","0.379400700039696","0.405863299965858","0.400769900006708","1","1","1","1","1","1","2","1","1"
"250004","img/neutralC/CFD-IM-617-174-N.jpg","img/neutralC/CFD-LF-247-051-N.jpg","img/neutralC/CFD-LM-226-175-N.jpg","1","0","1","0","1","0","0.400769900006708","0.379400700039696","0.388798900006805","1","1","1","1","1","1","1","2","1"
"250004","img/neutralC/CFD-LM-226-175-N.jpg","img/neutralC/CFD-IM-617-174-N.jpg","img/neutralC/CFD-LM-233-171-N.jpg","1","1","1","0","0","0","0.388798900006805","0.400769900006708","0.371820400003344","1","1","1","1","1","1","1","1","1"
"250004","img/neutralC/CFD-LM-233-171-N.jpg","img/neutralC/CFD-LM-226-175-N.jpg","img/neutralC/CFD-LF-250-169-N.jpg","1","1","1","0","0","1","0.371820400003344","0.388798900006805","0.401572600007057","1","1","1","1","1","1","1","1","1"
"250004","img/neutralC/CFD-LF-250-169-N.jpg","img/neutralC/CFD-LM-233-171-N.jpg",NA,"1","1",NA,"1","0",NA,"0.401572600007057","0.371820400003344",NA,"1","1",NA,"1","1",NA,"1","1",NA
"250004","img/neutralC/CFD-IF-623-129-N.jpg",NA,"img/neutralC/CFD-WF-001-003-N.jpg","1",NA,"1","1",NA,"1","0.641207700013183",NA,"0.379654799995478","1",NA,"1","1",NA,"1","1",NA,"1"
"250004","img/neutralC/CFD-WF-001-003-N.jpg","img/neutralC/CFD-IF-623-129-N.jpg","img/neutralC/CFD-BF-232-187-N.jpg","1","1","1","1","1","1","0.379654799995478","0.641207700013183","0.328529899998102","1","1","1","1","1","1","1","1","1"
"250004","img/neutralC/CFD-BF-232-187-N.jpg","img/neutralC/CFD-WF-001-003-N.jpg","img/neutralC/CFD-WM-033-025-N.jpg","1","1","1","1","1","1","0.328529899998102","0.379654799995478","0.359984899987467","1","1","1","1","1","1","1","1","1"
"250004","img/neutralC/CFD-WM-033-025-N.jpg","img/neutralC/CFD-BF-232-187-N.jpg","img/neutralC/CFD-WM-020-001-N.jpg","1","1","1","1","1","1","0.359984899987467","0.328529899998102","0.282117999973707","1","1","1","1","1","1","1","1","1"
"250004","img/neutralC/CFD-WM-020-001-N.jpg","img/neutralC/CFD-WM-033-025-N.jpg","img/neutralC/CFD-LF-218-072-N.jpg","1","1","1","1","1","0","0.282117999973707","0.359984899987467","0.37007350003114","1","1","1","1","1","1","1","1","1"
"250004","img/neutralC/CFD-LF-218-072-N.jpg","img/neutralC/CFD-WM-020-001-N.jpg","img/neutralC/CFD-WM-235-147-N.jpg","1","1","1","0","1","0","0.37007350003114","0.282117999973707","0.370433500036597","1","1","1","1","1","1","1","1","1"
"250004","img/neutralC/CFD-WM-235-147-N.jpg","img/neutralC/CFD-LF-218-072-N.jpg","img/neutralC/CFD-AM-251-124-N.jpg","1","1","0","0","0","0","0.370433500036597","0.37007350003114","0.395836399984546","1","1","1","1","1","1","1","1","2"
"250004","img/neutralC/CFD-AM-251-124-N.jpg","img/neutralC/CFD-WM-235-147-N.jpg","img/neutralC/CFD-WF-214-122-N.jpg","0","1","1","0","0","1","0.395836399984546","0.370433500036597","0.316159999987576","1","1","1","1","1","1","2","1","1"
"250004","img/neutralC/CFD-WF-214-122-N.jpg","img/neutralC/CFD-AM-251-124-N.jpg","img/neutralC/CFD-LF-220-120-N.jpg","1","0","1","1","0","1","0.316159999987576","0.395836399984546","0.37506360001862","1","1","1","1","1","1","1","2","1"
"250004","img/neutralC/CFD-LF-220-120-N.jpg","img/neutralC/CFD-WF-214-122-N.jpg","img/neutralC/CFD-IM-703-182-N.jpg","1","1","1","1","1","1","0.37506360001862","0.316159999987576","0.22049540001899","1","1","1","1","1","1","1","1","1"
"250004","img/neutralC/CFD-IM-703-182-N.jpg","img/neutralC/CFD-LF-220-120-N.jpg","img/neutralC/CFD-LM-237-264-N.jpg","1","1","0","1","1","0","0.22049540001899","0.37506360001862","0.262341799971182","1","1","1","1","1","1","1","1","1"
"250004","img/neutralC/CFD-LM-237-264-N.jpg","img/neutralC/CFD-IM-703-182-N.jpg","img/neutralC/CFD-BM-253-004-N.jpg","0","1","1","0","1","1","0.262341799971182","0.22049540001899","0.328935700003058","1","1","1","1","1","1","1","1","1"
"250004","img/neutralC/CFD-BM-253-004-N.jpg","img/neutralC/CFD-LM-237-264-N.jpg","img/neutralC/CFD-WM-219-008-N.jpg","1","0","1","1","0","0","0.328935700003058","0.262341799971182","0.26391550002154","1","1","1","1","1","1","1","1","1"
"250004","img/neutralC/CFD-WM-219-008-N.jpg","img/neutralC/CFD-BM-253-004-N.jpg","img/neutralC/CFD-IM-743-006-N.jpg","1","1","1","0","1","1","0.26391550002154","0.328935700003058","0.410193099989556","1","1","1","1","1","1","1","1","1"
"250004","img/neutralC/CFD-IM-743-006-N.jpg","img/neutralC/CFD-WM-219-008-N.jpg","img/neutralC/CFD-LM-228-188-N.jpg","1","1","1","1","0","1","0.410193099989556","0.26391550002154","0.348489700001664","1","1","1","1","1","1","1","1","1"
"250004","img/neutralC/CFD-LM-228-188-N.jpg","img/neutralC/CFD-IM-743-006-N.jpg","img/neutralC/CFD-BM-225-154-N.jpg","1","1","1","1","1","1","0.348489700001664","0.410193099989556","0.357980799977668","1","1","1","1","1","1","1","1","1"
"250004","img/neutralC/CFD-BM-225-154-N.jpg","img/neutralC/CFD-LM-228-188-N.jpg","img/neutralC/CFD-IM-645-001-N.jpg","1","1","1","1","1","0","0.357980799977668","0.348489700001664","0.361579100019298","1","1","1","1","1","1","1","1","1"
"250004","img/neutralC/CFD-IM-645-001-N.jpg","img/neutralC/CFD-BM-225-154-N.jpg","img/neutralC/CFD-WF-200-099-N.jpg","1","1","0","0","1","0","0.361579100019298","0.357980799977668","0.264553399989381","1","1","1","1","1","1","1","1","1"
"250004","img/neutralC/CFD-WF-200-099-N.jpg","img/neutralC/CFD-IM-645-001-N.jpg","img/neutralC/CFD-MF-333-012-N.jpg","0","1","1","0","0","0","0.264553399989381","0.361579100019298","0.335980900039431","1","1","1","1","1","1","1","1","1"
"250004","img/neutralC/CFD-MF-333-012-N.jpg","img/neutralC/CFD-WF-200-099-N.jpg","img/neutralC/CFD-BF-038-037-N.jpg","1","0","1","0","0","1","0.335980900039431","0.264553399989381","0.253135599952657","1","1","1","1","1","1","1","1","1"
"250004","img/neutralC/CFD-BF-038-037-N.jpg","img/neutralC/CFD-MF-333-012-N.jpg","img/neutralC/CFD-IM-671-601-N.jpg","1","1","1","1","0","0","0.253135599952657","0.335980900039431","0.396654199983459","1","1","1","1","1","1","1","1","1"
"250004","img/neutralC/CFD-IM-671-601-N.jpg","img/neutralC/CFD-BF-038-037-N.jpg","img/neutralC/CFD-IF-650-315-N.jpg","1","1","0","0","1","0","0.396654199983459","0.253135599952657","0.442599800007883","1","1","1","1","1","1","1","1","2"
"250004","img/neutralC/CFD-IF-650-315-N.jpg","img/neutralC/CFD-IM-671-601-N.jpg","img/neutralC/CFD-MF-352-054-N.jpg","0","1","1","0","0","0","0.442599800007883","0.396654199983459","0.347829399979673","1","1","1","1","1","1","2","1","1"
"250004","img/neutralC/CFD-MF-352-054-N.jpg","img/neutralC/CFD-IF-650-315-N.jpg","img/neutralC/CFD-WF-036-023-N.jpg","1","0","1","0","0","0","0.347829399979673","0.442599800007883","0.282009200018365","1","1","1","1","1","1","1","2","1"
"250004","img/neutralC/CFD-WF-036-023-N.jpg","img/neutralC/CFD-MF-352-054-N.jpg","img/neutralC/CFD-MF-359-019-N.jpg","1","1","1","0","0","0","0.282009200018365","0.347829399979673","0.323018399998546","1","1","1","1","1","1","1","1","1"
"250004","img/neutralC/CFD-MF-359-019-N.jpg","img/neutralC/CFD-WF-036-023-N.jpg","img/neutralC/CFD-AM-211-052-N.jpg","1","1","1","0","0","1","0.323018399998546","0.282009200018365","0.44690050004283","1","1","1","1","1","1","1","1","1"
"250004","img/neutralC/CFD-AM-211-052-N.jpg","img/neutralC/CFD-MF-359-019-N.jpg","img/neutralC/CFD-WM-004-010-N.jpg","1","1","1","1","0","0","0.44690050004283","0.323018399998546","0.351023800030816","1","1","1","1","1","1","1","1","1"
"250004","img/neutralC/CFD-WM-004-010-N.jpg","img/neutralC/CFD-AM-211-052-N.jpg","img/neutralC/CFD-AM-242-176-N.jpg","1","1","0","0","1","1","0.351023800030816","0.44690050004283","0.278260299994145","1","1","1","1","1","1","1","1","1"
"250004","img/neutralC/CFD-AM-242-176-N.jpg","img/neutralC/CFD-WM-004-010-N.jpg","img/neutralC/CFD-IM-616-214-N.jpg","0","1","0","1","0","0","0.278260299994145","0.351023800030816","0.283376800012775","1","1","1","1","1","1","1","1","1"
"250004","img/neutralC/CFD-IM-616-214-N.jpg","img/neutralC/CFD-AM-242-176-N.jpg","img/neutralC/CFD-BF-229-179-N.jpg","0","0","1","0","1","0","0.283376800012775","0.278260299994145","0.496217600011732","1","1","1","1","1","1","1","1","1"
"250004","img/neutralC/CFD-BF-229-179-N.jpg","img/neutralC/CFD-IM-616-214-N.jpg","img/neutralC/CFD-BF-226-119-N.jpg","1","0","1","0","0","1","0.496217600011732","0.283376800012775","0.446029099985026","1","1","1","1","1","1","1","1","1"
"250004","img/neutralC/CFD-BF-226-119-N.jpg","img/neutralC/CFD-BF-229-179-N.jpg",NA,"1","1",NA,"1","0",NA,"0.446029099985026","0.496217600011732",NA,"1","1",NA,"1","1",NA,"1","1",NA
"250004","img/neutralC/CFD-WF-006-002-N.jpg",NA,"img/neutralC/CFD-BM-003-003-N.jpg","1",NA,"1","0",NA,"0","0.489680300001055",NA,"0.392421099997591","1",NA,"1","1",NA,"1","1",NA,"1"
"250004","img/neutralC/CFD-BM-003-003-N.jpg","img/neutralC/CFD-WF-006-002-N.jpg","img/neutralC/CFD-IM-701-312-N.jpg","1","1","1","0","0","0","0.392421099997591","0.489680300001055","0.384935199981555","1","1","1","1","1","1","1","1","1"
"250004","img/neutralC/CFD-IM-701-312-N.jpg","img/neutralC/CFD-BM-003-003-N.jpg","img/neutralC/CFD-LF-208-127-N.jpg","1","1","1","0","0","0","0.384935199981555","0.392421099997591","0.360912200005259","1","1","1","1","1","1","1","1","1"
"250004","img/neutralC/CFD-LF-208-127-N.jpg","img/neutralC/CFD-IM-701-312-N.jpg","img/neutralC/CFD-IF-744-114-N.jpg","1","1","1","0","0","0","0.360912200005259","0.384935199981555","0.4662357000052","1","1","1","1","1","1","1","1","1"
"250004","img/neutralC/CFD-IF-744-114-N.jpg","img/neutralC/CFD-LF-208-127-N.jpg","img/neutralC/CFD-IM-659-359-N.jpg","1","1","1","0","0","0","0.4662357000052","0.360912200005259","0.341921399987768","1","1","1","1","1","1","1","1","1"
"250004","img/neutralC/CFD-IM-659-359-N.jpg","img/neutralC/CFD-IF-744-114-N.jpg","img/neutralC/CFD-LF-241-188-N.jpg","1","1","1","0","0","0","0.341921399987768","0.4662357000052","0.352639799995814","1","1","1","1","1","1","1","1","1"
"250004","img/neutralC/CFD-LF-241-188-N.jpg","img/neutralC/CFD-IM-659-359-N.jpg","img/neutralC/CFD-BF-045-003-N.jpg","1","1","1","0","0","0","0.352639799995814","0.341921399987768","0.319002700038254","1","1","1","1","1","1","1","1","1"
"250004","img/neutralC/CFD-BF-045-003-N.jpg","img/neutralC/CFD-LF-241-188-N.jpg","img/neutralC/CFD-IM-738-191-N.jpg","1","1","1","0","0","0","0.319002700038254","0.352639799995814","0.366989400004968","1","1","1","1","1","1","1","1","1"
"250004","img/neutralC/CFD-IM-738-191-N.jpg","img/neutralC/CFD-BF-045-003-N.jpg","img/neutralC/CFD-BM-013-002-N.jpg","1","1","1","0","0","1","0.366989400004968","0.319002700038254","0.362956099968869","1","1","1","1","1","1","1","1","1"
"250004","img/neutralC/CFD-BM-013-002-N.jpg","img/neutralC/CFD-IM-738-191-N.jpg","img/neutralC/CFD-LF-210-220-N.jpg","1","1","1","1","0","1","0.362956099968869","0.366989400004968","0.354026800021529","1","1","1","1","1","1","1","1","1"
"250004","img/neutralC/CFD-LF-210-220-N.jpg","img/neutralC/CFD-BM-013-002-N.jpg","img/neutralC/CFD-WM-202-107-N.jpg","1","1","1","1","1","1","0.354026800021529","0.362956099968869","0.344920600007754","1","1","1","1","1","1","1","1","1"
"250004","img/neutralC/CFD-WM-202-107-N.jpg","img/neutralC/CFD-LF-210-220-N.jpg","img/neutralC/CFD-IF-673-389-N.jpg","1","1","1","1","1","0","0.344920600007754","0.354026800021529","0.336115700018127","1","1","1","1","1","1","1","1","1"
"250004","img/neutralC/CFD-IF-673-389-N.jpg","img/neutralC/CFD-WM-202-107-N.jpg","img/neutralC/CFD-MF-336-016-N.jpg","1","1","0","0","1","1","0.336115700018127","0.344920600007754","0.342511599999852","1","1","1","1","1","1","1","1","1"
"250004","img/neutralC/CFD-MF-336-016-N.jpg","img/neutralC/CFD-IF-673-389-N.jpg","img/neutralC/CFD-WM-228-065-N.jpg","0","1","1","1","0","0","0.342511599999852","0.336115700018127","0.35769109998364","1","1","1","1","1","1","1","1","1"
"250004","img/neutralC/CFD-WM-228-065-N.jpg","img/neutralC/CFD-MF-336-016-N.jpg","img/neutralC/CFD-BM-010-003-N.jpg","1","0","1","0","1","0","0.35769109998364","0.342511599999852","0.343016300001182","1","1","1","1","1","1","1","1","1"
"250004","img/neutralC/CFD-BM-010-003-N.jpg","img/neutralC/CFD-WM-228-065-N.jpg","img/neutralC/CFD-BM-028-002-N.jpg","1","1","1","0","0","1","0.343016300001182","0.35769109998364","0.339215499989223","1","1","1","1","1","1","1","1","1"
"250004","img/neutralC/CFD-BM-028-002-N.jpg","img/neutralC/CFD-BM-010-003-N.jpg","img/neutralC/CFD-LF-225-164-N.jpg","1","1","1","1","0","1","0.339215499989223","0.343016300001182","0.266434199991636","1","1","1","1","1","1","1","1","1"
"250004","img/neutralC/CFD-LF-225-164-N.jpg","img/neutralC/CFD-BM-028-002-N.jpg","img/neutralC/CFD-WF-033-002-N.jpg","1","1","1","1","1","1","0.266434199991636","0.339215499989223","0.29068970005028","1","1","1","1","1","1","1","1","1"
"250004","img/neutralC/CFD-WF-033-002-N.jpg","img/neutralC/CFD-LF-225-164-N.jpg","img/neutralC/CFD-AF-227-207-N.jpg","1","1","0","1","1","1","0.29068970005028","0.266434199991636","0.238638199982233","1","1","1","1","1","1","1","1","1"
"250004","img/neutralC/CFD-AF-227-207-N.jpg","img/neutralC/CFD-WF-033-002-N.jpg","img/neutralC/CFD-BM-213-134-N.jpg","0","1","1","1","1","1","0.238638199982233","0.29068970005028","0.355875999957789","1","1","1","1","1","1","1","1","1"
"250004","img/neutralC/CFD-BM-213-134-N.jpg","img/neutralC/CFD-AF-227-207-N.jpg","img/neutralC/CFD-AF-210-050-N.jpg","1","0","0","1","1","1","0.355875999957789","0.238638199982233","0.316690200008452","1","1","1","1","1","1","1","1","1"
"250004","img/neutralC/CFD-AF-210-050-N.jpg","img/neutralC/CFD-BM-213-134-N.jpg","img/neutralC/CFD-WF-223-133-N.jpg","0","1","1","1","1","0","0.316690200008452","0.355875999957789","0.370032400009222","1","1","1","1","1","1","1","1","1"
"250004","img/neutralC/CFD-WF-223-133-N.jpg","img/neutralC/CFD-AF-210-050-N.jpg","img/neutralC/CFD-BF-004-014-N.jpg","1","0","0","0","1","1","0.370032400009222","0.316690200008452","0.585772699967492","1","1","1","1","1","1","1","1","2"
"250004","img/neutralC/CFD-BF-004-014-N.jpg","img/neutralC/CFD-WF-223-133-N.jpg","img/neutralC/CFD-MF-312-002-N.jpg","0","1","1","1","0","1","0.585772699967492","0.370032400009222","0.445781400019769","1","1","1","1","1","1","2","1","1"
"250004","img/neutralC/CFD-MF-312-002-N.jpg","img/neutralC/CFD-BF-004-014-N.jpg","img/neutralC/CFD-WM-254-152-N.jpg","1","0","1","1","1","1","0.445781400019769","0.585772699967492","0.432816500018816","1","1","1","1","1","1","1","2","1"
"250004","img/neutralC/CFD-WM-254-152-N.jpg","img/neutralC/CFD-MF-312-002-N.jpg","img/neutralC/CFD-BF-222-240-N.jpg","1","1","0","1","1","0","0.432816500018816","0.445781400019769","0.404325500014238","1","1","1","1","1","1","1","1","2"
"250004","img/neutralC/CFD-BF-222-240-N.jpg","img/neutralC/CFD-WM-254-152-N.jpg","img/neutralC/CFD-AF-239-171-N.jpg","0","1","1","0","1","1","0.404325500014238","0.432816500018816","0.376561500015669","1","1","1","1","1","1","2","1","1"
"250004","img/neutralC/CFD-AF-239-171-N.jpg","img/neutralC/CFD-BF-222-240-N.jpg","img/neutralC/CFD-IF-625-225-N.jpg","1","0","1","1","0","0","0.376561500015669","0.404325500014238","0.502793100022245","1","1","1","1","1","1","1","2","1"
"250004","img/neutralC/CFD-IF-625-225-N.jpg","img/neutralC/CFD-AF-239-171-N.jpg","img/neutralC/CFD-LM-238-129-N.jpg","1","1","1","0","1","1","0.502793100022245","0.376561500015669","0.397920400020666","1","1","1","1","1","1","1","1","1"
"250004","img/neutralC/CFD-LM-238-129-N.jpg","img/neutralC/CFD-IF-625-225-N.jpg","img/neutralC/CFD-AM-221-184-N.jpg","1","1","1","1","0","1","0.397920400020666","0.502793100022245","0.359699100023136","1","1","1","1","1","1","1","1","1"
"250004","img/neutralC/CFD-AM-221-184-N.jpg","img/neutralC/CFD-LM-238-129-N.jpg","img/neutralC/CFD-LM-247-095-N.jpg","1","1","1","1","1","0","0.359699100023136","0.397920400020666","0.346959199989215","1","1","1","1","1","1","1","1","1"
"250004","img/neutralC/CFD-LM-247-095-N.jpg","img/neutralC/CFD-AM-221-184-N.jpg",NA,"1","1",NA,"0","1",NA,"0.346959199989215","0.359699100023136",NA,"1","1",NA,"1","1",NA,"1","1",NA
"250004","img/neutralC/CFD-AM-212-050-N.jpg",NA,"img/neutralC/CFD-IF-693-172-N.jpg","1",NA,"1","1",NA,"0","0.642918500001542",NA,"0.506905099959113","1",NA,"1","1",NA,"1","1",NA,"1"
"250004","img/neutralC/CFD-IF-693-172-N.jpg","img/neutralC/CFD-AM-212-050-N.jpg","img/neutralC/CFD-WM-041-021-N.jpg","1","1","1","0","1","0","0.506905099959113","0.642918500001542","0.427712599979714","1","1","1","1","1","1","1","1","1"
"250004","img/neutralC/CFD-WM-041-021-N.jpg","img/neutralC/CFD-IF-693-172-N.jpg","img/neutralC/CFD-IM-684-008-N.jpg","1","1","1","0","0","1","0.427712599979714","0.506905099959113","0.421451899979729","1","1","1","1","1","1","1","1","1"
"250004","img/neutralC/CFD-IM-684-008-N.jpg","img/neutralC/CFD-WM-041-021-N.jpg","img/neutralC/CFD-WF-213-031-N.jpg","1","1","1","1","0","1","0.421451899979729","0.427712599979714","0.38761129998602","1","1","1","1","1","1","1","1","1"
"250004","img/neutralC/CFD-WF-213-031-N.jpg","img/neutralC/CFD-IM-684-008-N.jpg","img/neutralC/CFD-LM-215-247-N.jpg","1","1","1","1","1","0","0.38761129998602","0.421451899979729","0.354320399987046","1","1","1","1","1","1","1","1","1"
"250004","img/neutralC/CFD-LM-215-247-N.jpg","img/neutralC/CFD-WF-213-031-N.jpg","img/neutralC/CFD-BF-253-202-N.jpg","1","1","1","0","1","0","0.354320399987046","0.38761129998602","0.380000300006941","1","1","1","1","1","1","1","1","1"
"250004","img/neutralC/CFD-BF-253-202-N.jpg","img/neutralC/CFD-LM-215-247-N.jpg","img/neutralC/CFD-WM-021-001-N.jpg","1","1","1","0","0","1","0.380000300006941","0.354320399987046","0.399339099996723","1","1","1","1","1","1","1","1","1"
"250004","img/neutralC/CFD-WM-021-001-N.jpg","img/neutralC/CFD-BF-253-202-N.jpg","img/neutralC/CFD-WF-224-099-N.jpg","1","1","1","1","0","0","0.399339099996723","0.380000300006941","0.386128699989058","1","1","1","1","1","1","1","1","1"
"250004","img/neutralC/CFD-WF-224-099-N.jpg","img/neutralC/CFD-WM-021-001-N.jpg","img/neutralC/CFD-BM-019-002-N.jpg","1","1","1","0","1","0","0.386128699989058","0.399339099996723","0.400745099992491","1","1","1","1","1","1","1","1","1"
"250004","img/neutralC/CFD-BM-019-002-N.jpg","img/neutralC/CFD-WF-224-099-N.jpg","img/neutralC/CFD-BM-041-035-N.jpg","1","1","1","0","0","0","0.400745099992491","0.386128699989058","0.387961099972017","1","1","1","1","1","1","1","1","1"
"250004","img/neutralC/CFD-BM-041-035-N.jpg","img/neutralC/CFD-BM-019-002-N.jpg","img/neutralC/CFD-LF-205-100-N.jpg","1","1","1","0","0","1","0.387961099972017","0.400745099992491","0.372137199970894","1","1","1","1","1","1","1","1","1"
"250004","img/neutralC/CFD-LF-205-100-N.jpg","img/neutralC/CFD-BM-041-035-N.jpg","img/neutralC/CFD-BM-239-136-N.jpg","1","1","1","1","0","1","0.372137199970894","0.387961099972017","0.327998499968089","1","1","1","1","1","1","1","1","1"
"250004","img/neutralC/CFD-BM-239-136-N.jpg","img/neutralC/CFD-LF-205-100-N.jpg","img/neutralC/CFD-IF-634-382-N.jpg","1","1","1","1","1","1","0.327998499968089","0.372137199970894","0.316743200004566","1","1","1","1","1","1","1","1","1"
"250004","img/neutralC/CFD-IF-634-382-N.jpg","img/neutralC/CFD-BM-239-136-N.jpg","img/neutralC/CFD-LM-218-183-N.jpg","1","1","0","1","1","1","0.316743200004566","0.327998499968089","0.300556100031827","1","1","1","1","1","1","1","1","1"
"250004","img/neutralC/CFD-LM-218-183-N.jpg","img/neutralC/CFD-IF-634-382-N.jpg","img/neutralC/CFD-LF-224-176-N.jpg","0","1","1","1","1","0","0.300556100031827","0.316743200004566","0.340379200002644","1","1","1","1","1","1","1","1","1"
"250004","img/neutralC/CFD-LF-224-176-N.jpg","img/neutralC/CFD-LM-218-183-N.jpg","img/neutralC/CFD-IF-710-016-N.jpg","1","0","1","0","1","0","0.340379200002644","0.300556100031827","0.399496999976691","1","1","1","1","1","1","1","1","1"
"250004","img/neutralC/CFD-IF-710-016-N.jpg","img/neutralC/CFD-LF-224-176-N.jpg","img/neutralC/CFD-WF-250-167-N.jpg","1","1","1","0","0","1","0.399496999976691","0.340379200002644","0.442097800027113","1","1","1","1","1","1","1","1","1"
"250004","img/neutralC/CFD-WF-250-167-N.jpg","img/neutralC/CFD-IF-710-016-N.jpg","img/neutralC/CFD-WM-011-002-N.jpg","1","1","1","1","0","0","0.442097800027113","0.399496999976691","0.420625300030224","1","1","1","1","1","1","1","1","1"
"250004","img/neutralC/CFD-WM-011-002-N.jpg","img/neutralC/CFD-WF-250-167-N.jpg","img/neutralC/CFD-IM-651-308-N.jpg","1","1","1","0","1","0","0.420625300030224","0.442097800027113","0.347175600007176","1","1","1","1","1","1","1","1","1"
"250004","img/neutralC/CFD-IM-651-308-N.jpg","img/neutralC/CFD-WM-011-002-N.jpg","img/neutralC/CFD-BF-029-031-N.jpg","1","1","1","0","0","1","0.347175600007176","0.420625300030224","0.377393300004769","1","1","1","1","1","1","1","1","1"
"250004","img/neutralC/CFD-BF-029-031-N.jpg","img/neutralC/CFD-IM-651-308-N.jpg","img/neutralC/CFD-MM-316-156-N.jpg","1","1","1","1","0","1","0.377393300004769","0.347175600007176","0.323837400006596","1","1","1","1","1","1","1","1","1"
"250004","img/neutralC/CFD-MM-316-156-N.jpg","img/neutralC/CFD-BF-029-031-N.jpg","img/neutralC/CFD-AM-201-076-N.jpg","1","1","1","1","1","1","0.323837400006596","0.377393300004769","0.351821399992332","1","1","1","1","1","1","1","1","1"
"250004","img/neutralC/CFD-AM-201-076-N.jpg","img/neutralC/CFD-MM-316-156-N.jpg","img/neutralC/CFD-AF-231-357-N.jpg","1","1","1","1","1","1","0.351821399992332","0.323837400006596","0.427365600015037","1","1","1","1","1","1","1","1","1"
"250004","img/neutralC/CFD-AF-231-357-N.jpg","img/neutralC/CFD-AM-201-076-N.jpg","img/neutralC/CFD-LF-214-090-N.jpg","1","1","1","1","1","0","0.427365600015037","0.351821399992332","0.260910700017121","1","1","1","1","1","1","1","1","1"
"250004","img/neutralC/CFD-LF-214-090-N.jpg","img/neutralC/CFD-AF-231-357-N.jpg","img/neutralC/CFD-LF-230-203-N.jpg","1","1","1","0","1","0","0.260910700017121","0.427365600015037","0.348000400001183","1","1","1","1","1","1","1","1","1"
"250004","img/neutralC/CFD-LF-230-203-N.jpg","img/neutralC/CFD-LF-214-090-N.jpg","img/neutralC/CFD-BF-205-141-N.jpg","1","1","1","0","0","0","0.348000400001183","0.260910700017121","0.367026499996427","1","1","1","1","1","1","1","1","1"
"250004","img/neutralC/CFD-BF-205-141-N.jpg","img/neutralC/CFD-LF-230-203-N.jpg","img/neutralC/CFD-BF-039-031-N.jpg","1","1","1","0","0","1","0.367026499996427","0.348000400001183","0.357661200047005","1","1","1","1","1","1","1","1","1"
"250004","img/neutralC/CFD-BF-039-031-N.jpg","img/neutralC/CFD-BF-205-141-N.jpg","img/neutralC/CFD-MF-337-026-N.jpg","1","1","1","1","0","1","0.357661200047005","0.367026499996427","0.390835499973036","1","1","1","1","1","1","1","1","1"
"250004","img/neutralC/CFD-MF-337-026-N.jpg","img/neutralC/CFD-BF-039-031-N.jpg","img/neutralC/CFD-LF-203-066-N.jpg","1","1","1","1","1","0","0.390835499973036","0.357661200047005","0.340447399998084","1","1","1","1","1","1","1","1","1"
"250004","img/neutralC/CFD-LF-203-066-N.jpg","img/neutralC/CFD-MF-337-026-N.jpg","img/neutralC/CFD-BF-213-188-N.jpg","1","1","0","0","1","1","0.340447399998084","0.390835499973036","0.374053200008348","1","1","1","1","1","1","1","1","1"
"250004","img/neutralC/CFD-BF-213-188-N.jpg","img/neutralC/CFD-LF-203-066-N.jpg","img/neutralC/CFD-BM-033-003-N.jpg","0","1","1","1","0","0","0.374053200008348","0.340447399998084","0.444521499972325","1","1","1","1","1","1","1","1","1"
"250004","img/neutralC/CFD-BM-033-003-N.jpg","img/neutralC/CFD-BF-213-188-N.jpg",NA,"1","0",NA,"0","1",NA,"0.444521499972325","0.374053200008348",NA,"1","1",NA,"1","1",NA,"1","1",NA
"250004","img/neutralC/CFD-WM-012-001-N.jpg",NA,"img/neutralC/CFD-WF-005-010-N.jpg","1",NA,"1","1",NA,"0","0.390287499991246",NA,"0.372898699948564","1",NA,"1","1",NA,"1","1",NA,"1"
"250004","img/neutralC/CFD-WF-005-010-N.jpg","img/neutralC/CFD-WM-012-001-N.jpg","img/neutralC/CFD-LM-201-057-N.jpg","1","1","1","0","1","1","0.372898699948564","0.390287499991246","0.35783569997875","1","1","1","1","1","1","1","1","1"
"250004","img/neutralC/CFD-LM-201-057-N.jpg","img/neutralC/CFD-WF-005-010-N.jpg","img/neutralC/CFD-IF-642-295-N.jpg","1","1","1","1","0","1","0.35783569997875","0.372898699948564","0.384374399960507","1","1","1","1","1","1","1","1","1"
"250004","img/neutralC/CFD-IF-642-295-N.jpg","img/neutralC/CFD-LM-201-057-N.jpg","img/neutralC/CFD-BF-202-109-N.jpg","1","1","0","1","1","1","0.384374399960507","0.35783569997875","0.272776900033932","1","1","1","1","1","1","1","1","1"
"250004","img/neutralC/CFD-BF-202-109-N.jpg","img/neutralC/CFD-IF-642-295-N.jpg","img/neutralC/CFD-WM-006-002-N.jpg","0","1","1","1","1","0","0.272776900033932","0.384374399960507","0.382203900022432","1","1","1","1","1","1","1","1","1"
"250004","img/neutralC/CFD-WM-006-002-N.jpg","img/neutralC/CFD-BF-202-109-N.jpg","img/neutralC/CFD-LM-214-165-N.jpg","1","0","1","0","1","1","0.382203900022432","0.272776900033932","0.335560999985319","1","1","1","1","1","1","1","1","1"
"250004","img/neutralC/CFD-LM-214-165-N.jpg","img/neutralC/CFD-WM-006-002-N.jpg","img/neutralC/CFD-BM-205-001-N.jpg","1","1","1","1","0","0","0.335560999985319","0.382203900022432","0.398038599989377","1","1","1","1","1","1","1","1","1"
"250004","img/neutralC/CFD-BM-205-001-N.jpg","img/neutralC/CFD-LM-214-165-N.jpg","img/neutralC/CFD-LM-216-082-N.jpg","1","1","1","0","1","0","0.398038599989377","0.335560999985319","0.457561300019734","1","1","1","1","1","1","1","1","1"
"250004","img/neutralC/CFD-LM-216-082-N.jpg","img/neutralC/CFD-BM-205-001-N.jpg","img/neutralC/CFD-WM-212-097-N.jpg","1","1","1","0","0","0","0.457561300019734","0.398038599989377","0.289470099960454","1","1","1","1","1","1","1","1","1"
"250004","img/neutralC/CFD-WM-212-097-N.jpg","img/neutralC/CFD-LM-216-082-N.jpg","img/neutralC/CFD-MF-335-002-N.jpg","1","1","1","0","0","0","0.289470099960454","0.457561300019734","0.35714109998662","1","1","1","1","1","1","1","1","1"
"250004","img/neutralC/CFD-MF-335-002-N.jpg","img/neutralC/CFD-WM-212-097-N.jpg","img/neutralC/CFD-IM-646-023-N.jpg","1","1","0","0","0","1","0.35714109998662","0.289470099960454","0.243894000013825","1","1","1","1","1","1","1","1","1"
"250004","img/neutralC/CFD-IM-646-023-N.jpg","img/neutralC/CFD-MF-335-002-N.jpg","img/neutralC/CFD-BM-251-013-N.jpg","0","1","1","1","0","1","0.243894000013825","0.35714109998662","0.354059799981769","1","1","1","1","1","1","1","1","1"
"250004","img/neutralC/CFD-BM-251-013-N.jpg","img/neutralC/CFD-IM-646-023-N.jpg","img/neutralC/CFD-WF-228-196-N.jpg","1","0","1","1","1","0","0.354059799981769","0.243894000013825","0.344776399957482","1","1","1","1","1","1","1","1","1"
"250004","img/neutralC/CFD-WF-228-196-N.jpg","img/neutralC/CFD-BM-251-013-N.jpg","img/neutralC/CFD-WM-026-001-N.jpg","1","1","1","0","1","1","0.344776399957482","0.354059799981769","0.305589800002053","1","1","1","1","1","1","1","1","1"
"250004","img/neutralC/CFD-WM-026-001-N.jpg","img/neutralC/CFD-WF-228-196-N.jpg","img/neutralC/CFD-BF-228-212-N.jpg","1","1","1","1","0","0","0.305589800002053","0.344776399957482","0.246546000009403","1","1","1","1","1","1","1","1","1"
"250004","img/neutralC/CFD-BF-228-212-N.jpg","img/neutralC/CFD-WM-026-001-N.jpg","img/neutralC/CFD-BF-025-002-N.jpg","1","1","1","0","1","0","0.246546000009403","0.305589800002053","0.274376600049436","1","1","1","1","1","1","1","1","1"
"250004","img/neutralC/CFD-BF-025-002-N.jpg","img/neutralC/CFD-BF-228-212-N.jpg","img/neutralC/CFD-WF-017-003-N.jpg","1","1","1","0","0","1","0.274376600049436","0.246546000009403","0.357272699999157","1","1","1","1","1","1","1","1","1"
"250004","img/neutralC/CFD-WF-017-003-N.jpg","img/neutralC/CFD-BF-025-002-N.jpg","img/neutralC/CFD-MM-317-061-N.jpg","1","1","1","1","0","1","0.357272699999157","0.274376600049436","0.347446299972944","1","1","1","1","1","1","1","1","1"
"250004","img/neutralC/CFD-MM-317-061-N.jpg","img/neutralC/CFD-WF-017-003-N.jpg","img/neutralC/CFD-WF-240-083-N.jpg","1","1","0","1","1","0","0.347446299972944","0.357272699999157","0.282620300014969","1","1","1","1","1","1","1","1","1"
"250004","img/neutralC/CFD-WF-240-083-N.jpg","img/neutralC/CFD-MM-317-061-N.jpg","img/neutralC/CFD-AF-240-206-N.jpg","0","1","0","0","1","0","0.282620300014969","0.347446299972944","0.38480110000819","1","1","1","1","1","1","1","1","1"
"250004","img/neutralC/CFD-AF-240-206-N.jpg","img/neutralC/CFD-WF-240-083-N.jpg","img/neutralC/CFD-LM-243-075-N.jpg","0","0","1","0","0","0","0.38480110000819","0.282620300014969","0.395857300027274","1","1","1","1","1","1","1","1","1"
"250004","img/neutralC/CFD-LM-243-075-N.jpg","img/neutralC/CFD-AF-240-206-N.jpg","img/neutralC/CFD-WM-249-239-N.jpg","1","0","1","0","0","1","0.395857300027274","0.38480110000819","0.332765800005291","1","1","1","1","1","1","1","1","1"
"250004","img/neutralC/CFD-WM-249-239-N.jpg","img/neutralC/CFD-LM-243-075-N.jpg","img/neutralC/CFD-WM-215-041-N.jpg","1","1","1","1","0","0","0.332765800005291","0.395857300027274","0.431782100000419","1","1","1","1","1","1","1","1","1"
"250004","img/neutralC/CFD-WM-215-041-N.jpg","img/neutralC/CFD-WM-249-239-N.jpg","img/neutralC/CFD-BF-212-315-N.jpg","1","1","1","0","1","1","0.431782100000419","0.332765800005291","0.361564700026065","1","1","1","1","1","1","1","1","1"
"250004","img/neutralC/CFD-BF-212-315-N.jpg","img/neutralC/CFD-WM-215-041-N.jpg","img/neutralC/CFD-LM-244-068-N.jpg","1","1","1","1","0","1","0.361564700026065","0.431782100000419","0.370840800052974","1","1","1","1","1","1","1","1","1"
"250004","img/neutralC/CFD-LM-244-068-N.jpg","img/neutralC/CFD-BF-212-315-N.jpg","img/neutralC/CFD-AM-247-165-N.jpg","1","1","1","1","1","1","0.370840800052974","0.361564700026065","0.370348999975249","1","1","1","1","1","1","1","1","1"
"250004","img/neutralC/CFD-AM-247-165-N.jpg","img/neutralC/CFD-LM-244-068-N.jpg","img/neutralC/CFD-BF-041-001-N.jpg","1","1","1","1","1","1","0.370348999975249","0.370840800052974","0.382975800021086","1","1","1","1","1","1","1","1","1"
"250004","img/neutralC/CFD-BF-041-001-N.jpg","img/neutralC/CFD-AM-247-165-N.jpg","img/neutralC/CFD-BM-248-128-N.jpg","1","1","1","1","1","0","0.382975800021086","0.370348999975249","0.326084099942818","1","1","1","1","1","1","1","1","1"
"250004","img/neutralC/CFD-BM-248-128-N.jpg","img/neutralC/CFD-BF-041-001-N.jpg","img/neutralC/CFD-WM-019-003-N.jpg","1","1","0","0","1","1","0.326084099942818","0.382975800021086","0.320386499981396","1","1","1","1","1","1","1","1","1"
"250004","img/neutralC/CFD-WM-019-003-N.jpg","img/neutralC/CFD-BM-248-128-N.jpg","img/neutralC/CFD-IM-648-337-N.jpg","0","1","1","1","0","0","0.320386499981396","0.326084099942818","0.603376700018998","1","1","1","1","1","1","1","1","1"
"250004","img/neutralC/CFD-IM-648-337-N.jpg","img/neutralC/CFD-WM-019-003-N.jpg","img/neutralC/CFD-MF-309-002-N.jpg","1","0","1","0","1","0","0.603376700018998","0.320386499981396","0.377854899968952","1","1","1","1","1","1","1","1","1"
"250004","img/neutralC/CFD-MF-309-002-N.jpg","img/neutralC/CFD-IM-648-337-N.jpg",NA,"1","1",NA,"0","0",NA,"0.377854899968952","0.603376700018998",NA,"1","1",NA,"1","1",NA,"1","1",NA
