"participant_id","current_trial_face","pre_trial_face","post_trial_face","current_trial_accuracy","pre_trial_accuracy","post_trial_accuracy","current_trial_congruency","pre_trial_congruency","post_trial_congruency","current_trial_rt","pre_trial_rt","post_trial_rt","current_trial_responded","pre_trial_responded","post_trial_responded","current_trial_legitResponse","pre_trial_legitResponse","post_trial_legitResponse","current_trial_resp_nums","pre_trial_resp_nums","post_trial_resp_nums"
"250044","img/neutralC/CFD-IF-623-129-N.jpg",NA,"img/neutralC/CFD-WM-004-010-N.jpg","1",NA,"1","1",NA,"0","0.403773499885574",NA,"0.491909200092778","1",NA,"1","1",NA,"1","1",NA,"1"
"250044","img/neutralC/CFD-WM-004-010-N.jpg","img/neutralC/CFD-IF-623-129-N.jpg","img/neutralC/CFD-BF-038-037-N.jpg","1","1","1","0","1","1","0.491909200092778","0.403773499885574","0.312487000133842","1","1","1","1","1","1","1","1","1"
"250044","img/neutralC/CFD-BF-038-037-N.jpg","img/neutralC/CFD-WM-004-010-N.jpg","img/neutralC/CFD-BF-232-187-N.jpg","1","1","1","1","0","1","0.312487000133842","0.491909200092778","0.366323600057513","1","1","1","1","1","1","1","1","1"
"250044","img/neutralC/CFD-BF-232-187-N.jpg","img/neutralC/CFD-BF-038-037-N.jpg","img/neutralC/CFD-WM-020-001-N.jpg","1","1","1","1","1","1","0.366323600057513","0.312487000133842","0.400744799990207","1","1","1","1","1","1","1","1","1"
"250044","img/neutralC/CFD-WM-020-001-N.jpg","img/neutralC/CFD-BF-232-187-N.jpg","img/neutralC/CFD-BM-253-004-N.jpg","1","1","1","1","1","1","0.400744799990207","0.366323600057513","0.410816199844703","1","1","1","1","1","1","1","1","1"
"250044","img/neutralC/CFD-BM-253-004-N.jpg","img/neutralC/CFD-WM-020-001-N.jpg","img/neutralC/CFD-IM-743-006-N.jpg","1","1","1","1","1","1","0.410816199844703","0.400744799990207","0.348794700112194","1","1","1","1","1","1","1","1","1"
"250044","img/neutralC/CFD-IM-743-006-N.jpg","img/neutralC/CFD-BM-253-004-N.jpg","img/neutralC/CFD-BM-225-154-N.jpg","1","1","1","1","1","1","0.348794700112194","0.410816199844703","0.281716199824587","1","1","1","1","1","1","1","1","1"
"250044","img/neutralC/CFD-BM-225-154-N.jpg","img/neutralC/CFD-IM-743-006-N.jpg","img/neutralC/CFD-IM-703-182-N.jpg","1","1","1","1","1","1","0.281716199824587","0.348794700112194","0.296197700081393","1","1","1","1","1","1","1","1","1"
"250044","img/neutralC/CFD-IM-703-182-N.jpg","img/neutralC/CFD-BM-225-154-N.jpg","img/neutralC/CFD-AM-251-124-N.jpg","1","1","1","1","1","0","0.296197700081393","0.281716199824587","0.446798700140789","1","1","1","1","1","1","1","1","1"
"250044","img/neutralC/CFD-AM-251-124-N.jpg","img/neutralC/CFD-IM-703-182-N.jpg","img/neutralC/CFD-WF-001-003-N.jpg","1","1","1","0","1","1","0.446798700140789","0.296197700081393","0.366771100088954","1","1","1","1","1","1","1","1","1"
"250044","img/neutralC/CFD-WF-001-003-N.jpg","img/neutralC/CFD-AM-251-124-N.jpg","img/neutralC/CFD-MF-359-019-N.jpg","1","1","0","1","0","0","0.366771100088954","0.446798700140789","0.35142119997181","1","1","1","1","1","1","1","1","1"
"250044","img/neutralC/CFD-MF-359-019-N.jpg","img/neutralC/CFD-WF-001-003-N.jpg","img/neutralC/CFD-IM-671-601-N.jpg","0","1","1","0","1","0","0.35142119997181","0.366771100088954","0.490962499985471","1","1","1","1","1","1","1","1","1"
"250044","img/neutralC/CFD-IM-671-601-N.jpg","img/neutralC/CFD-MF-359-019-N.jpg","img/neutralC/CFD-AM-211-052-N.jpg","1","0","1","0","0","1","0.490962499985471","0.35142119997181","0.338167800102383","1","1","1","1","1","1","1","1","1"
"250044","img/neutralC/CFD-AM-211-052-N.jpg","img/neutralC/CFD-IM-671-601-N.jpg","img/neutralC/CFD-MF-352-054-N.jpg","1","1","1","1","0","0","0.338167800102383","0.490962499985471","0.437093499815091","1","1","1","1","1","1","1","1","1"
"250044","img/neutralC/CFD-MF-352-054-N.jpg","img/neutralC/CFD-AM-211-052-N.jpg","img/neutralC/CFD-MF-333-012-N.jpg","1","1","1","0","1","0","0.437093499815091","0.338167800102383","0.467588600004092","1","1","1","1","1","1","1","1","1"
"250044","img/neutralC/CFD-MF-333-012-N.jpg","img/neutralC/CFD-MF-352-054-N.jpg","img/neutralC/CFD-BF-229-179-N.jpg","1","1","0","0","0","0","0.467588600004092","0.437093499815091","0.496807399904355","1","1","1","1","1","1","1","1","1"
"250044","img/neutralC/CFD-BF-229-179-N.jpg","img/neutralC/CFD-MF-333-012-N.jpg","img/neutralC/CFD-LF-220-120-N.jpg","0","1","1","0","0","1","0.496807399904355","0.467588600004092","0.322518699802458","1","1","1","1","1","1","1","1","1"
"250044","img/neutralC/CFD-LF-220-120-N.jpg","img/neutralC/CFD-BF-229-179-N.jpg","img/neutralC/CFD-LF-218-072-N.jpg","1","0","1","1","0","0","0.322518699802458","0.496807399904355","0.583370999898762","1","1","1","1","1","1","1","1","1"
"250044","img/neutralC/CFD-LF-218-072-N.jpg","img/neutralC/CFD-LF-220-120-N.jpg","img/neutralC/CFD-WM-219-008-N.jpg","1","1","1","0","1","0","0.583370999898762","0.322518699802458","0.445464099990204","1","1","1","1","1","1","1","1","1"
"250044","img/neutralC/CFD-WM-219-008-N.jpg","img/neutralC/CFD-LF-218-072-N.jpg","img/neutralC/CFD-IM-616-214-N.jpg","1","1","1","0","0","0","0.445464099990204","0.583370999898762","0.389232699992135","1","1","1","1","1","1","1","1","1"
"250044","img/neutralC/CFD-IM-616-214-N.jpg","img/neutralC/CFD-WM-219-008-N.jpg","img/neutralC/CFD-AM-242-176-N.jpg","1","1","1","0","0","1","0.389232699992135","0.445464099990204","0.368065200047567","1","1","1","1","1","1","1","1","1"
"250044","img/neutralC/CFD-AM-242-176-N.jpg","img/neutralC/CFD-IM-616-214-N.jpg","img/neutralC/CFD-WM-235-147-N.jpg","1","1","1","1","0","0","0.368065200047567","0.389232699992135","0.458265300141647","1","1","1","1","1","1","1","1","1"
"250044","img/neutralC/CFD-WM-235-147-N.jpg","img/neutralC/CFD-AM-242-176-N.jpg","img/neutralC/CFD-WF-214-122-N.jpg","1","1","1","0","1","1","0.458265300141647","0.368065200047567","0.346014900133014","1","1","1","1","1","1","1","1","1"
"250044","img/neutralC/CFD-WF-214-122-N.jpg","img/neutralC/CFD-WM-235-147-N.jpg","img/neutralC/CFD-LM-228-188-N.jpg","1","1","1","1","0","1","0.346014900133014","0.458265300141647","0.523507299833","1","1","1","1","1","1","1","1","1"
"250044","img/neutralC/CFD-LM-228-188-N.jpg","img/neutralC/CFD-WF-214-122-N.jpg","img/neutralC/CFD-LM-237-264-N.jpg","1","1","1","1","1","0","0.523507299833","0.346014900133014","0.507322600111365","1","1","1","1","1","1","1","1","1"
"250044","img/neutralC/CFD-LM-237-264-N.jpg","img/neutralC/CFD-LM-228-188-N.jpg","img/neutralC/CFD-BF-226-119-N.jpg","1","1","1","0","1","1","0.507322600111365","0.523507299833","0.374628999968991","1","1","1","1","1","1","1","1","1"
"250044","img/neutralC/CFD-BF-226-119-N.jpg","img/neutralC/CFD-LM-237-264-N.jpg","img/neutralC/CFD-WF-200-099-N.jpg","1","1","1","1","0","0","0.374628999968991","0.507322600111365","0.444145200075582","1","1","1","1","1","1","1","1","1"
"250044","img/neutralC/CFD-WF-200-099-N.jpg","img/neutralC/CFD-BF-226-119-N.jpg","img/neutralC/CFD-IF-650-315-N.jpg","1","1","1","0","1","0","0.444145200075582","0.374628999968991","0.392671500099823","1","1","1","1","1","1","1","1","1"
"250044","img/neutralC/CFD-IF-650-315-N.jpg","img/neutralC/CFD-WF-200-099-N.jpg","img/neutralC/CFD-IM-645-001-N.jpg","1","1","1","0","0","0","0.392671500099823","0.444145200075582","0.406907900003716","1","1","1","1","1","1","1","1","1"
"250044","img/neutralC/CFD-IM-645-001-N.jpg","img/neutralC/CFD-IF-650-315-N.jpg","img/neutralC/CFD-WF-036-023-N.jpg","1","1","1","0","0","0","0.406907900003716","0.392671500099823","0.559189300052822","1","1","1","1","1","1","1","1","1"
"250044","img/neutralC/CFD-WF-036-023-N.jpg","img/neutralC/CFD-IM-645-001-N.jpg","img/neutralC/CFD-WM-033-025-N.jpg","1","1","1","0","0","1","0.559189300052822","0.406907900003716","0.326182899996638","1","1","1","1","1","1","1","1","1"
"250044","img/neutralC/CFD-WM-033-025-N.jpg","img/neutralC/CFD-WF-036-023-N.jpg",NA,"1","1",NA,"1","0",NA,"0.326182899996638","0.559189300052822",NA,"1","1",NA,"1","1",NA,"1","1",NA
"250044","img/neutralC/CFD-LM-244-068-N.jpg",NA,"img/neutralC/CFD-WM-215-041-N.jpg","1",NA,"1","1",NA,"0","0.328772899927571",NA,"0.364891899982467","1",NA,"1","1",NA,"1","1",NA,"1"
"250044","img/neutralC/CFD-WM-215-041-N.jpg","img/neutralC/CFD-LM-244-068-N.jpg","img/neutralC/CFD-MM-317-061-N.jpg","1","1","1","0","1","1","0.364891899982467","0.328772899927571","0.369408400030807","1","1","1","1","1","1","1","1","1"
"250044","img/neutralC/CFD-MM-317-061-N.jpg","img/neutralC/CFD-WM-215-041-N.jpg","img/neutralC/CFD-WF-240-083-N.jpg","1","1","1","1","0","0","0.369408400030807","0.364891899982467","0.397021400043741","1","1","1","1","1","1","1","1","1"
"250044","img/neutralC/CFD-WF-240-083-N.jpg","img/neutralC/CFD-MM-317-061-N.jpg","img/neutralC/CFD-IM-646-023-N.jpg","1","1","1","0","1","1","0.397021400043741","0.369408400030807","0.328810999868438","1","1","1","1","1","1","1","1","1"
"250044","img/neutralC/CFD-IM-646-023-N.jpg","img/neutralC/CFD-WF-240-083-N.jpg","img/neutralC/CFD-BM-251-013-N.jpg","1","1","1","1","0","1","0.328810999868438","0.397021400043741","0.349893499864265","1","1","1","1","1","1","1","1","1"
"250044","img/neutralC/CFD-BM-251-013-N.jpg","img/neutralC/CFD-IM-646-023-N.jpg","img/neutralC/CFD-WM-026-001-N.jpg","1","1","1","1","1","1","0.349893499864265","0.328810999868438","0.318804900161922","1","1","1","1","1","1","1","1","1"
"250044","img/neutralC/CFD-WM-026-001-N.jpg","img/neutralC/CFD-BM-251-013-N.jpg","img/neutralC/CFD-IF-642-295-N.jpg","1","1","1","1","1","1","0.318804900161922","0.349893499864265","0.389279199996963","1","1","1","1","1","1","1","1","1"
"250044","img/neutralC/CFD-IF-642-295-N.jpg","img/neutralC/CFD-WM-026-001-N.jpg","img/neutralC/CFD-WF-005-010-N.jpg","1","1","1","1","1","0","0.389279199996963","0.318804900161922","0.427505000028759","1","1","1","1","1","1","1","1","1"
"250044","img/neutralC/CFD-WF-005-010-N.jpg","img/neutralC/CFD-IF-642-295-N.jpg","img/neutralC/CFD-BM-205-001-N.jpg","1","1","1","0","1","0","0.427505000028759","0.389279199996963","0.361441799905151","1","1","1","1","1","1","1","1","1"
"250044","img/neutralC/CFD-BM-205-001-N.jpg","img/neutralC/CFD-WF-005-010-N.jpg","img/neutralC/CFD-WM-012-001-N.jpg","1","1","1","0","0","1","0.361441799905151","0.427505000028759","0.330321199959144","1","1","1","1","1","1","1","1","1"
"250044","img/neutralC/CFD-WM-012-001-N.jpg","img/neutralC/CFD-BM-205-001-N.jpg","img/neutralC/CFD-BF-212-315-N.jpg","1","1","1","1","0","1","0.330321199959144","0.361441799905151","0.359791299793869","1","1","1","1","1","1","1","1","1"
"250044","img/neutralC/CFD-BF-212-315-N.jpg","img/neutralC/CFD-WM-012-001-N.jpg","img/neutralC/CFD-WM-019-003-N.jpg","1","1","1","1","1","1","0.359791299793869","0.330321199959144","0.408699699910358","1","1","1","1","1","1","1","1","1"
"250044","img/neutralC/CFD-WM-019-003-N.jpg","img/neutralC/CFD-BF-212-315-N.jpg","img/neutralC/CFD-MF-309-002-N.jpg","1","1","1","1","1","0","0.408699699910358","0.359791299793869","0.448310100007802","1","1","1","1","1","1","1","1","1"
"250044","img/neutralC/CFD-MF-309-002-N.jpg","img/neutralC/CFD-WM-019-003-N.jpg","img/neutralC/CFD-IM-648-337-N.jpg","1","1","0","0","1","0","0.448310100007802","0.408699699910358","0.448520299978554","1","1","1","1","1","1","1","1","1"
"250044","img/neutralC/CFD-IM-648-337-N.jpg","img/neutralC/CFD-MF-309-002-N.jpg","img/neutralC/CFD-LM-201-057-N.jpg","0","1","1","0","0","1","0.448520299978554","0.448310100007802","0.389316700166091","1","1","1","1","1","1","1","1","1"
"250044","img/neutralC/CFD-LM-201-057-N.jpg","img/neutralC/CFD-IM-648-337-N.jpg","img/neutralC/CFD-BM-248-128-N.jpg","1","0","1","1","0","0","0.389316700166091","0.448520299978554","0.437702299794182","1","1","1","1","1","1","1","1","1"
"250044","img/neutralC/CFD-BM-248-128-N.jpg","img/neutralC/CFD-LM-201-057-N.jpg","img/neutralC/CFD-AM-247-165-N.jpg","1","1","1","0","1","1","0.437702299794182","0.389316700166091","0.362891300115734","1","1","1","1","1","1","1","1","1"
"250044","img/neutralC/CFD-AM-247-165-N.jpg","img/neutralC/CFD-BM-248-128-N.jpg","img/neutralC/CFD-WF-228-196-N.jpg","1","1","0","1","0","0","0.362891300115734","0.437702299794182","0.344464800087735","1","1","1","1","1","1","1","1","1"
"250044","img/neutralC/CFD-WF-228-196-N.jpg","img/neutralC/CFD-AM-247-165-N.jpg","img/neutralC/CFD-LM-243-075-N.jpg","0","1","1","0","1","0","0.344464800087735","0.362891300115734","0.359867400024086","1","1","1","1","1","1","1","1","1"
"250044","img/neutralC/CFD-LM-243-075-N.jpg","img/neutralC/CFD-WF-228-196-N.jpg","img/neutralC/CFD-BF-041-001-N.jpg","1","0","1","0","0","1","0.359867400024086","0.344464800087735","0.400632299948484","1","1","1","1","1","1","1","1","1"
"250044","img/neutralC/CFD-BF-041-001-N.jpg","img/neutralC/CFD-LM-243-075-N.jpg","img/neutralC/CFD-BF-202-109-N.jpg","1","1","1","1","0","1","0.400632299948484","0.359867400024086","0.330121299950406","1","1","1","1","1","1","1","1","1"
"250044","img/neutralC/CFD-BF-202-109-N.jpg","img/neutralC/CFD-BF-041-001-N.jpg","img/neutralC/CFD-MF-335-002-N.jpg","1","1","1","1","1","0","0.330121299950406","0.400632299948484","0.420878199860454","1","1","1","1","1","1","1","1","1"
"250044","img/neutralC/CFD-MF-335-002-N.jpg","img/neutralC/CFD-BF-202-109-N.jpg","img/neutralC/CFD-AF-240-206-N.jpg","1","1","1","0","1","0","0.420878199860454","0.330121299950406","0.383151500020176","1","1","1","1","1","1","1","1","1"
"250044","img/neutralC/CFD-AF-240-206-N.jpg","img/neutralC/CFD-MF-335-002-N.jpg","img/neutralC/CFD-WM-006-002-N.jpg","1","1","1","0","0","0","0.383151500020176","0.420878199860454","0.338966400129721","1","1","1","1","1","1","1","1","1"
"250044","img/neutralC/CFD-WM-006-002-N.jpg","img/neutralC/CFD-AF-240-206-N.jpg","img/neutralC/CFD-LM-216-082-N.jpg","1","1","1","0","0","0","0.338966400129721","0.383151500020176","0.418223999906331","1","1","1","1","1","1","1","1","1"
"250044","img/neutralC/CFD-LM-216-082-N.jpg","img/neutralC/CFD-WM-006-002-N.jpg","img/neutralC/CFD-WM-212-097-N.jpg","1","1","1","0","0","0","0.418223999906331","0.338966400129721","0.637957000173628","1","1","1","1","1","1","1","1","1"
"250044","img/neutralC/CFD-WM-212-097-N.jpg","img/neutralC/CFD-LM-216-082-N.jpg","img/neutralC/CFD-WF-017-003-N.jpg","1","1","1","0","0","1","0.637957000173628","0.418223999906331","0.550813599955291","1","1","1","1","1","1","1","1","1"
"250044","img/neutralC/CFD-WF-017-003-N.jpg","img/neutralC/CFD-WM-212-097-N.jpg","img/neutralC/CFD-WM-249-239-N.jpg","1","1","1","1","0","1","0.550813599955291","0.637957000173628","0.356523400172591","1","1","1","1","1","1","1","1","1"
"250044","img/neutralC/CFD-WM-249-239-N.jpg","img/neutralC/CFD-WF-017-003-N.jpg","img/neutralC/CFD-BF-025-002-N.jpg","1","1","0","1","1","0","0.356523400172591","0.550813599955291","0.374058699933812","1","1","1","1","1","1","1","1","1"
"250044","img/neutralC/CFD-BF-025-002-N.jpg","img/neutralC/CFD-WM-249-239-N.jpg","img/neutralC/CFD-BF-228-212-N.jpg","0","1","1","0","1","0","0.374058699933812","0.356523400172591","0.511031799949706","1","1","1","1","1","1","1","1","1"
"250044","img/neutralC/CFD-BF-228-212-N.jpg","img/neutralC/CFD-BF-025-002-N.jpg","img/neutralC/CFD-LM-214-165-N.jpg","1","0","1","0","0","1","0.511031799949706","0.374058699933812","0.38435269985348","1","1","1","1","1","1","1","1","1"
"250044","img/neutralC/CFD-LM-214-165-N.jpg","img/neutralC/CFD-BF-228-212-N.jpg",NA,"1","1",NA,"1","0",NA,"0.38435269985348","0.511031799949706",NA,"1","1",NA,"1","1",NA,"1","1",NA
"250044","img/neutralC/CFD-BM-039-029-N.jpg",NA,"img/neutralC/CFD-IM-637-007-N.jpg","1",NA,"1","1",NA,"0","0.426769400015473",NA,"0.481290300143883","1",NA,"1","1",NA,"1","1",NA,"1"
"250044","img/neutralC/CFD-IM-637-007-N.jpg","img/neutralC/CFD-BM-039-029-N.jpg","img/neutralC/CFD-WM-213-076-N.jpg","1","1","1","0","1","1","0.481290300143883","0.426769400015473","0.307251499965787","1","1","1","1","1","1","1","1","1"
"250044","img/neutralC/CFD-WM-213-076-N.jpg","img/neutralC/CFD-IM-637-007-N.jpg","img/neutralC/CFD-BF-224-002-N.jpg","1","1","1","1","0","1","0.307251499965787","0.481290300143883","0.384703999850899","1","1","1","1","1","1","1","1","1"
"250044","img/neutralC/CFD-BF-224-002-N.jpg","img/neutralC/CFD-WM-213-076-N.jpg","img/neutralC/CFD-AF-215-70-N.jpg","1","1","0","1","1","0","0.384703999850899","0.307251499965787","0.444309800164774","1","1","1","1","1","1","1","1","1"
"250044","img/neutralC/CFD-AF-215-70-N.jpg","img/neutralC/CFD-BF-224-002-N.jpg","img/neutralC/CFD-WF-212-050-N.jpg","0","1","1","0","1","0","0.444309800164774","0.384703999850899","0.416782400105149","1","1","1","1","1","1","1","1","1"
"250044","img/neutralC/CFD-WF-212-050-N.jpg","img/neutralC/CFD-AF-215-70-N.jpg","img/neutralC/CFD-IM-685-004-N.jpg","1","0","1","0","0","1","0.416782400105149","0.444309800164774","0.38783930009231","1","1","1","1","1","1","1","1","1"
"250044","img/neutralC/CFD-IM-685-004-N.jpg","img/neutralC/CFD-WF-212-050-N.jpg","img/neutralC/CFD-MF-329-001-N.jpg","1","1","1","1","0","0","0.38783930009231","0.416782400105149","0.400629800045863","1","1","1","1","1","1","1","1","1"
"250044","img/neutralC/CFD-MF-329-001-N.jpg","img/neutralC/CFD-IM-685-004-N.jpg","img/neutralC/CFD-LM-217-162-N.jpg","1","1","1","0","1","0","0.400629800045863","0.38783930009231","0.464700399897993","1","1","1","1","1","1","1","1","1"
"250044","img/neutralC/CFD-LM-217-162-N.jpg","img/neutralC/CFD-MF-329-001-N.jpg","img/neutralC/CFD-LF-201-035-N.jpg","1","1","1","0","0","1","0.464700399897993","0.400629800045863","0.383798599941656","1","1","1","1","1","1","1","1","1"
"250044","img/neutralC/CFD-LF-201-035-N.jpg","img/neutralC/CFD-LM-217-162-N.jpg","img/neutralC/CFD-WM-024-015-N.jpg","1","1","1","1","0","1","0.383798599941656","0.464700399897993","0.334014599910006","1","1","1","1","1","1","1","1","1"
"250044","img/neutralC/CFD-WM-024-015-N.jpg","img/neutralC/CFD-LF-201-035-N.jpg","img/neutralC/CFD-MF-340-026-N.jpg","1","1","1","1","1","1","0.334014599910006","0.383798599941656","0.437170600052923","1","1","1","1","1","1","1","1","1"
"250044","img/neutralC/CFD-MF-340-026-N.jpg","img/neutralC/CFD-WM-024-015-N.jpg","img/neutralC/CFD-MM-304-002-N.jpg","1","1","1","1","1","1","0.437170600052923","0.334014599910006","0.374214800074696","1","1","1","1","1","1","1","1","1"
"250044","img/neutralC/CFD-MM-304-002-N.jpg","img/neutralC/CFD-MF-340-026-N.jpg","img/neutralC/CFD-IF-619-197-N.jpg","1","1","0","1","1","0","0.374214800074696","0.437170600052923","0.384380199946463","1","1","1","1","1","1","1","1","1"
"250044","img/neutralC/CFD-IF-619-197-N.jpg","img/neutralC/CFD-MM-304-002-N.jpg","img/neutralC/CFD-AM-236-090-N.jpg","0","1","1","0","1","1","0.384380199946463","0.374214800074696","0.350727899931371","1","1","1","1","1","1","1","1","1"
"250044","img/neutralC/CFD-AM-236-090-N.jpg","img/neutralC/CFD-IF-619-197-N.jpg","img/neutralC/CFD-IM-675-015-N.jpg","1","0","1","1","0","1","0.350727899931371","0.384380199946463","0.41697150003165","1","1","1","1","1","1","1","1","1"
"250044","img/neutralC/CFD-IM-675-015-N.jpg","img/neutralC/CFD-AM-236-090-N.jpg","img/neutralC/CFD-BF-051-035-N.jpg","1","1","1","1","1","0","0.41697150003165","0.350727899931371","0.451927399961278","1","1","1","1","1","1","1","1","1"
"250044","img/neutralC/CFD-BF-051-035-N.jpg","img/neutralC/CFD-IM-675-015-N.jpg","img/neutralC/CFD-WM-232-070-N.jpg","1","1","1","0","1","0","0.451927399961278","0.41697150003165","0.382085599936545","1","1","1","1","1","1","1","1","1"
"250044","img/neutralC/CFD-WM-232-070-N.jpg","img/neutralC/CFD-BF-051-035-N.jpg","img/neutralC/CFD-LF-226-174-N.jpg","1","1","1","0","0","0","0.382085599936545","0.451927399961278","0.669955199817196","1","1","1","1","1","1","1","1","1"
"250044","img/neutralC/CFD-LF-226-174-N.jpg","img/neutralC/CFD-WM-232-070-N.jpg","img/neutralC/CFD-AF-229-160-N.jpg","1","1","1","0","0","0","0.669955199817196","0.382085599936545","0.40158660011366","1","1","1","1","1","1","1","1","1"
"250044","img/neutralC/CFD-AF-229-160-N.jpg","img/neutralC/CFD-LF-226-174-N.jpg","img/neutralC/CFD-WF-248-129-N.jpg","1","1","1","0","0","0","0.40158660011366","0.669955199817196","0.463059599976987","1","1","1","1","1","1","1","1","1"
"250044","img/neutralC/CFD-WF-248-129-N.jpg","img/neutralC/CFD-AF-229-160-N.jpg","img/neutralC/CFD-MF-300-002-N.jpg","1","1","1","0","0","0","0.463059599976987","0.40158660011366","0.421444599982351","1","1","1","1","1","1","1","1","1"
"250044","img/neutralC/CFD-MF-300-002-N.jpg","img/neutralC/CFD-WF-248-129-N.jpg","img/neutralC/CFD-BM-243-218-N.jpg","1","1","1","0","0","1","0.421444599982351","0.463059599976987","0.340023000026122","1","1","1","1","1","1","1","1","1"
"250044","img/neutralC/CFD-BM-243-218-N.jpg","img/neutralC/CFD-MF-300-002-N.jpg","img/neutralC/CFD-IM-709-103-N.jpg","1","1","1","1","0","0","0.340023000026122","0.421444599982351","0.483811600133777","1","1","1","1","1","1","1","1","1"
"250044","img/neutralC/CFD-IM-709-103-N.jpg","img/neutralC/CFD-BM-243-218-N.jpg","img/neutralC/CFD-WF-012-002-N.jpg","1","1","1","0","1","1","0.483811600133777","0.340023000026122","0.367749300086871","1","1","1","1","1","1","1","1","1"
"250044","img/neutralC/CFD-WF-012-002-N.jpg","img/neutralC/CFD-IM-709-103-N.jpg","img/neutralC/CFD-IM-604-014-N.jpg","1","1","1","1","0","0","0.367749300086871","0.483811600133777","0.501960200024769","1","1","1","1","1","1","1","1","1"
"250044","img/neutralC/CFD-IM-604-014-N.jpg","img/neutralC/CFD-WF-012-002-N.jpg","img/neutralC/CFD-BF-043-003-N.jpg","1","1","1","0","1","0","0.501960200024769","0.367749300086871","0.512070200173184","1","1","1","1","1","1","1","1","1"
"250044","img/neutralC/CFD-BF-043-003-N.jpg","img/neutralC/CFD-IM-604-014-N.jpg","img/neutralC/CFD-WF-008-002-N.jpg","1","1","1","0","0","1","0.512070200173184","0.501960200024769","0.387663200031966","1","1","1","1","1","1","1","1","1"
"250044","img/neutralC/CFD-WF-008-002-N.jpg","img/neutralC/CFD-BF-043-003-N.jpg","img/neutralC/CFD-MF-327-002-N.jpg","1","1","1","1","0","0","0.387663200031966","0.512070200173184","0.473164099967107","1","1","1","1","1","1","1","1","1"
"250044","img/neutralC/CFD-MF-327-002-N.jpg","img/neutralC/CFD-WF-008-002-N.jpg","img/neutralC/CFD-WF-217-085-N.jpg","1","1","1","0","1","1","0.473164099967107","0.387663200031966","0.421260700095445","1","1","1","1","1","1","1","1","1"
"250044","img/neutralC/CFD-WF-217-085-N.jpg","img/neutralC/CFD-MF-327-002-N.jpg","img/neutralC/CFD-AF-254-167-N.jpg","1","1","1","1","0","1","0.421260700095445","0.473164099967107","0.370992100099102","1","1","1","1","1","1","1","1","1"
"250044","img/neutralC/CFD-AF-254-167-N.jpg","img/neutralC/CFD-WF-217-085-N.jpg","img/neutralC/CFD-IF-608-390-N.jpg","1","1","1","1","1","1","0.370992100099102","0.421260700095445","0.373227099888027","1","1","1","1","1","1","1","1","1"
"250044","img/neutralC/CFD-IF-608-390-N.jpg","img/neutralC/CFD-AF-254-167-N.jpg",NA,"1","1",NA,"1","1",NA,"0.373227099888027","0.370992100099102",NA,"1","1",NA,"1","1",NA,"1","1",NA
"250044","img/neutralC/CFD-AF-233-190-N.jpg",NA,"img/neutralC/CFD-AF-253-130-N.jpg","1",NA,"1","0",NA,"1","0.475036600138992",NA,"0.40505149983801","1",NA,"1","1",NA,"1","1",NA,"1"
"250044","img/neutralC/CFD-AF-253-130-N.jpg","img/neutralC/CFD-AF-233-190-N.jpg","img/neutralC/CFD-AM-220-134-N.jpg","1","1","1","1","0","0","0.40505149983801","0.475036600138992","0.403934000059962","1","1","1","1","1","1","1","1","1"
"250044","img/neutralC/CFD-AM-220-134-N.jpg","img/neutralC/CFD-AF-253-130-N.jpg","img/neutralC/CFD-BM-001-014-N.jpg","1","1","0","0","1","0","0.403934000059962","0.40505149983801","0.303678099997342","1","1","1","1","1","1","1","1","1"
"250044","img/neutralC/CFD-BM-001-014-N.jpg","img/neutralC/CFD-AM-220-134-N.jpg","img/neutralC/CFD-WF-222-092-N.jpg","0","1","1","0","0","1","0.303678099997342","0.403934000059962","0.348931499989703","1","1","1","1","1","1","1","1","1"
"250044","img/neutralC/CFD-WF-222-092-N.jpg","img/neutralC/CFD-BM-001-014-N.jpg","img/neutralC/CFD-LM-225-130-N.jpg","1","0","1","1","0","0","0.348931499989703","0.303678099997342","0.354403699981049","1","1","1","1","1","1","1","1","1"
"250044","img/neutralC/CFD-LM-225-130-N.jpg","img/neutralC/CFD-WF-222-092-N.jpg","img/neutralC/CFD-BF-237-172-N.jpg","1","1","1","0","1","1","0.354403699981049","0.348931499989703","0.322028900031","1","1","1","1","1","1","1","1","1"
"250044","img/neutralC/CFD-BF-237-172-N.jpg","img/neutralC/CFD-LM-225-130-N.jpg","img/neutralC/CFD-WM-218-074-N.jpg","1","1","1","1","0","1","0.322028900031","0.354403699981049","0.291758500039577","1","1","1","1","1","1","1","1","1"
"250044","img/neutralC/CFD-WM-218-074-N.jpg","img/neutralC/CFD-BF-237-172-N.jpg","img/neutralC/CFD-LF-255-088-N.jpg","1","1","1","1","1","0","0.291758500039577","0.322028900031","0.328495000023395","1","1","1","1","1","1","1","1","1"
"250044","img/neutralC/CFD-LF-255-088-N.jpg","img/neutralC/CFD-WM-218-074-N.jpg","img/neutralC/CFD-IF-626-375-N.jpg","1","1","1","0","1","0","0.328495000023395","0.291758500039577","0.361001299927011","1","1","1","1","1","1","1","1","1"
"250044","img/neutralC/CFD-IF-626-375-N.jpg","img/neutralC/CFD-LF-255-088-N.jpg","img/neutralC/CFD-IM-680-369-N.jpg","1","1","1","0","0","1","0.361001299927011","0.328495000023395","0.366680500097573","1","1","1","1","1","1","1","1","1"
"250044","img/neutralC/CFD-IM-680-369-N.jpg","img/neutralC/CFD-IF-626-375-N.jpg","img/neutralC/CFD-IM-706-002-N.jpg","1","1","1","1","0","0","0.366680500097573","0.361001299927011","0.338398199994117","1","1","1","1","1","1","1","1","1"
"250044","img/neutralC/CFD-IM-706-002-N.jpg","img/neutralC/CFD-IM-680-369-N.jpg","img/neutralC/CFD-IM-667-369-N.jpg","1","1","1","0","1","0","0.338398199994117","0.366680500097573","0.46267529996112","1","1","1","1","1","1","1","1","1"
"250044","img/neutralC/CFD-IM-667-369-N.jpg","img/neutralC/CFD-IM-706-002-N.jpg","img/neutralC/CFD-LF-206-078-N.jpg","1","1","1","0","0","1","0.46267529996112","0.338398199994117","0.334736800054088","1","1","1","1","1","1","1","1","1"
"250044","img/neutralC/CFD-LF-206-078-N.jpg","img/neutralC/CFD-IM-667-369-N.jpg","img/neutralC/CFD-IM-664-651-N.jpg","1","1","0","1","0","1","0.334736800054088","0.46267529996112","0.33391849999316","1","1","1","1","1","1","1","1","2"
"250044","img/neutralC/CFD-IM-664-651-N.jpg","img/neutralC/CFD-LF-206-078-N.jpg","img/neutralC/CFD-MF-305-014-N.jpg","0","1","1","1","1","1","0.33391849999316","0.334736800054088","0.40633019991219","1","1","1","1","1","1","2","1","1"
"250044","img/neutralC/CFD-MF-305-014-N.jpg","img/neutralC/CFD-IM-664-651-N.jpg","img/neutralC/CFD-MF-303-013-N.jpg","1","0","1","1","1","0","0.40633019991219","0.33391849999316","0.438709500012919","1","1","1","1","1","1","1","2","1"
"250044","img/neutralC/CFD-MF-303-013-N.jpg","img/neutralC/CFD-MF-305-014-N.jpg","img/neutralC/CFD-MF-357-002-N.jpg","1","1","1","0","1","0","0.438709500012919","0.40633019991219","0.411982099991292","1","1","1","1","1","1","1","1","1"
"250044","img/neutralC/CFD-MF-357-002-N.jpg","img/neutralC/CFD-MF-303-013-N.jpg","img/neutralC/CFD-WM-015-002-N.jpg","1","1","1","0","0","0","0.411982099991292","0.438709500012919","0.387657799990848","1","1","1","1","1","1","1","1","1"
"250044","img/neutralC/CFD-WM-015-002-N.jpg","img/neutralC/CFD-MF-357-002-N.jpg","img/neutralC/CFD-IM-702-101-N.jpg","1","1","1","0","0","1","0.387657799990848","0.411982099991292","0.439051500055939","1","1","1","1","1","1","1","1","1"
"250044","img/neutralC/CFD-IM-702-101-N.jpg","img/neutralC/CFD-WM-015-002-N.jpg","img/neutralC/CFD-BM-217-082-N.jpg","1","1","1","1","0","0","0.439051500055939","0.387657799990848","0.491158900083974","1","1","1","1","1","1","1","1","1"
"250044","img/neutralC/CFD-BM-217-082-N.jpg","img/neutralC/CFD-IM-702-101-N.jpg","img/neutralC/CFD-BF-014-002-N.jpg","1","1","1","0","1","1","0.491158900083974","0.439051500055939","0.317785599967465","1","1","1","1","1","1","1","1","1"
"250044","img/neutralC/CFD-BF-014-002-N.jpg","img/neutralC/CFD-BM-217-082-N.jpg","img/neutralC/CFD-LM-200-045-N.jpg","1","1","1","1","0","1","0.317785599967465","0.491158900083974","0.442232500063255","1","1","1","1","1","1","1","1","1"
"250044","img/neutralC/CFD-LM-200-045-N.jpg","img/neutralC/CFD-BF-014-002-N.jpg","img/neutralC/CFD-MF-316-001-N.jpg","1","1","1","1","1","0","0.442232500063255","0.317785599967465","0.484339100075886","1","1","1","1","1","1","1","1","1"
"250044","img/neutralC/CFD-MF-316-001-N.jpg","img/neutralC/CFD-LM-200-045-N.jpg","img/neutralC/CFD-IF-660-464-N.jpg","1","1","1","0","1","0","0.484339100075886","0.442232500063255","0.467391500016674","1","1","1","1","1","1","1","1","1"
"250044","img/neutralC/CFD-IF-660-464-N.jpg","img/neutralC/CFD-MF-316-001-N.jpg","img/neutralC/CFD-WM-209-038-N.jpg","1","1","1","0","0","0","0.467391500016674","0.484339100075886","0.412298300070688","1","1","1","1","1","1","1","1","1"
"250044","img/neutralC/CFD-WM-209-038-N.jpg","img/neutralC/CFD-IF-660-464-N.jpg","img/neutralC/CFD-MF-343-001-N.jpg","1","1","1","0","0","1","0.412298300070688","0.467391500016674","0.304736499907449","1","1","1","1","1","1","1","1","1"
"250044","img/neutralC/CFD-MF-343-001-N.jpg","img/neutralC/CFD-WM-209-038-N.jpg","img/neutralC/CFD-WF-030-002-N.jpg","1","1","0","1","0","0","0.304736499907449","0.412298300070688","0.381034299964085","1","1","1","1","1","1","1","1","1"
"250044","img/neutralC/CFD-WF-030-002-N.jpg","img/neutralC/CFD-MF-343-001-N.jpg","img/neutralC/CFD-BM-250-170-N.jpg","0","1","1","0","1","1","0.381034299964085","0.304736499907449","0.33341299998574","1","1","1","1","1","1","1","1","1"
"250044","img/neutralC/CFD-BM-250-170-N.jpg","img/neutralC/CFD-WF-030-002-N.jpg","img/neutralC/CFD-WF-244-163-N.jpg","1","0","1","1","0","1","0.33341299998574","0.381034299964085","0.301639300072566","1","1","1","1","1","1","1","1","1"
"250044","img/neutralC/CFD-WF-244-163-N.jpg","img/neutralC/CFD-BM-250-170-N.jpg","img/neutralC/CFD-MM-324-069-N.jpg","1","1","1","1","1","1","0.301639300072566","0.33341299998574","0.398140999954194","1","1","1","1","1","1","1","1","1"
"250044","img/neutralC/CFD-MM-324-069-N.jpg","img/neutralC/CFD-WF-244-163-N.jpg","img/neutralC/CFD-WF-007-001-N.jpg","1","1","1","1","1","1","0.398140999954194","0.301639300072566","0.413497800007463","1","1","1","1","1","1","1","1","1"
"250044","img/neutralC/CFD-WF-007-001-N.jpg","img/neutralC/CFD-MM-324-069-N.jpg",NA,"1","1",NA,"1","1",NA,"0.413497800007463","0.398140999954194",NA,"1","1",NA,"1","1",NA,"1","1",NA
"250044","img/neutralC/CFD-BF-040-003-N.jpg",NA,"img/neutralC/CFD-AF-234-208-N.jpg","1",NA,"1","1",NA,"1","0.445610400056466",NA,"0.409567199880257","1",NA,"1","1",NA,"1","1",NA,"1"
"250044","img/neutralC/CFD-AF-234-208-N.jpg","img/neutralC/CFD-BF-040-003-N.jpg","img/neutralC/CFD-AM-233-236-N.jpg","1","1","1","1","1","1","0.409567199880257","0.445610400056466","0.360607400070876","1","1","1","1","1","1","1","1","1"
"250044","img/neutralC/CFD-AM-233-236-N.jpg","img/neutralC/CFD-AF-234-208-N.jpg","img/neutralC/CFD-BF-020-002-N.jpg","1","1","1","1","1","1","0.360607400070876","0.409567199880257","0.330005200114101","1","1","1","1","1","1","1","1","1"
"250044","img/neutralC/CFD-BF-020-002-N.jpg","img/neutralC/CFD-AM-233-236-N.jpg","img/neutralC/CFD-LM-204-001-N.jpg","1","1","1","1","1","0","0.330005200114101","0.360607400070876","0.32824070006609","1","1","1","1","1","1","1","1","1"
"250044","img/neutralC/CFD-LM-204-001-N.jpg","img/neutralC/CFD-BF-020-002-N.jpg","img/neutralC/CFD-AF-213-126-N.jpg","1","1","1","0","1","1","0.32824070006609","0.330005200114101","0.324740699958056","1","1","1","1","1","1","1","1","1"
"250044","img/neutralC/CFD-AF-213-126-N.jpg","img/neutralC/CFD-LM-204-001-N.jpg","img/neutralC/CFD-IM-669-111-N.jpg","1","1","1","1","0","1","0.324740699958056","0.32824070006609","0.270646100165322","1","1","1","1","1","1","1","1","1"
"250044","img/neutralC/CFD-IM-669-111-N.jpg","img/neutralC/CFD-AF-213-126-N.jpg","img/neutralC/CFD-IF-636-011-N.jpg","1","1","1","1","1","1","0.270646100165322","0.324740699958056","0.323083400027826","1","1","1","1","1","1","1","1","1"
"250044","img/neutralC/CFD-IF-636-011-N.jpg","img/neutralC/CFD-IM-669-111-N.jpg","img/neutralC/CFD-BF-206-143-N.jpg","1","1","0","1","1","1","0.323083400027826","0.270646100165322","0.289400500012562","1","1","1","1","1","1","1","1","2"
"250044","img/neutralC/CFD-BF-206-143-N.jpg","img/neutralC/CFD-IF-636-011-N.jpg","img/neutralC/CFD-BM-004-002-N.jpg","0","1","1","1","1","0","0.289400500012562","0.323083400027826","0.333314100047573","1","1","1","1","1","1","2","1","1"
"250044","img/neutralC/CFD-BM-004-002-N.jpg","img/neutralC/CFD-BF-206-143-N.jpg","img/neutralC/CFD-BF-235-168-N.jpg","1","0","1","0","1","1","0.333314100047573","0.289400500012562","0.324270300101489","1","1","1","1","1","1","1","2","1"
"250044","img/neutralC/CFD-BF-235-168-N.jpg","img/neutralC/CFD-BM-004-002-N.jpg","img/neutralC/CFD-LF-239-148-N.jpg","1","1","0","1","0","0","0.324270300101489","0.333314100047573","0.297730299877003","1","1","1","1","1","1","1","1","1"
"250044","img/neutralC/CFD-LF-239-148-N.jpg","img/neutralC/CFD-BF-235-168-N.jpg","img/neutralC/CFD-MF-307-002-N.jpg","0","1","1","0","1","1","0.297730299877003","0.324270300101489","0.337347599910572","1","1","1","1","1","1","1","1","1"
"250044","img/neutralC/CFD-MF-307-002-N.jpg","img/neutralC/CFD-LF-239-148-N.jpg","img/neutralC/CFD-IM-635-010-N.jpg","1","0","1","1","0","1","0.337347599910572","0.297730299877003","0.354616299970075","1","1","1","1","1","1","1","1","1"
"250044","img/neutralC/CFD-IM-635-010-N.jpg","img/neutralC/CFD-MF-307-002-N.jpg","img/neutralC/CFD-BF-217-189-N.jpg","1","1","0","1","1","0","0.354616299970075","0.337347599910572","0.349580799927935","1","1","1","1","1","1","1","1","1"
"250044","img/neutralC/CFD-BF-217-189-N.jpg","img/neutralC/CFD-IM-635-010-N.jpg","img/neutralC/CFD-IF-732-260-N.jpg","0","1","1","0","1","0","0.349580799927935","0.354616299970075","0.422398600028828","1","1","1","1","1","1","1","1","1"
"250044","img/neutralC/CFD-IF-732-260-N.jpg","img/neutralC/CFD-BF-217-189-N.jpg","img/neutralC/CFD-WF-210-086-N.jpg","1","0","1","0","0","0","0.422398600028828","0.349580799927935","0.465185499982908","1","1","1","1","1","1","1","1","1"
"250044","img/neutralC/CFD-WF-210-086-N.jpg","img/neutralC/CFD-IF-732-260-N.jpg","img/neutralC/CFD-AF-250-200-N.jpg","1","1","1","0","0","1","0.465185499982908","0.422398600028828","0.316591500071809","1","1","1","1","1","1","1","1","1"
"250044","img/neutralC/CFD-AF-250-200-N.jpg","img/neutralC/CFD-WF-210-086-N.jpg","img/neutralC/CFD-BF-042-026-N.jpg","1","1","1","1","0","1","0.316591500071809","0.465185499982908","0.402026599971578","1","1","1","1","1","1","1","1","1"
"250044","img/neutralC/CFD-BF-042-026-N.jpg","img/neutralC/CFD-AF-250-200-N.jpg","img/neutralC/CFD-AF-246-242-N.jpg","1","1","1","1","1","0","0.402026599971578","0.316591500071809","0.446954800048843","1","1","1","1","1","1","1","1","1"
"250044","img/neutralC/CFD-AF-246-242-N.jpg","img/neutralC/CFD-BF-042-026-N.jpg","img/neutralC/CFD-AF-244-168-N.jpg","1","1","1","0","1","0","0.446954800048843","0.402026599971578","0.487044600071386","1","1","1","1","1","1","1","1","1"
"250044","img/neutralC/CFD-AF-244-168-N.jpg","img/neutralC/CFD-AF-246-242-N.jpg","img/neutralC/CFD-LM-241-125-N.jpg","1","1","0","0","0","1","0.487044600071386","0.446954800048843","0.446083300048485","1","1","1","1","1","1","1","1","1"
"250044","img/neutralC/CFD-LM-241-125-N.jpg","img/neutralC/CFD-AF-244-168-N.jpg","img/neutralC/CFD-WM-253-119-N.jpg","0","1","1","1","0","1","0.446083300048485","0.487044600071386","0.409232000121847","1","1","1","1","1","1","1","1","1"
"250044","img/neutralC/CFD-WM-253-119-N.jpg","img/neutralC/CFD-LM-241-125-N.jpg","img/neutralC/CFD-IM-678-482-N.jpg","1","0","1","1","1","0","0.409232000121847","0.446083300048485","0.503999599954113","1","1","1","1","1","1","1","1","1"
"250044","img/neutralC/CFD-IM-678-482-N.jpg","img/neutralC/CFD-WM-253-119-N.jpg","img/neutralC/CFD-AM-225-102-N.jpg","1","1","1","0","1","0","0.503999599954113","0.409232000121847","0.411102300044149","1","1","1","1","1","1","1","1","1"
"250044","img/neutralC/CFD-AM-225-102-N.jpg","img/neutralC/CFD-IM-678-482-N.jpg","img/neutralC/CFD-AM-245-111-N.jpg","1","1","1","0","0","1","0.411102300044149","0.503999599954113","0.418556899996474","1","1","1","1","1","1","1","1","1"
"250044","img/neutralC/CFD-AM-245-111-N.jpg","img/neutralC/CFD-AM-225-102-N.jpg","img/neutralC/CFD-BM-215-155-N.jpg","1","1","1","1","0","0","0.418556899996474","0.411102300044149","0.384244600078091","1","1","1","1","1","1","1","1","1"
"250044","img/neutralC/CFD-BM-215-155-N.jpg","img/neutralC/CFD-AM-245-111-N.jpg","img/neutralC/CFD-WF-235-121-N.jpg","1","1","1","0","1","0","0.384244600078091","0.418556899996474","0.476018300047144","1","1","1","1","1","1","1","1","1"
"250044","img/neutralC/CFD-WF-235-121-N.jpg","img/neutralC/CFD-BM-215-155-N.jpg","img/neutralC/CFD-WM-018-002-N.jpg","1","1","1","0","0","0","0.476018300047144","0.384244600078091","0.480438800062984","1","1","1","1","1","1","1","1","1"
"250044","img/neutralC/CFD-WM-018-002-N.jpg","img/neutralC/CFD-WF-235-121-N.jpg","img/neutralC/CFD-AF-205-155-N.jpg","1","1","1","0","0","0","0.480438800062984","0.476018300047144","0.343541800044477","1","1","1","1","1","1","1","1","1"
"250044","img/neutralC/CFD-AF-205-155-N.jpg","img/neutralC/CFD-WM-018-002-N.jpg","img/neutralC/CFD-IM-632-097-N.jpg","1","1","1","0","0","0","0.343541800044477","0.480438800062984","0.43996399990283","1","1","1","1","1","1","1","1","1"
"250044","img/neutralC/CFD-IM-632-097-N.jpg","img/neutralC/CFD-AF-205-155-N.jpg","img/neutralC/CFD-MF-302-027-N.jpg","1","1","1","0","0","0","0.43996399990283","0.343541800044477","0.349719400051981","1","1","1","1","1","1","1","1","1"
"250044","img/neutralC/CFD-MF-302-027-N.jpg","img/neutralC/CFD-IM-632-097-N.jpg",NA,"1","1",NA,"0","0",NA,"0.349719400051981","0.43996399990283",NA,"1","1",NA,"1","1",NA,"1","1",NA
"250044","img/neutralC/CFD-LM-213-061-N.jpg",NA,"img/neutralC/CFD-WF-234-086-N.jpg","1",NA,"1","0",NA,"1","0.442709800088778",NA,"0.37438639998436","1",NA,"1","1",NA,"1","1",NA,"1"
"250044","img/neutralC/CFD-WF-234-086-N.jpg","img/neutralC/CFD-LM-213-061-N.jpg","img/neutralC/CFD-BM-241-235-N.jpg","1","1","1","1","0","0","0.37438639998436","0.442709800088778","0.371891899965703","1","1","1","1","1","1","1","1","1"
"250044","img/neutralC/CFD-BM-241-235-N.jpg","img/neutralC/CFD-WF-234-086-N.jpg","img/neutralC/CFD-AM-230-150-N.jpg","1","1","1","0","1","0","0.371891899965703","0.37438639998436","0.41906760004349","1","1","1","1","1","1","1","1","1"
"250044","img/neutralC/CFD-AM-230-150-N.jpg","img/neutralC/CFD-BM-241-235-N.jpg","img/neutralC/CFD-BF-214-308-N.jpg","1","1","1","0","0","1","0.41906760004349","0.371891899965703","0.347099999897182","1","1","1","1","1","1","1","1","1"
"250044","img/neutralC/CFD-BF-214-308-N.jpg","img/neutralC/CFD-AM-230-150-N.jpg","img/neutralC/CFD-WM-034-030-N.jpg","1","1","1","1","0","1","0.347099999897182","0.41906760004349","0.310955400113016","1","1","1","1","1","1","1","1","1"
"250044","img/neutralC/CFD-WM-034-030-N.jpg","img/neutralC/CFD-BF-214-308-N.jpg","img/neutralC/CFD-BM-036-003-N.jpg","1","1","1","1","1","1","0.310955400113016","0.347099999897182","0.384346300037578","1","1","1","1","1","1","1","1","1"
"250044","img/neutralC/CFD-BM-036-003-N.jpg","img/neutralC/CFD-WM-034-030-N.jpg","img/neutralC/CFD-BF-006-017-N.jpg","1","1","1","1","1","0","0.384346300037578","0.310955400113016","0.369711800012738","1","1","1","1","1","1","1","1","1"
"250044","img/neutralC/CFD-BF-006-017-N.jpg","img/neutralC/CFD-BM-036-003-N.jpg","img/neutralC/CFD-BF-247-179-N.jpg","1","1","1","0","1","0","0.369711800012738","0.384346300037578","0.35995059995912","1","1","1","1","1","1","1","1","1"
"250044","img/neutralC/CFD-BF-247-179-N.jpg","img/neutralC/CFD-BF-006-017-N.jpg","img/neutralC/CFD-BF-011-002-N.jpg","1","1","1","0","0","1","0.35995059995912","0.369711800012738","0.439231799915433","1","1","1","1","1","1","1","1","1"
"250044","img/neutralC/CFD-BF-011-002-N.jpg","img/neutralC/CFD-BF-247-179-N.jpg","img/neutralC/CFD-IM-707-105-N.jpg","1","1","1","1","0","1","0.439231799915433","0.35995059995912","0.409203100018203","1","1","1","1","1","1","1","1","1"
"250044","img/neutralC/CFD-IM-707-105-N.jpg","img/neutralC/CFD-BF-011-002-N.jpg","img/neutralC/CFD-WF-029-002-N.jpg","1","1","0","1","1","0","0.409203100018203","0.439231799915433","0.374911400023848","1","1","1","1","1","1","1","1","2"
"250044","img/neutralC/CFD-WF-029-002-N.jpg","img/neutralC/CFD-IM-707-105-N.jpg","img/neutralC/CFD-BF-207-004-N.jpg","0","1","1","0","1","1","0.374911400023848","0.409203100018203","0.39437699993141","1","1","1","1","1","1","2","1","1"
"250044","img/neutralC/CFD-BF-207-004-N.jpg","img/neutralC/CFD-WF-029-002-N.jpg","img/neutralC/CFD-BM-207-024-N.jpg","1","0","1","1","0","1","0.39437699993141","0.374911400023848","0.393239800119773","1","1","1","1","1","1","1","2","1"
"250044","img/neutralC/CFD-BM-207-024-N.jpg","img/neutralC/CFD-BF-207-004-N.jpg","img/neutralC/CFD-BF-236-177-N.jpg","1","1","1","1","1","0","0.393239800119773","0.39437699993141","0.386544500011951","1","1","1","1","1","1","1","1","1"
"250044","img/neutralC/CFD-BF-236-177-N.jpg","img/neutralC/CFD-BM-207-024-N.jpg","img/neutralC/CFD-WF-208-068-N.jpg","1","1","1","0","1","1","0.386544500011951","0.393239800119773","0.453505099983886","1","1","1","1","1","1","1","1","1"
"250044","img/neutralC/CFD-WF-208-068-N.jpg","img/neutralC/CFD-BF-236-177-N.jpg","img/neutralC/CFD-BF-027-002-N.jpg","1","1","1","1","0","1","0.453505099983886","0.386544500011951","0.323713100049645","1","1","1","1","1","1","1","1","1"
"250044","img/neutralC/CFD-BF-027-002-N.jpg","img/neutralC/CFD-WF-208-068-N.jpg","img/neutralC/CFD-BF-002-001-N.jpg","1","1","1","1","1","0","0.323713100049645","0.453505099983886","0.427298500202596","1","1","1","1","1","1","1","1","1"
"250044","img/neutralC/CFD-BF-002-001-N.jpg","img/neutralC/CFD-BF-027-002-N.jpg","img/neutralC/CFD-MF-301-024-N.jpg","1","1","1","0","1","0","0.427298500202596","0.323713100049645","0.330401699990034","1","1","1","1","1","1","1","1","1"
"250044","img/neutralC/CFD-MF-301-024-N.jpg","img/neutralC/CFD-BF-002-001-N.jpg","img/neutralC/CFD-IM-696-001-N.jpg","1","1","1","0","0","0","0.330401699990034","0.427298500202596","0.33688720013015","1","1","1","1","1","1","1","1","1"
"250044","img/neutralC/CFD-IM-696-001-N.jpg","img/neutralC/CFD-MF-301-024-N.jpg","img/neutralC/CFD-IM-726-248-N.jpg","1","1","1","0","0","0","0.33688720013015","0.330401699990034","0.482892399886623","1","1","1","1","1","1","1","1","1"
"250044","img/neutralC/CFD-IM-726-248-N.jpg","img/neutralC/CFD-IM-696-001-N.jpg","img/neutralC/CFD-WM-248-036-N.jpg","1","1","1","0","0","1","0.482892399886623","0.33688720013015","0.453270199941471","1","1","1","1","1","1","1","1","1"
"250044","img/neutralC/CFD-WM-248-036-N.jpg","img/neutralC/CFD-IM-726-248-N.jpg","img/neutralC/CFD-BF-044-034-N.jpg","1","1","1","1","0","0","0.453270199941471","0.482892399886623","0.477790500037372","1","1","1","1","1","1","1","1","1"
"250044","img/neutralC/CFD-BF-044-034-N.jpg","img/neutralC/CFD-WM-248-036-N.jpg","img/neutralC/CFD-IM-721-341-N.jpg","1","1","1","0","1","1","0.477790500037372","0.453270199941471","0.345140499994159","1","1","1","1","1","1","1","1","1"
"250044","img/neutralC/CFD-IM-721-341-N.jpg","img/neutralC/CFD-BF-044-034-N.jpg","img/neutralC/CFD-IF-729-393-N.jpg","1","1","0","1","0","0","0.345140499994159","0.477790500037372","0.40129500022158","1","1","1","1","1","1","1","1","1"
"250044","img/neutralC/CFD-IF-729-393-N.jpg","img/neutralC/CFD-IM-721-341-N.jpg","img/neutralC/CFD-IF-677-452-1-N.jpg","0","1","1","0","1","1","0.40129500022158","0.345140499994159","0.391511199995875","1","1","1","1","1","1","1","1","1"
"250044","img/neutralC/CFD-IF-677-452-1-N.jpg","img/neutralC/CFD-IF-729-393-N.jpg","img/neutralC/CFD-WM-014-002-N.jpg","1","0","1","1","0","0","0.391511199995875","0.40129500022158","0.410680799977854","1","1","1","1","1","1","1","1","1"
"250044","img/neutralC/CFD-WM-014-002-N.jpg","img/neutralC/CFD-IF-677-452-1-N.jpg","img/neutralC/CFD-IF-742-103-N.jpg","1","1","1","0","1","1","0.410680799977854","0.391511199995875","0.298248699866235","1","1","1","1","1","1","1","1","1"
"250044","img/neutralC/CFD-IF-742-103-N.jpg","img/neutralC/CFD-WM-014-002-N.jpg","img/neutralC/CFD-BF-036-027-N.jpg","1","1","1","1","0","0","0.298248699866235","0.410680799977854","0.599678300088271","1","1","1","1","1","1","1","1","1"
"250044","img/neutralC/CFD-BF-036-027-N.jpg","img/neutralC/CFD-IF-742-103-N.jpg","img/neutralC/CFD-WF-233-112-N.jpg","1","1","1","0","1","1","0.599678300088271","0.298248699866235","0.414859500015154","1","1","1","1","1","1","1","1","1"
"250044","img/neutralC/CFD-WF-233-112-N.jpg","img/neutralC/CFD-BF-036-027-N.jpg","img/neutralC/CFD-BM-238-242-N.jpg","1","1","1","1","0","0","0.414859500015154","0.599678300088271","0.512209999840707","1","1","1","1","1","1","1","1","1"
"250044","img/neutralC/CFD-BM-238-242-N.jpg","img/neutralC/CFD-WF-233-112-N.jpg","img/neutralC/CFD-LF-204-133-N.jpg","1","1","1","0","1","1","0.512209999840707","0.414859500015154","0.327564699808136","1","1","1","1","1","1","1","1","1"
"250044","img/neutralC/CFD-LF-204-133-N.jpg","img/neutralC/CFD-BM-238-242-N.jpg",NA,"1","1",NA,"1","0",NA,"0.327564699808136","0.512209999840707",NA,"1","1",NA,"1","1",NA,"1","1",NA
"250044","img/neutralC/CFD-BM-023-029-N.jpg",NA,"img/neutralC/CFD-WF-023-003-N.jpg","1",NA,"1","1",NA,"1","0.554665500065312",NA,"0.390939099946991","1",NA,"1","1",NA,"1","1",NA,"1"
"250044","img/neutralC/CFD-WF-023-003-N.jpg","img/neutralC/CFD-BM-023-029-N.jpg","img/neutralC/CFD-MF-321-003-N.jpg","1","1","1","1","1","0","0.390939099946991","0.554665500065312","0.356982999946922","1","1","1","1","1","1","1","1","1"
"250044","img/neutralC/CFD-MF-321-003-N.jpg","img/neutralC/CFD-WF-023-003-N.jpg","img/neutralC/CFD-MM-321-021-N.jpg","1","1","1","0","1","0","0.356982999946922","0.390939099946991","0.412169999908656","1","1","1","1","1","1","1","1","1"
"250044","img/neutralC/CFD-MM-321-021-N.jpg","img/neutralC/CFD-MF-321-003-N.jpg","img/neutralC/CFD-IM-700-009-N.jpg","1","1","1","0","0","1","0.412169999908656","0.356982999946922","0.36953920009546","1","1","1","1","1","1","1","1","1"
"250044","img/neutralC/CFD-IM-700-009-N.jpg","img/neutralC/CFD-MM-321-021-N.jpg","img/neutralC/CFD-WM-201-063-N.jpg","1","1","1","1","0","1","0.36953920009546","0.412169999908656","0.338576600188389","1","1","1","1","1","1","1","1","1"
"250044","img/neutralC/CFD-WM-201-063-N.jpg","img/neutralC/CFD-IM-700-009-N.jpg","img/neutralC/CFD-WM-009-002-N.jpg","1","1","1","1","1","0","0.338576600188389","0.36953920009546","0.381073199911043","1","1","1","1","1","1","1","1","1"
"250044","img/neutralC/CFD-WM-009-002-N.jpg","img/neutralC/CFD-WM-201-063-N.jpg","img/neutralC/CFD-WF-018-017-N.jpg","1","1","1","0","1","1","0.381073199911043","0.338576600188389","0.354248000076041","1","1","1","1","1","1","1","1","1"
"250044","img/neutralC/CFD-WF-018-017-N.jpg","img/neutralC/CFD-WM-009-002-N.jpg","img/neutralC/CFD-BM-200-046-N.jpg","1","1","1","1","0","0","0.354248000076041","0.381073199911043","0.474570700200275","1","1","1","1","1","1","1","1","1"
"250044","img/neutralC/CFD-BM-200-046-N.jpg","img/neutralC/CFD-WF-018-017-N.jpg","img/neutralC/CFD-WM-255-219-N.jpg","1","1","1","0","1","0","0.474570700200275","0.354248000076041","0.331490100128576","1","1","1","1","1","1","1","1","1"
"250044","img/neutralC/CFD-WM-255-219-N.jpg","img/neutralC/CFD-BM-200-046-N.jpg","img/neutralC/CFD-LF-215-157-N.jpg","1","1","1","0","0","0","0.331490100128576","0.474570700200275","0.374572600005195","1","1","1","1","1","1","1","1","1"
"250044","img/neutralC/CFD-LF-215-157-N.jpg","img/neutralC/CFD-WM-255-219-N.jpg","img/neutralC/CFD-WM-013-001-N.jpg","1","1","1","0","0","1","0.374572600005195","0.331490100128576","0.33940239995718","1","1","1","1","1","1","1","1","1"
"250044","img/neutralC/CFD-WM-013-001-N.jpg","img/neutralC/CFD-LF-215-157-N.jpg","img/neutralC/CFD-IM-627-178-N.jpg","1","1","1","1","0","1","0.33940239995718","0.374572600005195","0.327872400172055","1","1","1","1","1","1","1","1","1"
"250044","img/neutralC/CFD-IM-627-178-N.jpg","img/neutralC/CFD-WM-013-001-N.jpg","img/neutralC/CFD-AM-244-222-N.jpg","1","1","1","1","1","0","0.327872400172055","0.33940239995718","0.327621900010854","1","1","1","1","1","1","1","1","1"
"250044","img/neutralC/CFD-AM-244-222-N.jpg","img/neutralC/CFD-IM-627-178-N.jpg","img/neutralC/CFD-LF-211-003-N.jpg","1","1","1","0","1","0","0.327621900010854","0.327872400172055","0.352219700114802","1","1","1","1","1","1","1","1","1"
"250044","img/neutralC/CFD-LF-211-003-N.jpg","img/neutralC/CFD-AM-244-222-N.jpg","img/neutralC/CFD-BF-018-039-N.jpg","1","1","1","0","0","1","0.352219700114802","0.327621900010854","0.403733300045133","1","1","1","1","1","1","1","1","1"
"250044","img/neutralC/CFD-BF-018-039-N.jpg","img/neutralC/CFD-LF-211-003-N.jpg","img/neutralC/CFD-AF-232-078-N.jpg","1","1","1","1","0","1","0.403733300045133","0.352219700114802","0.29814639990218","1","1","1","1","1","1","1","1","1"
"250044","img/neutralC/CFD-AF-232-078-N.jpg","img/neutralC/CFD-BF-018-039-N.jpg","img/neutralC/CFD-IM-719-221-N.jpg","1","1","0","1","1","0","0.29814639990218","0.403733300045133","0.347055899910629","1","1","1","1","1","1","1","1","1"
"250044","img/neutralC/CFD-IM-719-221-N.jpg","img/neutralC/CFD-AF-232-078-N.jpg","img/neutralC/CFD-AF-221-147-N.jpg","0","1","1","0","1","0","0.347055899910629","0.29814639990218","0.358163500204682","1","1","1","1","1","1","1","1","1"
"250044","img/neutralC/CFD-AF-221-147-N.jpg","img/neutralC/CFD-IM-719-221-N.jpg","img/neutralC/CFD-LM-253-075-N.jpg","1","0","1","0","0","0","0.358163500204682","0.347055899910629","0.619032599963248","1","1","1","1","1","1","1","1","1"
"250044","img/neutralC/CFD-LM-253-075-N.jpg","img/neutralC/CFD-AF-221-147-N.jpg","img/neutralC/CFD-WF-226-095-N.jpg","1","1","1","0","0","1","0.619032599963248","0.358163500204682","0.40401539998129","1","1","1","1","1","1","1","1","1"
"250044","img/neutralC/CFD-WF-226-095-N.jpg","img/neutralC/CFD-LM-253-075-N.jpg","img/neutralC/CFD-WF-245-084-N.jpg","1","1","1","1","0","1","0.40401539998129","0.619032599963248","0.664691099897027","1","1","1","1","1","1","1","1","1"
"250044","img/neutralC/CFD-WF-245-084-N.jpg","img/neutralC/CFD-WF-226-095-N.jpg","img/neutralC/CFD-WM-237-052-N.jpg","1","1","1","1","1","1","0.664691099897027","0.40401539998129","0.606489700032398","1","1","1","1","1","1","1","1","1"
"250044","img/neutralC/CFD-WM-237-052-N.jpg","img/neutralC/CFD-WF-245-084-N.jpg","img/neutralC/CFD-BF-218-207-N.jpg","1","1","1","1","1","1","0.606489700032398","0.664691099897027","0.390559599967673","1","1","1","1","1","1","1","1","1"
"250044","img/neutralC/CFD-BF-218-207-N.jpg","img/neutralC/CFD-WM-237-052-N.jpg","img/neutralC/CFD-WF-238-023-N.jpg","1","1","1","1","1","0","0.390559599967673","0.606489700032398","0.486423399997875","1","1","1","1","1","1","1","1","1"
"250044","img/neutralC/CFD-WF-238-023-N.jpg","img/neutralC/CFD-BF-218-207-N.jpg","img/neutralC/CFD-MF-342-022-N.jpg","1","1","1","0","1","1","0.486423399997875","0.390559599967673","0.353835799964145","1","1","1","1","1","1","1","1","1"
"250044","img/neutralC/CFD-MF-342-022-N.jpg","img/neutralC/CFD-WF-238-023-N.jpg","img/neutralC/CFD-MF-318-022-N.jpg","1","1","1","1","0","1","0.353835799964145","0.486423399997875","0.37215210008435","1","1","1","1","1","1","1","1","1"
"250044","img/neutralC/CFD-MF-318-022-N.jpg","img/neutralC/CFD-MF-342-022-N.jpg","img/neutralC/CFD-IF-629-234-N.jpg","1","1","0","1","1","0","0.37215210008435","0.353835799964145","0.336892999941483","1","1","1","1","1","1","1","1","1"
"250044","img/neutralC/CFD-IF-629-234-N.jpg","img/neutralC/CFD-MF-318-022-N.jpg","img/neutralC/CFD-BF-254-201-N.jpg","0","1","1","0","1","0","0.336892999941483","0.37215210008435","0.463149799965322","1","1","1","1","1","1","1","1","1"
"250044","img/neutralC/CFD-BF-254-201-N.jpg","img/neutralC/CFD-IF-629-234-N.jpg","img/neutralC/CFD-BM-204-003-N.jpg","1","0","1","0","0","0","0.463149799965322","0.336892999941483","0.493055199971423","1","1","1","1","1","1","1","1","1"
"250044","img/neutralC/CFD-BM-204-003-N.jpg","img/neutralC/CFD-BF-254-201-N.jpg","img/neutralC/CFD-WM-221-091-N.jpg","1","1","0","0","0","0","0.493055199971423","0.463149799965322","0.366584700066596","1","1","1","1","1","1","1","1","2"
"250044","img/neutralC/CFD-WM-221-091-N.jpg","img/neutralC/CFD-BM-204-003-N.jpg","img/neutralC/CFD-WF-027-003-N.jpg","0","1","1","0","0","1","0.366584700066596","0.493055199971423","0.277618499938399","1","1","1","1","1","1","2","1","1"
"250044","img/neutralC/CFD-WF-027-003-N.jpg","img/neutralC/CFD-WM-221-091-N.jpg",NA,"1","0",NA,"1","0",NA,"0.277618499938399","0.366584700066596",NA,"1","1",NA,"1","1",NA,"1","2",NA
"250044","img/neutralC/CFD-BF-213-188-N.jpg",NA,"img/neutralC/CFD-BF-253-202-N.jpg","1",NA,"1","1",NA,"0","0.373042999999598",NA,"0.443951300112531","1",NA,"1","1",NA,"1","1",NA,"1"
"250044","img/neutralC/CFD-BF-253-202-N.jpg","img/neutralC/CFD-BF-213-188-N.jpg","img/neutralC/CFD-BM-033-003-N.jpg","1","1","1","0","1","0","0.443951300112531","0.373042999999598","0.544057599967346","1","1","1","1","1","1","1","1","1"
"250044","img/neutralC/CFD-BM-033-003-N.jpg","img/neutralC/CFD-BF-253-202-N.jpg","img/neutralC/CFD-WM-021-001-N.jpg","1","1","1","0","0","1","0.544057599967346","0.443951300112531","0.28904869989492","1","1","1","1","1","1","1","1","1"
"250044","img/neutralC/CFD-WM-021-001-N.jpg","img/neutralC/CFD-BM-033-003-N.jpg","img/neutralC/CFD-AM-212-050-N.jpg","1","1","1","1","0","1","0.28904869989492","0.544057599967346","0.372439499944448","1","1","1","1","1","1","1","1","1"
"250044","img/neutralC/CFD-AM-212-050-N.jpg","img/neutralC/CFD-WM-021-001-N.jpg","img/neutralC/CFD-WM-011-002-N.jpg","1","1","1","1","1","0","0.372439499944448","0.28904869989492","0.411155499983579","1","1","1","1","1","1","1","1","1"
"250044","img/neutralC/CFD-WM-011-002-N.jpg","img/neutralC/CFD-AM-212-050-N.jpg","img/neutralC/CFD-MM-316-156-N.jpg","1","1","1","0","1","1","0.411155499983579","0.372439499944448","0.35417649988085","1","1","1","1","1","1","1","1","1"
"250044","img/neutralC/CFD-MM-316-156-N.jpg","img/neutralC/CFD-WM-011-002-N.jpg","img/neutralC/CFD-BM-041-035-N.jpg","1","1","1","1","0","0","0.35417649988085","0.411155499983579","0.410109499935061","1","1","1","1","1","1","1","1","1"
"250044","img/neutralC/CFD-BM-041-035-N.jpg","img/neutralC/CFD-MM-316-156-N.jpg","img/neutralC/CFD-LF-230-203-N.jpg","1","1","1","0","1","0","0.410109499935061","0.35417649988085","0.408417899860069","1","1","1","1","1","1","1","1","1"
"250044","img/neutralC/CFD-LF-230-203-N.jpg","img/neutralC/CFD-BM-041-035-N.jpg","img/neutralC/CFD-WF-224-099-N.jpg","1","1","0","0","0","0","0.408417899860069","0.410109499935061","0.291640399955213","1","1","1","1","1","1","1","1","1"
"250044","img/neutralC/CFD-WF-224-099-N.jpg","img/neutralC/CFD-LF-230-203-N.jpg","img/neutralC/CFD-IF-634-382-N.jpg","0","1","1","0","0","1","0.291640399955213","0.408417899860069","0.399011499946937","1","1","1","1","1","1","1","1","1"
"250044","img/neutralC/CFD-IF-634-382-N.jpg","img/neutralC/CFD-WF-224-099-N.jpg","img/neutralC/CFD-LM-218-183-N.jpg","1","0","1","1","0","1","0.399011499946937","0.291640399955213","0.533111600205302","1","1","1","1","1","1","1","1","1"
"250044","img/neutralC/CFD-LM-218-183-N.jpg","img/neutralC/CFD-IF-634-382-N.jpg","img/neutralC/CFD-BF-029-031-N.jpg","1","1","1","1","1","1","0.533111600205302","0.399011499946937","0.328994499985129","1","1","1","1","1","1","1","1","1"
"250044","img/neutralC/CFD-BF-029-031-N.jpg","img/neutralC/CFD-LM-218-183-N.jpg","img/neutralC/CFD-BF-205-141-N.jpg","1","1","1","1","1","0","0.328994499985129","0.533111600205302","0.357073599938303","1","1","1","1","1","1","1","1","1"
"250044","img/neutralC/CFD-BF-205-141-N.jpg","img/neutralC/CFD-BF-029-031-N.jpg","img/neutralC/CFD-LM-215-247-N.jpg","1","1","1","0","1","0","0.357073599938303","0.328994499985129","0.361526800086722","1","1","1","1","1","1","1","1","1"
"250044","img/neutralC/CFD-LM-215-247-N.jpg","img/neutralC/CFD-BF-205-141-N.jpg","img/neutralC/CFD-WF-213-031-N.jpg","1","1","1","0","0","1","0.361526800086722","0.357073599938303","0.352909300010651","1","1","1","1","1","1","1","1","1"
"250044","img/neutralC/CFD-WF-213-031-N.jpg","img/neutralC/CFD-LM-215-247-N.jpg","img/neutralC/CFD-LF-214-090-N.jpg","1","1","1","1","0","0","0.352909300010651","0.361526800086722","0.375275499885902","1","1","1","1","1","1","1","1","1"
"250044","img/neutralC/CFD-LF-214-090-N.jpg","img/neutralC/CFD-WF-213-031-N.jpg","img/neutralC/CFD-LF-205-100-N.jpg","1","1","1","0","1","1","0.375275499885902","0.352909300010651","0.372209699824452","1","1","1","1","1","1","1","1","1"
"250044","img/neutralC/CFD-LF-205-100-N.jpg","img/neutralC/CFD-LF-214-090-N.jpg","img/neutralC/CFD-AF-231-357-N.jpg","1","1","1","1","0","1","0.372209699824452","0.375275499885902","0.363400399917737","1","1","1","1","1","1","1","1","1"
"250044","img/neutralC/CFD-AF-231-357-N.jpg","img/neutralC/CFD-LF-205-100-N.jpg","img/neutralC/CFD-IM-684-008-N.jpg","1","1","1","1","1","1","0.363400399917737","0.372209699824452","0.378627900034189","1","1","1","1","1","1","1","1","1"
"250044","img/neutralC/CFD-IM-684-008-N.jpg","img/neutralC/CFD-AF-231-357-N.jpg","img/neutralC/CFD-BF-039-031-N.jpg","1","1","1","1","1","1","0.378627900034189","0.363400399917737","0.33263950003311","1","1","1","1","1","1","1","1","1"
"250044","img/neutralC/CFD-BF-039-031-N.jpg","img/neutralC/CFD-IM-684-008-N.jpg","img/neutralC/CFD-AM-201-076-N.jpg","1","1","1","1","1","1","0.33263950003311","0.378627900034189","0.321260999888182","1","1","1","1","1","1","1","1","1"
"250044","img/neutralC/CFD-AM-201-076-N.jpg","img/neutralC/CFD-BF-039-031-N.jpg","img/neutralC/CFD-IF-710-016-N.jpg","1","1","1","1","1","0","0.321260999888182","0.33263950003311","0.559918300015852","1","1","1","1","1","1","1","1","1"
"250044","img/neutralC/CFD-IF-710-016-N.jpg","img/neutralC/CFD-AM-201-076-N.jpg","img/neutralC/CFD-IM-651-308-N.jpg","1","1","1","0","1","0","0.559918300015852","0.321260999888182","0.469551400048658","1","1","1","1","1","1","1","1","1"
"250044","img/neutralC/CFD-IM-651-308-N.jpg","img/neutralC/CFD-IF-710-016-N.jpg","img/neutralC/CFD-LF-224-176-N.jpg","1","1","1","0","0","0","0.469551400048658","0.559918300015852","0.321320400107652","1","1","1","1","1","1","1","1","1"
"250044","img/neutralC/CFD-LF-224-176-N.jpg","img/neutralC/CFD-IM-651-308-N.jpg","img/neutralC/CFD-BM-239-136-N.jpg","1","1","1","0","0","1","0.321320400107652","0.469551400048658","0.330609400058165","1","1","1","1","1","1","1","1","1"
"250044","img/neutralC/CFD-BM-239-136-N.jpg","img/neutralC/CFD-LF-224-176-N.jpg","img/neutralC/CFD-IF-693-172-N.jpg","1","1","1","1","0","0","0.330609400058165","0.321320400107652","0.403752999845892","1","1","1","1","1","1","1","1","1"
"250044","img/neutralC/CFD-IF-693-172-N.jpg","img/neutralC/CFD-BM-239-136-N.jpg","img/neutralC/CFD-BM-019-002-N.jpg","1","1","1","0","1","0","0.403752999845892","0.330609400058165","0.408558999886736","1","1","1","1","1","1","1","1","1"
"250044","img/neutralC/CFD-BM-019-002-N.jpg","img/neutralC/CFD-IF-693-172-N.jpg","img/neutralC/CFD-WF-250-167-N.jpg","1","1","1","0","0","1","0.408558999886736","0.403752999845892","0.385376400081441","1","1","1","1","1","1","1","1","1"
"250044","img/neutralC/CFD-WF-250-167-N.jpg","img/neutralC/CFD-BM-019-002-N.jpg","img/neutralC/CFD-MF-337-026-N.jpg","1","1","1","1","0","1","0.385376400081441","0.408558999886736","0.303198599955067","1","1","1","1","1","1","1","1","1"
"250044","img/neutralC/CFD-MF-337-026-N.jpg","img/neutralC/CFD-WF-250-167-N.jpg","img/neutralC/CFD-WM-041-021-N.jpg","1","1","1","1","1","0","0.303198599955067","0.385376400081441","0.472269500140101","1","1","1","1","1","1","1","1","1"
"250044","img/neutralC/CFD-WM-041-021-N.jpg","img/neutralC/CFD-MF-337-026-N.jpg","img/neutralC/CFD-LF-203-066-N.jpg","1","1","0","0","1","0","0.472269500140101","0.303198599955067","0.365845900028944","1","1","1","1","1","1","1","1","2"
"250044","img/neutralC/CFD-LF-203-066-N.jpg","img/neutralC/CFD-WM-041-021-N.jpg",NA,"0","1",NA,"0","0",NA,"0.365845900028944","0.472269500140101",NA,"1","1",NA,"1","1",NA,"2","1",NA
"250044","img/neutralC/CFD-WM-002-009-N.jpg",NA,"img/neutralC/CFD-WM-257-161-N.jpg","1",NA,"1","0",NA,"1","0.435241000028327",NA,"0.33847750001587","1",NA,"1","1",NA,"1","1",NA,"1"
"250044","img/neutralC/CFD-WM-257-161-N.jpg","img/neutralC/CFD-WM-002-009-N.jpg","img/neutralC/CFD-BF-255-140-N.jpg","1","1","1","1","0","1","0.33847750001587","0.435241000028327","0.330619199899957","1","1","1","1","1","1","1","1","1"
"250044","img/neutralC/CFD-BF-255-140-N.jpg","img/neutralC/CFD-WM-257-161-N.jpg","img/neutralC/CFD-BF-028-001-N.jpg","1","1","1","1","1","1","0.330619199899957","0.33847750001587","0.307592900004238","1","1","1","1","1","1","1","1","1"
"250044","img/neutralC/CFD-BF-028-001-N.jpg","img/neutralC/CFD-BF-255-140-N.jpg","img/neutralC/CFD-IF-672-305-N.jpg","1","1","1","1","1","0","0.307592900004238","0.330619199899957","0.34422990004532","1","1","1","1","1","1","1","1","1"
"250044","img/neutralC/CFD-IF-672-305-N.jpg","img/neutralC/CFD-BF-028-001-N.jpg","img/neutralC/CFD-AM-215-120-N.jpg","1","1","1","0","1","1","0.34422990004532","0.307592900004238","0.310312099987641","1","1","1","1","1","1","1","1","1"
"250044","img/neutralC/CFD-AM-215-120-N.jpg","img/neutralC/CFD-IF-672-305-N.jpg","img/neutralC/CFD-BF-023-010-N.jpg","1","1","1","1","0","1","0.310312099987641","0.34422990004532","0.369807100156322","1","1","1","1","1","1","1","1","1"
"250044","img/neutralC/CFD-BF-023-010-N.jpg","img/neutralC/CFD-AM-215-120-N.jpg","img/neutralC/CFD-BF-201-080-N.jpg","1","1","1","1","1","1","0.369807100156322","0.310312099987641","0.458871599985287","1","1","1","1","1","1","1","1","1"
"250044","img/neutralC/CFD-BF-201-080-N.jpg","img/neutralC/CFD-BF-023-010-N.jpg","img/neutralC/CFD-BF-204-189-N.jpg","1","1","1","1","1","1","0.458871599985287","0.369807100156322","0.36604669992812","1","1","1","1","1","1","1","1","1"
"250044","img/neutralC/CFD-BF-204-189-N.jpg","img/neutralC/CFD-BF-201-080-N.jpg","img/neutralC/CFD-BF-208-266-N.jpg","1","1","1","1","1","0","0.36604669992812","0.458871599985287","0.423572600120679","1","1","1","1","1","1","1","1","1"
"250044","img/neutralC/CFD-BF-208-266-N.jpg","img/neutralC/CFD-BF-204-189-N.jpg","img/neutralC/CFD-BM-247-240-N.jpg","1","1","1","0","1","0","0.423572600120679","0.36604669992812","0.298384200083092","1","1","1","1","1","1","1","1","1"
"250044","img/neutralC/CFD-BM-247-240-N.jpg","img/neutralC/CFD-BF-208-266-N.jpg","img/neutralC/CFD-BF-003-003-N.jpg","1","1","1","0","0","0","0.298384200083092","0.423572600120679","0.360841900110245","1","1","1","1","1","1","1","1","1"
"250044","img/neutralC/CFD-BF-003-003-N.jpg","img/neutralC/CFD-BM-247-240-N.jpg","img/neutralC/CFD-BM-015-015-N.jpg","1","1","1","0","0","0","0.360841900110245","0.298384200083092","0.309010300086811","1","1","1","1","1","1","1","1","1"
"250044","img/neutralC/CFD-BM-015-015-N.jpg","img/neutralC/CFD-BF-003-003-N.jpg","img/neutralC/CFD-WF-002-004-N.jpg","1","1","0","0","0","0","0.309010300086811","0.360841900110245","0.304661300033331","1","1","1","1","1","1","1","1","1"
"250044","img/neutralC/CFD-WF-002-004-N.jpg","img/neutralC/CFD-BM-015-015-N.jpg","img/neutralC/CFD-WM-225-127-N.jpg","0","1","0","0","0","0","0.304661300033331","0.309010300086811","0.34236459992826","1","1","1","1","1","1","1","1","1"
"250044","img/neutralC/CFD-WM-225-127-N.jpg","img/neutralC/CFD-WF-002-004-N.jpg","img/neutralC/CFD-LM-252-076-N.jpg","0","0","1","0","0","1","0.34236459992826","0.304661300033331","0.360357499914244","1","1","1","1","1","1","1","1","1"
"250044","img/neutralC/CFD-LM-252-076-N.jpg","img/neutralC/CFD-WM-225-127-N.jpg","img/neutralC/CFD-BM-027-001-N.jpg","1","0","1","1","0","0","0.360357499914244","0.34236459992826","0.361577600007877","1","1","1","1","1","1","1","1","1"
"250044","img/neutralC/CFD-BM-027-001-N.jpg","img/neutralC/CFD-LM-252-076-N.jpg","img/neutralC/CFD-BM-029-024-N.jpg","1","1","0","0","1","1","0.361577600007877","0.360357499914244","0.483396100113168","1","1","1","1","1","1","1","1","1"
"250044","img/neutralC/CFD-BM-029-024-N.jpg","img/neutralC/CFD-BM-027-001-N.jpg","img/neutralC/CFD-MM-319-052-N.jpg","0","1","1","1","0","1","0.483396100113168","0.361577600007877","0.455889200093225","1","1","1","1","1","1","1","1","1"
"250044","img/neutralC/CFD-MM-319-052-N.jpg","img/neutralC/CFD-BM-029-024-N.jpg","img/neutralC/CFD-IF-718-001-N.jpg","1","0","1","1","1","1","0.455889200093225","0.483396100113168","0.507143599912524","1","1","1","1","1","1","1","1","1"
"250044","img/neutralC/CFD-IF-718-001-N.jpg","img/neutralC/CFD-MM-319-052-N.jpg","img/neutralC/CFD-IM-674-281-N.jpg","1","1","1","1","1","1","0.507143599912524","0.455889200093225","0.505728599848226","1","1","1","1","1","1","1","1","1"
"250044","img/neutralC/CFD-IM-674-281-N.jpg","img/neutralC/CFD-IF-718-001-N.jpg","img/neutralC/CFD-WF-022-017-N.jpg","1","1","0","1","1","0","0.505728599848226","0.507143599912524","0.378538300050423","1","1","1","1","1","1","1","1","1"
"250044","img/neutralC/CFD-WF-022-017-N.jpg","img/neutralC/CFD-IM-674-281-N.jpg","img/neutralC/CFD-AM-235-241-N.jpg","0","1","1","0","1","0","0.378538300050423","0.505728599848226","0.462153800064698","1","1","1","1","1","1","1","1","1"
"250044","img/neutralC/CFD-AM-235-241-N.jpg","img/neutralC/CFD-WF-022-017-N.jpg","img/neutralC/CFD-BM-211-174-N.jpg","1","0","1","0","0","0","0.462153800064698","0.378538300050423","0.387571800034493","1","1","1","1","1","1","1","1","1"
"250044","img/neutralC/CFD-BM-211-174-N.jpg","img/neutralC/CFD-AM-235-241-N.jpg","img/neutralC/CFD-WM-040-022-N.jpg","1","1","1","0","0","0","0.387571800034493","0.462153800064698","0.432627999922261","1","1","1","1","1","1","1","1","1"
"250044","img/neutralC/CFD-WM-040-022-N.jpg","img/neutralC/CFD-BM-211-174-N.jpg","img/neutralC/CFD-WM-038-003-N.jpg","1","1","1","0","0","0","0.432627999922261","0.387571800034493","0.413959000026807","1","1","1","1","1","1","1","1","1"
"250044","img/neutralC/CFD-WM-038-003-N.jpg","img/neutralC/CFD-WM-040-022-N.jpg","img/neutralC/CFD-AM-217-085-N.jpg","1","1","1","0","0","0","0.413959000026807","0.432627999922261","0.363180699991062","1","1","1","1","1","1","1","1","1"
"250044","img/neutralC/CFD-AM-217-085-N.jpg","img/neutralC/CFD-WM-038-003-N.jpg","img/neutralC/CFD-IM-639-263-N.jpg","1","1","1","0","0","1","0.363180699991062","0.413959000026807","0.335435200016946","1","1","1","1","1","1","1","1","1"
"250044","img/neutralC/CFD-IM-639-263-N.jpg","img/neutralC/CFD-AM-217-085-N.jpg","img/neutralC/CFD-WF-026-002-N.jpg","1","1","1","1","0","1","0.335435200016946","0.363180699991062","0.328631500015035","1","1","1","1","1","1","1","1","1"
"250044","img/neutralC/CFD-WF-026-002-N.jpg","img/neutralC/CFD-IM-639-263-N.jpg","img/neutralC/CFD-IM-728-041-N.jpg","1","1","1","1","1","0","0.328631500015035","0.335435200016946","0.34221910010092","1","1","1","1","1","1","1","1","1"
"250044","img/neutralC/CFD-IM-728-041-N.jpg","img/neutralC/CFD-WF-026-002-N.jpg","img/neutralC/CFD-LF-216-121-N.jpg","1","1","1","0","1","1","0.34221910010092","0.328631500015035","0.32833920000121","1","1","1","1","1","1","1","1","1"
"250044","img/neutralC/CFD-LF-216-121-N.jpg","img/neutralC/CFD-IM-728-041-N.jpg","img/neutralC/CFD-LF-236-221-N.jpg","1","1","1","1","0","1","0.32833920000121","0.34221910010092","0.359753899974748","1","1","1","1","1","1","1","1","1"
"250044","img/neutralC/CFD-LF-236-221-N.jpg","img/neutralC/CFD-LF-216-121-N.jpg",NA,"1","1",NA,"1","1",NA,"0.359753899974748","0.32833920000121",NA,"1","1",NA,"1","1",NA,"1","1",NA
"250044","img/neutralC/CFD-IM-615-167-N.jpg",NA,"img/neutralC/CFD-BM-227-191-N.jpg","1",NA,"1","0",NA,"1","0.450009899912402",NA,"0.325509699992836","1",NA,"1","1",NA,"1","1",NA,"1"
"250044","img/neutralC/CFD-BM-227-191-N.jpg","img/neutralC/CFD-IM-615-167-N.jpg","img/neutralC/CFD-AM-243-212-N.jpg","1","1","1","1","0","1","0.325509699992836","0.450009899912402","0.301828500116244","1","1","1","1","1","1","1","1","1"
"250044","img/neutralC/CFD-AM-243-212-N.jpg","img/neutralC/CFD-BM-227-191-N.jpg","img/neutralC/CFD-LF-212-066-N.jpg","1","1","1","1","1","1","0.301828500116244","0.325509699992836","0.281375400023535","1","1","1","1","1","1","1","1","1"
"250044","img/neutralC/CFD-LF-212-066-N.jpg","img/neutralC/CFD-AM-243-212-N.jpg","img/neutralC/CFD-IM-606-008-N.jpg","1","1","1","1","1","0","0.281375400023535","0.301828500116244","0.608616800047457","1","1","1","1","1","1","1","1","1"
"250044","img/neutralC/CFD-IM-606-008-N.jpg","img/neutralC/CFD-LF-212-066-N.jpg","img/neutralC/CFD-WF-221-005-N.jpg","1","1","1","0","1","0","0.608616800047457","0.281375400023535","0.455725299892947","1","1","1","1","1","1","1","1","1"
"250044","img/neutralC/CFD-WF-221-005-N.jpg","img/neutralC/CFD-IM-606-008-N.jpg","img/neutralC/CFD-AM-219-101-N.jpg","1","1","1","0","0","0","0.455725299892947","0.608616800047457","0.41423900006339","1","1","1","1","1","1","1","1","1"
"250044","img/neutralC/CFD-AM-219-101-N.jpg","img/neutralC/CFD-WF-221-005-N.jpg","img/neutralC/CFD-BF-012-001-N.jpg","1","1","1","0","0","0","0.41423900006339","0.455725299892947","0.347109100082889","1","1","1","1","1","1","1","1","1"
"250044","img/neutralC/CFD-BF-012-001-N.jpg","img/neutralC/CFD-AM-219-101-N.jpg","img/neutralC/CFD-BM-030-003-N.jpg","1","1","1","0","0","0","0.347109100082889","0.41423900006339","0.299377600196749","1","1","1","1","1","1","1","1","1"
"250044","img/neutralC/CFD-BM-030-003-N.jpg","img/neutralC/CFD-BF-012-001-N.jpg","img/neutralC/CFD-IF-676-017-N.jpg","1","1","1","0","0","1","0.299377600196749","0.347109100082889","0.38412329996936","1","1","1","1","1","1","1","1","1"
"250044","img/neutralC/CFD-IF-676-017-N.jpg","img/neutralC/CFD-BM-030-003-N.jpg","img/neutralC/CFD-LF-238-154-N.jpg","1","1","1","1","0","1","0.38412329996936","0.299377600196749","0.276427299948409","1","1","1","1","1","1","1","1","1"
"250044","img/neutralC/CFD-LF-238-154-N.jpg","img/neutralC/CFD-IF-676-017-N.jpg","img/neutralC/CFD-BF-244-231-N.jpg","1","1","1","1","1","1","0.276427299948409","0.38412329996936","0.345225099939853","1","1","1","1","1","1","1","1","1"
"250044","img/neutralC/CFD-BF-244-231-N.jpg","img/neutralC/CFD-LF-238-154-N.jpg","img/neutralC/CFD-WM-025-002-N.jpg","1","1","1","1","1","0","0.345225099939853","0.276427299948409","0.377514999825507","1","1","1","1","1","1","1","1","1"
"250044","img/neutralC/CFD-WM-025-002-N.jpg","img/neutralC/CFD-BF-244-231-N.jpg","img/neutralC/CFD-WF-009-001-N.jpg","1","1","1","0","1","1","0.377514999825507","0.345225099939853","0.465112700127065","1","1","1","1","1","1","1","1","1"
"250044","img/neutralC/CFD-WF-009-001-N.jpg","img/neutralC/CFD-WM-025-002-N.jpg","img/neutralC/CFD-BM-020-001-N.jpg","1","1","1","1","0","0","0.465112700127065","0.377514999825507","0.287887699902058","1","1","1","1","1","1","1","1","1"
"250044","img/neutralC/CFD-BM-020-001-N.jpg","img/neutralC/CFD-WF-009-001-N.jpg","img/neutralC/CFD-AM-205-153-N.jpg","1","1","1","0","1","1","0.287887699902058","0.465112700127065","0.465019700117409","1","1","1","1","1","1","1","1","1"
"250044","img/neutralC/CFD-AM-205-153-N.jpg","img/neutralC/CFD-BM-020-001-N.jpg","img/neutralC/CFD-BM-021-021-N.jpg","1","1","1","1","0","1","0.465019700117409","0.287887699902058","0.311285799834877","1","1","1","1","1","1","1","1","1"
"250044","img/neutralC/CFD-BM-021-021-N.jpg","img/neutralC/CFD-AM-205-153-N.jpg","img/neutralC/CFD-WM-023-001-N.jpg","1","1","1","1","1","0","0.311285799834877","0.465019700117409","0.4220481000375","1","1","1","1","1","1","1","1","1"
"250044","img/neutralC/CFD-WM-023-001-N.jpg","img/neutralC/CFD-BM-021-021-N.jpg","img/neutralC/CFD-WF-241-210-N.jpg","1","1","1","0","1","0","0.4220481000375","0.311285799834877","0.419428199995309","1","1","1","1","1","1","1","1","1"
"250044","img/neutralC/CFD-WF-241-210-N.jpg","img/neutralC/CFD-WM-023-001-N.jpg","img/neutralC/CFD-BM-009-002-N.jpg","1","1","1","0","0","1","0.419428199995309","0.4220481000375","0.301198600092903","1","1","1","1","1","1","1","1","1"
"250044","img/neutralC/CFD-BM-009-002-N.jpg","img/neutralC/CFD-WF-241-210-N.jpg","img/neutralC/CFD-LF-222-147-N.jpg","1","1","1","1","0","0","0.301198600092903","0.419428199995309","0.30844430020079","1","1","1","1","1","1","1","1","1"
"250044","img/neutralC/CFD-LF-222-147-N.jpg","img/neutralC/CFD-BM-009-002-N.jpg","img/neutralC/CFD-MF-328-020-N.jpg","1","1","1","0","1","0","0.30844430020079","0.301198600092903","0.41190700000152","1","1","1","1","1","1","1","1","1"
"250044","img/neutralC/CFD-MF-328-020-N.jpg","img/neutralC/CFD-LF-222-147-N.jpg","img/neutralC/CFD-MM-306-010-N.jpg","1","1","1","0","0","0","0.41190700000152","0.30844430020079","0.420000599930063","1","1","1","1","1","1","1","1","1"
"250044","img/neutralC/CFD-MM-306-010-N.jpg","img/neutralC/CFD-MF-328-020-N.jpg","img/neutralC/CFD-LM-240-013-N.jpg","1","1","1","0","0","1","0.420000599930063","0.41190700000152","0.331024299841374","1","1","1","1","1","1","1","1","1"
"250044","img/neutralC/CFD-LM-240-013-N.jpg","img/neutralC/CFD-MM-306-010-N.jpg","img/neutralC/CFD-WM-028-003-N.jpg","1","1","1","1","0","1","0.331024299841374","0.420000599930063","0.338127500144765","1","1","1","1","1","1","1","1","1"
"250044","img/neutralC/CFD-WM-028-003-N.jpg","img/neutralC/CFD-LM-240-013-N.jpg","img/neutralC/CFD-BM-043-071-N.jpg","1","1","1","1","1","0","0.338127500144765","0.331024299841374","0.286399000091478","1","1","1","1","1","1","1","1","1"
"250044","img/neutralC/CFD-BM-043-071-N.jpg","img/neutralC/CFD-WM-028-003-N.jpg","img/neutralC/CFD-WF-207-014-N.jpg","1","1","1","0","1","1","0.286399000091478","0.338127500144765","0.358155499910936","1","1","1","1","1","1","1","1","1"
"250044","img/neutralC/CFD-WF-207-014-N.jpg","img/neutralC/CFD-BM-043-071-N.jpg","img/neutralC/CFD-WF-243-148-N.jpg","1","1","1","1","0","0","0.358155499910936","0.286399000091478","0.301690799882635","1","1","1","1","1","1","1","1","1"
"250044","img/neutralC/CFD-WF-243-148-N.jpg","img/neutralC/CFD-WF-207-014-N.jpg","img/neutralC/CFD-IM-697-015-N.jpg","1","1","1","0","1","1","0.301690799882635","0.358155499910936","0.388628100045025","1","1","1","1","1","1","1","1","1"
"250044","img/neutralC/CFD-IM-697-015-N.jpg","img/neutralC/CFD-WF-243-148-N.jpg","img/neutralC/CFD-AF-237-223-N.jpg","1","1","1","1","0","0","0.388628100045025","0.301690799882635","0.441981900017708","1","1","1","1","1","1","1","1","1"
"250044","img/neutralC/CFD-AF-237-223-N.jpg","img/neutralC/CFD-IM-697-015-N.jpg","img/neutralC/CFD-IM-689-263-N.jpg","1","1","1","0","1","1","0.441981900017708","0.388628100045025","0.345265300013125","1","1","1","1","1","1","1","1","1"
"250044","img/neutralC/CFD-IM-689-263-N.jpg","img/neutralC/CFD-AF-237-223-N.jpg","img/neutralC/CFD-AM-249-163-N.jpg","1","1","1","1","0","1","0.345265300013125","0.441981900017708","0.322482000105083","1","1","1","1","1","1","1","1","1"
"250044","img/neutralC/CFD-AM-249-163-N.jpg","img/neutralC/CFD-IM-689-263-N.jpg",NA,"1","1",NA,"1","1",NA,"0.322482000105083","0.345265300013125",NA,"1","1",NA,"1","1",NA,"1","1",NA
"250044","img/neutralC/CFD-IM-617-174-N.jpg",NA,"img/neutralC/CFD-LM-233-171-N.jpg","1",NA,"1","0",NA,"0","0.396558899898082",NA,"0.462992100045085","1",NA,"1","1",NA,"1","1",NA,"1"
"250044","img/neutralC/CFD-LM-233-171-N.jpg","img/neutralC/CFD-IM-617-174-N.jpg","img/neutralC/CFD-IF-620-218-N.jpg","1","1","1","0","0","0","0.462992100045085","0.396558899898082","0.277040099957958","1","1","1","1","1","1","1","1","1"
"250044","img/neutralC/CFD-IF-620-218-N.jpg","img/neutralC/CFD-LM-233-171-N.jpg","img/neutralC/CFD-IM-653-008-N.jpg","1","1","1","0","0","0","0.277040099957958","0.462992100045085","0.328671399969608","1","1","1","1","1","1","1","1","1"
"250044","img/neutralC/CFD-IM-653-008-N.jpg","img/neutralC/CFD-IF-620-218-N.jpg","img/neutralC/CFD-AF-202-122-N.jpg","1","1","1","0","0","1","0.328671399969608","0.277040099957958","0.335809899959713","1","1","1","1","1","1","1","1","1"
"250044","img/neutralC/CFD-AF-202-122-N.jpg","img/neutralC/CFD-IM-653-008-N.jpg","img/neutralC/CFD-LF-242-121-N.jpg","1","1","1","1","0","0","0.335809899959713","0.328671399969608","0.321083199931309","1","1","1","1","1","1","1","1","1"
"250044","img/neutralC/CFD-LF-242-121-N.jpg","img/neutralC/CFD-AF-202-122-N.jpg","img/neutralC/CFD-BM-018-001-N.jpg","1","1","1","0","1","1","0.321083199931309","0.335809899959713","0.351965100038797","1","1","1","1","1","1","1","1","1"
"250044","img/neutralC/CFD-BM-018-001-N.jpg","img/neutralC/CFD-LF-242-121-N.jpg","img/neutralC/CFD-AF-241-141-N.jpg","1","1","1","1","0","1","0.351965100038797","0.321083199931309","0.289395800093189","1","1","1","1","1","1","1","1","1"
"250044","img/neutralC/CFD-AF-241-141-N.jpg","img/neutralC/CFD-BM-018-001-N.jpg","img/neutralC/CFD-LM-219-295-N.jpg","1","1","1","1","1","1","0.289395800093189","0.351965100038797","0.312461000168696","1","1","1","1","1","1","1","1","1"
"250044","img/neutralC/CFD-LM-219-295-N.jpg","img/neutralC/CFD-AF-241-141-N.jpg","img/neutralC/CFD-IM-727-195-N.jpg","1","1","1","1","1","1","0.312461000168696","0.289395800093189","0.349505600053817","1","1","1","1","1","1","1","1","1"
"250044","img/neutralC/CFD-IM-727-195-N.jpg","img/neutralC/CFD-LM-219-295-N.jpg","img/neutralC/CFD-IM-686-097-N.jpg","1","1","1","1","1","0","0.349505600053817","0.312461000168696","0.437486699782312","1","1","1","1","1","1","1","1","1"
"250044","img/neutralC/CFD-IM-686-097-N.jpg","img/neutralC/CFD-IM-727-195-N.jpg","img/neutralC/CFD-WF-209-052-N.jpg","1","1","1","0","1","1","0.437486699782312","0.349505600053817","0.300980800064281","1","1","1","1","1","1","1","1","1"
"250044","img/neutralC/CFD-WF-209-052-N.jpg","img/neutralC/CFD-IM-686-097-N.jpg","img/neutralC/CFD-WM-258-125-N.jpg","1","1","0","1","0","0","0.300980800064281","0.437486699782312","0.30408119992353","1","1","1","1","1","1","1","1","1"
"250044","img/neutralC/CFD-WM-258-125-N.jpg","img/neutralC/CFD-WF-209-052-N.jpg","img/neutralC/CFD-BF-238-190-N.jpg","0","1","1","0","1","1","0.30408119992353","0.300980800064281","0.456580199999735","1","1","1","1","1","1","1","1","1"
"250044","img/neutralC/CFD-BF-238-190-N.jpg","img/neutralC/CFD-WM-258-125-N.jpg","img/neutralC/CFD-BM-212-117-N.jpg","1","0","1","1","0","0","0.456580199999735","0.30408119992353","0.395247099921107","1","1","1","1","1","1","1","1","1"
"250044","img/neutralC/CFD-BM-212-117-N.jpg","img/neutralC/CFD-BF-238-190-N.jpg","img/neutralC/CFD-LM-226-175-N.jpg","1","1","1","0","1","0","0.395247099921107","0.456580199999735","0.393903200048953","1","1","1","1","1","1","1","1","1"
"250044","img/neutralC/CFD-LM-226-175-N.jpg","img/neutralC/CFD-BM-212-117-N.jpg","img/neutralC/CFD-BF-033-028-N.jpg","1","1","1","0","0","0","0.393903200048953","0.395247099921107","0.414310800144449","1","1","1","1","1","1","1","1","1"
"250044","img/neutralC/CFD-BF-033-028-N.jpg","img/neutralC/CFD-LM-226-175-N.jpg","img/neutralC/CFD-MF-313-002-N.jpg","1","1","1","0","0","0","0.414310800144449","0.393903200048953","0.288668300025165","1","1","1","1","1","1","1","1","1"
"250044","img/neutralC/CFD-MF-313-002-N.jpg","img/neutralC/CFD-BF-033-028-N.jpg","img/neutralC/CFD-BF-010-001-N.jpg","1","1","1","0","0","1","0.288668300025165","0.414310800144449","0.295596799813211","1","1","1","1","1","1","1","1","1"
"250044","img/neutralC/CFD-BF-010-001-N.jpg","img/neutralC/CFD-MF-313-002-N.jpg","img/neutralC/CFD-LF-250-169-N.jpg","1","1","1","1","0","1","0.295596799813211","0.288668300025165","0.34865039982833","1","1","1","1","1","1","1","1","1"
"250044","img/neutralC/CFD-LF-250-169-N.jpg","img/neutralC/CFD-BF-010-001-N.jpg","img/neutralC/CFD-BM-231-155-N.jpg","1","1","1","1","1","1","0.34865039982833","0.295596799813211","0.314072099979967","1","1","1","1","1","1","1","1","1"
"250044","img/neutralC/CFD-BM-231-155-N.jpg","img/neutralC/CFD-LF-250-169-N.jpg","img/neutralC/CFD-IF-665-015-N.jpg","1","1","1","1","1","0","0.314072099979967","0.34865039982833","0.301994699984789","1","1","1","1","1","1","1","1","1"
"250044","img/neutralC/CFD-IF-665-015-N.jpg","img/neutralC/CFD-BM-231-155-N.jpg","img/neutralC/CFD-WM-227-099-N.jpg","1","1","1","0","1","1","0.301994699984789","0.314072099979967","0.323475500103086","1","1","1","1","1","1","1","1","1"
"250044","img/neutralC/CFD-WM-227-099-N.jpg","img/neutralC/CFD-IF-665-015-N.jpg","img/neutralC/CFD-WM-017-002-N.jpg","1","1","1","1","0","0","0.323475500103086","0.301994699984789","0.371945099905133","1","1","1","1","1","1","1","1","1"
"250044","img/neutralC/CFD-WM-017-002-N.jpg","img/neutralC/CFD-WM-227-099-N.jpg","img/neutralC/CFD-IM-657-308-N.jpg","1","1","1","0","1","0","0.371945099905133","0.323475500103086","0.308483999921009","1","1","1","1","1","1","1","1","1"
"250044","img/neutralC/CFD-IM-657-308-N.jpg","img/neutralC/CFD-WM-017-002-N.jpg","img/neutralC/CFD-AF-206-079-N.jpg","1","1","1","0","0","1","0.308483999921009","0.371945099905133","0.329546799883246","1","1","1","1","1","1","1","1","1"
"250044","img/neutralC/CFD-AF-206-079-N.jpg","img/neutralC/CFD-IM-657-308-N.jpg","img/neutralC/CFD-LF-245-166-N.jpg","1","1","1","1","0","1","0.329546799883246","0.308483999921009","0.346764400135726","1","1","1","1","1","1","1","1","1"
"250044","img/neutralC/CFD-LF-245-166-N.jpg","img/neutralC/CFD-AF-206-079-N.jpg","img/neutralC/CFD-BM-026-002-N.jpg","1","1","1","1","1","0","0.346764400135726","0.329546799883246","0.367791499942541","1","1","1","1","1","1","1","1","1"
"250044","img/neutralC/CFD-BM-026-002-N.jpg","img/neutralC/CFD-LF-245-166-N.jpg","img/neutralC/CFD-LF-247-051-N.jpg","1","1","0","0","1","1","0.367791499942541","0.346764400135726","0.296710399910808","1","1","1","1","1","1","1","1","1"
"250044","img/neutralC/CFD-LF-247-051-N.jpg","img/neutralC/CFD-BM-026-002-N.jpg","img/neutralC/CFD-BM-005-003-N.jpg","0","1","1","1","0","1","0.296710399910808","0.367791499942541","0.372925699921325","1","1","1","1","1","1","1","1","1"
"250044","img/neutralC/CFD-BM-005-003-N.jpg","img/neutralC/CFD-LF-247-051-N.jpg","img/neutralC/CFD-IM-638-250-1-N.jpg","1","0","1","1","1","1","0.372925699921325","0.296710399910808","0.336943299975246","1","1","1","1","1","1","1","1","1"
"250044","img/neutralC/CFD-IM-638-250-1-N.jpg","img/neutralC/CFD-BM-005-003-N.jpg","img/neutralC/CFD-WM-242-011-N.jpg","1","1","1","1","1","0","0.336943299975246","0.372925699921325","0.352538699982688","1","1","1","1","1","1","1","1","1"
"250044","img/neutralC/CFD-WM-242-011-N.jpg","img/neutralC/CFD-IM-638-250-1-N.jpg",NA,"1","1",NA,"0","1",NA,"0.352538699982688","0.336943299975246",NA,"1","1",NA,"1","1",NA,"1","1",NA
"250044","img/neutralC/CFD-LF-241-188-N.jpg",NA,"img/neutralC/CFD-BM-213-134-N.jpg","1",NA,"1","0",NA,"1","0.339792500017211",NA,"0.35006029997021","1",NA,"1","1",NA,"1","1",NA,"1"
"250044","img/neutralC/CFD-BM-213-134-N.jpg","img/neutralC/CFD-LF-241-188-N.jpg","img/neutralC/CFD-BF-004-014-N.jpg","1","1","1","1","0","1","0.35006029997021","0.339792500017211","0.291302300058305","1","1","1","1","1","1","1","1","1"
"250044","img/neutralC/CFD-BF-004-014-N.jpg","img/neutralC/CFD-BM-213-134-N.jpg","img/neutralC/CFD-WF-223-133-N.jpg","1","1","1","1","1","0","0.291302300058305","0.35006029997021","0.262032500002533","1","1","1","1","1","1","1","1","1"
"250044","img/neutralC/CFD-WF-223-133-N.jpg","img/neutralC/CFD-BF-004-014-N.jpg","img/neutralC/CFD-BM-028-002-N.jpg","1","1","1","0","1","1","0.262032500002533","0.291302300058305","0.342530199792236","1","1","1","1","1","1","1","1","1"
"250044","img/neutralC/CFD-BM-028-002-N.jpg","img/neutralC/CFD-WF-223-133-N.jpg","img/neutralC/CFD-WM-202-107-N.jpg","1","1","1","1","0","1","0.342530199792236","0.262032500002533","0.299755299929529","1","1","1","1","1","1","1","1","1"
"250044","img/neutralC/CFD-WM-202-107-N.jpg","img/neutralC/CFD-BM-028-002-N.jpg","img/neutralC/CFD-IF-673-389-N.jpg","1","1","1","1","1","0","0.299755299929529","0.342530199792236","0.298533499939367","1","1","1","1","1","1","1","1","1"
"250044","img/neutralC/CFD-IF-673-389-N.jpg","img/neutralC/CFD-WM-202-107-N.jpg","img/neutralC/CFD-LM-238-129-N.jpg","1","1","1","0","1","1","0.298533499939367","0.299755299929529","0.349162500118837","1","1","1","1","1","1","1","1","1"
"250044","img/neutralC/CFD-LM-238-129-N.jpg","img/neutralC/CFD-IF-673-389-N.jpg","img/neutralC/CFD-WF-033-002-N.jpg","1","1","0","1","0","1","0.349162500118837","0.298533499939367","0.230765999993309","1","1","1","1","1","1","1","1","1"
"250044","img/neutralC/CFD-WF-033-002-N.jpg","img/neutralC/CFD-LM-238-129-N.jpg","img/neutralC/CFD-BF-222-240-N.jpg","0","1","1","1","1","0","0.230765999993309","0.349162500118837","0.310725700110197","1","1","1","1","1","1","1","1","1"
"250044","img/neutralC/CFD-BF-222-240-N.jpg","img/neutralC/CFD-WF-033-002-N.jpg","img/neutralC/CFD-WM-228-065-N.jpg","1","0","1","0","1","0","0.310725700110197","0.230765999993309","0.502659500110894","1","1","1","1","1","1","1","1","1"
"250044","img/neutralC/CFD-WM-228-065-N.jpg","img/neutralC/CFD-BF-222-240-N.jpg","img/neutralC/CFD-AM-221-184-N.jpg","1","1","1","0","0","1","0.502659500110894","0.310725700110197","0.313803399913013","1","1","1","1","1","1","1","1","1"
"250044","img/neutralC/CFD-AM-221-184-N.jpg","img/neutralC/CFD-WM-228-065-N.jpg","img/neutralC/CFD-MF-336-016-N.jpg","1","1","1","1","0","1","0.313803399913013","0.502659500110894","0.229436999885365","1","1","1","1","1","1","1","1","1"
"250044","img/neutralC/CFD-MF-336-016-N.jpg","img/neutralC/CFD-AM-221-184-N.jpg","img/neutralC/CFD-LM-247-095-N.jpg","1","1","1","1","1","0","0.229436999885365","0.313803399913013","0.332161099882796","1","1","1","1","1","1","1","1","1"
"250044","img/neutralC/CFD-LM-247-095-N.jpg","img/neutralC/CFD-MF-336-016-N.jpg","img/neutralC/CFD-MF-312-002-N.jpg","1","1","1","0","1","1","0.332161099882796","0.229436999885365","0.275523599935696","1","1","1","1","1","1","1","1","1"
"250044","img/neutralC/CFD-MF-312-002-N.jpg","img/neutralC/CFD-LM-247-095-N.jpg","img/neutralC/CFD-AF-210-050-N.jpg","1","1","1","1","0","1","0.275523599935696","0.332161099882796","0.381843199953437","1","1","1","1","1","1","1","1","1"
"250044","img/neutralC/CFD-AF-210-050-N.jpg","img/neutralC/CFD-MF-312-002-N.jpg","img/neutralC/CFD-LF-210-220-N.jpg","1","1","1","1","1","1","0.381843199953437","0.275523599935696","0.310187599854544","1","1","1","1","1","1","1","1","1"
"250044","img/neutralC/CFD-LF-210-220-N.jpg","img/neutralC/CFD-AF-210-050-N.jpg","img/neutralC/CFD-WM-254-152-N.jpg","1","1","1","1","1","1","0.310187599854544","0.381843199953437","0.360641499981284","1","1","1","1","1","1","1","1","1"
"250044","img/neutralC/CFD-WM-254-152-N.jpg","img/neutralC/CFD-LF-210-220-N.jpg","img/neutralC/CFD-IM-701-312-N.jpg","1","1","1","1","1","0","0.360641499981284","0.310187599854544","0.451486099977046","1","1","1","1","1","1","1","1","1"
"250044","img/neutralC/CFD-IM-701-312-N.jpg","img/neutralC/CFD-WM-254-152-N.jpg","img/neutralC/CFD-BM-003-003-N.jpg","1","1","0","0","1","0","0.451486099977046","0.360641499981284","0.396108200075105","1","1","1","1","1","1","1","1","1"
"250044","img/neutralC/CFD-BM-003-003-N.jpg","img/neutralC/CFD-IM-701-312-N.jpg","img/neutralC/CFD-IM-659-359-N.jpg","0","1","1","0","0","0","0.396108200075105","0.451486099977046","0.483013099990785","1","1","1","1","1","1","1","1","1"
"250044","img/neutralC/CFD-IM-659-359-N.jpg","img/neutralC/CFD-BM-003-003-N.jpg","img/neutralC/CFD-IF-625-225-N.jpg","1","0","0","0","0","0","0.483013099990785","0.396108200075105","0.326912999851629","1","1","1","1","1","1","1","1","1"
"250044","img/neutralC/CFD-IF-625-225-N.jpg","img/neutralC/CFD-IM-659-359-N.jpg","img/neutralC/CFD-IF-744-114-N.jpg","0","1","1","0","0","0","0.326912999851629","0.483013099990785","0.352974399924278","1","1","1","1","1","1","1","1","1"
"250044","img/neutralC/CFD-IF-744-114-N.jpg","img/neutralC/CFD-IF-625-225-N.jpg","img/neutralC/CFD-AF-227-207-N.jpg","1","0","1","0","0","1","0.352974399924278","0.326912999851629","0.334125699941069","1","1","1","1","1","1","1","1","1"
"250044","img/neutralC/CFD-AF-227-207-N.jpg","img/neutralC/CFD-IF-744-114-N.jpg","img/neutralC/CFD-LF-225-164-N.jpg","1","1","1","1","0","1","0.334125699941069","0.352974399924278","0.412661500042304","1","1","1","1","1","1","1","1","1"
"250044","img/neutralC/CFD-LF-225-164-N.jpg","img/neutralC/CFD-AF-227-207-N.jpg","img/neutralC/CFD-WF-006-002-N.jpg","1","1","1","1","1","0","0.412661500042304","0.334125699941069","0.309681199956685","1","1","1","1","1","1","1","1","1"
"250044","img/neutralC/CFD-WF-006-002-N.jpg","img/neutralC/CFD-LF-225-164-N.jpg","img/neutralC/CFD-BM-010-003-N.jpg","1","1","0","0","1","0","0.309681199956685","0.412661500042304","0.387965600006282","1","1","1","1","1","1","1","1","1"
"250044","img/neutralC/CFD-BM-010-003-N.jpg","img/neutralC/CFD-WF-006-002-N.jpg","img/neutralC/CFD-IM-738-191-N.jpg","0","1","1","0","0","0","0.387965600006282","0.309681199956685","0.291579299839213","1","1","1","1","1","1","1","1","1"
"250044","img/neutralC/CFD-IM-738-191-N.jpg","img/neutralC/CFD-BM-010-003-N.jpg","img/neutralC/CFD-AF-239-171-N.jpg","1","0","1","0","0","1","0.291579299839213","0.387965600006282","0.324449399951845","1","1","1","1","1","1","1","1","1"
"250044","img/neutralC/CFD-AF-239-171-N.jpg","img/neutralC/CFD-IM-738-191-N.jpg","img/neutralC/CFD-BF-045-003-N.jpg","1","1","1","1","0","0","0.324449399951845","0.291579299839213","0.366450699977577","1","1","1","1","1","1","1","1","1"
"250044","img/neutralC/CFD-BF-045-003-N.jpg","img/neutralC/CFD-AF-239-171-N.jpg","img/neutralC/CFD-BM-013-002-N.jpg","1","1","1","0","1","1","0.366450699977577","0.324449399951845","0.441286699846387","1","1","1","1","1","1","1","1","1"
"250044","img/neutralC/CFD-BM-013-002-N.jpg","img/neutralC/CFD-BF-045-003-N.jpg","img/neutralC/CFD-LF-208-127-N.jpg","1","1","1","1","0","0","0.441286699846387","0.366450699977577","0.365807600086555","1","1","1","1","1","1","1","1","1"
"250044","img/neutralC/CFD-LF-208-127-N.jpg","img/neutralC/CFD-BM-013-002-N.jpg",NA,"1","1",NA,"0","1",NA,"0.365807600086555","0.441286699846387",NA,"1","1",NA,"1","1",NA,"1","1",NA
