"participant_id","face","surpAcc","memory_surp_responses","memory_surp_rt","keep_surp_memory_trial_based_on_rt","surp_block_num","exclude_block","number_of_surp_resp_items_used","num_blocks_excluded"
"250065","img/neutralC/CFD-AF-253-130-N.jpg","0","k","1.65816730004735",1,1,0,2,0
"250065","img/neutralC/CFD-BM-238-242-N.jpg","0","s","4.80263809999451",1,1,0,2,0
"250065","img/neutralC/CFD-WF-250-167-N.jpg","0","s","3.86361670005135",1,1,0,2,0
"250065","img/neutralC/CFD-WF-244-163-N.jpg","0","s","4.43732889997773",1,1,0,2,0
"250065","img/neutralC/CFD-IM-674-281-N.jpg","1","k","1.27633570006583",1,1,0,2,0
"250065","img/neutralC/CFD-IM-671-601-N.jpg","1","k","1.22451369999908",1,1,0,2,0
"250065","img/neutralC/CFD-IM-700-009-N.jpg","1","k","1.06887039996218",1,1,0,2,0
"250065","img/neutralC/CFD-WM-028-003-N.jpg","1","s","2.40693359996658",1,1,0,2,0
"250065","img/neutralC/CFD-LF-204-133-N.jpg","0","s","2.52741270000115",1,1,0,2,0
"250065","img/neutralC/CFD-WF-213-031-N.jpg","1","k","3.861468099989",1,1,0,2,0
"250065","img/neutralC/CFD-AF-246-242-N.jpg","1","s","2.99941349995788",1,1,0,2,0
"250065","img/neutralC/CFD-WM-212-097-N.jpg","1","k","4.57419419998769",1,1,0,2,0
"250065","img/neutralC/CFD-WM-033-025-N.jpg","1","s","3.21389090002049",1,1,0,2,0
"250065","img/neutralC/CFD-WF-030-002-N.jpg","0","s","2.595016199979",1,1,0,2,0
"250065","img/neutralC/CFD-IM-657-308-N.jpg","1","s","1.04727899993304",1,1,0,2,0
"250065","img/neutralC/CFD-AM-233-236-N.jpg","1","s","3.61117390007712",1,1,0,2,0
"250065","img/neutralC/CFD-BM-253-004-N.jpg","0","k","1.76398310007062",1,1,0,2,0
"250065","img/neutralC/CFD-BM-020-001-N.jpg","0","k","2.07041260006372",1,1,0,2,0
"250065","img/neutralC/CFD-MF-307-002-N.jpg","1","s","2.39449039997999",1,1,0,2,0
"250065","img/neutralC/CFD-LF-225-164-N.jpg","1","s","7.08220159995835",1,1,0,2,0
"250065","img/neutralC/CFD-MM-304-002-N.jpg","1","s","3.22485260001849",1,1,0,2,0
"250065","img/neutralC/CFD-BM-009-002-N.jpg","1","s","3.10203810001258",1,1,0,2,0
"250065","img/neutralC/CFD-WM-004-010-N.jpg","0","s","3.15732949995436",1,1,0,2,0
"250065","img/neutralC/CFD-IM-707-105-N.jpg","0","k","2.89417460002005",1,1,0,2,0
"250065","img/neutralC/CFD-AM-219-101-N.jpg","1","s","2.44405130005907",1,1,0,2,0
"250065","img/neutralC/CFD-WF-234-086-N.jpg","1","s","1.99412490008399",1,1,0,2,0
"250065","img/neutralC/CFD-BM-004-002-N.jpg","1","k","1.61136800004169",1,1,0,2,0
"250065","img/neutralC/CFD-IM-632-097-N.jpg","1","s","3.69045029999688",1,1,0,2,0
"250065","img/neutralC/CFD-WF-233-112-N.jpg","1","k","1.92375660000835",1,1,0,2,0
"250065","img/neutralC/CFD-BF-205-141-N.jpg","1","k","2.50848720001522",1,1,0,2,0
"250065","img/neutralC/CFD-WM-227-099-N.jpg","1","s","4.07867910002824",1,1,0,2,0
"250065","img/neutralC/CFD-WM-020-001-N.jpg","1","k","1.76119099999778",1,1,0,2,0
"250065","img/neutralC/CFD-IF-660-464-N.jpg","0","k","4.52432820003014",1,1,0,2,0
"250065","img/neutralC/CFD-BM-227-191-N.jpg","1","s","2.10548899997957",1,1,0,2,0
"250065","img/neutralC/CFD-BM-213-134-N.jpg","1","k","1.58921549993102",1,1,0,2,0
"250065","img/neutralC/CFD-WF-001-003-N.jpg","1","s","1.32047819998115",1,1,0,2,0
"250065","img/neutralC/CFD-WM-023-001-N.jpg","1","k","3.97606870008167",1,1,0,2,0
"250065","img/neutralC/CFD-LF-245-166-N.jpg","1","s","2.02850940008648",1,1,0,2,0
"250065","img/neutralC/CFD-IF-744-114-N.jpg","0","s","4.28686560003553",1,1,0,2,0
"250065","img/neutralC/CFD-WM-012-001-N.jpg","1","s","3.95212000003084",1,1,0,2,0
"250065","img/neutralC/CFD-MF-300-002-N.jpg","0","k","4.23414970003068",1,1,0,2,0
"250065","img/neutralC/CFD-WM-215-041-N.jpg","1","s","2.47819099994376",1,1,0,2,0
"250065","img/neutralC/CFD-LM-247-095-N.jpg","0","k","3.32946709997486",1,1,0,2,0
"250065","img/neutralC/CFD-IM-617-174-N.jpg","1","s","1.45720289996825",1,1,0,2,0
"250065","img/neutralC/CFD-BM-239-136-N.jpg","0","k","2.12304109998513",1,1,0,2,0
"250065","img/neutralC/CFD-MF-305-014-N.jpg","1","k","4.99953229993116",1,1,0,2,0
"250065","img/neutralC/CFD-BF-012-001-N.jpg","0","k","2.44067929999437",1,1,0,2,0
"250065","img/neutralC/CFD-WM-034-030-N.jpg","1","k","7.64671320002526",1,1,0,2,0
"250065","img/neutralC/CFD-AM-211-052-N.jpg","1","k","1.62661360006314",1,2,0,2,0
"250065","img/neutralC/CFD-WF-200-099-N.jpg","1","k","4.29154460004065",1,2,0,2,0
"250065","img/neutralC/CFD-IF-672-305-N.jpg","1","s","2.5790748000145",1,2,0,2,0
"250065","img/neutralC/CFD-IM-664-651-N.jpg","1","k","1.29164349997882",1,2,0,2,0
"250065","img/neutralC/CFD-LF-224-176-N.jpg","0","s","2.13438219996169",1,2,0,2,0
"250065","img/neutralC/CFD-MM-306-010-N.jpg","0","s","2.1041019000113",1,2,0,2,0
"250065","img/neutralC/CFD-WM-017-002-N.jpg","1","s","2.56515550008044",1,2,0,2,0
"250065","img/neutralC/CFD-AF-250-200-N.jpg","0","s","2.91285920003429",1,2,0,2,0
"250065","img/neutralC/CFD-BM-217-082-N.jpg","1","k","2.40974569995888",1,2,0,2,0
"250065","img/neutralC/CFD-WM-009-002-N.jpg","1","s","3.51173260004725",1,2,0,2,0
"250065","img/neutralC/CFD-MF-313-002-N.jpg","0","s","3.9598413000349",1,2,0,2,0
"250065","img/neutralC/CFD-IM-667-369-N.jpg","1","s","2.260456200107",1,2,0,2,0
"250065","img/neutralC/CFD-IM-689-263-N.jpg","0","s","2.14465329993982",1,2,0,2,0
"250065","img/neutralC/CFD-BM-023-029-N.jpg","1","s","5.33871669997461",1,2,0,2,0
"250065","img/neutralC/CFD-IF-710-016-N.jpg","0","k","2.1507689000573",1,2,0,2,0
"250065","img/neutralC/CFD-AF-239-171-N.jpg","1","k","1.8540366999805",1,2,0,2,0
"250065","img/neutralC/CFD-IM-627-178-N.jpg","0","s","1.95994740002789",1,2,0,2,0
"250065","img/neutralC/CFD-BM-207-024-N.jpg","1","k","2.09199560002889",1,2,0,2,0
"250065","img/neutralC/CFD-BM-036-003-N.jpg","1","s","4.06898450001609",1,2,0,2,0
"250065","img/neutralC/CFD-WF-033-002-N.jpg","1","s","1.90658549999353",1,2,0,2,0
"250065","img/neutralC/CFD-LM-237-264-N.jpg","0","k","4.66074039996602",1,2,0,2,0
"250065","img/neutralC/CFD-BF-218-207-N.jpg","1","s","2.01872910000384",1,2,0,2,0
"250065","img/neutralC/CFD-IF-693-172-N.jpg","1","s","2.40722009993624",1,2,0,2,0
"250065","img/neutralC/CFD-IF-634-382-N.jpg","1","s","2.23260330001358",1,2,0,2,0
"250065","img/neutralC/CFD-IF-665-015-N.jpg","0","s","2.61831249995157",1,2,0,2,0
"250065","img/neutralC/CFD-BM-003-003-N.jpg","0","s","2.01266970008146",1,2,0,2,0
"250065","img/neutralC/CFD-WM-248-036-N.jpg","1","k","4.77307060000021",1,2,0,2,0
"250065","img/neutralC/CFD-IM-669-111-N.jpg","1","s","1.05042069999035",1,2,0,2,0
"250065","img/neutralC/CFD-WF-208-068-N.jpg","1","s","3.54760109994095",1,2,0,2,0
"250065","img/neutralC/CFD-BM-026-002-N.jpg","0","s","3.08071610005572",1,2,0,2,0
"250065","img/neutralC/CFD-MM-319-052-N.jpg","0","s","4.23002969997469",1,2,0,2,0
"250065","img/neutralC/CFD-WM-219-008-N.jpg","1","s","2.32043269998394",1,2,0,2,0
"250065","img/neutralC/CFD-WM-015-002-N.jpg","1","k","5.53299179999158",1,2,0,2,0
"250065","img/neutralC/CFD-BF-044-034-N.jpg","0","k","3.30852459999733",1,2,0,2,0
"250065","img/neutralC/CFD-WM-019-003-N.jpg","1","s","4.44844790000934",1,2,0,2,0
"250065","img/neutralC/CFD-WM-228-065-N.jpg","1","s","1.99345150007866",1,2,0,2,0
"250065","img/neutralC/CFD-WF-023-003-N.jpg","1","s","4.82615720003378",1,2,0,2,0
"250065","img/neutralC/CFD-LM-213-061-N.jpg","0","k","5.92740510008298",1,2,0,2,0
"250065","img/neutralC/CFD-IF-718-001-N.jpg","1","k","4.63799159997143",1,2,0,2,0
"250065","img/neutralC/CFD-BF-051-035-N.jpg","1","s","1.83622759999707",1,2,0,2,0
"250065","img/neutralC/CFD-BM-030-003-N.jpg","1","s","2.45540340000298",1,2,0,2,0
"250065","img/neutralC/CFD-IM-651-308-N.jpg","1","s","1.28913789999206",1,2,0,2,0
"250065","img/neutralC/CFD-BF-043-003-N.jpg","1","s","1.17317800002638",1,2,0,2,0
"250065","img/neutralC/CFD-WM-242-011-N.jpg","1","k","2.32631939998828",1,2,0,2,0
"250065","img/neutralC/CFD-LM-241-125-N.jpg","1","k","3.89922260004096",1,2,0,2,0
"250065","img/neutralC/CFD-MF-321-003-N.jpg","0","s","3.4308444999624",1,2,0,2,0
"250065","img/neutralC/CFD-WF-240-083-N.jpg","1","s","3.71540579991415",1,2,0,2,0
"250065","img/neutralC/CFD-BM-015-015-N.jpg","0","k","5.23966059996746",1,2,0,2,0
"250065","img/neutralC/CFD-BF-038-037-N.jpg","1","k","1.7404631000245",1,3,0,2,0
"250065","img/neutralC/CFD-WM-014-002-N.jpg","1","s","2.31983910000417",1,3,0,2,0
"250065","img/neutralC/CFD-BF-208-266-N.jpg","0","s","1.70630919991527",1,3,0,2,0
"250065","img/neutralC/CFD-IM-659-359-N.jpg","1","s","2.54733440000564",1,3,0,2,0
"250065","img/neutralC/CFD-WM-209-038-N.jpg","1","k","2.58330890000798",1,3,0,2,0
"250065","img/neutralC/CFD-AF-227-207-N.jpg","0","s","1.92811690003145",1,3,0,2,0
"250065","img/neutralC/CFD-BF-033-028-N.jpg","1","s","4.65262910001911",1,3,0,2,0
"250065","img/neutralC/CFD-BM-039-029-N.jpg","1","s","2.7658496000804",1,3,0,2,0
"250065","img/neutralC/CFD-BF-027-002-N.jpg","0","s","9.39042039995547",1,3,0,2,0
"250065","img/neutralC/CFD-IM-701-312-N.jpg","0","s","2.97496040002443",1,3,0,2,0
"250065","img/neutralC/CFD-LF-206-078-N.jpg","0","k","4.16881499998271",1,3,0,2,0
"250065","img/neutralC/CFD-WF-036-023-N.jpg","1","k","8.63431670004502",1,3,0,2,0
"250065","img/neutralC/CFD-AF-213-126-N.jpg","1","s","10.768659299938",1,3,0,2,0
"250065","img/neutralC/CFD-AF-232-078-N.jpg","0","k","2.39084790006746",1,3,0,2,0
"250065","img/neutralC/CFD-AM-242-176-N.jpg","0","s","2.77013289998285",1,3,0,2,0
"250065","img/neutralC/CFD-BF-025-002-N.jpg","1","s","1.97652090003248",1,3,0,2,0
"250065","img/neutralC/CFD-IF-677-452-1-N.jpg","1","s","3.59540660004131",1,3,0,2,0
"250065","img/neutralC/CFD-WM-254-152-N.jpg","0","s","5.53123830002733",1,3,0,2,0
"250065","img/neutralC/CFD-AM-225-102-N.jpg","1","k","2.40396660007536",1,3,0,2,0
"250065","img/neutralC/CFD-WM-038-003-N.jpg","1","s","3.49442919995636",1,3,0,2,0
"250065","img/neutralC/CFD-WF-026-002-N.jpg","0","s","3.42971449997276",1,3,0,2,0
"250065","img/neutralC/CFD-LF-241-188-N.jpg","1","k","3.36117869999725",1,3,0,2,0
"250065","img/neutralC/CFD-MM-321-021-N.jpg","1","k","3.14730449998751",1,3,0,2,0
"250065","img/neutralC/CFD-IM-680-369-N.jpg","0","s","3.86333399999421",1,3,0,2,0
"250065","img/neutralC/CFD-BM-251-013-N.jpg","0","s","3.78144179994706",1,3,0,2,0
"250065","img/neutralC/CFD-LM-217-162-N.jpg","1","s","3.2978807000909",1,3,0,2,0
"250065","img/neutralC/CFD-AM-251-124-N.jpg","1","k","4.62020799994934",1,3,0,2,0
"250065","img/neutralC/CFD-WF-008-002-N.jpg","1","k","2.58044779999182",1,3,0,2,0
"250065","img/neutralC/CFD-LF-255-088-N.jpg","0","s","3.05393619998358",1,3,0,2,0
"250065","img/neutralC/CFD-BF-003-003-N.jpg","1","s","3.69638829992618",1,3,0,2,0
"250065","img/neutralC/CFD-MM-316-156-N.jpg","0","k","3.57532329997048",1,3,0,2,0
"250065","img/neutralC/CFD-WM-258-125-N.jpg","0","k","3.16634970006999",1,3,0,2,0
"250065","img/neutralC/CFD-WM-255-219-N.jpg","1","s","3.05133629997727",1,3,0,2,0
"250065","img/neutralC/CFD-BF-004-014-N.jpg","1","s","2.68833150004502",1,3,0,2,0
"250065","img/neutralC/CFD-BF-018-039-N.jpg","1","s","1.94779390003532",1,3,0,2,0
"250065","img/neutralC/CFD-BF-238-190-N.jpg","0","s","3.27633239992429",1,3,0,2,0
"250065","img/neutralC/CFD-BM-005-003-N.jpg","0","s","4.38517249992583",1,3,0,2,0
"250065","img/neutralC/CFD-IM-639-263-N.jpg","0","s","5.21566330001224",1,3,0,2,0
"250065","img/neutralC/CFD-BF-045-003-N.jpg","0","k","5.66673070006073",1,3,0,2,0
"250065","img/neutralC/CFD-IF-673-389-N.jpg","1","s","3.95671159995254",1,3,0,2,0
"250065","img/neutralC/CFD-BF-255-140-N.jpg","1","s","3.09695739997551",1,3,0,2,0
"250065","img/neutralC/CFD-LM-204-001-N.jpg","1","s","1.76406449999195",1,3,0,2,0
"250065","img/neutralC/CFD-IM-738-191-N.jpg","1","s","2.9940902000526",1,3,0,2,0
"250065","img/neutralC/CFD-WM-213-076-N.jpg","1","s","3.27784120000433",1,3,0,2,0
"250065","img/neutralC/CFD-AM-212-050-N.jpg","1","k","6.01698580000084",1,3,0,2,0
"250065","img/neutralC/CFD-LM-216-082-N.jpg","0","k","3.0534244000446",1,3,0,2,0
"250065","img/neutralC/CFD-AF-244-168-N.jpg","1","k","2.6206446000142",1,3,0,2,0
"250065","img/neutralC/CFD-WM-202-107-N.jpg","0","s","2.2435889999615",1,3,0,2,0
"250065","img/neutralC/CFD-IM-696-001-N.jpg","1","s","1.47745969996322",1,4,0,2,0
"250065","img/neutralC/CFD-AM-235-241-N.jpg","1","k","2.57287989999168",1,4,0,2,0
"250065","img/neutralC/CFD-LF-214-090-N.jpg","1","s","3.85140180005692",1,4,0,2,0
"250065","img/neutralC/CFD-AF-237-223-N.jpg","1","s","2.75385810004082",1,4,0,2,0
"250065","img/neutralC/CFD-BF-232-187-N.jpg","0","s","2.976470900001",1,4,0,2,0
"250065","img/neutralC/CFD-WF-235-121-N.jpg","0","k","3.49325380008668",1,4,0,2,0
"250065","img/neutralC/CFD-WF-006-002-N.jpg","0","s","1.39505980000831",1,4,0,2,0
"250065","img/neutralC/CFD-WM-006-002-N.jpg","0","k","4.09786800004076",1,4,0,2,0
"250065","img/neutralC/CFD-WF-238-023-N.jpg","0","k","2.12782990001142",1,4,0,2,0
"250065","img/neutralC/CFD-WF-007-001-N.jpg","0","s","2.65112679998856",1,4,0,2,0
"250065","img/neutralC/CFD-BF-212-315-N.jpg","0","s","3.46084309997968",1,4,0,2,0
"250065","img/neutralC/CFD-BF-002-001-N.jpg","1","s","3.6286773000611",1,4,0,2,0
"250065","img/neutralC/CFD-BM-001-014-N.jpg","0","s","5.32246880000457",1,4,0,2,0
"250065","img/neutralC/CFD-LF-222-147-N.jpg","1","k","2.33724719996098",1,4,0,2,0
"250065","img/neutralC/CFD-IM-703-182-N.jpg","1","k","1.65152399998624",1,4,0,2,0
"250065","img/neutralC/CFD-LM-238-129-N.jpg","0","s","3.66106760001276",1,4,0,2,0
"250065","img/neutralC/CFD-AF-221-147-N.jpg","0","s","3.26745600008871",1,4,0,2,0
"250065","img/neutralC/CFD-BM-247-240-N.jpg","1","k","2.16511860000901",1,4,0,2,0
"250065","img/neutralC/CFD-AM-247-165-N.jpg","1","k","2.38482649996877",1,4,0,2,0
"250065","img/neutralC/CFD-LM-243-075-N.jpg","1","s","3.03761679993477",1,4,0,2,0
"250065","img/neutralC/CFD-BF-226-119-N.jpg","0","k","2.52676889998838",1,4,0,2,0
"250065","img/neutralC/CFD-WM-253-119-N.jpg","0","k","3.6502900000196",1,4,0,2,0
"250065","img/neutralC/CFD-BM-013-002-N.jpg","1","s","2.25490629998967",1,4,0,2,0
"250065","img/neutralC/CFD-LM-218-183-N.jpg","1","s","3.3280237999279",1,4,0,2,0
"250065","img/neutralC/CFD-BM-250-170-N.jpg","0","s","4.51815540005919",1,4,0,2,0
"250065","img/neutralC/CFD-LM-226-175-N.jpg","1","s","3.51252900005784",1,4,0,2,0
"250065","img/neutralC/CFD-LF-208-127-N.jpg","1","s","2.00543949997518",1,4,0,2,0
"250065","img/neutralC/CFD-AM-245-111-N.jpg","1","k","3.03059940005187",1,4,0,2,0
"250065","img/neutralC/CFD-LM-200-045-N.jpg","0","s","3.27536940004211",1,4,0,2,0
"250065","img/neutralC/CFD-WM-024-015-N.jpg","0","k","1.5842646000674",1,4,0,2,0
"250065","img/neutralC/CFD-BF-020-002-N.jpg","0","s","2.23090810002759",1,4,0,2,0
"250065","img/neutralC/CFD-BM-018-001-N.jpg","1","k","1.99728340003639",1,4,0,2,0
"250065","img/neutralC/CFD-BF-039-031-N.jpg","0","k","2.2236583000049",1,4,0,2,0
"250065","img/neutralC/CFD-WM-018-002-N.jpg","1","s","4.76292529993225",1,4,0,2,0
"250065","img/neutralC/CFD-BF-010-001-N.jpg","0","s","2.53928539995104",1,4,0,2,0
"250065","img/neutralC/CFD-WF-226-095-N.jpg","0","s","3.79745340009686",1,4,0,2,0
"250065","img/neutralC/CFD-MF-309-002-N.jpg","1","k","2.71802070003468",1,4,0,2,0
"250065","img/neutralC/CFD-AM-230-150-N.jpg","0","s","2.61455719999503",1,4,0,2,0
"250065","img/neutralC/CFD-WF-209-052-N.jpg","1","s","2.60990219993982",1,4,0,2,0
"250065","img/neutralC/CFD-LM-219-295-N.jpg","1","s","2.89973750000354",1,4,0,2,0
"250065","img/neutralC/CFD-AF-229-160-N.jpg","1","s","2.5475045000203",1,4,0,2,0
"250065","img/neutralC/CFD-AF-215-70-N.jpg","1","s","2.32963259995449",1,4,0,2,0
"250065","img/neutralC/CFD-BF-028-001-N.jpg","0","k","3.27702699997462",1,4,0,2,0
"250065","img/neutralC/CFD-IM-675-015-N.jpg","0","k","5.96679829992354",1,4,0,2,0
"250065","img/neutralC/CFD-MF-335-002-N.jpg","0","s","3.72181019990239",1,4,0,2,0
"250065","img/neutralC/CFD-MF-318-022-N.jpg","0","s","2.62386130006053",1,4,0,2,0
"250065","img/neutralC/CFD-LF-212-066-N.jpg","0","s","5.70577690005302",1,4,0,2,0
"250065","img/neutralC/CFD-MF-301-024-N.jpg","1","s","3.54676800000016",1,4,0,2,0
"250065","img/neutralC/CFD-IM-638-250-1-N.jpg","0","k","2.206057399977",1,5,0,2,0
"250065","img/neutralC/CFD-IM-684-008-N.jpg","1","k","2.44878860004246",1,5,0,2,0
"250065","img/neutralC/CFD-WF-027-003-N.jpg","1","k","3.13047400000505",1,5,0,2,0
"250065","img/neutralC/CFD-MF-336-016-N.jpg","1","s","1.79416539997328",1,5,0,2,0
"250065","img/neutralC/CFD-AM-221-184-N.jpg","0","s","2.34833509998862",1,5,0,2,0
"250065","img/neutralC/CFD-WF-207-014-N.jpg","1","k","3.97033049992751",1,5,0,2,0
"250065","img/neutralC/CFD-WM-221-091-N.jpg","1","s","3.8445677999407",1,5,0,2,0
"250065","img/neutralC/CFD-BF-217-189-N.jpg","0","s","4.42542460002005",1,5,0,2,0
"250065","img/neutralC/CFD-LF-203-066-N.jpg","1","s","2.79117580002639",1,5,0,2,0
"250065","img/neutralC/CFD-BM-027-001-N.jpg","0","k","5.0124872000888",1,5,0,2,0
"250065","img/neutralC/CFD-WF-005-010-N.jpg","1","s","3.06831440003589",1,5,0,2,0
"250065","img/neutralC/CFD-MF-340-026-N.jpg","1","k","4.05098559998441",1,5,0,2,0
"250065","img/neutralC/CFD-WF-245-084-N.jpg","0","s","6.24966149998363",1,5,0,2,0
"250065","img/neutralC/CFD-AF-240-206-N.jpg","1","k","3.25316449999809",1,5,0,2,0
"250065","img/neutralC/CFD-BM-029-024-N.jpg","0","k","3.36889569996856",1,5,0,2,0
"250065","img/neutralC/CFD-MF-328-020-N.jpg","0","s","1.95821760001127",1,5,0,2,0
"250065","img/neutralC/CFD-LF-242-121-N.jpg","1","s","2.29010410001501",1,5,0,2,0
"250065","img/neutralC/CFD-BF-207-004-N.jpg","0","s","1.85425079998095",1,5,0,2,0
"250065","img/neutralC/CFD-AF-205-155-N.jpg","0","s","1.61137409997173",1,5,0,2,0
"250065","img/neutralC/CFD-BF-014-002-N.jpg","0","s","3.38225890009198",1,5,0,2,0
"250065","img/neutralC/CFD-WF-221-005-N.jpg","1","s","7.33665700000711",1,5,0,2,0
"250065","img/neutralC/CFD-WM-021-001-N.jpg","0","s","2.43799180001952",1,5,0,2,0
"250065","img/neutralC/CFD-IM-743-006-N.jpg","0","s","2.86137479997706",1,5,0,2,0
"250065","img/neutralC/CFD-AM-236-090-N.jpg","0","s","1.28795329993591",1,5,0,2,0
"250065","img/neutralC/CFD-IM-606-008-N.jpg","0","k","4.63496940000914",1,5,0,2,0
"250065","img/neutralC/CFD-BF-202-109-N.jpg","0","s","3.55644670000765",1,5,0,2,0
"250065","img/neutralC/CFD-WF-224-099-N.jpg","1","s","7.67678030009847",1,5,0,2,0
"250065","img/neutralC/CFD-BF-237-172-N.jpg","1","s","3.09115610003937",1,5,0,2,0
"250065","img/neutralC/CFD-IF-625-225-N.jpg","1","k","2.04945609997958",1,5,0,2,0
"250065","img/neutralC/CFD-IF-642-295-N.jpg","0","k","3.32810020004399",1,5,0,2,0
"250065","img/neutralC/CFD-LF-239-148-N.jpg","0","s","4.36482050002087",1,5,0,2,0
"250065","img/neutralC/CFD-WM-225-127-N.jpg","1","s","4.15942569996696",1,5,0,2,0
"250065","img/neutralC/CFD-BF-201-080-N.jpg","1","s","3.56015789997764",1,5,0,2,0
"250065","img/neutralC/CFD-WF-228-196-N.jpg","1","s","3.3032050000038",1,5,0,2,0
"250065","img/neutralC/CFD-AF-254-167-N.jpg","1","k","2.85369140002877",1,5,0,2,0
"250065","img/neutralC/CFD-WF-002-004-N.jpg","0","k","3.00888690003194",1,5,0,2,0
"250065","img/neutralC/CFD-BM-010-003-N.jpg","0","k","4.58924960007425",1,5,0,2,0
"250065","img/neutralC/CFD-LF-211-003-N.jpg","1","s","3.8320142000448",1,5,0,2,0
"250065","img/neutralC/CFD-WM-249-239-N.jpg","1","k","2.78282209997997",1,5,0,2,0
"250065","img/neutralC/CFD-IM-635-010-N.jpg","1","k","4.03528539999388",1,5,0,2,0
"250065","img/neutralC/CFD-BF-236-177-N.jpg","1","s","4.33948739990592",1,5,0,2,0
"250065","img/neutralC/CFD-AM-220-134-N.jpg","0","s","1.63918319996446",1,5,0,2,0
"250065","img/neutralC/CFD-AF-233-190-N.jpg","1","s","4.56212810007855",1,5,0,2,0
"250065","img/neutralC/CFD-WF-243-148-N.jpg","0","s","3.66053079999983",1,5,0,2,0
"250065","img/neutralC/CFD-WF-029-002-N.jpg","0","k","3.22095400001854",1,5,0,2,0
"250065","img/neutralC/CFD-LM-244-068-N.jpg","0","k","2.81051199999638",1,5,0,2,0
"250065","img/neutralC/CFD-BF-041-001-N.jpg","1","s","2.37674870004412",1,5,0,2,0
"250065","img/neutralC/CFD-LM-252-076-N.jpg","1","s","2.22823380003683",1,5,0,2,0
"250065","img/neutralC/CFD-LF-236-221-N.jpg","1","s","2.36947250005323",1,6,0,2,0
"250065","img/neutralC/CFD-LF-250-169-N.jpg","0","s","3.82120360003319",1,6,0,2,0
"250065","img/neutralC/CFD-BM-215-155-N.jpg","1","s","1.57329099997878",1,6,0,2,0
"250065","img/neutralC/CFD-IM-604-014-N.jpg","1","s","2.49063989997376",1,6,0,2,0
"250065","img/neutralC/CFD-LM-215-247-N.jpg","0","s","6.82808540004771",1,6,0,2,0
"250065","img/neutralC/CFD-MF-343-001-N.jpg","1","s","2.58708939992357",1,6,0,2,0
"250065","img/neutralC/CFD-BM-241-235-N.jpg","1","k","3.70326869993005",1,6,0,2,0
"250065","img/neutralC/CFD-IF-629-234-N.jpg","1","k","4.66522279998753",1,6,0,2,0
"250065","img/neutralC/CFD-WF-223-133-N.jpg","0","k","6.86686930002179",1,6,0,2,0
"250065","img/neutralC/CFD-IM-637-007-N.jpg","0","s","1.93852379999589",1,6,0,2,0
"250065","img/neutralC/CFD-IF-620-218-N.jpg","1","k","4.17086359998211",1,6,0,2,0
"250065","img/neutralC/CFD-BM-019-002-N.jpg","0","s","1.99235900002532",1,6,0,2,0
"250065","img/neutralC/CFD-AM-244-222-N.jpg","0","k","2.63236180006061",1,6,0,2,0
"250065","img/neutralC/CFD-BF-006-017-N.jpg","1","k","2.09228690003511",1,6,0,2,0
"250065","img/neutralC/CFD-IM-719-221-N.jpg","0","s","2.94537800003309",1,6,0,2,0
"250065","img/neutralC/CFD-BF-214-308-N.jpg","0","k","4.25387950008735",1,6,0,2,0
"250065","img/neutralC/CFD-WF-222-092-N.jpg","0","s","2.98144680005498",1,6,0,2,0
"250065","img/neutralC/CFD-IF-608-390-N.jpg","0","k","3.29142199992202",1,6,0,2,0
"250065","img/neutralC/CFD-LM-233-171-N.jpg","0","k","2.27904829999898",1,6,0,2,0
"250065","img/neutralC/CFD-WM-237-052-N.jpg","1","s","3.51192790002096",1,6,0,2,0
"250065","img/neutralC/CFD-BF-253-202-N.jpg","1","k","3.56067330006044",1,6,0,2,0
"250065","img/neutralC/CFD-IF-676-017-N.jpg","1","s","1.78975580004044",1,6,0,2,0
"250065","img/neutralC/CFD-BF-254-201-N.jpg","0","k","1.34905170009006",1,6,0,2,0
"250065","img/neutralC/CFD-IM-702-101-N.jpg","0","k","6.26890030002687",1,6,0,2,0
"250065","img/neutralC/CFD-LF-247-051-N.jpg","0","k","3.73085240006912",1,6,0,2,0
"250065","img/neutralC/CFD-BM-243-218-N.jpg","0","s","3.54981390002649",1,6,0,2,0
"250065","img/neutralC/CFD-MF-302-027-N.jpg","0","s","5.49956410005689",1,6,0,2,0
"250065","img/neutralC/CFD-MF-337-026-N.jpg","0","s","2.39567210001405",1,6,0,2,0
"250065","img/neutralC/CFD-IM-646-023-N.jpg","1","k","1.90839749993756",1,6,0,2,0
"250065","img/neutralC/CFD-WM-002-009-N.jpg","1","s","2.11545339995064",1,6,0,2,0
"250065","img/neutralC/CFD-WF-241-210-N.jpg","0","s","2.34920009993948",1,6,0,2,0
"250065","img/neutralC/CFD-AF-206-079-N.jpg","1","k","2.24324610002805",1,6,0,2,0
"250065","img/neutralC/CFD-IM-615-167-N.jpg","1","k","2.05072539998218",1,6,0,2,0
"250065","img/neutralC/CFD-LF-238-154-N.jpg","1","k","3.18048159999307",1,6,0,2,0
"250065","img/neutralC/CFD-IM-697-015-N.jpg","0","s","2.26843569998164",1,6,0,2,0
"250065","img/neutralC/CFD-WF-018-017-N.jpg","1","s","3.11163790000137",1,6,0,2,0
"250065","img/neutralC/CFD-IM-616-214-N.jpg","1","k","2.57242009998299",1,6,0,2,0
"250065","img/neutralC/CFD-BF-042-026-N.jpg","0","k","2.86326480004937",1,6,0,2,0
"250065","img/neutralC/CFD-LM-253-075-N.jpg","1","k","1.00911009998526",1,6,0,2,0
"250065","img/neutralC/CFD-BM-021-021-N.jpg","1","k","2.50845860003028",1,6,0,2,0
"250065","img/neutralC/CFD-LF-230-203-N.jpg","0","k","3.75947669998277",1,6,0,2,0
"250065","img/neutralC/CFD-LF-218-072-N.jpg","1","s","4.63534699997399",1,6,0,2,0
"250065","img/neutralC/CFD-LM-214-165-N.jpg","1","k","1.25086010002997",1,6,0,2,0
"250065","img/neutralC/CFD-WM-041-021-N.jpg","0","k","2.00708330003545",1,6,0,2,0
"250065","img/neutralC/CFD-BF-222-240-N.jpg","1","s","1.88896640005987",1,6,0,2,0
"250065","img/neutralC/CFD-AF-202-122-N.jpg","0","s","1.24790610000491",1,6,0,2,0
"250065","img/neutralC/CFD-LF-210-220-N.jpg","0","s","1.77192930004094",1,6,0,2,0
"250065","img/neutralC/CFD-BM-225-154-N.jpg","0","k","1.73965320002753",1,6,0,2,0
"250065","img/neutralC/CFD-LF-226-174-N.jpg","0","s","2.72913600003812",1,7,0,2,0
"250065","img/neutralC/CFD-WF-009-001-N.jpg","0","s","2.18736159999389",1,7,0,2,0
"250065","img/neutralC/CFD-IF-729-393-N.jpg","1","k","3.68980559997726",1,7,0,2,0
"250065","img/neutralC/CFD-IM-653-008-N.jpg","1","k","1.96196230000351",1,7,0,2,0
"250065","img/neutralC/CFD-MF-316-001-N.jpg","1","k","3.64711699995678",1,7,0,2,0
"250065","img/neutralC/CFD-IM-706-002-N.jpg","1","k","2.24300050002057",1,7,0,2,0
"250065","img/neutralC/CFD-BM-204-003-N.jpg","1","k","3.87798160000239",1,7,0,2,0
"250065","img/neutralC/CFD-BF-213-188-N.jpg","0","k","2.25256900000386",1,7,0,2,0
"250065","img/neutralC/CFD-MF-303-013-N.jpg","0","s","3.90965439996216",1,7,0,2,0
"250065","img/neutralC/CFD-IF-732-260-N.jpg","0","s","1.6273138000397",1,7,0,2,0
"250065","img/neutralC/CFD-WF-248-129-N.jpg","0","s","1.48009760002606",1,7,0,2,0
"250065","img/neutralC/CFD-AM-243-212-N.jpg","1","k","3.51109970000107",1,7,0,2,0
"250065","img/neutralC/CFD-WM-025-002-N.jpg","1","s","1.80822189990431",1,7,0,2,0
"250065","img/neutralC/CFD-LM-225-130-N.jpg","1","k","2.57260990003124",1,7,0,2,0
"250065","img/neutralC/CFD-WF-210-086-N.jpg","0","s","1.82250950008165",1,7,0,2,0
"250065","img/neutralC/CFD-IF-742-103-N.jpg","0","s","2.93189370003529",1,7,0,2,0
"250065","img/neutralC/CFD-LF-220-120-N.jpg","1","k","2.71985920006409",1,7,0,2,0
"250065","img/neutralC/CFD-MF-327-002-N.jpg","0","k","1.67702169995755",1,7,0,2,0
"250065","img/neutralC/CFD-BM-211-174-N.jpg","0","s","2.30191369995009",1,7,0,2,0
"250065","img/neutralC/CFD-WM-026-001-N.jpg","1","s","3.33555890002754",1,7,0,2,0
"250065","img/neutralC/CFD-AM-249-163-N.jpg","1","k","1.87564690003637",1,7,0,2,0
"250065","img/neutralC/CFD-LF-205-100-N.jpg","0","s","2.34149939997587",1,7,0,2,0
"250065","img/neutralC/CFD-WM-257-161-N.jpg","0","s","1.62434550002217",1,7,0,2,0
"250065","img/neutralC/CFD-AM-205-153-N.jpg","0","k","2.55796779994853",1,7,0,2,0
"250065","img/neutralC/CFD-MF-357-002-N.jpg","1","k","2.56866679992527",1,7,0,2,0
"250065","img/neutralC/CFD-BM-212-117-N.jpg","0","s","3.07164080010261",1,7,0,2,0
"250065","img/neutralC/CFD-BM-248-128-N.jpg","1","s","2.03712009999435",1,7,0,2,0
"250065","img/neutralC/CFD-AF-210-050-N.jpg","0","s","1.09135210001841",1,7,0,2,0
"250065","img/neutralC/CFD-WM-040-022-N.jpg","0","s","2.98657660000026",1,7,0,2,0
"250065","img/neutralC/CFD-BF-206-143-N.jpg","1","k","1.98075430002064",1,7,0,2,0
"250065","img/neutralC/CFD-IM-727-195-N.jpg","0","s","2.12055530003272",1,7,0,2,0
"250065","img/neutralC/CFD-IM-685-004-N.jpg","1","k","2.05472210003063",1,7,0,2,0
"250065","img/neutralC/CFD-BM-033-003-N.jpg","0","s","1.66411580005661",1,7,0,2,0
"250065","img/neutralC/CFD-BM-200-046-N.jpg","1","s","2.17076889995951",1,7,0,2,0
"250065","img/neutralC/CFD-MF-312-002-N.jpg","0","k","1.95431960001588",1,7,0,2,0
"250065","img/neutralC/CFD-WM-232-070-N.jpg","1","s","3.00073850003537",1,7,0,2,0
"250065","img/neutralC/CFD-AM-201-076-N.jpg","0","k","1.74160449998453",1,7,0,2,0
"250065","img/neutralC/CFD-AF-241-141-N.jpg","1","s","2.38465549994726",1,7,0,2,0
"250065","img/neutralC/CFD-IM-648-337-N.jpg","1","s","1.93510630005039",1,7,0,2,0
"250065","img/neutralC/CFD-MF-329-001-N.jpg","0","s","2.51809579995461",1,7,0,2,0
"250065","img/neutralC/CFD-IM-721-341-N.jpg","0","s","2.4407389999833",1,7,0,2,0
"250065","img/neutralC/CFD-WF-214-122-N.jpg","0","s","2.80364130006637",1,7,0,2,0
"250065","img/neutralC/CFD-WF-012-002-N.jpg","1","s","6.56525009998586",1,7,0,2,0
"250065","img/neutralC/CFD-IM-709-103-N.jpg","1","k","2.49485270003788",1,7,0,2,0
"250065","img/neutralC/CFD-IF-650-315-N.jpg","1","s","3.56079130002763",1,7,0,2,0
"250065","img/neutralC/CFD-MF-342-022-N.jpg","1","k","1.86582959990483",1,7,0,2,0
"250065","img/neutralC/CFD-BF-029-031-N.jpg","1","s","2.3481168000726",1,7,0,2,0
"250065","img/neutralC/CFD-BF-224-002-N.jpg","1","k","2.29171280004084",1,7,0,2,0
"250065","img/neutralC/CFD-BF-023-010-N.jpg","1","k","5.27441910002381",1,8,0,2,0
"250065","img/neutralC/CFD-IF-636-011-N.jpg","1","s","2.28548700001556",1,8,0,2,0
"250065","img/neutralC/CFD-IM-678-482-N.jpg","1","k","1.04550799995195",1,8,0,2,0
"250065","img/neutralC/CFD-IM-728-041-N.jpg","1","s","1.20586509990972",1,8,0,2,0
"250065","img/neutralC/CFD-WM-218-074-N.jpg","0","k","1.52203370002098",1,8,0,2,0
"250065","img/neutralC/CFD-WM-201-063-N.jpg","0","k","2.3025886999676",1,8,0,2,0
"250065","img/neutralC/CFD-AM-215-120-N.jpg","1","k","2.16000489995349",1,8,0,2,0
"250065","img/neutralC/CFD-WM-011-002-N.jpg","0","k","2.89114960003644",1,8,0,2,0
"250065","img/neutralC/CFD-IM-645-001-N.jpg","0","s","1.92933209997136",1,8,0,2,0
"250065","img/neutralC/CFD-WF-022-017-N.jpg","0","k","3.9019809999736",1,8,0,2,0
"250065","img/neutralC/CFD-IF-619-197-N.jpg","1","k","2.63101160002407",1,8,0,2,0
"250065","img/neutralC/CFD-BM-205-001-N.jpg","1","k","1.94726449996233",1,8,0,2,0
"250065","img/neutralC/CFD-BF-036-027-N.jpg","1","k","2.7149607000174",1,8,0,2,0
"250065","img/neutralC/CFD-IF-626-375-N.jpg","1","s","2.16243010002654",1,8,0,2,0
"250065","img/neutralC/CFD-BM-043-071-N.jpg","1","k","1.09787950001191",1,8,0,2,0
"250065","img/neutralC/CFD-BF-235-168-N.jpg","0","s","2.43520120007452",1,8,0,2,0
"250065","img/neutralC/CFD-MF-333-012-N.jpg","1","s","3.13396390003618",1,8,0,2,0
"250065","img/neutralC/CFD-LF-201-035-N.jpg","1","k","2.61796509998385",1,8,0,2,0
"250065","img/neutralC/CFD-WF-212-050-N.jpg","0","s","1.60232389997691",1,8,0,2,0
"250065","img/neutralC/CFD-WM-235-147-N.jpg","1","k","3.48448059998918",1,8,0,2,0
"250065","img/neutralC/CFD-MF-352-054-N.jpg","0","k","1.77004550001584",1,8,0,2,0
"250065","img/neutralC/CFD-LF-216-121-N.jpg","0","k","1.8811568999663",1,8,0,2,0
"250065","img/neutralC/CFD-WM-013-001-N.jpg","1","s","2.5468318000203",1,8,0,2,0
"250065","img/neutralC/CFD-BM-028-002-N.jpg","0","k","1.9732419999782",1,8,0,2,0
"250065","img/neutralC/CFD-BF-011-002-N.jpg","1","s","2.32317210000474",1,8,0,2,0
"250065","img/neutralC/CFD-IM-686-097-N.jpg","1","k","1.99730569997337",1,8,0,2,0
"250065","img/neutralC/CFD-BM-041-035-N.jpg","1","s","1.88338249991648",1,8,0,2,0
"250065","img/neutralC/CFD-BM-231-155-N.jpg","1","s","1.66390489996411",1,8,0,2,0
"250065","img/neutralC/CFD-MF-359-019-N.jpg","1","s","2.28545840003062",1,8,0,2,0
"250065","img/neutralC/CFD-BF-204-189-N.jpg","0","k","1.86297180003021",1,8,0,2,0
"250065","img/neutralC/CFD-BF-228-212-N.jpg","1","s","2.07170500000939",1,8,0,2,0
"250065","img/neutralC/CFD-BF-247-179-N.jpg","1","s","1.65794869989622",1,8,0,2,0
"250065","img/neutralC/CFD-LM-240-013-N.jpg","1","s","2.91077679989394",1,8,0,2,0
"250065","img/neutralC/CFD-WF-217-085-N.jpg","1","k","1.91757299995515",1,8,0,2,0
"250065","img/neutralC/CFD-IF-623-129-N.jpg","1","k","2.30511319998186",1,8,0,2,0
"250065","img/neutralC/CFD-LF-215-157-N.jpg","1","s","2.40851690003183",1,8,0,2,0
"250065","img/neutralC/CFD-AM-217-085-N.jpg","0","k","2.70612860005349",1,8,0,2,0
"250065","img/neutralC/CFD-BF-229-179-N.jpg","1","k","2.92110989999492",1,8,0,2,0
"250065","img/neutralC/CFD-AF-231-357-N.jpg","0","s","2.96370099997148",1,8,0,2,0
"250065","img/neutralC/CFD-BF-244-231-N.jpg","0","k","1.47855130000971",1,8,0,2,0
"250065","img/neutralC/CFD-AF-234-208-N.jpg","1","k","2.81819029990584",1,8,0,2,0
"250065","img/neutralC/CFD-MM-317-061-N.jpg","1","s","1.71884849993512",1,8,0,2,0
"250065","img/neutralC/CFD-MM-324-069-N.jpg","0","k","1.17493879992981",1,8,0,2,0
"250065","img/neutralC/CFD-LM-228-188-N.jpg","0","k","1.34376899991184",1,8,0,2,0
"250065","img/neutralC/CFD-IM-726-248-N.jpg","1","k","2.12753290007822",1,8,0,2,0
"250065","img/neutralC/CFD-LM-201-057-N.jpg","1","k","1.25498710002284",1,8,0,2,0
"250065","img/neutralC/CFD-WF-017-003-N.jpg","0","k","1.25703410001006",1,8,0,2,0
"250065","img/neutralC/CFD-BF-040-003-N.jpg","1","s","1.77519660000689",1,8,0,2,0
