"participant_id","face","surpAcc","memory_surp_responses","memory_surp_rt","keep_surp_memory_trial_based_on_rt","surp_block_num","exclude_block","number_of_surp_resp_items_used","num_blocks_excluded"
"250055","img/neutralC/CFD-IM-707-105-N.jpg","1","s","1.3093055000063",1,1,0,2,0
"250055","img/neutralC/CFD-LF-204-133-N.jpg","1","k","0.931030300038401",1,1,0,2,0
"250055","img/neutralC/CFD-WM-227-099-N.jpg","0","s","2.77138300001388",1,1,0,2,0
"250055","img/neutralC/CFD-BM-020-001-N.jpg","1","s","1.31969000003301",1,1,0,2,0
"250055","img/neutralC/CFD-MF-300-002-N.jpg","0","s","1.45529469999019",1,1,0,2,0
"250055","img/neutralC/CFD-LF-225-164-N.jpg","0","s","1.42098530003568",1,1,0,2,0
"250055","img/neutralC/CFD-WM-004-010-N.jpg","1","k","1.77459739998449",1,1,0,2,0
"250055","img/neutralC/CFD-IM-671-601-N.jpg","1","s","1.41700560000027",1,1,0,2,0
"250055","img/neutralC/CFD-WF-244-163-N.jpg","0","k","1.62382060004165",1,1,0,2,0
"250055","img/neutralC/CFD-WF-250-167-N.jpg","0","s","3.73830339999404",1,1,0,2,0
"250055","img/neutralC/CFD-IM-657-308-N.jpg","1","s","1.64867819997016",1,1,0,2,0
"250055","img/neutralC/CFD-WF-234-086-N.jpg","0","k","1.10975040000631",1,1,0,2,0
"250055","img/neutralC/CFD-IM-632-097-N.jpg","1","k","2.19954769994365",1,1,0,2,0
"250055","img/neutralC/CFD-AM-219-101-N.jpg","1","s","1.38059869996505",1,1,0,2,0
"250055","img/neutralC/CFD-BM-213-134-N.jpg","0","s","1.87546290003229",1,1,0,2,0
"250055","img/neutralC/CFD-WF-030-002-N.jpg","1","s","3.12480059999507",1,1,0,2,0
"250055","img/neutralC/CFD-WM-023-001-N.jpg","1","k","2.03408269997453",1,1,0,2,0
"250055","img/neutralC/CFD-IM-674-281-N.jpg","1","k","1.2470733000082",1,1,0,2,0
"250055","img/neutralC/CFD-WM-212-097-N.jpg","1","s","3.18924849998439",1,1,0,2,0
"250055","img/neutralC/CFD-MM-304-002-N.jpg","1","s","1.54471689998172",1,1,0,2,0
"250055","img/neutralC/CFD-BF-012-001-N.jpg","0","k","1.4926201000344",1,1,0,2,0
"250055","img/neutralC/CFD-WF-001-003-N.jpg","0","k","1.66022799996426",1,1,0,2,0
"250055","img/neutralC/CFD-BM-004-002-N.jpg","1","s","2.40462939999998",1,1,0,2,0
"250055","img/neutralC/CFD-AF-253-130-N.jpg","0","k","3.34391289995983",1,1,0,2,0
"250055","img/neutralC/CFD-WM-012-001-N.jpg","1","k","3.42893140000524",1,1,0,2,0
"250055","img/neutralC/CFD-IM-700-009-N.jpg","1","k","1.17998179997085",1,1,0,2,0
"250055","img/neutralC/CFD-BM-227-191-N.jpg","1","k","2.48538279999048",1,1,0,2,0
"250055","img/neutralC/CFD-MF-305-014-N.jpg","0","k","2.85199239995563",1,1,0,2,0
"250055","img/neutralC/CFD-BM-253-004-N.jpg","0","k","1.7221524999477",1,1,0,2,0
"250055","img/neutralC/CFD-MF-307-002-N.jpg","0","s","1.43158610002138",1,1,0,2,0
"250055","img/neutralC/CFD-LM-247-095-N.jpg","1","s","1.7501180000254",1,1,0,2,0
"250055","img/neutralC/CFD-WM-020-001-N.jpg","0","s","1.71453260001726",1,1,0,2,0
"250055","img/neutralC/CFD-WM-034-030-N.jpg","0","k","1.22119140002178",1,1,0,2,0
"250055","img/neutralC/CFD-BM-009-002-N.jpg","1","s","1.39670360001037",1,1,0,2,0
"250055","img/neutralC/CFD-AM-233-236-N.jpg","0","s","2.30121269996744",1,1,0,2,0
"250055","img/neutralC/CFD-WM-028-003-N.jpg","1","k","2.10533160000341",1,1,0,2,0
"250055","img/neutralC/CFD-LF-245-166-N.jpg","0","k","5.60927469999297",1,1,0,2,0
"250055","img/neutralC/CFD-BF-205-141-N.jpg","0","s","2.50229829997988",1,1,0,2,0
"250055","img/neutralC/CFD-WF-233-112-N.jpg","0","k","2.81433140003355",1,1,0,2,0
"250055","img/neutralC/CFD-WF-213-031-N.jpg","1","s","2.41131149994908",1,1,0,2,0
"250055","img/neutralC/CFD-IF-660-464-N.jpg","1","s","1.57725279999431",1,1,0,2,0
"250055","img/neutralC/CFD-AF-246-242-N.jpg","1","s","1.44352900004014",1,1,0,2,0
"250055","img/neutralC/CFD-BM-238-242-N.jpg","0","s","1.1072699999786",1,1,0,2,0
"250055","img/neutralC/CFD-IM-617-174-N.jpg","0","k","4.14858059998369",1,1,0,2,0
"250055","img/neutralC/CFD-WM-215-041-N.jpg","0","k","2.01434140000492",1,1,0,2,0
"250055","img/neutralC/CFD-BM-239-136-N.jpg","0","s","1.87322519998997",1,1,0,2,0
"250055","img/neutralC/CFD-WM-033-025-N.jpg","1","s","1.87550799996825",1,1,0,2,0
"250055","img/neutralC/CFD-IF-744-114-N.jpg","1","s","1.1713546999963",1,1,0,2,0
"250055","img/neutralC/CFD-AF-250-200-N.jpg","0","k","3.01184480002848",1,2,0,2,0
"250055","img/neutralC/CFD-WM-019-003-N.jpg","1","s","1.73668959998759",1,2,0,2,0
"250055","img/neutralC/CFD-BF-218-207-N.jpg","0","s","1.06084910000209",1,2,0,2,0
"250055","img/neutralC/CFD-BM-003-003-N.jpg","1","k","3.50041280000005",1,2,0,2,0
"250055","img/neutralC/CFD-AM-211-052-N.jpg","1","k","2.81931169994641",1,2,0,2,0
"250055","img/neutralC/CFD-MM-319-052-N.jpg","1","k","1.47261140000774",1,2,0,2,0
"250055","img/neutralC/CFD-BM-036-003-N.jpg","0","s","1.49531710002339",1,2,0,2,0
"250055","img/neutralC/CFD-WM-015-002-N.jpg","1","k","2.97667740000179",1,2,0,2,0
"250055","img/neutralC/CFD-BM-026-002-N.jpg","1","s","2.07382130000042",1,2,0,2,0
"250055","img/neutralC/CFD-WF-023-003-N.jpg","0","s","5.92553589999443",1,2,0,2,0
"250055","img/neutralC/CFD-BM-030-003-N.jpg","1","k","1.20525120000821",1,2,0,2,0
"250055","img/neutralC/CFD-IM-667-369-N.jpg","1","k","1.13622049998958",1,2,0,2,0
"250055","img/neutralC/CFD-WM-242-011-N.jpg","0","s","2.94220639998093",1,2,0,2,0
"250055","img/neutralC/CFD-IM-669-111-N.jpg","0","s","1.39399210002739",1,2,0,2,0
"250055","img/neutralC/CFD-IM-664-651-N.jpg","0","s","1.77474699995946",1,2,0,2,0
"250055","img/neutralC/CFD-WM-017-002-N.jpg","1","s","2.01956029998837",1,2,0,2,0
"250055","img/neutralC/CFD-WF-208-068-N.jpg","1","s","2.26070939999772",1,2,0,2,0
"250055","img/neutralC/CFD-WM-248-036-N.jpg","0","k","2.02447569998913",1,2,0,2,0
"250055","img/neutralC/CFD-IF-634-382-N.jpg","1","s","1.75886539998464",1,2,0,2,0
"250055","img/neutralC/CFD-IF-718-001-N.jpg","1","s","1.72375830000965",1,2,0,2,0
"250055","img/neutralC/CFD-MF-321-003-N.jpg","1","s","6.28160480002407",1,2,0,2,0
"250055","img/neutralC/CFD-LF-224-176-N.jpg","1","k","1.73523099999875",1,2,0,2,0
"250055","img/neutralC/CFD-BM-023-029-N.jpg","1","s","1.0167885000119",1,2,0,2,0
"250055","img/neutralC/CFD-AF-239-171-N.jpg","1","k","1.23084630002268",1,2,0,2,0
"250055","img/neutralC/CFD-IM-651-308-N.jpg","1","k","1.20489260001341",1,2,0,2,0
"250055","img/neutralC/CFD-IM-689-263-N.jpg","1","s","1.24494879995473",1,2,0,2,0
"250055","img/neutralC/CFD-BF-044-034-N.jpg","1","s","1.66997510002693",1,2,0,2,0
"250055","img/neutralC/CFD-MM-306-010-N.jpg","1","s","1.26971689995844",1,2,0,2,0
"250055","img/neutralC/CFD-WM-219-008-N.jpg","0","s","1.46416109998245",1,2,0,2,0
"250055","img/neutralC/CFD-WF-240-083-N.jpg","1","s","1.79427779995603",1,2,0,2,0
"250055","img/neutralC/CFD-LM-213-061-N.jpg","0","s","1.58726569998544",1,2,0,2,0
"250055","img/neutralC/CFD-LM-237-264-N.jpg","0","k","1.76700809999602",1,2,0,2,0
"250055","img/neutralC/CFD-BM-217-082-N.jpg","1","s","1.40226339997025",1,2,0,2,0
"250055","img/neutralC/CFD-BF-043-003-N.jpg","1","s","1.95071839995217",1,2,0,2,0
"250055","img/neutralC/CFD-IF-710-016-N.jpg","0","s","2.0469732999918",1,2,0,2,0
"250055","img/neutralC/CFD-MF-313-002-N.jpg","0","s","5.82770780002465",1,2,0,2,0
"250055","img/neutralC/CFD-IM-627-178-N.jpg","1","s","1.62383629998658",1,2,0,2,0
"250055","img/neutralC/CFD-BM-207-024-N.jpg","1","s","1.51792269997532",1,2,0,2,0
"250055","img/neutralC/CFD-LM-241-125-N.jpg","0","k","2.53913839999586",1,2,0,2,0
"250055","img/neutralC/CFD-IF-665-015-N.jpg","0","k","2.93898790003732",1,2,0,2,0
"250055","img/neutralC/CFD-WF-200-099-N.jpg","0","k","1.18346960004419",1,2,0,2,0
"250055","img/neutralC/CFD-IF-693-172-N.jpg","0","s","1.92392720002681",1,2,0,2,0
"250055","img/neutralC/CFD-BF-051-035-N.jpg","0","k","2.21894679998513",1,2,0,2,0
"250055","img/neutralC/CFD-WM-009-002-N.jpg","0","k","4.35457979998318",1,2,0,2,0
"250055","img/neutralC/CFD-IF-672-305-N.jpg","1","s","1.41497179999715",1,2,0,2,0
"250055","img/neutralC/CFD-WF-033-002-N.jpg","0","s","3.97161659994163",1,2,0,2,0
"250055","img/neutralC/CFD-BM-015-015-N.jpg","1","s","1.89659209997626",1,2,0,2,0
"250055","img/neutralC/CFD-WM-228-065-N.jpg","0","s","1.50015560002066",1,2,0,2,0
"250055","img/neutralC/CFD-BF-033-028-N.jpg","1","k","2.30135519994656",1,3,0,2,0
"250055","img/neutralC/CFD-AF-213-126-N.jpg","0","k","3.91937739995774",1,3,0,2,0
"250055","img/neutralC/CFD-AM-225-102-N.jpg","1","k","2.21318910003174",1,3,0,2,0
"250055","img/neutralC/CFD-IF-677-452-1-N.jpg","0","k","2.43668699997943",1,3,0,2,0
"250055","img/neutralC/CFD-AM-242-176-N.jpg","1","k","2.02596350002568",1,3,0,2,0
"250055","img/neutralC/CFD-AM-251-124-N.jpg","1","s","2.14645820000442",1,3,0,2,0
"250055","img/neutralC/CFD-WM-209-038-N.jpg","1","k","4.86610460001975",1,3,0,2,0
"250055","img/neutralC/CFD-IF-673-389-N.jpg","1","s","1.02234250004403",1,3,0,2,0
"250055","img/neutralC/CFD-WM-255-219-N.jpg","1","s","1.44439190003322",1,3,0,2,0
"250055","img/neutralC/CFD-WF-026-002-N.jpg","0","k","1.35296719998587",1,3,0,2,0
"250055","img/neutralC/CFD-AM-212-050-N.jpg","1","s","1.86578560003545",1,3,0,2,0
"250055","img/neutralC/CFD-WM-254-152-N.jpg","1","s","1.67727729998296",1,3,0,2,0
"250055","img/neutralC/CFD-WM-038-003-N.jpg","1","s","2.78413179999916",1,3,0,2,0
"250055","img/neutralC/CFD-IM-639-263-N.jpg","1","s","1.9134474999737",1,3,0,2,0
"250055","img/neutralC/CFD-WF-036-023-N.jpg","1","k","1.74953029997414",1,3,0,2,0
"250055","img/neutralC/CFD-MM-316-156-N.jpg","0","k","2.35255880001932",1,3,0,2,0
"250055","img/neutralC/CFD-MM-321-021-N.jpg","1","s","1.82557250000536",1,3,0,2,0
"250055","img/neutralC/CFD-BF-208-266-N.jpg","1","s","3.60828620003304",1,3,0,2,0
"250055","img/neutralC/CFD-WM-258-125-N.jpg","1","k","2.09562919999007",1,3,0,2,0
"250055","img/neutralC/CFD-WM-014-002-N.jpg","0","s","1.39979140000651",1,3,0,2,0
"250055","img/neutralC/CFD-LM-217-162-N.jpg","1","k","2.74609500000952",1,3,0,2,0
"250055","img/neutralC/CFD-LM-216-082-N.jpg","1","s","1.94516190001741",1,3,0,2,0
"250055","img/neutralC/CFD-BF-025-002-N.jpg","0","s","1.38088529999368",1,3,0,2,0
"250055","img/neutralC/CFD-AF-232-078-N.jpg","1","s","0.975953000015579",1,3,0,2,0
"250055","img/neutralC/CFD-BF-003-003-N.jpg","1","s","0.958036799973343",1,3,0,2,0
"250055","img/neutralC/CFD-IM-738-191-N.jpg","0","k","1.39536889997544",1,3,0,2,0
"250055","img/neutralC/CFD-BF-255-140-N.jpg","1","s","1.38190659997053",1,3,0,2,0
"250055","img/neutralC/CFD-BM-005-003-N.jpg","1","k","1.41600850003306",1,3,0,2,0
"250055","img/neutralC/CFD-LF-241-188-N.jpg","0","s","1.32173760002479",1,3,0,2,0
"250055","img/neutralC/CFD-LM-204-001-N.jpg","1","k","1.62057309999363",1,3,0,2,0
"250055","img/neutralC/CFD-AF-244-168-N.jpg","0","s","1.12865490000695",1,3,0,2,0
"250055","img/neutralC/CFD-IM-701-312-N.jpg","1","k","1.28521970001748",1,3,0,2,0
"250055","img/neutralC/CFD-IM-659-359-N.jpg","1","k","1.62221000000136",1,3,0,2,0
"250055","img/neutralC/CFD-AF-227-207-N.jpg","1","k","2.42198059998918",1,3,0,2,0
"250055","img/neutralC/CFD-BM-251-013-N.jpg","0","s","1.64965390000725",1,3,0,2,0
"250055","img/neutralC/CFD-BF-027-002-N.jpg","1","s","4.65576229995349",1,3,0,2,0
"250055","img/neutralC/CFD-BF-045-003-N.jpg","1","s","2.09514379996108",1,3,0,2,0
"250055","img/neutralC/CFD-BF-018-039-N.jpg","1","k","0.971048799983691",1,3,0,2,0
"250055","img/neutralC/CFD-BM-039-029-N.jpg","1","k","1.24663619999774",1,3,0,2,0
"250055","img/neutralC/CFD-IM-680-369-N.jpg","0","s","1.36949159996584",1,3,0,2,0
"250055","img/neutralC/CFD-LF-206-078-N.jpg","1","s","1.1322199999704",1,3,0,2,0
"250055","img/neutralC/CFD-BF-038-037-N.jpg","0","s","2.10114789998624",1,3,0,2,0
"250055","img/neutralC/CFD-BF-004-014-N.jpg","1","k","1.08759860001737",1,3,0,2,0
"250055","img/neutralC/CFD-WM-202-107-N.jpg","1","k","1.41186219995143",1,3,0,2,0
"250055","img/neutralC/CFD-BF-238-190-N.jpg","1","s","1.50943099998403",1,3,0,2,0
"250055","img/neutralC/CFD-WF-008-002-N.jpg","1","s","1.21904569998151",1,3,0,2,0
"250055","img/neutralC/CFD-WM-213-076-N.jpg","0","s","2.70524169999408",1,3,0,2,0
"250055","img/neutralC/CFD-LF-255-088-N.jpg","1","s","1.363036499999",1,3,0,2,0
"250055","img/neutralC/CFD-WF-226-095-N.jpg","1","s","1.3412062000134",1,4,0,2,0
"250055","img/neutralC/CFD-MF-335-002-N.jpg","1","k","1.67127530003199",1,4,0,2,0
"250055","img/neutralC/CFD-LM-226-175-N.jpg","0","s","0.852491400029976",1,4,0,2,0
"250055","img/neutralC/CFD-AF-221-147-N.jpg","0","s","1.90370889997575",1,4,0,2,0
"250055","img/neutralC/CFD-AM-247-165-N.jpg","0","s","1.78898989997106",1,4,0,2,0
"250055","img/neutralC/CFD-MF-318-022-N.jpg","1","k","2.94551130000036",1,4,0,2,0
"250055","img/neutralC/CFD-WF-006-002-N.jpg","1","s","5.33912909997161",1,4,0,2,0
"250055","img/neutralC/CFD-IM-675-015-N.jpg","1","k","3.0033751000301",1,4,0,2,0
"250055","img/neutralC/CFD-AM-230-150-N.jpg","1","k","1.56769850000273",1,4,0,2,0
"250055","img/neutralC/CFD-LM-243-075-N.jpg","1","s","1.23880980000831",1,4,0,2,0
"250055","img/neutralC/CFD-WM-253-119-N.jpg","0","s","1.86321049998514",1,4,0,2,0
"250055","img/neutralC/CFD-WF-238-023-N.jpg","1","k","2.49976710003102",1,4,0,2,0
"250055","img/neutralC/CFD-AM-235-241-N.jpg","1","s","3.35542829998303",1,4,0,2,0
"250055","img/neutralC/CFD-LM-200-045-N.jpg","1","k","1.66901100001996",1,4,0,2,0
"250055","img/neutralC/CFD-AF-215-70-N.jpg","1","s","1.86569339997368",1,4,0,2,0
"250055","img/neutralC/CFD-LF-208-127-N.jpg","0","s","1.59217350004474",1,4,0,2,0
"250055","img/neutralC/CFD-LF-212-066-N.jpg","0","k","1.19440709997434",1,4,0,2,0
"250055","img/neutralC/CFD-MF-309-002-N.jpg","0","k","2.00863940001",1,4,0,2,0
"250055","img/neutralC/CFD-AF-229-160-N.jpg","0","s","3.30028669995954",1,4,0,2,0
"250055","img/neutralC/CFD-WF-209-052-N.jpg","1","s","2.61252740002237",1,4,0,2,0
"250055","img/neutralC/CFD-LM-238-129-N.jpg","1","s","4.09545810002601",1,4,0,2,0
"250055","img/neutralC/CFD-IM-696-001-N.jpg","1","s","3.02830689999973",1,4,0,2,0
"250055","img/neutralC/CFD-BM-018-001-N.jpg","1","k","2.04662370000733",1,4,0,2,0
"250055","img/neutralC/CFD-LF-222-147-N.jpg","1","s","2.47285179997561",1,4,0,2,0
"250055","img/neutralC/CFD-BF-010-001-N.jpg","0","k","4.39487349998672",1,4,0,2,0
"250055","img/neutralC/CFD-BM-250-170-N.jpg","1","s","1.5974282999523",1,4,0,2,0
"250055","img/neutralC/CFD-MF-301-024-N.jpg","1","s","1.20432060002349",1,4,0,2,0
"250055","img/neutralC/CFD-WF-007-001-N.jpg","0","k","1.17294459999539",1,4,0,2,0
"250055","img/neutralC/CFD-AM-245-111-N.jpg","1","k","0.859636800014414",1,4,0,2,0
"250055","img/neutralC/CFD-BF-226-119-N.jpg","0","s","3.4929215000011",1,4,0,2,0
"250055","img/neutralC/CFD-BF-028-001-N.jpg","0","s","1.88629320001928",1,4,0,2,0
"250055","img/neutralC/CFD-BF-039-031-N.jpg","1","k","1.41415179998148",1,4,0,2,0
"250055","img/neutralC/CFD-LM-219-295-N.jpg","1","s","1.09985110000707",1,4,0,2,0
"250055","img/neutralC/CFD-WM-006-002-N.jpg","1","s","1.43068119999953",1,4,0,2,0
"250055","img/neutralC/CFD-BF-232-187-N.jpg","0","k","1.39881230000174",1,4,0,2,0
"250055","img/neutralC/CFD-WM-024-015-N.jpg","1","s","1.72724030003883",1,4,0,2,0
"250055","img/neutralC/CFD-LF-214-090-N.jpg","1","s","1.54753370000981",1,4,0,2,0
"250055","img/neutralC/CFD-AF-237-223-N.jpg","1","s","1.22153229999822",1,4,0,2,0
"250055","img/neutralC/CFD-LM-218-183-N.jpg","1","s","1.72300679999171",1,4,0,2,0
"250055","img/neutralC/CFD-WM-018-002-N.jpg","0","s","1.85891150002135",1,4,0,2,0
"250055","img/neutralC/CFD-IM-703-182-N.jpg","1","k","1.14896889997181",1,4,0,2,0
"250055","img/neutralC/CFD-BF-020-002-N.jpg","0","k","2.17063499998767",1,4,0,2,0
"250055","img/neutralC/CFD-BF-212-315-N.jpg","0","s","1.30572870001197",1,4,0,2,0
"250055","img/neutralC/CFD-BM-247-240-N.jpg","1","k","1.17957450001268",1,4,0,2,0
"250055","img/neutralC/CFD-BM-013-002-N.jpg","0","s","1.24777899996843",1,4,0,2,0
"250055","img/neutralC/CFD-BM-001-014-N.jpg","0","k","1.30081199994311",1,4,0,2,0
"250055","img/neutralC/CFD-WF-235-121-N.jpg","1","k","2.51265480002621",1,4,0,2,0
"250055","img/neutralC/CFD-BF-002-001-N.jpg","1","k","2.47696990001714",1,4,0,2,0
"250055","img/neutralC/CFD-IM-638-250-1-N.jpg","0","k","1.87168149999343",1,5,0,2,0
"250055","img/neutralC/CFD-IM-606-008-N.jpg","0","k","1.65621960000135",1,5,0,2,0
"250055","img/neutralC/CFD-BF-207-004-N.jpg","1","k","1.66127189999679",1,5,0,2,0
"250055","img/neutralC/CFD-WF-221-005-N.jpg","0","s","5.46789529995294",1,5,0,2,0
"250055","img/neutralC/CFD-MF-328-020-N.jpg","0","s","1.67497960000765",1,5,0,2,0
"250055","img/neutralC/CFD-IM-684-008-N.jpg","1","k","1.34934740001336",1,5,0,2,0
"250055","img/neutralC/CFD-AM-220-134-N.jpg","1","s","1.22089230001438",1,5,0,2,0
"250055","img/neutralC/CFD-LM-244-068-N.jpg","1","s","2.31235169997672",1,5,0,2,0
"250055","img/neutralC/CFD-WM-225-127-N.jpg","1","s","2.01471830002265",1,5,0,2,0
"250055","img/neutralC/CFD-BF-041-001-N.jpg","1","s","1.37008739996236",1,5,0,2,0
"250055","img/neutralC/CFD-LF-242-121-N.jpg","1","s","1.14943739998853",1,5,0,2,0
"250055","img/neutralC/CFD-WF-002-004-N.jpg","0","k","2.91377829998964",1,5,0,2,0
"250055","img/neutralC/CFD-AF-254-167-N.jpg","1","k","1.79346439999063",1,5,0,2,0
"250055","img/neutralC/CFD-AF-205-155-N.jpg","1","s","1.67905100004282",1,5,0,2,0
"250055","img/neutralC/CFD-MF-336-016-N.jpg","1","k","2.07970960001694",1,5,0,2,0
"250055","img/neutralC/CFD-WF-245-084-N.jpg","0","s","1.43495199998142",1,5,0,2,0
"250055","img/neutralC/CFD-WF-005-010-N.jpg","0","s","1.2771620999556",1,5,0,2,0
"250055","img/neutralC/CFD-LF-203-066-N.jpg","1","k","1.35875319998013",1,5,0,2,0
"250055","img/neutralC/CFD-WF-207-014-N.jpg","1","s","2.96884520002641",1,5,0,2,0
"250055","img/neutralC/CFD-BM-010-003-N.jpg","1","s","1.85611140000401",1,5,0,2,0
"250055","img/neutralC/CFD-IF-642-295-N.jpg","1","s","1.4090237999917",1,5,0,2,0
"250055","img/neutralC/CFD-BF-237-172-N.jpg","1","s","4.33549339999445",1,5,0,2,0
"250055","img/neutralC/CFD-WF-224-099-N.jpg","0","k","2.78164589998778",1,5,0,2,0
"250055","img/neutralC/CFD-MF-340-026-N.jpg","1","s","5.02830909995828",1,5,0,2,0
"250055","img/neutralC/CFD-AM-221-184-N.jpg","0","s","2.05678069998976",1,5,0,2,0
"250055","img/neutralC/CFD-WF-243-148-N.jpg","1","k","1.58974739996484",1,5,0,2,0
"250055","img/neutralC/CFD-WF-029-002-N.jpg","1","s","1.42649770004209",1,5,0,2,0
"250055","img/neutralC/CFD-IF-625-225-N.jpg","1","s","1.86326459998963",1,5,0,2,0
"250055","img/neutralC/CFD-BF-202-109-N.jpg","1","k","2.93138110003201",1,5,0,2,0
"250055","img/neutralC/CFD-BM-027-001-N.jpg","1","s","2.69734740001149",1,5,0,2,0
"250055","img/neutralC/CFD-AF-240-206-N.jpg","1","k","1.08516469999449",1,5,0,2,0
"250055","img/neutralC/CFD-IM-743-006-N.jpg","1","k","1.54715499997837",1,5,0,2,0
"250055","img/neutralC/CFD-BF-217-189-N.jpg","1","s","1.37951130000874",1,5,0,2,0
"250055","img/neutralC/CFD-AM-236-090-N.jpg","1","s","1.2513106999686",1,5,0,2,0
"250055","img/neutralC/CFD-WM-249-239-N.jpg","0","s","1.29225629998837",1,5,0,2,0
"250055","img/neutralC/CFD-AF-233-190-N.jpg","1","k","6.02349420002429",1,5,0,2,0
"250055","img/neutralC/CFD-BF-236-177-N.jpg","0","k","1.86731050000526",1,5,0,2,0
"250055","img/neutralC/CFD-BF-201-080-N.jpg","1","k","1.15710630000103",1,5,0,2,0
"250055","img/neutralC/CFD-LM-252-076-N.jpg","1","k","1.95298639999237",1,5,0,2,0
"250055","img/neutralC/CFD-WM-221-091-N.jpg","1","k","2.75212600000668",1,5,0,2,0
"250055","img/neutralC/CFD-LF-211-003-N.jpg","0","s","1.70912479999242",1,5,0,2,0
"250055","img/neutralC/CFD-IM-635-010-N.jpg","0","s","3.83293910004431",1,5,0,2,0
"250055","img/neutralC/CFD-WF-228-196-N.jpg","0","s","1.67381619999651",1,5,0,2,0
"250055","img/neutralC/CFD-LF-239-148-N.jpg","1","s","1.02442540001357",1,5,0,2,0
"250055","img/neutralC/CFD-WM-021-001-N.jpg","1","k","3.01464439998381",1,5,0,2,0
"250055","img/neutralC/CFD-BF-014-002-N.jpg","0","k","0.963579799979925",1,5,0,2,0
"250055","img/neutralC/CFD-BM-029-024-N.jpg","0","k","1.84320519998437",1,5,0,2,0
"250055","img/neutralC/CFD-WF-027-003-N.jpg","0","k","1.35066059994278",1,5,0,2,0
"250055","img/neutralC/CFD-LM-253-075-N.jpg","1","k","1.39778020000085",1,6,0,2,0
"250055","img/neutralC/CFD-IM-615-167-N.jpg","0","k","1.14274599996861",1,6,0,2,0
"250055","img/neutralC/CFD-LM-215-247-N.jpg","0","s","1.09667759999866",1,6,0,2,0
"250055","img/neutralC/CFD-BF-254-201-N.jpg","0","k","4.70853559998795",1,6,0,2,0
"250055","img/neutralC/CFD-LM-233-171-N.jpg","0","s","1.35632550000446",1,6,0,2,0
"250055","img/neutralC/CFD-MF-302-027-N.jpg","0","s","1.66597520001233",1,6,0,2,0
"250055","img/neutralC/CFD-LF-247-051-N.jpg","0","s","3.19620809995104",1,6,0,2,0
"250055","img/neutralC/CFD-IM-646-023-N.jpg","0","k","1.97657839994645",1,6,0,2,0
"250055","img/neutralC/CFD-MF-337-026-N.jpg","0","k","1.09810089995153",1,6,0,2,0
"250055","img/neutralC/CFD-IM-604-014-N.jpg","1","k","2.09621440002229",1,6,0,2,0
"250055","img/neutralC/CFD-LF-238-154-N.jpg","0","s","3.62520820001373",1,6,0,2,0
"250055","img/neutralC/CFD-LM-214-165-N.jpg","0","s","3.24374500004342",1,6,0,2,0
"250055","img/neutralC/CFD-WF-018-017-N.jpg","1","k","2.49315239995485",1,6,0,2,0
"250055","img/neutralC/CFD-WM-237-052-N.jpg","0","k","2.26940300001297",1,6,0,2,0
"250055","img/neutralC/CFD-BF-214-308-N.jpg","1","s","1.28560549998656",1,6,0,2,0
"250055","img/neutralC/CFD-BM-021-021-N.jpg","0","k","1.01071740000043",1,6,0,2,0
"250055","img/neutralC/CFD-BM-215-155-N.jpg","1","k","1.86307669995585",1,6,0,2,0
"250055","img/neutralC/CFD-AM-244-222-N.jpg","0","s","1.26211030001286",1,6,0,2,0
"250055","img/neutralC/CFD-AF-202-122-N.jpg","0","s","1.17137930000899",1,6,0,2,0
"250055","img/neutralC/CFD-IF-620-218-N.jpg","1","s","1.28198719996726",1,6,0,2,0
"250055","img/neutralC/CFD-LF-210-220-N.jpg","1","s","3.39434630004689",1,6,0,2,0
"250055","img/neutralC/CFD-BF-042-026-N.jpg","1","s","1.04425000003539",1,6,0,2,0
"250055","img/neutralC/CFD-LF-230-203-N.jpg","0","s","1.04829030000838",1,6,0,2,0
"250055","img/neutralC/CFD-BF-222-240-N.jpg","0","s","1.42287920002127",1,6,0,2,0
"250055","img/neutralC/CFD-BF-253-202-N.jpg","1","k","1.89735640003346",1,6,0,2,0
"250055","img/neutralC/CFD-WF-223-133-N.jpg","0","k","2.43230510002468",1,6,0,2,0
"250055","img/neutralC/CFD-IF-676-017-N.jpg","0","k","1.94298260001233",1,6,0,2,0
"250055","img/neutralC/CFD-LF-250-169-N.jpg","1","k","1.5505215000012",1,6,0,2,0
"250055","img/neutralC/CFD-WF-222-092-N.jpg","1","k","0.962106399994809",1,6,0,2,0
"250055","img/neutralC/CFD-IM-697-015-N.jpg","0","s","1.48223660001531",1,6,0,2,0
"250055","img/neutralC/CFD-AF-206-079-N.jpg","1","k","0.957114499993622",1,6,0,2,0
"250055","img/neutralC/CFD-IM-616-214-N.jpg","0","k","1.18417650001356",1,6,0,2,0
"250055","img/neutralC/CFD-IF-608-390-N.jpg","0","k","1.07049780001398",1,6,0,2,0
"250055","img/neutralC/CFD-LF-218-072-N.jpg","0","k","1.19028959999559",1,6,0,2,0
"250055","img/neutralC/CFD-BM-019-002-N.jpg","0","k","1.12906599999405",1,6,0,2,0
"250055","img/neutralC/CFD-WF-241-210-N.jpg","0","s","1.4628319000476",1,6,0,2,0
"250055","img/neutralC/CFD-IM-637-007-N.jpg","0","k","1.4251007999992",1,6,0,2,0
"250055","img/neutralC/CFD-WM-041-021-N.jpg","1","k","0.873398500028998",1,6,0,2,0
"250055","img/neutralC/CFD-WM-002-009-N.jpg","1","s","0.73236550000729",1,6,0,2,0
"250055","img/neutralC/CFD-LF-236-221-N.jpg","0","k","0.653562200022861",1,6,0,2,0
"250055","img/neutralC/CFD-BM-241-235-N.jpg","0","s","1.12601390003692",1,6,0,2,0
"250055","img/neutralC/CFD-BF-006-017-N.jpg","1","k","1.08358320000116",1,6,0,2,0
"250055","img/neutralC/CFD-IM-719-221-N.jpg","0","k","1.20680760004325",1,6,0,2,0
"250055","img/neutralC/CFD-BM-225-154-N.jpg","0","s","1.7759209999931",1,6,0,2,0
"250055","img/neutralC/CFD-BM-243-218-N.jpg","0","k","1.03877799998736",1,6,0,2,0
"250055","img/neutralC/CFD-IF-629-234-N.jpg","0","k","1.17469030001666",1,6,0,2,0
"250055","img/neutralC/CFD-IM-702-101-N.jpg","1","k","1.05176399997436",1,6,0,2,0
"250055","img/neutralC/CFD-MF-343-001-N.jpg","1","k","1.13177660002839",1,6,0,2,0
"250055","img/neutralC/CFD-MF-357-002-N.jpg","0","s","0.95938729995396",1,7,0,2,0
"250055","img/neutralC/CFD-IM-653-008-N.jpg","1","k","0.792296900006477",1,7,0,2,0
"250055","img/neutralC/CFD-AM-249-163-N.jpg","1","k","1.13088580005569",1,7,0,2,0
"250055","img/neutralC/CFD-IM-648-337-N.jpg","1","k","0.82213030004641",1,7,0,2,0
"250055","img/neutralC/CFD-AM-205-153-N.jpg","1","k","1.13991190004162",1,7,0,2,0
"250055","img/neutralC/CFD-WM-232-070-N.jpg","0","s","1.25947400002042",1,7,0,2,0
"250055","img/neutralC/CFD-BM-204-003-N.jpg","0","s","1.02679259999422",1,7,0,2,0
"250055","img/neutralC/CFD-WF-012-002-N.jpg","0","s","1.13123379996978",1,7,0,2,0
"250055","img/neutralC/CFD-BF-224-002-N.jpg","0","s","1.17661599995336",1,7,0,2,0
"250055","img/neutralC/CFD-BM-033-003-N.jpg","0","s","1.71843780000927",1,7,0,2,0
"250055","img/neutralC/CFD-BF-029-031-N.jpg","1","s","1.06256810005289",1,7,0,2,0
"250055","img/neutralC/CFD-IM-706-002-N.jpg","0","s","1.35647500003688",1,7,0,2,0
"250055","img/neutralC/CFD-BM-200-046-N.jpg","1","k","1.48956670000916",1,7,0,2,0
"250055","img/neutralC/CFD-WM-257-161-N.jpg","0","s","1.14735049998853",1,7,0,2,0
"250055","img/neutralC/CFD-AM-243-212-N.jpg","1","k","1.03879830002552",1,7,0,2,0
"250055","img/neutralC/CFD-MF-316-001-N.jpg","1","s","1.59806470002513",1,7,0,2,0
"250055","img/neutralC/CFD-IF-742-103-N.jpg","0","s","1.31781779997982",1,7,0,2,0
"250055","img/neutralC/CFD-MF-327-002-N.jpg","0","s","1.14417009998579",1,7,0,2,0
"250055","img/neutralC/CFD-LF-226-174-N.jpg","1","s","1.85697359999176",1,7,0,2,0
"250055","img/neutralC/CFD-IM-721-341-N.jpg","1","s","1.31813390000025",1,7,0,2,0
"250055","img/neutralC/CFD-WF-210-086-N.jpg","1","s","1.10997459996725",1,7,0,2,0
"250055","img/neutralC/CFD-LF-220-120-N.jpg","0","s","1.34057519998169",1,7,0,2,0
"250055","img/neutralC/CFD-AF-210-050-N.jpg","0","s","1.16917690000264",1,7,0,2,0
"250055","img/neutralC/CFD-LF-205-100-N.jpg","1","s","1.31344679999165",1,7,0,2,0
"250055","img/neutralC/CFD-BM-212-117-N.jpg","0","s","1.50646140001481",1,7,0,2,0
"250055","img/neutralC/CFD-WM-040-022-N.jpg","1","s","2.72566330002155",1,7,0,2,0
"250055","img/neutralC/CFD-LM-225-130-N.jpg","1","k","0.85305520001566",1,7,0,2,0
"250055","img/neutralC/CFD-MF-329-001-N.jpg","1","s","0.81481079995865",1,7,0,2,0
"250055","img/neutralC/CFD-WM-025-002-N.jpg","0","k","1.25062409997918",1,7,0,2,0
"250055","img/neutralC/CFD-MF-303-013-N.jpg","0","s","0.917418400000315",1,7,0,2,0
"250055","img/neutralC/CFD-IM-709-103-N.jpg","1","s","1.4721687999554",1,7,0,2,0
"250055","img/neutralC/CFD-AM-201-076-N.jpg","1","s","1.32224159996258",1,7,0,2,0
"250055","img/neutralC/CFD-MF-312-002-N.jpg","0","k","0.892988100007642",1,7,0,2,0
"250055","img/neutralC/CFD-BF-206-143-N.jpg","0","s","0.661853900004644",1,7,0,2,0
"250055","img/neutralC/CFD-BF-213-188-N.jpg","1","k","1.01957070000935",1,7,0,2,0
"250055","img/neutralC/CFD-AF-241-141-N.jpg","0","s","0.836451700015459",1,7,0,2,0
"250055","img/neutralC/CFD-WF-248-129-N.jpg","0","s","1.07027540000854",1,7,0,2,0
"250055","img/neutralC/CFD-IM-685-004-N.jpg","1","k","1.07493040000554",1,7,0,2,0
"250055","img/neutralC/CFD-WM-026-001-N.jpg","1","s","0.743592499988154",1,7,0,2,0
"250055","img/neutralC/CFD-BM-211-174-N.jpg","1","k","0.788060499995481",1,7,0,2,0
"250055","img/neutralC/CFD-IF-650-315-N.jpg","0","s","0.590504500025418",1,7,0,2,0
"250055","img/neutralC/CFD-IF-732-260-N.jpg","0","k","0.606354699993972",1,7,0,2,0
"250055","img/neutralC/CFD-MF-342-022-N.jpg","0","s","1.08132329996442",1,7,0,2,0
"250055","img/neutralC/CFD-IF-729-393-N.jpg","1","k","0.851655400008895",1,7,0,2,0
"250055","img/neutralC/CFD-WF-214-122-N.jpg","0","s","1.07245529995998",1,7,0,2,0
"250055","img/neutralC/CFD-BM-248-128-N.jpg","0","s","1.09115150000434",1,7,0,2,0
"250055","img/neutralC/CFD-IM-727-195-N.jpg","1","s","0.765991299995221",1,7,0,2,0
"250055","img/neutralC/CFD-WF-009-001-N.jpg","0","s","0.84130070003448",1,7,0,2,0
"250055","img/neutralC/CFD-LF-215-157-N.jpg","0","k","1.17007619998185",1,8,0,2,0
"250055","img/neutralC/CFD-MF-359-019-N.jpg","0","k","1.14773159998003",1,8,0,2,0
"250055","img/neutralC/CFD-BM-231-155-N.jpg","1","s","1.06802809995133",1,8,0,2,0
"250055","img/neutralC/CFD-WM-201-063-N.jpg","1","s","1.38481149997097",1,8,0,2,0
"250055","img/neutralC/CFD-WF-017-003-N.jpg","0","k","0.959243100020103",1,8,0,2,0
"250055","img/neutralC/CFD-IM-686-097-N.jpg","0","s","1.30608949996531",1,8,0,2,0
"250055","img/neutralC/CFD-BM-028-002-N.jpg","1","k","1.04505309998058",1,8,0,2,0
"250055","img/neutralC/CFD-BF-228-212-N.jpg","0","k","1.55773040000349",1,8,0,2,0
"250055","img/neutralC/CFD-AM-217-085-N.jpg","0","s","1.0334206999978",1,8,0,2,0
"250055","img/neutralC/CFD-LF-216-121-N.jpg","0","s","0.994892399990931",1,8,0,2,0
"250055","img/neutralC/CFD-IM-678-482-N.jpg","0","k","1.1454698999878",1,8,0,2,0
"250055","img/neutralC/CFD-BF-229-179-N.jpg","0","k","1.19711639999878",1,8,0,2,0
"250055","img/neutralC/CFD-WM-218-074-N.jpg","0","k","0.939991899998859",1,8,0,2,0
"250055","img/neutralC/CFD-WM-011-002-N.jpg","0","s","1.32641689997399",1,8,0,2,0
"250055","img/neutralC/CFD-WM-235-147-N.jpg","0","s","0.857957399974111",1,8,0,2,0
"250055","img/neutralC/CFD-MF-333-012-N.jpg","0","k","0.87173289997736",1,8,0,2,0
"250055","img/neutralC/CFD-IF-626-375-N.jpg","1","s","0.728598100016825",1,8,0,2,0
"250055","img/neutralC/CFD-WF-212-050-N.jpg","0","s","0.982596399961039",1,8,0,2,0
"250055","img/neutralC/CFD-IF-636-011-N.jpg","0","s","0.972586399991997",1,8,0,2,0
"250055","img/neutralC/CFD-BM-043-071-N.jpg","0","s","1.22579080000287",1,8,0,2,0
"250055","img/neutralC/CFD-BM-205-001-N.jpg","0","k","1.03804329998093",1,8,0,2,0
"250055","img/neutralC/CFD-BF-235-168-N.jpg","1","k","1.23341919999802",1,8,0,2,0
"250055","img/neutralC/CFD-MM-324-069-N.jpg","0","k","1.68202589999419",1,8,0,2,0
"250055","img/neutralC/CFD-AF-231-357-N.jpg","1","s","1.26458580000326",1,8,0,2,0
"250055","img/neutralC/CFD-IM-728-041-N.jpg","1","k","1.01572770002531",1,8,0,2,0
"250055","img/neutralC/CFD-LM-201-057-N.jpg","0","k","1.18350359995384",1,8,0,2,0
"250055","img/neutralC/CFD-BF-204-189-N.jpg","0","s","1.23343580000801",1,8,0,2,0
"250055","img/neutralC/CFD-MF-352-054-N.jpg","0","s","1.15818179998314",1,8,0,2,0
"250055","img/neutralC/CFD-BM-041-035-N.jpg","1","k","1.17973540001549",1,8,0,2,0
"250055","img/neutralC/CFD-IF-623-129-N.jpg","0","s","1.1687646000064",1,8,0,2,0
"250055","img/neutralC/CFD-MM-317-061-N.jpg","0","k","1.48535909998463",1,8,0,2,0
"250055","img/neutralC/CFD-LF-201-035-N.jpg","1","s","1.25088559999131",1,8,0,2,0
"250055","img/neutralC/CFD-IM-726-248-N.jpg","1","s","1.80218890000833",1,8,0,2,0
"250055","img/neutralC/CFD-AF-234-208-N.jpg","1","k","1.14923129999079",1,8,0,2,0
"250055","img/neutralC/CFD-WF-022-017-N.jpg","0","s","1.60785919998307",1,8,0,2,0
"250055","img/neutralC/CFD-BF-011-002-N.jpg","0","k","1.64716259995475",1,8,0,2,0
"250055","img/neutralC/CFD-BF-023-010-N.jpg","1","s","1.91184820001945",1,8,0,2,0
"250055","img/neutralC/CFD-LM-228-188-N.jpg","0","k","1.5008181000012",1,8,0,2,0
"250055","img/neutralC/CFD-LM-240-013-N.jpg","0","k","1.03750179999042",1,8,0,2,0
"250055","img/neutralC/CFD-BF-247-179-N.jpg","1","s","1.06423099996755",1,8,0,2,0
"250055","img/neutralC/CFD-BF-040-003-N.jpg","1","k","1.05365959997289",1,8,0,2,0
"250055","img/neutralC/CFD-IM-645-001-N.jpg","1","s","1.07012550003128",1,8,0,2,0
"250055","img/neutralC/CFD-AM-215-120-N.jpg","1","s","0.851586700009648",1,8,0,2,0
"250055","img/neutralC/CFD-IF-619-197-N.jpg","1","k","0.835819399973843",1,8,0,2,0
"250055","img/neutralC/CFD-BF-036-027-N.jpg","0","k","1.41483290004544",1,8,0,2,0
"250055","img/neutralC/CFD-BF-244-231-N.jpg","0","k","1.07318060001126",1,8,0,2,0
"250055","img/neutralC/CFD-WM-013-001-N.jpg","0","s","1.37205020000692",1,8,0,2,0
"250055","img/neutralC/CFD-WF-217-085-N.jpg","0","k","1.08789639995666",1,8,0,2,0
