"participant_id","face","surpAcc","memory_surp_responses","memory_surp_rt","keep_surp_memory_trial_based_on_rt","surp_block_num","exclude_block","number_of_surp_resp_items_used","num_blocks_excluded"
"250068","img/neutralC/CFD-WF-244-163-N.jpg","0","s","4.06195420003496",1,1,0,2,0
"250068","img/neutralC/CFD-IF-660-464-N.jpg","1","s","1.35192249994725",1,1,0,2,0
"250068","img/neutralC/CFD-BM-009-002-N.jpg","1","s","1.57994249998592",1,1,0,2,0
"250068","img/neutralC/CFD-WF-234-086-N.jpg","1","s","2.07701930007897",1,1,0,2,0
"250068","img/neutralC/CFD-BF-012-001-N.jpg","0","k","2.063023700146",1,1,0,2,0
"250068","img/neutralC/CFD-WM-012-001-N.jpg","1","s","2.63665940007195",1,1,0,2,0
"250068","img/neutralC/CFD-WM-033-025-N.jpg","0","k","1.7431457999628",1,1,0,2,0
"250068","img/neutralC/CFD-MM-304-002-N.jpg","1","k","1.59714179998264",1,1,0,2,0
"250068","img/neutralC/CFD-WF-213-031-N.jpg","0","k","1.29170390008949",1,1,0,2,0
"250068","img/neutralC/CFD-IM-632-097-N.jpg","1","k","1.27156389993615",1,1,0,2,0
"250068","img/neutralC/CFD-MF-300-002-N.jpg","1","s","2.0416245998349",1,1,0,2,0
"250068","img/neutralC/CFD-IF-744-114-N.jpg","0","k","1.4086700999178",1,1,0,2,0
"250068","img/neutralC/CFD-MF-307-002-N.jpg","1","k","0.904798799892888",1,1,0,2,0
"250068","img/neutralC/CFD-BM-253-004-N.jpg","1","s","0.741551199927926",1,1,0,2,0
"250068","img/neutralC/CFD-BM-227-191-N.jpg","1","s","1.86519769998267",1,1,0,2,0
"250068","img/neutralC/CFD-LF-225-164-N.jpg","1","s","1.43627860001288",1,1,0,2,0
"250068","img/neutralC/CFD-BM-020-001-N.jpg","0","s","1.8207540998701",1,1,0,2,0
"250068","img/neutralC/CFD-AM-219-101-N.jpg","1","s","1.99439569981769",1,1,0,2,0
"250068","img/neutralC/CFD-WF-250-167-N.jpg","1","s","1.03122949996032",1,1,0,2,0
"250068","img/neutralC/CFD-WM-028-003-N.jpg","1","k","3.10071579995565",1,1,0,2,0
"250068","img/neutralC/CFD-WM-023-001-N.jpg","0","k","2.15828140010126",1,1,0,2,0
"250068","img/neutralC/CFD-WM-034-030-N.jpg","0","k","2.16255640005693",1,1,0,2,0
"250068","img/neutralC/CFD-LM-247-095-N.jpg","0","k","0.931213199859485",1,1,0,2,0
"250068","img/neutralC/CFD-WF-001-003-N.jpg","1","k","1.55301499995403",1,1,0,2,0
"250068","img/neutralC/CFD-IM-671-601-N.jpg","1","k","1.14612709986977",1,1,0,2,0
"250068","img/neutralC/CFD-IM-707-105-N.jpg","0","s","2.99462189991027",1,1,0,2,0
"250068","img/neutralC/CFD-IM-700-009-N.jpg","1","s","1.19507350004278",1,1,0,2,0
"250068","img/neutralC/CFD-WF-030-002-N.jpg","1","k","1.2356610998977",1,1,0,2,0
"250068","img/neutralC/CFD-WM-212-097-N.jpg","1","s","1.50554100004956",1,1,0,2,0
"250068","img/neutralC/CFD-BM-213-134-N.jpg","0","s","1.69092480000108",1,1,0,2,0
"250068","img/neutralC/CFD-LF-245-166-N.jpg","0","s","1.26466310000978",1,1,0,2,0
"250068","img/neutralC/CFD-AM-233-236-N.jpg","1","k","1.46157869999297",1,1,0,2,0
"250068","img/neutralC/CFD-IM-617-174-N.jpg","1","s","0.672636599978432",1,1,0,2,0
"250068","img/neutralC/CFD-BM-238-242-N.jpg","0","k","1.23755589989014",1,1,0,2,0
"250068","img/neutralC/CFD-WF-233-112-N.jpg","1","s","0.935671499930322",1,1,0,2,0
"250068","img/neutralC/CFD-WM-020-001-N.jpg","1","s","1.12933999998495",1,1,0,2,0
"250068","img/neutralC/CFD-LF-204-133-N.jpg","0","k","1.26058460003696",1,1,0,2,0
"250068","img/neutralC/CFD-BF-205-141-N.jpg","0","k","1.36652459995821",1,1,0,2,0
"250068","img/neutralC/CFD-AF-253-130-N.jpg","1","k","1.25443980004638",1,1,0,2,0
"250068","img/neutralC/CFD-WM-004-010-N.jpg","1","k","2.54606790002435",1,1,0,2,0
"250068","img/neutralC/CFD-BM-004-002-N.jpg","0","s","1.43082350003533",1,1,0,2,0
"250068","img/neutralC/CFD-WM-215-041-N.jpg","0","s","2.89556060009636",1,1,0,2,0
"250068","img/neutralC/CFD-MF-305-014-N.jpg","1","s","2.53876999998465",1,1,0,2,0
"250068","img/neutralC/CFD-BM-239-136-N.jpg","0","k","1.33195230015554",1,1,0,2,0
"250068","img/neutralC/CFD-IM-674-281-N.jpg","1","k","0.988327999832109",1,1,0,2,0
"250068","img/neutralC/CFD-WM-227-099-N.jpg","0","s","1.37615279993042",1,1,0,2,0
"250068","img/neutralC/CFD-IM-657-308-N.jpg","1","k","0.995103599969298",1,1,0,2,0
"250068","img/neutralC/CFD-AF-246-242-N.jpg","0","k","1.0060560000129",1,1,0,2,0
"250068","img/neutralC/CFD-WF-023-003-N.jpg","1","k","1.07325930008665",1,2,0,2,0
"250068","img/neutralC/CFD-WM-228-065-N.jpg","0","k","2.51471840008162",1,2,0,2,0
"250068","img/neutralC/CFD-IM-689-263-N.jpg","1","s","1.53735690005124",1,2,0,2,0
"250068","img/neutralC/CFD-LM-241-125-N.jpg","0","k","1.32539499993436",1,2,0,2,0
"250068","img/neutralC/CFD-BM-217-082-N.jpg","1","k","1.42261369992048",1,2,0,2,0
"250068","img/neutralC/CFD-WM-019-003-N.jpg","1","s","1.33124349988066",1,2,0,2,0
"250068","img/neutralC/CFD-BM-023-029-N.jpg","1","s","1.62519780010916",1,2,0,2,0
"250068","img/neutralC/CFD-BM-026-002-N.jpg","0","s","1.98870839993469",1,2,0,2,0
"250068","img/neutralC/CFD-AM-211-052-N.jpg","1","k","1.22748550004326",1,2,0,2,0
"250068","img/neutralC/CFD-AF-250-200-N.jpg","1","s","1.41014269995503",1,2,0,2,0
"250068","img/neutralC/CFD-IM-669-111-N.jpg","1","s","2.19088010000996",1,2,0,2,0
"250068","img/neutralC/CFD-MM-319-052-N.jpg","1","k","5.62758040009066",1,2,0,2,0
"250068","img/neutralC/CFD-IM-664-651-N.jpg","0","s","3.57303419988602",1,2,0,2,0
"250068","img/neutralC/CFD-WM-017-002-N.jpg","1","k","1.01173390005715",1,2,0,2,0
"250068","img/neutralC/CFD-BF-043-003-N.jpg","0","k","2.04640800016932",1,2,0,2,0
"250068","img/neutralC/CFD-BF-044-034-N.jpg","1","k","2.81084319995716",1,2,0,2,0
"250068","img/neutralC/CFD-IM-651-308-N.jpg","1","s","0.872675699880347",1,2,0,2,0
"250068","img/neutralC/CFD-IM-627-178-N.jpg","1","k","2.10156890004873",1,2,0,2,0
"250068","img/neutralC/CFD-BF-051-035-N.jpg","0","k","2.79734930000268",1,2,0,2,0
"250068","img/neutralC/CFD-BM-207-024-N.jpg","0","k","1.1104085999541",1,2,0,2,0
"250068","img/neutralC/CFD-IM-667-369-N.jpg","1","k","1.08762879995629",1,2,0,2,0
"250068","img/neutralC/CFD-BM-003-003-N.jpg","1","s","1.25611519999802",1,2,0,2,0
"250068","img/neutralC/CFD-WM-248-036-N.jpg","0","s","2.80815299996175",1,2,0,2,0
"250068","img/neutralC/CFD-IF-672-305-N.jpg","0","s","2.25514960009605",1,2,0,2,0
"250068","img/neutralC/CFD-BM-015-015-N.jpg","0","s","1.2983252000995",1,2,0,2,0
"250068","img/neutralC/CFD-LF-224-176-N.jpg","1","s","2.72966159996577",1,2,0,2,0
"250068","img/neutralC/CFD-IF-634-382-N.jpg","0","s","1.51806379994377",1,2,0,2,0
"250068","img/neutralC/CFD-BM-030-003-N.jpg","1","s","1.15153910010122",1,2,0,2,0
"250068","img/neutralC/CFD-WF-208-068-N.jpg","0","s","1.37793330010027",1,2,0,2,0
"250068","img/neutralC/CFD-WM-015-002-N.jpg","0","s","1.1961988999974",1,2,0,2,0
"250068","img/neutralC/CFD-AF-239-171-N.jpg","1","k","2.36062750010751",1,2,0,2,0
"250068","img/neutralC/CFD-IF-718-001-N.jpg","1","s","1.40460020001046",1,2,0,2,0
"250068","img/neutralC/CFD-MM-306-010-N.jpg","0","s","1.71981809986755",1,2,0,2,0
"250068","img/neutralC/CFD-WF-200-099-N.jpg","1","s","1.58808759995736",1,2,0,2,0
"250068","img/neutralC/CFD-IF-693-172-N.jpg","1","k","1.13049909984693",1,2,0,2,0
"250068","img/neutralC/CFD-BF-218-207-N.jpg","0","k","1.37205659993924",1,2,0,2,0
"250068","img/neutralC/CFD-IF-710-016-N.jpg","1","s","1.82577900006436",1,2,0,2,0
"250068","img/neutralC/CFD-WF-033-002-N.jpg","0","k","3.44503060006536",1,2,0,2,0
"250068","img/neutralC/CFD-WM-242-011-N.jpg","1","k","2.8300075000152",1,2,0,2,0
"250068","img/neutralC/CFD-BM-036-003-N.jpg","1","s","1.79137190012261",1,2,0,2,0
"250068","img/neutralC/CFD-LM-213-061-N.jpg","0","k","1.19431190006435",1,2,0,2,0
"250068","img/neutralC/CFD-MF-321-003-N.jpg","0","k","1.20332580013201",1,2,0,2,0
"250068","img/neutralC/CFD-WF-240-083-N.jpg","0","s","0.836442699888721",1,2,0,2,0
"250068","img/neutralC/CFD-WM-219-008-N.jpg","1","s","1.87586779985577",1,2,0,2,0
"250068","img/neutralC/CFD-WM-009-002-N.jpg","1","s","1.69320209999569",1,2,0,2,0
"250068","img/neutralC/CFD-MF-313-002-N.jpg","0","k","2.17154960008338",1,2,0,2,0
"250068","img/neutralC/CFD-IF-665-015-N.jpg","1","k","1.1436371000018",1,2,0,2,0
"250068","img/neutralC/CFD-LM-237-264-N.jpg","0","k","0.885391600197181",1,2,0,2,0
"250068","img/neutralC/CFD-LM-216-082-N.jpg","0","k","1.070805599913",1,3,0,2,0
"250068","img/neutralC/CFD-MM-321-021-N.jpg","1","k","1.65980060002767",1,3,0,2,0
"250068","img/neutralC/CFD-BF-038-037-N.jpg","1","s","1.15804910007864",1,3,0,2,0
"250068","img/neutralC/CFD-LM-217-162-N.jpg","0","s","2.840340499999",1,3,0,2,0
"250068","img/neutralC/CFD-AF-227-207-N.jpg","1","k","1.43590379995294",1,3,0,2,0
"250068","img/neutralC/CFD-AF-232-078-N.jpg","1","s","1.81301100016572",1,3,0,2,0
"250068","img/neutralC/CFD-AM-212-050-N.jpg","0","k","0.911835599923506",1,3,0,2,0
"250068","img/neutralC/CFD-IM-639-263-N.jpg","1","k","0.835230899974704",1,3,0,2,0
"250068","img/neutralC/CFD-WM-254-152-N.jpg","1","k","1.18476139986888",1,3,0,2,0
"250068","img/neutralC/CFD-IF-677-452-1-N.jpg","0","s","1.81228949991055",1,3,0,2,0
"250068","img/neutralC/CFD-AM-225-102-N.jpg","1","k","1.72412939998321",1,3,0,2,0
"250068","img/neutralC/CFD-LF-241-188-N.jpg","1","k","1.24013759987429",1,3,0,2,0
"250068","img/neutralC/CFD-IM-680-369-N.jpg","1","k","2.0560806998983",1,3,0,2,0
"250068","img/neutralC/CFD-WF-008-002-N.jpg","0","k","1.06513720005751",1,3,0,2,0
"250068","img/neutralC/CFD-BF-027-002-N.jpg","1","s","1.24068000004627",1,3,0,2,0
"250068","img/neutralC/CFD-WM-255-219-N.jpg","0","k","2.55231619998813",1,3,0,2,0
"250068","img/neutralC/CFD-BF-033-028-N.jpg","0","k","1.88518229988404",1,3,0,2,0
"250068","img/neutralC/CFD-BF-025-002-N.jpg","1","s","1.25785190006718",1,3,0,2,0
"250068","img/neutralC/CFD-BF-045-003-N.jpg","1","k","1.03529769997112",1,3,0,2,0
"250068","img/neutralC/CFD-LM-204-001-N.jpg","1","k","3.09469639998861",1,3,0,2,0
"250068","img/neutralC/CFD-BM-039-029-N.jpg","0","s","2.35361470002681",1,3,0,2,0
"250068","img/neutralC/CFD-WM-258-125-N.jpg","0","k","1.19261510018259",1,3,0,2,0
"250068","img/neutralC/CFD-BM-005-003-N.jpg","0","s","1.73412990011275",1,3,0,2,0
"250068","img/neutralC/CFD-WM-038-003-N.jpg","1","k","1.72525620018132",1,3,0,2,0
"250068","img/neutralC/CFD-IM-701-312-N.jpg","1","k","1.43743160017766",1,3,0,2,0
"250068","img/neutralC/CFD-AF-213-126-N.jpg","1","s","2.04274989990517",1,3,0,2,0
"250068","img/neutralC/CFD-AF-244-168-N.jpg","0","k","1.5786113999784",1,3,0,2,0
"250068","img/neutralC/CFD-WF-036-023-N.jpg","0","k","2.14988959999755",1,3,0,2,0
"250068","img/neutralC/CFD-BM-251-013-N.jpg","0","k","0.981133100111038",1,3,0,2,0
"250068","img/neutralC/CFD-LF-206-078-N.jpg","1","k","1.04484430002049",1,3,0,2,0
"250068","img/neutralC/CFD-WM-209-038-N.jpg","0","k","1.63573509990238",1,3,0,2,0
"250068","img/neutralC/CFD-IF-673-389-N.jpg","0","k","0.94372810004279",1,3,0,2,0
"250068","img/neutralC/CFD-WM-014-002-N.jpg","0","k","1.07359220017679",1,3,0,2,0
"250068","img/neutralC/CFD-BF-004-014-N.jpg","1","k","1.51504569989629",1,3,0,2,0
"250068","img/neutralC/CFD-LF-255-088-N.jpg","0","k","2.46215839986689",1,3,0,2,0
"250068","img/neutralC/CFD-BF-255-140-N.jpg","0","k","0.9479056999553",1,3,0,2,0
"250068","img/neutralC/CFD-BF-018-039-N.jpg","1","s","1.28980550006963",1,3,0,2,0
"250068","img/neutralC/CFD-MM-316-156-N.jpg","1","k","1.79206930007786",1,3,0,2,0
"250068","img/neutralC/CFD-AM-242-176-N.jpg","0","k","1.46698249992914",1,3,0,2,0
"250068","img/neutralC/CFD-WM-213-076-N.jpg","1","s","1.03290749993175",1,3,0,2,0
"250068","img/neutralC/CFD-WF-026-002-N.jpg","0","s","2.46457199985161",1,3,0,2,0
"250068","img/neutralC/CFD-BF-003-003-N.jpg","0","s","1.24596560001373",1,3,0,2,0
"250068","img/neutralC/CFD-IM-738-191-N.jpg","1","k","1.90961190010421",1,3,0,2,0
"250068","img/neutralC/CFD-IM-659-359-N.jpg","0","k","2.13992139999755",1,3,0,2,0
"250068","img/neutralC/CFD-BF-238-190-N.jpg","0","s","1.00855240016244",1,3,0,2,0
"250068","img/neutralC/CFD-WM-202-107-N.jpg","1","k","1.03473640000448",1,3,0,2,0
"250068","img/neutralC/CFD-AM-251-124-N.jpg","1","k","1.39852349995635",1,3,0,2,0
"250068","img/neutralC/CFD-BF-208-266-N.jpg","1","s","0.683386899996549",1,3,0,2,0
"250068","img/neutralC/CFD-WF-238-023-N.jpg","1","k","1.10332729993388",1,4,0,2,0
"250068","img/neutralC/CFD-WM-018-002-N.jpg","1","s","1.70213740016334",1,4,0,2,0
"250068","img/neutralC/CFD-LF-212-066-N.jpg","0","k","0.957287499913946",1,4,0,2,0
"250068","img/neutralC/CFD-WM-024-015-N.jpg","1","s","1.30375600000843",1,4,0,2,0
"250068","img/neutralC/CFD-AF-215-70-N.jpg","0","s","0.645028499886394",1,4,0,2,0
"250068","img/neutralC/CFD-LF-208-127-N.jpg","0","s","0.779460099991411",1,4,0,2,0
"250068","img/neutralC/CFD-BM-247-240-N.jpg","1","s","1.01586350006983",1,4,0,2,0
"250068","img/neutralC/CFD-AF-237-223-N.jpg","1","s","0.837374299997464",1,4,0,2,0
"250068","img/neutralC/CFD-BF-010-001-N.jpg","0","s","0.538816699991003",1,4,0,2,0
"250068","img/neutralC/CFD-BF-226-119-N.jpg","0","k","0.911088100168854",1,4,0,2,0
"250068","img/neutralC/CFD-MF-318-022-N.jpg","0","k","1.19160560006276",1,4,0,2,0
"250068","img/neutralC/CFD-BF-039-031-N.jpg","0","k","1.0736119998619",1,4,0,2,0
"250068","img/neutralC/CFD-AF-221-147-N.jpg","1","s","1.58799899998121",1,4,0,2,0
"250068","img/neutralC/CFD-WF-226-095-N.jpg","1","s","2.27908660005778",1,4,0,2,0
"250068","img/neutralC/CFD-IM-696-001-N.jpg","1","s","0.749901400180534",1,4,0,2,0
"250068","img/neutralC/CFD-WF-209-052-N.jpg","1","s","1.22269460000098",1,4,0,2,0
"250068","img/neutralC/CFD-LM-226-175-N.jpg","0","s","1.08784389984794",1,4,0,2,0
"250068","img/neutralC/CFD-LF-222-147-N.jpg","1","s","1.44551819982007",1,4,0,2,0
"250068","img/neutralC/CFD-BM-250-170-N.jpg","0","s","1.51398429996334",1,4,0,2,0
"250068","img/neutralC/CFD-MF-301-024-N.jpg","1","s","1.440432399977",1,4,0,2,0
"250068","img/neutralC/CFD-LM-218-183-N.jpg","1","k","2.09597299993038",1,4,0,2,0
"250068","img/neutralC/CFD-LM-238-129-N.jpg","1","k","2.35667070001364",1,4,0,2,0
"250068","img/neutralC/CFD-MF-309-002-N.jpg","1","k","1.06532960012555",1,4,0,2,0
"250068","img/neutralC/CFD-WF-007-001-N.jpg","0","k","1.19375280011445",1,4,0,2,0
"250068","img/neutralC/CFD-BF-232-187-N.jpg","0","k","1.40649150009267",1,4,0,2,0
"250068","img/neutralC/CFD-BF-002-001-N.jpg","1","k","1.37157379998825",1,4,0,2,0
"250068","img/neutralC/CFD-BF-020-002-N.jpg","1","k","4.71238879999146",1,4,0,2,0
"250068","img/neutralC/CFD-LM-200-045-N.jpg","1","k","1.37957210000604",1,4,0,2,0
"250068","img/neutralC/CFD-WF-006-002-N.jpg","0","s","0.664544800063595",1,4,0,2,0
"250068","img/neutralC/CFD-AM-245-111-N.jpg","0","s","1.63340110005811",1,4,0,2,0
"250068","img/neutralC/CFD-MF-335-002-N.jpg","1","s","1.59481999999844",1,4,0,2,0
"250068","img/neutralC/CFD-BF-028-001-N.jpg","0","k","1.3602024000138",1,4,0,2,0
"250068","img/neutralC/CFD-BM-013-002-N.jpg","0","s","1.16582629992627",1,4,0,2,0
"250068","img/neutralC/CFD-AM-247-165-N.jpg","1","k","1.91385459993035",1,4,0,2,0
"250068","img/neutralC/CFD-BM-018-001-N.jpg","1","k","0.926872600102797",1,4,0,2,0
"250068","img/neutralC/CFD-AF-229-160-N.jpg","0","k","1.1838702999521",1,4,0,2,0
"250068","img/neutralC/CFD-AM-230-150-N.jpg","0","s","3.16205360018648",1,4,0,2,0
"250068","img/neutralC/CFD-LF-214-090-N.jpg","1","k","1.5138900000602",1,4,0,2,0
"250068","img/neutralC/CFD-AM-235-241-N.jpg","0","k","2.27305580000393",1,4,0,2,0
"250068","img/neutralC/CFD-LM-243-075-N.jpg","0","s","2.8375486000441",1,4,0,2,0
"250068","img/neutralC/CFD-WM-006-002-N.jpg","0","k","2.50140630011447",1,4,0,2,0
"250068","img/neutralC/CFD-BF-212-315-N.jpg","0","s","2.18158580013551",1,4,0,2,0
"250068","img/neutralC/CFD-BM-001-014-N.jpg","1","k","1.7553806998767",1,4,0,2,0
"250068","img/neutralC/CFD-WF-235-121-N.jpg","0","s","2.26871730014682",1,4,0,2,0
"250068","img/neutralC/CFD-WM-253-119-N.jpg","0","s","1.81559969997033",1,4,0,2,0
"250068","img/neutralC/CFD-IM-675-015-N.jpg","1","s","0.972529500024393",1,4,0,2,0
"250068","img/neutralC/CFD-IM-703-182-N.jpg","1","s","1.65660369978286",1,4,0,2,0
"250068","img/neutralC/CFD-LM-219-295-N.jpg","0","k","1.90774550009519",1,4,0,2,0
"250068","img/neutralC/CFD-WF-027-003-N.jpg","1","k","0.893553399946541",1,5,0,2,0
"250068","img/neutralC/CFD-WF-228-196-N.jpg","0","k","1.03144749999046",1,5,0,2,0
"250068","img/neutralC/CFD-AM-221-184-N.jpg","1","s","0.795574000105262",1,5,0,2,0
"250068","img/neutralC/CFD-WF-243-148-N.jpg","0","s","1.10753019992262",1,5,0,2,0
"250068","img/neutralC/CFD-WF-207-014-N.jpg","0","k","0.918966700090095",1,5,0,2,0
"250068","img/neutralC/CFD-WF-224-099-N.jpg","0","s","1.16600789991207",1,5,0,2,0
"250068","img/neutralC/CFD-AM-220-134-N.jpg","1","k","1.58793870010413",1,5,0,2,0
"250068","img/neutralC/CFD-WM-021-001-N.jpg","0","k","1.73351900000125",1,5,0,2,0
"250068","img/neutralC/CFD-LF-211-003-N.jpg","1","s","1.61172240017913",1,5,0,2,0
"250068","img/neutralC/CFD-LF-203-066-N.jpg","1","k","2.52538660005666",1,5,0,2,0
"250068","img/neutralC/CFD-IM-635-010-N.jpg","1","k","1.68003279995173",1,5,0,2,0
"250068","img/neutralC/CFD-BF-041-001-N.jpg","1","s","1.65959830000065",1,5,0,2,0
"250068","img/neutralC/CFD-WM-225-127-N.jpg","1","s","1.47664110013284",1,5,0,2,0
"250068","img/neutralC/CFD-MF-336-016-N.jpg","0","s","1.51975330011919",1,5,0,2,0
"250068","img/neutralC/CFD-BF-207-004-N.jpg","1","k","1.46893880004063",1,5,0,2,0
"250068","img/neutralC/CFD-WM-249-239-N.jpg","0","s","3.12371139996685",1,5,0,2,0
"250068","img/neutralC/CFD-AM-236-090-N.jpg","1","s","1.13590190000832",1,5,0,2,0
"250068","img/neutralC/CFD-AF-254-167-N.jpg","1","s","1.63550770003349",1,5,0,2,0
"250068","img/neutralC/CFD-LM-252-076-N.jpg","0","s","2.07431069994345",1,5,0,2,0
"250068","img/neutralC/CFD-AF-240-206-N.jpg","1","s","1.50856889993884",1,5,0,2,0
"250068","img/neutralC/CFD-BF-236-177-N.jpg","1","k","1.91121210018173",1,5,0,2,0
"250068","img/neutralC/CFD-BF-237-172-N.jpg","0","k","0.995878700166941",1,5,0,2,0
"250068","img/neutralC/CFD-MF-328-020-N.jpg","1","k","1.58705169986933",1,5,0,2,0
"250068","img/neutralC/CFD-BF-202-109-N.jpg","1","k","1.15096770017408",1,5,0,2,0
"250068","img/neutralC/CFD-LF-239-148-N.jpg","0","k","1.07809199998155",1,5,0,2,0
"250068","img/neutralC/CFD-BM-010-003-N.jpg","0","s","1.24833370000124",1,5,0,2,0
"250068","img/neutralC/CFD-BF-201-080-N.jpg","1","s","0.84777110000141",1,5,0,2,0
"250068","img/neutralC/CFD-IM-743-006-N.jpg","1","k","1.09170949994586",1,5,0,2,0
"250068","img/neutralC/CFD-WF-029-002-N.jpg","0","k","0.886657899944112",1,5,0,2,0
"250068","img/neutralC/CFD-WF-245-084-N.jpg","1","k","0.883563100127503",1,5,0,2,0
"250068","img/neutralC/CFD-WM-221-091-N.jpg","1","k","0.739318100037053",1,5,0,2,0
"250068","img/neutralC/CFD-IM-638-250-1-N.jpg","1","k","0.789693500148132",1,5,0,2,0
"250068","img/neutralC/CFD-WF-005-010-N.jpg","0","s","1.59801079984754",1,5,0,2,0
"250068","img/neutralC/CFD-BF-217-189-N.jpg","1","s","0.451973699964583",1,5,0,2,0
"250068","img/neutralC/CFD-AF-205-155-N.jpg","1","s","0.865980400005355",1,5,0,2,0
"250068","img/neutralC/CFD-AF-233-190-N.jpg","1","s","4.28786669997498",1,5,0,2,0
"250068","img/neutralC/CFD-BM-029-024-N.jpg","1","s","1.80340309999883",1,5,0,2,0
"250068","img/neutralC/CFD-IM-606-008-N.jpg","1","s","1.06123609980568",1,5,0,2,0
"250068","img/neutralC/CFD-LM-244-068-N.jpg","0","s","0.481930400012061",1,5,0,2,0
"250068","img/neutralC/CFD-IF-642-295-N.jpg","1","s","2.8786011999473",1,5,0,2,0
"250068","img/neutralC/CFD-LF-242-121-N.jpg","1","s","1.1839837001171",1,5,0,2,0
"250068","img/neutralC/CFD-IF-625-225-N.jpg","1","s","0.908465899992734",1,5,0,2,0
"250068","img/neutralC/CFD-MF-340-026-N.jpg","0","k","1.13792709982954",1,5,0,2,0
"250068","img/neutralC/CFD-IM-684-008-N.jpg","1","k","1.00466690002941",1,5,0,2,0
"250068","img/neutralC/CFD-BF-014-002-N.jpg","1","k","2.11909410008229",1,5,0,2,0
"250068","img/neutralC/CFD-WF-221-005-N.jpg","1","s","1.52057670010254",1,5,0,2,0
"250068","img/neutralC/CFD-WF-002-004-N.jpg","0","k","2.09701479994692",1,5,0,2,0
"250068","img/neutralC/CFD-BM-027-001-N.jpg","0","s","1.60845820000395",1,5,0,2,0
"250068","img/neutralC/CFD-WF-018-017-N.jpg","1","s","0.940766799962148",1,6,0,2,0
"250068","img/neutralC/CFD-BF-253-202-N.jpg","0","s","1.02125550014898",1,6,0,2,0
"250068","img/neutralC/CFD-MF-343-001-N.jpg","0","s","1.74909900012426",1,6,0,2,0
"250068","img/neutralC/CFD-BM-243-218-N.jpg","1","s","0.75806160015054",1,6,0,2,0
"250068","img/neutralC/CFD-BM-225-154-N.jpg","0","s","1.30508510000072",1,6,0,2,0
"250068","img/neutralC/CFD-IF-676-017-N.jpg","0","s","1.98581159999594",1,6,0,2,0
"250068","img/neutralC/CFD-BM-215-155-N.jpg","1","k","0.988810499897227",1,6,0,2,0
"250068","img/neutralC/CFD-IF-629-234-N.jpg","1","s","2.23605960002169",1,6,0,2,0
"250068","img/neutralC/CFD-LF-236-221-N.jpg","1","s","1.43063449999318",1,6,0,2,0
"250068","img/neutralC/CFD-BF-006-017-N.jpg","1","s","1.12984660011716",1,6,0,2,0
"250068","img/neutralC/CFD-LF-238-154-N.jpg","1","k","1.72766059986316",1,6,0,2,0
"250068","img/neutralC/CFD-LF-210-220-N.jpg","0","s","3.2377140999306",1,6,0,2,0
"250068","img/neutralC/CFD-AF-202-122-N.jpg","0","s","1.17546269996092",1,6,0,2,0
"250068","img/neutralC/CFD-LF-230-203-N.jpg","1","s","0.774250600021333",1,6,0,2,0
"250068","img/neutralC/CFD-WM-041-021-N.jpg","0","s","1.04599780007266",1,6,0,2,0
"250068","img/neutralC/CFD-WF-222-092-N.jpg","1","s","1.42917130002752",1,6,0,2,0
"250068","img/neutralC/CFD-MF-337-026-N.jpg","1","s","1.38670590007678",1,6,0,2,0
"250068","img/neutralC/CFD-BF-222-240-N.jpg","1","k","1.28461380000226",1,6,0,2,0
"250068","img/neutralC/CFD-AF-206-079-N.jpg","0","s","1.68078830000013",1,6,0,2,0
"250068","img/neutralC/CFD-IF-608-390-N.jpg","1","s","2.19766330020502",1,6,0,2,0
"250068","img/neutralC/CFD-LF-250-169-N.jpg","0","s","1.04811550001614",1,6,0,2,0
"250068","img/neutralC/CFD-IM-637-007-N.jpg","0","s","1.05675019999035",1,6,0,2,0
"250068","img/neutralC/CFD-BM-019-002-N.jpg","0","k","1.38662680005655",1,6,0,2,0
"250068","img/neutralC/CFD-IM-719-221-N.jpg","1","s","0.839788499986753",1,6,0,2,0
"250068","img/neutralC/CFD-LM-214-165-N.jpg","1","s","2.06617540004663",1,6,0,2,0
"250068","img/neutralC/CFD-IM-702-101-N.jpg","1","k","0.873611100018024",1,6,0,2,0
"250068","img/neutralC/CFD-IM-616-214-N.jpg","1","s","1.05177489994094",1,6,0,2,0
"250068","img/neutralC/CFD-IM-697-015-N.jpg","1","k","1.29030480002984",1,6,0,2,0
"250068","img/neutralC/CFD-BM-021-021-N.jpg","1","s","1.19780620001256",1,6,0,2,0
"250068","img/neutralC/CFD-IM-646-023-N.jpg","1","s","3.90284060011618",1,6,0,2,0
"250068","img/neutralC/CFD-LM-253-075-N.jpg","0","k","2.30004339991137",1,6,0,2,0
"250068","img/neutralC/CFD-IM-604-014-N.jpg","1","k","0.968779799994081",1,6,0,2,0
"250068","img/neutralC/CFD-WF-223-133-N.jpg","1","k","1.06556740007363",1,6,0,2,0
"250068","img/neutralC/CFD-WF-241-210-N.jpg","1","k","1.61255709989928",1,6,0,2,0
"250068","img/neutralC/CFD-BF-254-201-N.jpg","0","s","2.28994210017845",1,6,0,2,0
"250068","img/neutralC/CFD-BF-042-026-N.jpg","1","k","1.12402959982865",1,6,0,2,0
"250068","img/neutralC/CFD-IF-620-218-N.jpg","0","k","3.81825529993512",1,6,0,2,0
"250068","img/neutralC/CFD-LM-233-171-N.jpg","0","k","2.00568699999712",1,6,0,2,0
"250068","img/neutralC/CFD-LF-218-072-N.jpg","1","s","1.15810320014134",1,6,0,2,0
"250068","img/neutralC/CFD-MF-302-027-N.jpg","1","k","3.34815929993056",1,6,0,2,0
"250068","img/neutralC/CFD-LM-215-247-N.jpg","1","s","1.50082179997116",1,6,0,2,0
"250068","img/neutralC/CFD-BM-241-235-N.jpg","1","k","2.16786459996365",1,6,0,2,0
"250068","img/neutralC/CFD-IM-615-167-N.jpg","1","k","1.42857480002567",1,6,0,2,0
"250068","img/neutralC/CFD-AM-244-222-N.jpg","1","s","1.63408139999956",1,6,0,2,0
"250068","img/neutralC/CFD-WM-002-009-N.jpg","1","k","1.31732079992071",1,6,0,2,0
"250068","img/neutralC/CFD-LF-247-051-N.jpg","0","s","4.30991160008125",1,6,0,2,0
"250068","img/neutralC/CFD-WM-237-052-N.jpg","1","k","3.99450189992785",1,6,0,2,0
"250068","img/neutralC/CFD-BF-214-308-N.jpg","1","s","0.998577099991962",1,6,0,2,0
"250068","img/neutralC/CFD-BF-224-002-N.jpg","1","s","1.78942420007661",1,7,0,2,0
"250068","img/neutralC/CFD-AF-210-050-N.jpg","0","s","1.32716319989413",1,7,0,2,0
"250068","img/neutralC/CFD-AM-205-153-N.jpg","0","s","1.25779899978079",1,7,0,2,0
"250068","img/neutralC/CFD-IM-685-004-N.jpg","1","s","0.970482700038701",1,7,0,2,0
"250068","img/neutralC/CFD-MF-303-013-N.jpg","0","s","0.698310800129548",1,7,0,2,0
"250068","img/neutralC/CFD-AM-249-163-N.jpg","1","k","0.841182400006801",1,7,0,2,0
"250068","img/neutralC/CFD-LM-225-130-N.jpg","0","k","1.06043970002793",1,7,0,2,0
"250068","img/neutralC/CFD-BF-206-143-N.jpg","1","k","1.7357329998631",1,7,0,2,0
"250068","img/neutralC/CFD-AM-243-212-N.jpg","1","s","1.01889019994996",1,7,0,2,0
"250068","img/neutralC/CFD-WM-025-002-N.jpg","0","s","2.63475349987857",1,7,0,2,0
"250068","img/neutralC/CFD-AF-241-141-N.jpg","1","k","0.989266100106761",1,7,0,2,0
"250068","img/neutralC/CFD-AM-201-076-N.jpg","1","s","0.946429000003263",1,7,0,2,0
"250068","img/neutralC/CFD-IM-706-002-N.jpg","1","s","1.24292790004984",1,7,0,2,0
"250068","img/neutralC/CFD-IF-742-103-N.jpg","0","s","1.20501459995285",1,7,0,2,0
"250068","img/neutralC/CFD-BM-200-046-N.jpg","1","k","1.62969810003415",1,7,0,2,0
"250068","img/neutralC/CFD-MF-329-001-N.jpg","1","s","1.04194590006955",1,7,0,2,0
"250068","img/neutralC/CFD-WF-214-122-N.jpg","1","k","1.94877999997698",1,7,0,2,0
"250068","img/neutralC/CFD-MF-327-002-N.jpg","0","s","1.92207169998437",1,7,0,2,0
"250068","img/neutralC/CFD-WF-009-001-N.jpg","0","k","1.24292870005593",1,7,0,2,0
"250068","img/neutralC/CFD-IF-729-393-N.jpg","1","s","1.50702659995295",1,7,0,2,0
"250068","img/neutralC/CFD-MF-357-002-N.jpg","0","s","1.49948380002752",1,7,0,2,0
"250068","img/neutralC/CFD-BM-248-128-N.jpg","1","k","1.12205999996513",1,7,0,2,0
"250068","img/neutralC/CFD-WF-012-002-N.jpg","1","k","1.1504805998411",1,7,0,2,0
"250068","img/neutralC/CFD-BM-212-117-N.jpg","0","s","0.990406200056896",1,7,0,2,0
"250068","img/neutralC/CFD-WF-210-086-N.jpg","0","s","1.37714709993452",1,7,0,2,0
"250068","img/neutralC/CFD-BM-033-003-N.jpg","1","k","1.67091450002044",1,7,0,2,0
"250068","img/neutralC/CFD-WM-257-161-N.jpg","0","s","1.31675080000423",1,7,0,2,0
"250068","img/neutralC/CFD-WM-040-022-N.jpg","1","k","0.900748000014573",1,7,0,2,0
"250068","img/neutralC/CFD-WM-232-070-N.jpg","1","s","1.95435130014084",1,7,0,2,0
"250068","img/neutralC/CFD-IM-721-341-N.jpg","1","k","1.12988329981454",1,7,0,2,0
"250068","img/neutralC/CFD-MF-312-002-N.jpg","0","s","0.990309400018305",1,7,0,2,0
"250068","img/neutralC/CFD-IM-648-337-N.jpg","1","s","1.4175791000016",1,7,0,2,0
"250068","img/neutralC/CFD-IF-732-260-N.jpg","1","s","1.31241510016844",1,7,0,2,0
"250068","img/neutralC/CFD-MF-316-001-N.jpg","1","k","1.57600150001235",1,7,0,2,0
"250068","img/neutralC/CFD-BM-204-003-N.jpg","1","k","1.28153329994529",1,7,0,2,0
"250068","img/neutralC/CFD-LF-220-120-N.jpg","0","k","1.5725857000798",1,7,0,2,0
"250068","img/neutralC/CFD-LF-205-100-N.jpg","1","k","1.34386830008589",1,7,0,2,0
"250068","img/neutralC/CFD-IM-727-195-N.jpg","0","s","1.80977039993741",1,7,0,2,0
"250068","img/neutralC/CFD-IF-650-315-N.jpg","0","s","2.86442669993266",1,7,0,2,0
"250068","img/neutralC/CFD-BM-211-174-N.jpg","0","s","0.72628890001215",1,7,0,2,0
"250068","img/neutralC/CFD-IM-653-008-N.jpg","1","s","0.950476099969819",1,7,0,2,0
"250068","img/neutralC/CFD-MF-342-022-N.jpg","1","k","0.75698439986445",1,7,0,2,0
"250068","img/neutralC/CFD-WM-026-001-N.jpg","0","s","2.92039650003426",1,7,0,2,0
"250068","img/neutralC/CFD-WF-248-129-N.jpg","1","k","0.913523299852386",1,7,0,2,0
"250068","img/neutralC/CFD-LF-226-174-N.jpg","0","s","1.41784930019639",1,7,0,2,0
"250068","img/neutralC/CFD-BF-029-031-N.jpg","1","s","1.53156149992719",1,7,0,2,0
"250068","img/neutralC/CFD-BF-213-188-N.jpg","1","k","1.3443909001071",1,7,0,2,0
"250068","img/neutralC/CFD-IM-709-103-N.jpg","0","s","1.80547130014747",1,7,0,2,0
"250068","img/neutralC/CFD-BM-043-071-N.jpg","1","s","1.32060769991949",1,8,0,2,0
"250068","img/neutralC/CFD-BF-228-212-N.jpg","0","s","1.2016840998549",1,8,0,2,0
"250068","img/neutralC/CFD-IM-686-097-N.jpg","0","k","0.924523300025612",1,8,0,2,0
"250068","img/neutralC/CFD-IM-645-001-N.jpg","1","s","0.790953800082207",1,8,0,2,0
"250068","img/neutralC/CFD-IM-728-041-N.jpg","1","s","1.68475510017015",1,8,0,2,0
"250068","img/neutralC/CFD-AM-217-085-N.jpg","0","k","1.81049960013479",1,8,0,2,0
"250068","img/neutralC/CFD-LM-201-057-N.jpg","1","s","1.02433849987574",1,8,0,2,0
"250068","img/neutralC/CFD-BF-036-027-N.jpg","1","s","1.28740829997696",1,8,0,2,0
"250068","img/neutralC/CFD-LF-215-157-N.jpg","0","k","2.31724040000699",1,8,0,2,0
"250068","img/neutralC/CFD-WM-235-147-N.jpg","0","k","0.91156949987635",1,8,0,2,0
"250068","img/neutralC/CFD-BM-041-035-N.jpg","1","k","2.25352869997732",1,8,0,2,0
"250068","img/neutralC/CFD-IF-619-197-N.jpg","1","s","2.37274770019576",1,8,0,2,0
"250068","img/neutralC/CFD-BF-040-003-N.jpg","0","k","0.91652650013566",1,8,0,2,0
"250068","img/neutralC/CFD-AF-231-357-N.jpg","0","k","2.01555879996158",1,8,0,2,0
"250068","img/neutralC/CFD-LM-240-013-N.jpg","0","s","1.06943020015024",1,8,0,2,0
"250068","img/neutralC/CFD-BM-231-155-N.jpg","0","k","0.883176499977708",1,8,0,2,0
"250068","img/neutralC/CFD-IF-626-375-N.jpg","1","s","1.83820730005391",1,8,0,2,0
"250068","img/neutralC/CFD-WM-201-063-N.jpg","0","s","2.77365129999816",1,8,0,2,0
"250068","img/neutralC/CFD-IM-726-248-N.jpg","0","s","1.63035350013524",1,8,0,2,0
"250068","img/neutralC/CFD-BF-244-231-N.jpg","1","s","6.70149890007451",1,8,0,2,0
"250068","img/neutralC/CFD-BF-247-179-N.jpg","0","s","1.69013709994033",1,8,0,2,0
"250068","img/neutralC/CFD-BF-011-002-N.jpg","0","k","1.38926269998774",1,8,0,2,0
"250068","img/neutralC/CFD-IF-623-129-N.jpg","1","k","1.46021359995939",1,8,0,2,0
"250068","img/neutralC/CFD-MF-352-054-N.jpg","0","s","1.66378059983253",1,8,0,2,0
"250068","img/neutralC/CFD-BM-028-002-N.jpg","0","k","1.23496140004136",1,8,0,2,0
"250068","img/neutralC/CFD-WF-212-050-N.jpg","1","s","1.89061879995279",1,8,0,2,0
"250068","img/neutralC/CFD-MM-317-061-N.jpg","1","s","1.67806260008365",1,8,0,2,0
"250068","img/neutralC/CFD-WF-017-003-N.jpg","1","k","1.61730689997785",1,8,0,2,0
"250068","img/neutralC/CFD-MM-324-069-N.jpg","1","s","1.74878010014072",1,8,0,2,0
"250068","img/neutralC/CFD-WF-022-017-N.jpg","1","s","1.86093009985052",1,8,0,2,0
"250068","img/neutralC/CFD-LF-201-035-N.jpg","1","k","1.1981488999445",1,8,0,2,0
"250068","img/neutralC/CFD-IF-636-011-N.jpg","0","s","1.12677290011197",1,8,0,2,0
"250068","img/neutralC/CFD-AF-234-208-N.jpg","0","s","0.634823399828747",1,8,0,2,0
"250068","img/neutralC/CFD-BF-229-179-N.jpg","1","s","1.97689880011603",1,8,0,2,0
"250068","img/neutralC/CFD-WM-218-074-N.jpg","1","k","3.15565870003775",1,8,0,2,0
"250068","img/neutralC/CFD-LM-228-188-N.jpg","1","k","1.53407519985922",1,8,0,2,0
"250068","img/neutralC/CFD-LF-216-121-N.jpg","0","s","1.69677180005237",1,8,0,2,0
"250068","img/neutralC/CFD-WF-217-085-N.jpg","0","s","2.00791470007971",1,8,0,2,0
"250068","img/neutralC/CFD-MF-333-012-N.jpg","0","k","1.17730550002307",1,8,0,2,0
"250068","img/neutralC/CFD-BF-235-168-N.jpg","0","s","1.04448170005344",1,8,0,2,0
"250068","img/neutralC/CFD-BF-023-010-N.jpg","0","k","2.22444199980237",1,8,0,2,0
"250068","img/neutralC/CFD-WM-011-002-N.jpg","1","s","0.950125199975446",1,8,0,2,0
"250068","img/neutralC/CFD-IM-678-482-N.jpg","1","k","0.848040000069886",1,8,0,2,0
"250068","img/neutralC/CFD-AM-215-120-N.jpg","1","s","1.28238980006427",1,8,0,2,0
"250068","img/neutralC/CFD-MF-359-019-N.jpg","0","s","1.01563029992394",1,8,0,2,0
"250068","img/neutralC/CFD-BM-205-001-N.jpg","1","k","1.19921229989268",1,8,0,2,0
"250068","img/neutralC/CFD-WM-013-001-N.jpg","1","s","1.52745039993897",1,8,0,2,0
"250068","img/neutralC/CFD-BF-204-189-N.jpg","0","k","2.52426710003056",1,8,0,2,0
