"participant_id","current_trial_face","pre_trial_face","post_trial_face","current_trial_accuracy","pre_trial_accuracy","post_trial_accuracy","current_trial_congruency","pre_trial_congruency","post_trial_congruency","current_trial_rt","pre_trial_rt","post_trial_rt","current_trial_responded","pre_trial_responded","post_trial_responded","current_trial_legitResponse","pre_trial_legitResponse","post_trial_legitResponse","current_trial_resp_nums","pre_trial_resp_nums","post_trial_resp_nums"
"250035","img/neutralC/CFD-WF-209-052-N.jpg",NA,"img/neutralC/CFD-WM-258-125-N.jpg","1",NA,"0","1",NA,"0","0.420531199895777",NA,"0.408615800086409","1",NA,"1","1",NA,"1","1",NA,"2"
"250035","img/neutralC/CFD-WM-258-125-N.jpg","img/neutralC/CFD-WF-209-052-N.jpg","img/neutralC/CFD-IF-665-015-N.jpg","0","1","1","0","1","0","0.408615800086409","0.420531199895777","0.604529900010675","1","1","1","1","1","1","2","1","1"
"250035","img/neutralC/CFD-IF-665-015-N.jpg","img/neutralC/CFD-WM-258-125-N.jpg","img/neutralC/CFD-WM-017-002-N.jpg","1","0","1","0","0","0","0.604529900010675","0.408615800086409","0.535307000041939","1","1","1","1","1","1","1","2","1"
"250035","img/neutralC/CFD-WM-017-002-N.jpg","img/neutralC/CFD-IF-665-015-N.jpg","img/neutralC/CFD-IM-686-097-N.jpg","1","1","1","0","0","0","0.535307000041939","0.604529900010675","0.633920400054194","1","1","1","1","1","1","1","1","1"
"250035","img/neutralC/CFD-IM-686-097-N.jpg","img/neutralC/CFD-WM-017-002-N.jpg","img/neutralC/CFD-IM-617-174-N.jpg","1","1","1","0","0","0","0.633920400054194","0.535307000041939","0.441688599996269","1","1","1","1","1","1","1","1","1"
"250035","img/neutralC/CFD-IM-617-174-N.jpg","img/neutralC/CFD-IM-686-097-N.jpg","img/neutralC/CFD-LM-219-295-N.jpg","1","1","1","0","0","1","0.441688599996269","0.633920400054194","0.343703099992126","1","1","1","1","1","1","1","1","1"
"250035","img/neutralC/CFD-LM-219-295-N.jpg","img/neutralC/CFD-IM-617-174-N.jpg","img/neutralC/CFD-BF-010-001-N.jpg","1","1","1","1","0","1","0.343703099992126","0.441688599996269","0.347776399925351","1","1","1","1","1","1","1","1","1"
"250035","img/neutralC/CFD-BF-010-001-N.jpg","img/neutralC/CFD-LM-219-295-N.jpg","img/neutralC/CFD-AF-202-122-N.jpg","1","1","1","1","1","1","0.347776399925351","0.343703099992126","0.457769999979064","1","1","1","1","1","1","1","1","1"
"250035","img/neutralC/CFD-AF-202-122-N.jpg","img/neutralC/CFD-BF-010-001-N.jpg","img/neutralC/CFD-MF-313-002-N.jpg","1","1","0","1","1","0","0.457769999979064","0.347776399925351","0.326822000090033","1","1","1","1","1","1","1","1","1"
"250035","img/neutralC/CFD-MF-313-002-N.jpg","img/neutralC/CFD-AF-202-122-N.jpg","img/neutralC/CFD-LF-247-051-N.jpg","0","1","1","0","1","1","0.326822000090033","0.457769999979064","0.437439799890854","1","1","1","1","1","1","1","1","1"
"250035","img/neutralC/CFD-LF-247-051-N.jpg","img/neutralC/CFD-MF-313-002-N.jpg","img/neutralC/CFD-LF-250-169-N.jpg","1","0","1","1","0","1","0.437439799890854","0.326822000090033","0.492958000046201","1","1","1","1","1","1","1","1","1"
"250035","img/neutralC/CFD-LF-250-169-N.jpg","img/neutralC/CFD-LF-247-051-N.jpg","img/neutralC/CFD-IM-727-195-N.jpg","1","1","1","1","1","1","0.492958000046201","0.437439799890854","0.415526399970986","1","1","1","1","1","1","1","1","1"
"250035","img/neutralC/CFD-IM-727-195-N.jpg","img/neutralC/CFD-LF-250-169-N.jpg","img/neutralC/CFD-IM-638-250-1-N.jpg","1","1","1","1","1","1","0.415526399970986","0.492958000046201","0.568829700001515","1","1","1","1","1","1","1","1","1"
"250035","img/neutralC/CFD-IM-638-250-1-N.jpg","img/neutralC/CFD-IM-727-195-N.jpg","img/neutralC/CFD-IM-657-308-N.jpg","1","1","0","1","1","0","0.568829700001515","0.415526399970986","0.654615800012834","1","1","1","1","1","1","1","1","1"
"250035","img/neutralC/CFD-IM-657-308-N.jpg","img/neutralC/CFD-IM-638-250-1-N.jpg","img/neutralC/CFD-IF-620-218-N.jpg","0","1","1","0","1","0","0.654615800012834","0.568829700001515","0.600451400037855","1","1","1","1","1","1","1","1","1"
"250035","img/neutralC/CFD-IF-620-218-N.jpg","img/neutralC/CFD-IM-657-308-N.jpg","img/neutralC/CFD-AF-241-141-N.jpg","1","0","1","0","0","1","0.600451400037855","0.654615800012834","0.427634700085036","1","1","1","1","1","1","1","1","1"
"250035","img/neutralC/CFD-AF-241-141-N.jpg","img/neutralC/CFD-IF-620-218-N.jpg","img/neutralC/CFD-WM-242-011-N.jpg","1","1","1","1","0","0","0.427634700085036","0.600451400037855","0.596903599915095","1","1","1","1","1","1","1","1","1"
"250035","img/neutralC/CFD-WM-242-011-N.jpg","img/neutralC/CFD-AF-241-141-N.jpg","img/neutralC/CFD-LF-245-166-N.jpg","1","1","1","0","1","1","0.596903599915095","0.427634700085036","0.48510739998892","1","1","1","1","1","1","1","1","1"
"250035","img/neutralC/CFD-LF-245-166-N.jpg","img/neutralC/CFD-WM-242-011-N.jpg","img/neutralC/CFD-LM-226-175-N.jpg","1","1","1","1","0","0","0.48510739998892","0.596903599915095","0.394147000042722","1","1","1","1","1","1","1","1","1"
"250035","img/neutralC/CFD-LM-226-175-N.jpg","img/neutralC/CFD-LF-245-166-N.jpg","img/neutralC/CFD-WM-227-099-N.jpg","1","1","1","0","1","1","0.394147000042722","0.48510739998892","0.478430199902505","1","1","1","1","1","1","1","1","1"
"250035","img/neutralC/CFD-WM-227-099-N.jpg","img/neutralC/CFD-LM-226-175-N.jpg","img/neutralC/CFD-BF-238-190-N.jpg","1","1","1","1","0","1","0.478430199902505","0.394147000042722","0.396072399918921","1","1","1","1","1","1","1","1","1"
"250035","img/neutralC/CFD-BF-238-190-N.jpg","img/neutralC/CFD-WM-227-099-N.jpg","img/neutralC/CFD-LF-242-121-N.jpg","1","1","1","1","1","0","0.396072399918921","0.478430199902505","0.548409800045192","1","1","1","1","1","1","1","1","1"
"250035","img/neutralC/CFD-LF-242-121-N.jpg","img/neutralC/CFD-BF-238-190-N.jpg","img/neutralC/CFD-BM-005-003-N.jpg","1","1","1","0","1","1","0.548409800045192","0.396072399918921","0.390263899927959","1","1","1","1","1","1","1","1","1"
"250035","img/neutralC/CFD-BM-005-003-N.jpg","img/neutralC/CFD-LF-242-121-N.jpg","img/neutralC/CFD-BF-033-028-N.jpg","1","1","1","1","0","0","0.390263899927959","0.548409800045192","0.372656399966218","1","1","1","1","1","1","1","1","1"
"250035","img/neutralC/CFD-BF-033-028-N.jpg","img/neutralC/CFD-BM-005-003-N.jpg","img/neutralC/CFD-AF-206-079-N.jpg","1","1","1","0","1","1","0.372656399966218","0.390263899927959","0.532280100043863","1","1","1","1","1","1","1","1","1"
"250035","img/neutralC/CFD-AF-206-079-N.jpg","img/neutralC/CFD-BF-033-028-N.jpg","img/neutralC/CFD-BM-018-001-N.jpg","1","1","1","1","0","1","0.532280100043863","0.372656399966218","0.421835900051519","1","1","1","1","1","1","1","1","1"
"250035","img/neutralC/CFD-BM-018-001-N.jpg","img/neutralC/CFD-AF-206-079-N.jpg","img/neutralC/CFD-BM-231-155-N.jpg","1","1","1","1","1","1","0.421835900051519","0.532280100043863","0.579477799939923","1","1","1","1","1","1","1","1","1"
"250035","img/neutralC/CFD-BM-231-155-N.jpg","img/neutralC/CFD-BM-018-001-N.jpg","img/neutralC/CFD-LM-233-171-N.jpg","1","1","1","1","1","0","0.579477799939923","0.421835900051519","0.51561080000829","1","1","1","1","1","1","1","1","1"
"250035","img/neutralC/CFD-LM-233-171-N.jpg","img/neutralC/CFD-BM-231-155-N.jpg","img/neutralC/CFD-BM-212-117-N.jpg","1","1","1","0","1","0","0.51561080000829","0.579477799939923","0.503185500041582","1","1","1","1","1","1","1","1","1"
"250035","img/neutralC/CFD-BM-212-117-N.jpg","img/neutralC/CFD-LM-233-171-N.jpg","img/neutralC/CFD-BM-026-002-N.jpg","1","1","1","0","0","0","0.503185500041582","0.51561080000829","0.532064500031993","1","1","1","1","1","1","1","1","1"
"250035","img/neutralC/CFD-BM-026-002-N.jpg","img/neutralC/CFD-BM-212-117-N.jpg","img/neutralC/CFD-IM-653-008-N.jpg","1","1","0","0","0","0","0.532064500031993","0.503185500041582","0.356041099992581","1","1","1","1","1","1","1","1","1"
"250035","img/neutralC/CFD-IM-653-008-N.jpg","img/neutralC/CFD-BM-026-002-N.jpg",NA,"0","1",NA,"0","0",NA,"0.356041099992581","0.532064500031993",NA,"1","1",NA,"1","1",NA,"1","1",NA
"250035","img/neutralC/CFD-WM-209-038-N.jpg",NA,"img/neutralC/CFD-IM-667-369-N.jpg","0",NA,"1","0",NA,"0","0.440850700018927",NA,"0.437716900021769","1",NA,"1","1",NA,"1","1",NA,"1"
"250035","img/neutralC/CFD-IM-667-369-N.jpg","img/neutralC/CFD-WM-209-038-N.jpg","img/neutralC/CFD-WF-030-002-N.jpg","1","0","1","0","0","0","0.437716900021769","0.440850700018927","0.489975000033155","1","1","1","1","1","1","1","1","1"
"250035","img/neutralC/CFD-WF-030-002-N.jpg","img/neutralC/CFD-IM-667-369-N.jpg","img/neutralC/CFD-WF-007-001-N.jpg","1","1","1","0","0","1","0.489975000033155","0.437716900021769","0.36609959998168","1","1","1","1","1","1","1","1","1"
"250035","img/neutralC/CFD-WF-007-001-N.jpg","img/neutralC/CFD-WF-030-002-N.jpg","img/neutralC/CFD-MF-303-013-N.jpg","1","1","1","1","0","0","0.36609959998168","0.489975000033155","0.596761699998751","1","1","1","1","1","1","1","1","1"
"250035","img/neutralC/CFD-MF-303-013-N.jpg","img/neutralC/CFD-WF-007-001-N.jpg","img/neutralC/CFD-IM-664-651-N.jpg","1","1","1","0","1","1","0.596761699998751","0.36609959998168","0.4701285000192","1","1","1","1","1","1","1","1","1"
"250035","img/neutralC/CFD-IM-664-651-N.jpg","img/neutralC/CFD-MF-303-013-N.jpg","img/neutralC/CFD-BM-217-082-N.jpg","1","1","0","1","0","0","0.4701285000192","0.596761699998751","0.489921999978833","1","1","1","1","1","1","1","1","2"
"250035","img/neutralC/CFD-BM-217-082-N.jpg","img/neutralC/CFD-IM-664-651-N.jpg","img/neutralC/CFD-MF-357-002-N.jpg","0","1","1","0","1","0","0.489921999978833","0.4701285000192","0.494325599982403","1","1","1","1","1","1","2","1","1"
"250035","img/neutralC/CFD-MF-357-002-N.jpg","img/neutralC/CFD-BM-217-082-N.jpg","img/neutralC/CFD-BF-237-172-N.jpg","1","0","1","0","0","1","0.494325599982403","0.489921999978833","0.406881500035524","1","1","1","1","1","1","1","2","1"
"250035","img/neutralC/CFD-BF-237-172-N.jpg","img/neutralC/CFD-MF-357-002-N.jpg","img/neutralC/CFD-BM-250-170-N.jpg","1","1","1","1","0","1","0.406881500035524","0.494325599982403","0.425870700040832","1","1","1","1","1","1","1","1","1"
"250035","img/neutralC/CFD-BM-250-170-N.jpg","img/neutralC/CFD-BF-237-172-N.jpg","img/neutralC/CFD-MM-324-069-N.jpg","1","1","1","1","1","1","0.425870700040832","0.406881500035524","0.493229000014253","1","1","1","1","1","1","1","1","1"
"250035","img/neutralC/CFD-MM-324-069-N.jpg","img/neutralC/CFD-BM-250-170-N.jpg","img/neutralC/CFD-MF-316-001-N.jpg","1","1","0","1","1","0","0.493229000014253","0.425870700040832","0.323578900075518","1","1","1","1","1","1","1","1","1"
"250035","img/neutralC/CFD-MF-316-001-N.jpg","img/neutralC/CFD-MM-324-069-N.jpg","img/neutralC/CFD-AM-220-134-N.jpg","0","1","1","0","1","0","0.323578900075518","0.493229000014253","0.599187300074846","1","1","1","1","1","1","1","1","1"
"250035","img/neutralC/CFD-AM-220-134-N.jpg","img/neutralC/CFD-MF-316-001-N.jpg","img/neutralC/CFD-IF-626-375-N.jpg","1","0","1","0","0","0","0.599187300074846","0.323578900075518","0.470478300005198","1","1","1","1","1","1","1","1","1"
"250035","img/neutralC/CFD-IF-626-375-N.jpg","img/neutralC/CFD-AM-220-134-N.jpg","img/neutralC/CFD-AF-233-190-N.jpg","1","1","1","0","0","0","0.470478300005198","0.599187300074846","0.517653999966569","1","1","1","1","1","1","1","1","1"
"250035","img/neutralC/CFD-AF-233-190-N.jpg","img/neutralC/CFD-IF-626-375-N.jpg","img/neutralC/CFD-LF-206-078-N.jpg","1","1","1","0","0","1","0.517653999966569","0.470478300005198","0.471419399953447","1","1","1","1","1","1","1","1","1"
"250035","img/neutralC/CFD-LF-206-078-N.jpg","img/neutralC/CFD-AF-233-190-N.jpg","img/neutralC/CFD-LM-225-130-N.jpg","1","1","1","1","0","0","0.471419399953447","0.517653999966569","0.602812299970537","1","1","1","1","1","1","1","1","1"
"250035","img/neutralC/CFD-LM-225-130-N.jpg","img/neutralC/CFD-LF-206-078-N.jpg","img/neutralC/CFD-WF-222-092-N.jpg","1","1","1","0","1","1","0.602812299970537","0.471419399953447","0.435337299946696","1","1","1","1","1","1","1","1","1"
"250035","img/neutralC/CFD-WF-222-092-N.jpg","img/neutralC/CFD-LM-225-130-N.jpg","img/neutralC/CFD-LM-200-045-N.jpg","1","1","1","1","0","1","0.435337299946696","0.602812299970537","0.398513499996625","1","1","1","1","1","1","1","1","1"
"250035","img/neutralC/CFD-LM-200-045-N.jpg","img/neutralC/CFD-WF-222-092-N.jpg","img/neutralC/CFD-IM-706-002-N.jpg","1","1","1","1","1","0","0.398513499996625","0.435337299946696","0.494932600064203","1","1","1","1","1","1","1","1","1"
"250035","img/neutralC/CFD-IM-706-002-N.jpg","img/neutralC/CFD-LM-200-045-N.jpg","img/neutralC/CFD-IM-702-101-N.jpg","1","1","1","0","1","1","0.494932600064203","0.398513499996625","0.456938200048171","1","1","1","1","1","1","1","1","1"
"250035","img/neutralC/CFD-IM-702-101-N.jpg","img/neutralC/CFD-IM-706-002-N.jpg","img/neutralC/CFD-WM-218-074-N.jpg","1","1","1","1","0","1","0.456938200048171","0.494932600064203","0.457891599973664","1","1","1","1","1","1","1","1","1"
"250035","img/neutralC/CFD-WM-218-074-N.jpg","img/neutralC/CFD-IM-702-101-N.jpg","img/neutralC/CFD-IM-680-369-N.jpg","1","1","1","1","1","1","0.457891599973664","0.456938200048171","0.340446199988946","1","1","1","1","1","1","1","1","1"
"250035","img/neutralC/CFD-IM-680-369-N.jpg","img/neutralC/CFD-WM-218-074-N.jpg","img/neutralC/CFD-WF-244-163-N.jpg","1","1","1","1","1","1","0.340446199988946","0.457891599973664","0.495761200087145","1","1","1","1","1","1","1","1","1"
"250035","img/neutralC/CFD-WF-244-163-N.jpg","img/neutralC/CFD-IM-680-369-N.jpg","img/neutralC/CFD-MF-305-014-N.jpg","1","1","1","1","1","1","0.495761200087145","0.340446199988946","0.3734483999433","1","1","1","1","1","1","1","1","1"
"250035","img/neutralC/CFD-MF-305-014-N.jpg","img/neutralC/CFD-WF-244-163-N.jpg","img/neutralC/CFD-WM-015-002-N.jpg","1","1","1","1","1","0","0.3734483999433","0.495761200087145","0.724922999972478","1","1","1","1","1","1","1","1","1"
"250035","img/neutralC/CFD-WM-015-002-N.jpg","img/neutralC/CFD-MF-305-014-N.jpg","img/neutralC/CFD-LF-255-088-N.jpg","1","1","1","0","1","0","0.724922999972478","0.3734483999433","0.462886900058948","1","1","1","1","1","1","1","1","1"
"250035","img/neutralC/CFD-LF-255-088-N.jpg","img/neutralC/CFD-WM-015-002-N.jpg","img/neutralC/CFD-BF-014-002-N.jpg","1","1","1","0","0","1","0.462886900058948","0.724922999972478","0.435209900024347","1","1","1","1","1","1","1","1","1"
"250035","img/neutralC/CFD-BF-014-002-N.jpg","img/neutralC/CFD-LF-255-088-N.jpg","img/neutralC/CFD-AF-253-130-N.jpg","1","1","1","1","0","1","0.435209900024347","0.462886900058948","0.392914499971084","1","1","1","1","1","1","1","1","1"
"250035","img/neutralC/CFD-AF-253-130-N.jpg","img/neutralC/CFD-BF-014-002-N.jpg","img/neutralC/CFD-BM-001-014-N.jpg","1","1","1","1","1","0","0.392914499971084","0.435209900024347","0.57372799993027","1","1","1","1","1","1","1","1","1"
"250035","img/neutralC/CFD-BM-001-014-N.jpg","img/neutralC/CFD-AF-253-130-N.jpg","img/neutralC/CFD-MF-343-001-N.jpg","1","1","1","0","1","1","0.57372799993027","0.392914499971084","0.44572740001604","1","1","1","1","1","1","1","1","1"
"250035","img/neutralC/CFD-MF-343-001-N.jpg","img/neutralC/CFD-BM-001-014-N.jpg","img/neutralC/CFD-IF-660-464-N.jpg","1","1","0","1","0","0","0.44572740001604","0.57372799993027","0.695958300027996","1","1","1","1","1","1","1","1","1"
"250035","img/neutralC/CFD-IF-660-464-N.jpg","img/neutralC/CFD-MF-343-001-N.jpg",NA,"0","1",NA,"0","1",NA,"0.695958300027996","0.44572740001604",NA,"1","1",NA,"1","1",NA,"1","1",NA
"250035","img/neutralC/CFD-WM-013-001-N.jpg",NA,"img/neutralC/CFD-WF-226-095-N.jpg","1",NA,"1","1",NA,"1","0.465190100017935",NA,"0.475348600069992","1",NA,"1","1",NA,"1","1",NA,"1"
"250035","img/neutralC/CFD-WF-226-095-N.jpg","img/neutralC/CFD-WM-013-001-N.jpg","img/neutralC/CFD-WM-009-002-N.jpg","1","1","0","1","1","0","0.475348600069992","0.465190100017935","0.419721500016749","1","1","1","1","1","1","1","1","1"
"250035","img/neutralC/CFD-WM-009-002-N.jpg","img/neutralC/CFD-WF-226-095-N.jpg","img/neutralC/CFD-WF-023-003-N.jpg","0","1","1","0","1","1","0.419721500016749","0.475348600069992","0.437145699979737","1","1","1","1","1","1","1","1","1"
"250035","img/neutralC/CFD-WF-023-003-N.jpg","img/neutralC/CFD-WM-009-002-N.jpg","img/neutralC/CFD-LM-253-075-N.jpg","1","0","1","1","0","0","0.437145699979737","0.419721500016749","0.468386600026861","1","1","1","1","1","1","1","1","1"
"250035","img/neutralC/CFD-LM-253-075-N.jpg","img/neutralC/CFD-WF-023-003-N.jpg","img/neutralC/CFD-LF-211-003-N.jpg","1","1","0","0","1","0","0.468386600026861","0.437145699979737","0.402196800103411","1","1","1","1","1","1","1","1","2"
"250035","img/neutralC/CFD-LF-211-003-N.jpg","img/neutralC/CFD-LM-253-075-N.jpg","img/neutralC/CFD-MF-342-022-N.jpg","0","1","1","0","0","1","0.402196800103411","0.468386600026861","0.32134139991831","1","1","1","1","1","1","2","1","1"
"250035","img/neutralC/CFD-MF-342-022-N.jpg","img/neutralC/CFD-LF-211-003-N.jpg","img/neutralC/CFD-WM-237-052-N.jpg","1","0","1","1","0","1","0.32134139991831","0.402196800103411","0.46611220005434","1","1","1","1","1","1","1","2","1"
"250035","img/neutralC/CFD-WM-237-052-N.jpg","img/neutralC/CFD-MF-342-022-N.jpg","img/neutralC/CFD-BF-218-207-N.jpg","1","1","1","1","1","1","0.46611220005434","0.32134139991831","0.311273299972527","1","1","1","1","1","1","1","1","1"
"250035","img/neutralC/CFD-BF-218-207-N.jpg","img/neutralC/CFD-WM-237-052-N.jpg","img/neutralC/CFD-WF-245-084-N.jpg","1","1","1","1","1","1","0.311273299972527","0.46611220005434","0.42146490002051","1","1","1","1","1","1","1","1","1"
"250035","img/neutralC/CFD-WF-245-084-N.jpg","img/neutralC/CFD-BF-218-207-N.jpg","img/neutralC/CFD-AF-232-078-N.jpg","1","1","1","1","1","1","0.42146490002051","0.311273299972527","0.441410299972631","1","1","1","1","1","1","1","1","1"
"250035","img/neutralC/CFD-AF-232-078-N.jpg","img/neutralC/CFD-WF-245-084-N.jpg","img/neutralC/CFD-AM-244-222-N.jpg","1","1","0","1","1","0","0.441410299972631","0.42146490002051","0.388607500004582","1","1","1","1","1","1","1","1","1"
"250035","img/neutralC/CFD-AM-244-222-N.jpg","img/neutralC/CFD-AF-232-078-N.jpg","img/neutralC/CFD-MF-318-022-N.jpg","0","1","1","0","1","1","0.388607500004582","0.441410299972631","0.44022380001843","1","1","1","1","1","1","1","1","1"
"250035","img/neutralC/CFD-MF-318-022-N.jpg","img/neutralC/CFD-AM-244-222-N.jpg","img/neutralC/CFD-BF-018-039-N.jpg","1","0","1","1","0","1","0.44022380001843","0.388607500004582","0.421551599982195","1","1","1","1","1","1","1","1","1"
"250035","img/neutralC/CFD-BF-018-039-N.jpg","img/neutralC/CFD-MF-318-022-N.jpg","img/neutralC/CFD-IM-627-178-N.jpg","1","1","1","1","1","1","0.421551599982195","0.44022380001843","0.363401899929158","1","1","1","1","1","1","1","1","1"
"250035","img/neutralC/CFD-IM-627-178-N.jpg","img/neutralC/CFD-BF-018-039-N.jpg","img/neutralC/CFD-WM-201-063-N.jpg","1","1","1","1","1","1","0.363401899929158","0.421551599982195","0.474872400052845","1","1","1","1","1","1","1","1","1"
"250035","img/neutralC/CFD-WM-201-063-N.jpg","img/neutralC/CFD-IM-627-178-N.jpg","img/neutralC/CFD-IM-719-221-N.jpg","1","1","0","1","1","0","0.474872400052845","0.363401899929158","0.456468200078234","1","1","1","1","1","1","1","1","1"
"250035","img/neutralC/CFD-IM-719-221-N.jpg","img/neutralC/CFD-WM-201-063-N.jpg","img/neutralC/CFD-BF-254-201-N.jpg","0","1","1","0","1","0","0.456468200078234","0.474872400052845","0.557364300009795","1","1","1","1","1","1","1","1","1"
"250035","img/neutralC/CFD-BF-254-201-N.jpg","img/neutralC/CFD-IM-719-221-N.jpg","img/neutralC/CFD-BM-200-046-N.jpg","1","0","1","0","0","0","0.557364300009795","0.456468200078234","0.617815700010397","1","1","1","1","1","1","1","1","1"
"250035","img/neutralC/CFD-BM-200-046-N.jpg","img/neutralC/CFD-BF-254-201-N.jpg","img/neutralC/CFD-MM-321-021-N.jpg","1","1","1","0","0","0","0.617815700010397","0.557364300009795","0.477710400009528","1","1","1","1","1","1","1","1","1"
"250035","img/neutralC/CFD-MM-321-021-N.jpg","img/neutralC/CFD-BM-200-046-N.jpg","img/neutralC/CFD-WM-255-219-N.jpg","1","1","1","0","0","0","0.477710400009528","0.617815700010397","0.517903300002217","1","1","1","1","1","1","1","1","1"
"250035","img/neutralC/CFD-WM-255-219-N.jpg","img/neutralC/CFD-MM-321-021-N.jpg","img/neutralC/CFD-IF-629-234-N.jpg","1","1","0","0","0","0","0.517903300002217","0.477710400009528","0.576471899985336","1","1","1","1","1","1","1","1","1"
"250035","img/neutralC/CFD-IF-629-234-N.jpg","img/neutralC/CFD-WM-255-219-N.jpg","img/neutralC/CFD-WF-238-023-N.jpg","0","1","1","0","0","0","0.576471899985336","0.517903300002217","0.555890599964187","1","1","1","1","1","1","1","1","1"
"250035","img/neutralC/CFD-WF-238-023-N.jpg","img/neutralC/CFD-IF-629-234-N.jpg","img/neutralC/CFD-WM-221-091-N.jpg","1","0","1","0","0","0","0.555890599964187","0.576471899985336","0.553015499957837","1","1","1","1","1","1","1","1","1"
"250035","img/neutralC/CFD-WM-221-091-N.jpg","img/neutralC/CFD-WF-238-023-N.jpg","img/neutralC/CFD-BM-023-029-N.jpg","1","1","1","0","0","1","0.553015499957837","0.555890599964187","0.500219500041567","1","1","1","1","1","1","1","1","1"
"250035","img/neutralC/CFD-BM-023-029-N.jpg","img/neutralC/CFD-WM-221-091-N.jpg","img/neutralC/CFD-WF-018-017-N.jpg","1","1","1","1","0","1","0.500219500041567","0.553015499957837","0.452685600030236","1","1","1","1","1","1","1","1","1"
"250035","img/neutralC/CFD-WF-018-017-N.jpg","img/neutralC/CFD-BM-023-029-N.jpg","img/neutralC/CFD-LF-215-157-N.jpg","1","1","1","1","1","0","0.452685600030236","0.500219500041567","0.541250600013882","1","1","1","1","1","1","1","1","1"
"250035","img/neutralC/CFD-LF-215-157-N.jpg","img/neutralC/CFD-WF-018-017-N.jpg","img/neutralC/CFD-AF-221-147-N.jpg","1","1","0","0","1","0","0.541250600013882","0.452685600030236","0.60264840000309","1","1","1","1","1","1","1","1","1"
"250035","img/neutralC/CFD-AF-221-147-N.jpg","img/neutralC/CFD-LF-215-157-N.jpg","img/neutralC/CFD-MF-321-003-N.jpg","0","1","1","0","0","0","0.60264840000309","0.541250600013882","0.531819299911149","1","1","1","1","1","1","1","1","1"
"250035","img/neutralC/CFD-MF-321-003-N.jpg","img/neutralC/CFD-AF-221-147-N.jpg","img/neutralC/CFD-IM-700-009-N.jpg","1","0","1","0","0","1","0.531819299911149","0.60264840000309","0.446002300013788","1","1","1","1","1","1","1","1","1"
"250035","img/neutralC/CFD-IM-700-009-N.jpg","img/neutralC/CFD-MF-321-003-N.jpg","img/neutralC/CFD-WF-027-003-N.jpg","1","1","1","1","0","1","0.446002300013788","0.531819299911149","0.554608499980532","1","1","1","1","1","1","1","1","1"
"250035","img/neutralC/CFD-WF-027-003-N.jpg","img/neutralC/CFD-IM-700-009-N.jpg","img/neutralC/CFD-BM-204-003-N.jpg","1","1","1","1","1","0","0.554608499980532","0.446002300013788","0.497287999955006","1","1","1","1","1","1","1","1","1"
"250035","img/neutralC/CFD-BM-204-003-N.jpg","img/neutralC/CFD-WF-027-003-N.jpg",NA,"1","1",NA,"0","1",NA,"0.497287999955006","0.554608499980532",NA,"1","1",NA,"1","1",NA,"1","1",NA
"250035","img/neutralC/CFD-LM-218-183-N.jpg",NA,"img/neutralC/CFD-IF-693-172-N.jpg","1",NA,"1","1",NA,"0","0.59622299997136",NA,"0.651640400057659","1",NA,"1","1",NA,"1","1",NA,"1"
"250035","img/neutralC/CFD-IF-693-172-N.jpg","img/neutralC/CFD-LM-218-183-N.jpg","img/neutralC/CFD-WF-224-099-N.jpg","1","1","1","0","1","0","0.651640400057659","0.59622299997136","0.533070600009523","1","1","1","1","1","1","1","1","1"
"250035","img/neutralC/CFD-WF-224-099-N.jpg","img/neutralC/CFD-IF-693-172-N.jpg","img/neutralC/CFD-MM-316-156-N.jpg","1","1","1","0","0","1","0.533070600009523","0.651640400057659","0.388072700006887","1","1","1","1","1","1","1","1","1"
"250035","img/neutralC/CFD-MM-316-156-N.jpg","img/neutralC/CFD-WF-224-099-N.jpg","img/neutralC/CFD-AM-201-076-N.jpg","1","1","1","1","0","1","0.388072700006887","0.533070600009523","0.378942000097595","1","1","1","1","1","1","1","1","1"
"250035","img/neutralC/CFD-AM-201-076-N.jpg","img/neutralC/CFD-MM-316-156-N.jpg","img/neutralC/CFD-BM-019-002-N.jpg","1","1","1","1","1","0","0.378942000097595","0.388072700006887","0.560952699976042","1","1","1","1","1","1","1","1","1"
"250035","img/neutralC/CFD-BM-019-002-N.jpg","img/neutralC/CFD-AM-201-076-N.jpg","img/neutralC/CFD-IF-710-016-N.jpg","1","1","0","0","1","0","0.560952699976042","0.378942000097595","0.437061500037089","1","1","1","1","1","1","1","1","2"
"250035","img/neutralC/CFD-IF-710-016-N.jpg","img/neutralC/CFD-BM-019-002-N.jpg","img/neutralC/CFD-BF-205-141-N.jpg","0","1","1","0","0","0","0.437061500037089","0.560952699976042","0.381998299970292","1","1","1","1","1","1","2","1","1"
"250035","img/neutralC/CFD-BF-205-141-N.jpg","img/neutralC/CFD-IF-710-016-N.jpg","img/neutralC/CFD-LF-203-066-N.jpg","1","0","0","0","0","0","0.381998299970292","0.437061500037089","0.491732900030911","1","1","1","1","1","1","1","2","1"
"250035","img/neutralC/CFD-LF-203-066-N.jpg","img/neutralC/CFD-BF-205-141-N.jpg","img/neutralC/CFD-MF-337-026-N.jpg","0","1","1","0","0","1","0.491732900030911","0.381998299970292","0.478226400096901","1","1","1","1","1","1","1","1","1"
"250035","img/neutralC/CFD-MF-337-026-N.jpg","img/neutralC/CFD-LF-203-066-N.jpg","img/neutralC/CFD-AM-212-050-N.jpg","1","0","1","1","0","1","0.478226400096901","0.491732900030911","0.377207400044426","1","1","1","1","1","1","1","1","1"
"250035","img/neutralC/CFD-AM-212-050-N.jpg","img/neutralC/CFD-MF-337-026-N.jpg","img/neutralC/CFD-BF-029-031-N.jpg","1","1","1","1","1","1","0.377207400044426","0.478226400096901","0.376222399994731","1","1","1","1","1","1","1","1","1"
"250035","img/neutralC/CFD-BF-029-031-N.jpg","img/neutralC/CFD-AM-212-050-N.jpg","img/neutralC/CFD-BM-041-035-N.jpg","1","1","0","1","1","0","0.376222399994731","0.377207400044426","0.673155999975279","1","1","1","1","1","1","1","1","1"
"250035","img/neutralC/CFD-BM-041-035-N.jpg","img/neutralC/CFD-BF-029-031-N.jpg","img/neutralC/CFD-BF-039-031-N.jpg","0","1","1","0","1","1","0.673155999975279","0.376222399994731","0.472332500037737","1","1","1","1","1","1","1","1","1"
"250035","img/neutralC/CFD-BF-039-031-N.jpg","img/neutralC/CFD-BM-041-035-N.jpg","img/neutralC/CFD-IM-651-308-N.jpg","1","0","1","1","0","0","0.472332500037737","0.673155999975279","0.512548899976537","1","1","1","1","1","1","1","1","1"
"250035","img/neutralC/CFD-IM-651-308-N.jpg","img/neutralC/CFD-BF-039-031-N.jpg","img/neutralC/CFD-LF-214-090-N.jpg","1","1","1","0","1","0","0.512548899976537","0.472332500037737","0.84107349999249","1","1","1","1","1","1","1","1","2"
"250035","img/neutralC/CFD-LF-214-090-N.jpg","img/neutralC/CFD-IM-651-308-N.jpg","img/neutralC/CFD-BM-239-136-N.jpg","1","1","1","0","0","1","0.84107349999249","0.512548899976537","0.452230299939402","1","1","1","1","1","1","2","1","1"
"250035","img/neutralC/CFD-BM-239-136-N.jpg","img/neutralC/CFD-LF-214-090-N.jpg","img/neutralC/CFD-WM-011-002-N.jpg","1","1","1","1","0","0","0.452230299939402","0.84107349999249","0.527037199935876","1","1","1","1","1","1","1","2","1"
"250035","img/neutralC/CFD-WM-011-002-N.jpg","img/neutralC/CFD-BM-239-136-N.jpg","img/neutralC/CFD-LF-224-176-N.jpg","1","1","1","0","1","0","0.527037199935876","0.452230299939402","0.625998899922706","1","1","1","1","1","1","1","1","1"
"250035","img/neutralC/CFD-LF-224-176-N.jpg","img/neutralC/CFD-WM-011-002-N.jpg","img/neutralC/CFD-IF-634-382-N.jpg","1","1","1","0","0","1","0.625998899922706","0.527037199935876","0.417050100048073","1","1","1","1","1","1","1","1","1"
"250035","img/neutralC/CFD-IF-634-382-N.jpg","img/neutralC/CFD-LF-224-176-N.jpg","img/neutralC/CFD-AF-231-357-N.jpg","1","1","1","1","0","1","0.417050100048073","0.625998899922706","0.494653800036758","1","1","1","1","1","1","1","1","1"
"250035","img/neutralC/CFD-AF-231-357-N.jpg","img/neutralC/CFD-IF-634-382-N.jpg","img/neutralC/CFD-BF-213-188-N.jpg","1","1","1","1","1","1","0.494653800036758","0.417050100048073","0.417444100021385","1","1","1","1","1","1","1","1","1"
"250035","img/neutralC/CFD-BF-213-188-N.jpg","img/neutralC/CFD-AF-231-357-N.jpg","img/neutralC/CFD-LM-215-247-N.jpg","1","1","1","1","1","0","0.417444100021385","0.494653800036758","0.522190900053829","1","1","1","1","1","1","1","1","1"
"250035","img/neutralC/CFD-LM-215-247-N.jpg","img/neutralC/CFD-BF-213-188-N.jpg","img/neutralC/CFD-LF-205-100-N.jpg","1","1","1","0","1","1","0.522190900053829","0.417444100021385","0.433781599975191","1","1","1","1","1","1","1","1","1"
"250035","img/neutralC/CFD-LF-205-100-N.jpg","img/neutralC/CFD-LM-215-247-N.jpg","img/neutralC/CFD-WM-041-021-N.jpg","1","1","1","1","0","0","0.433781599975191","0.522190900053829","0.591980200028047","1","1","1","1","1","1","1","1","1"
"250035","img/neutralC/CFD-WM-041-021-N.jpg","img/neutralC/CFD-LF-205-100-N.jpg","img/neutralC/CFD-WM-021-001-N.jpg","1","1","1","0","1","1","0.591980200028047","0.433781599975191","0.567579200025648","1","1","1","1","1","1","1","1","1"
"250035","img/neutralC/CFD-WM-021-001-N.jpg","img/neutralC/CFD-WM-041-021-N.jpg","img/neutralC/CFD-BF-253-202-N.jpg","1","1","1","1","0","0","0.567579200025648","0.591980200028047","0.570782499969937","1","1","1","1","1","1","1","1","1"
"250035","img/neutralC/CFD-BF-253-202-N.jpg","img/neutralC/CFD-WM-021-001-N.jpg","img/neutralC/CFD-WF-250-167-N.jpg","1","1","1","0","1","1","0.570782499969937","0.567579200025648","0.569433699944057","1","1","1","1","1","1","1","1","1"
"250035","img/neutralC/CFD-WF-250-167-N.jpg","img/neutralC/CFD-BF-253-202-N.jpg","img/neutralC/CFD-LF-230-203-N.jpg","1","1","0","1","0","0","0.569433699944057","0.570782499969937","0.333847800036892","1","1","1","1","1","1","1","1","2"
"250035","img/neutralC/CFD-LF-230-203-N.jpg","img/neutralC/CFD-WF-250-167-N.jpg","img/neutralC/CFD-WF-213-031-N.jpg","0","1","1","0","1","1","0.333847800036892","0.569433699944057","0.385405000066385","1","1","1","1","1","1","2","1","1"
"250035","img/neutralC/CFD-WF-213-031-N.jpg","img/neutralC/CFD-LF-230-203-N.jpg","img/neutralC/CFD-IM-684-008-N.jpg","1","0","1","1","0","1","0.385405000066385","0.333847800036892","0.517169400001876","1","1","1","1","1","1","1","2","1"
"250035","img/neutralC/CFD-IM-684-008-N.jpg","img/neutralC/CFD-WF-213-031-N.jpg","img/neutralC/CFD-BM-033-003-N.jpg","1","1","1","1","1","0","0.517169400001876","0.385405000066385","0.468776199966669","1","1","1","1","1","1","1","1","1"
"250035","img/neutralC/CFD-BM-033-003-N.jpg","img/neutralC/CFD-IM-684-008-N.jpg",NA,"1","1",NA,"0","1",NA,"0.468776199966669","0.517169400001876",NA,"1","1",NA,"1","1",NA,"1","1",NA
"250035","img/neutralC/CFD-AF-237-223-N.jpg",NA,"img/neutralC/CFD-WF-207-014-N.jpg","0",NA,"1","0",NA,"1","0.596157300053164",NA,"0.458339200005867","1",NA,"1","1",NA,"1","1",NA,"1"
"250035","img/neutralC/CFD-WF-207-014-N.jpg","img/neutralC/CFD-AF-237-223-N.jpg","img/neutralC/CFD-LF-212-066-N.jpg","1","0","1","1","0","1","0.458339200005867","0.596157300053164","0.478347299969755","1","1","1","1","1","1","1","1","1"
"250035","img/neutralC/CFD-LF-212-066-N.jpg","img/neutralC/CFD-WF-207-014-N.jpg","img/neutralC/CFD-LF-238-154-N.jpg","1","1","1","1","1","1","0.478347299969755","0.458339200005867","0.486865499988198","1","1","1","1","1","1","1","1","1"
"250035","img/neutralC/CFD-LF-238-154-N.jpg","img/neutralC/CFD-LF-212-066-N.jpg","img/neutralC/CFD-WF-221-005-N.jpg","1","1","1","1","1","0","0.486865499988198","0.478347299969755","0.543008900014684","1","1","1","1","1","1","1","1","1"
"250035","img/neutralC/CFD-WF-221-005-N.jpg","img/neutralC/CFD-LF-238-154-N.jpg","img/neutralC/CFD-IM-689-263-N.jpg","1","1","1","0","1","1","0.543008900014684","0.486865499988198","0.373457300011069","1","1","1","1","1","1","1","1","1"
"250035","img/neutralC/CFD-IM-689-263-N.jpg","img/neutralC/CFD-WF-221-005-N.jpg","img/neutralC/CFD-LF-222-147-N.jpg","1","1","1","1","0","0","0.373457300011069","0.543008900014684","0.607549500069581","1","1","1","1","1","1","1","1","1"
"250035","img/neutralC/CFD-LF-222-147-N.jpg","img/neutralC/CFD-IM-689-263-N.jpg","img/neutralC/CFD-IM-615-167-N.jpg","1","1","1","0","1","0","0.607549500069581","0.373457300011069","0.508783900062554","1","1","1","1","1","1","1","1","1"
"250035","img/neutralC/CFD-IM-615-167-N.jpg","img/neutralC/CFD-LF-222-147-N.jpg","img/neutralC/CFD-IM-606-008-N.jpg","1","1","1","0","0","0","0.508783900062554","0.607549500069581","0.498795399907976","1","1","1","1","1","1","1","1","1"
"250035","img/neutralC/CFD-IM-606-008-N.jpg","img/neutralC/CFD-IM-615-167-N.jpg","img/neutralC/CFD-WF-009-001-N.jpg","1","1","1","0","0","1","0.498795399907976","0.508783900062554","0.573869400075637","1","1","1","1","1","1","1","1","1"
"250035","img/neutralC/CFD-WF-009-001-N.jpg","img/neutralC/CFD-IM-606-008-N.jpg","img/neutralC/CFD-WM-023-001-N.jpg","1","1","0","1","0","0","0.573869400075637","0.498795399907976","0.428037400008179","1","1","1","1","1","1","1","1","2"
"250035","img/neutralC/CFD-WM-023-001-N.jpg","img/neutralC/CFD-WF-009-001-N.jpg","img/neutralC/CFD-WM-028-003-N.jpg","0","1","1","0","1","1","0.428037400008179","0.573869400075637","0.510830000042915","1","1","1","1","1","1","2","1","1"
"250035","img/neutralC/CFD-WM-028-003-N.jpg","img/neutralC/CFD-WM-023-001-N.jpg","img/neutralC/CFD-IM-697-015-N.jpg","1","0","1","1","0","1","0.510830000042915","0.428037400008179","0.619103000033647","1","1","1","1","1","1","1","2","1"
"250035","img/neutralC/CFD-IM-697-015-N.jpg","img/neutralC/CFD-WM-028-003-N.jpg","img/neutralC/CFD-BM-030-003-N.jpg","1","1","1","1","1","0","0.619103000033647","0.510830000042915","0.470760099939071","1","1","1","1","1","1","1","1","1"
"250035","img/neutralC/CFD-BM-030-003-N.jpg","img/neutralC/CFD-IM-697-015-N.jpg","img/neutralC/CFD-BM-020-001-N.jpg","1","1","1","0","1","0","0.470760099939071","0.619103000033647","0.520071199978702","1","1","1","1","1","1","1","1","1"
"250035","img/neutralC/CFD-BM-020-001-N.jpg","img/neutralC/CFD-BM-030-003-N.jpg","img/neutralC/CFD-AM-249-163-N.jpg","1","1","1","0","0","1","0.520071199978702","0.470760099939071","0.683540700003505","1","1","1","1","1","1","1","1","1"
"250035","img/neutralC/CFD-AM-249-163-N.jpg","img/neutralC/CFD-BM-020-001-N.jpg","img/neutralC/CFD-WF-241-210-N.jpg","1","1","0","1","0","0","0.683540700003505","0.520071199978702","0.463996500009671","1","1","1","1","1","1","1","1","2"
"250035","img/neutralC/CFD-WF-241-210-N.jpg","img/neutralC/CFD-AM-249-163-N.jpg","img/neutralC/CFD-LM-240-013-N.jpg","0","1","1","0","1","1","0.463996500009671","0.683540700003505","0.40627040003892","1","1","1","1","1","1","2","1","1"
"250035","img/neutralC/CFD-LM-240-013-N.jpg","img/neutralC/CFD-WF-241-210-N.jpg","img/neutralC/CFD-BM-021-021-N.jpg","1","0","1","1","0","1","0.40627040003892","0.463996500009671","0.468942700070329","1","1","1","1","1","1","1","2","1"
"250035","img/neutralC/CFD-BM-021-021-N.jpg","img/neutralC/CFD-LM-240-013-N.jpg","img/neutralC/CFD-MF-328-020-N.jpg","1","1","1","1","1","0","0.468942700070329","0.40627040003892","0.403947400045581","1","1","1","1","1","1","1","1","1"
"250035","img/neutralC/CFD-MF-328-020-N.jpg","img/neutralC/CFD-BM-021-021-N.jpg","img/neutralC/CFD-AM-219-101-N.jpg","1","1","1","0","1","0","0.403947400045581","0.468942700070329","0.527086699963547","1","1","1","1","1","1","1","1","1"
"250035","img/neutralC/CFD-AM-219-101-N.jpg","img/neutralC/CFD-MF-328-020-N.jpg","img/neutralC/CFD-AM-205-153-N.jpg","1","1","1","0","0","1","0.527086699963547","0.403947400045581","0.359533699927852","1","1","1","1","1","1","1","1","1"
"250035","img/neutralC/CFD-AM-205-153-N.jpg","img/neutralC/CFD-AM-219-101-N.jpg","img/neutralC/CFD-MM-306-010-N.jpg","1","1","1","1","0","0","0.359533699927852","0.527086699963547","0.528644499951042","1","1","1","1","1","1","1","1","1"
"250035","img/neutralC/CFD-MM-306-010-N.jpg","img/neutralC/CFD-AM-205-153-N.jpg","img/neutralC/CFD-IF-676-017-N.jpg","1","1","1","0","1","1","0.528644499951042","0.359533699927852","0.467995599959977","1","1","1","1","1","1","1","1","1"
"250035","img/neutralC/CFD-IF-676-017-N.jpg","img/neutralC/CFD-MM-306-010-N.jpg","img/neutralC/CFD-BM-043-071-N.jpg","1","1","1","1","0","0","0.467995599959977","0.528644499951042","0.440282099996693","1","1","1","1","1","1","1","1","1"
"250035","img/neutralC/CFD-BM-043-071-N.jpg","img/neutralC/CFD-IF-676-017-N.jpg","img/neutralC/CFD-BF-244-231-N.jpg","1","1","1","0","1","1","0.440282099996693","0.467995599959977","0.399336299975403","1","1","1","1","1","1","1","1","1"
"250035","img/neutralC/CFD-BF-244-231-N.jpg","img/neutralC/CFD-BM-043-071-N.jpg","img/neutralC/CFD-AM-243-212-N.jpg","1","1","1","1","0","1","0.399336299975403","0.440282099996693","0.405142599949613","1","1","1","1","1","1","1","1","1"
"250035","img/neutralC/CFD-AM-243-212-N.jpg","img/neutralC/CFD-BF-244-231-N.jpg","img/neutralC/CFD-BF-012-001-N.jpg","1","1","1","1","1","0","0.405142599949613","0.399336299975403","0.443974300054833","1","1","1","1","1","1","1","1","1"
"250035","img/neutralC/CFD-BF-012-001-N.jpg","img/neutralC/CFD-AM-243-212-N.jpg","img/neutralC/CFD-WF-243-148-N.jpg","1","1","1","0","1","0","0.443974300054833","0.405142599949613","0.622067799908109","1","1","1","1","1","1","1","1","1"
"250035","img/neutralC/CFD-WF-243-148-N.jpg","img/neutralC/CFD-BF-012-001-N.jpg","img/neutralC/CFD-WM-025-002-N.jpg","1","1","1","0","0","0","0.622067799908109","0.443974300054833","0.463552700006403","1","1","1","1","1","1","1","1","1"
"250035","img/neutralC/CFD-WM-025-002-N.jpg","img/neutralC/CFD-WF-243-148-N.jpg","img/neutralC/CFD-BM-009-002-N.jpg","1","1","1","0","0","1","0.463552700006403","0.622067799908109","1.01991410006303","1","1","1","1","1","1","1","1","1"
"250035","img/neutralC/CFD-BM-009-002-N.jpg","img/neutralC/CFD-WM-025-002-N.jpg","img/neutralC/CFD-BM-227-191-N.jpg","1","1","1","1","0","1","1.01991410006303","0.463552700006403","0.352236300008371","1","1","1","1","1","1","1","1","1"
"250035","img/neutralC/CFD-BM-227-191-N.jpg","img/neutralC/CFD-BM-009-002-N.jpg",NA,"1","1",NA,"1","1",NA,"0.352236300008371","1.01991410006303",NA,"1","1",NA,"1","1",NA,"1","1",NA
"250035","img/neutralC/CFD-AF-244-168-N.jpg",NA,"img/neutralC/CFD-BF-217-189-N.jpg","0",NA,"0","0",NA,"0","0.430553600075655",NA,"0.41994719998911","1",NA,"1","1",NA,"1","1",NA,"1"
"250035","img/neutralC/CFD-BF-217-189-N.jpg","img/neutralC/CFD-AF-244-168-N.jpg","img/neutralC/CFD-BM-004-002-N.jpg","0","0","1","0","0","0","0.41994719998911","0.430553600075655","0.443343500024639","1","1","1","1","1","1","1","1","1"
"250035","img/neutralC/CFD-BM-004-002-N.jpg","img/neutralC/CFD-BF-217-189-N.jpg","img/neutralC/CFD-AF-205-155-N.jpg","1","0","1","0","0","0","0.443343500024639","0.41994719998911","0.454334300011396","1","1","1","1","1","1","1","1","1"
"250035","img/neutralC/CFD-AF-205-155-N.jpg","img/neutralC/CFD-BM-004-002-N.jpg","img/neutralC/CFD-BF-040-003-N.jpg","1","1","1","0","0","1","0.454334300011396","0.443343500024639","0.381019200081937","1","1","1","1","1","1","1","1","1"
"250035","img/neutralC/CFD-BF-040-003-N.jpg","img/neutralC/CFD-AF-205-155-N.jpg","img/neutralC/CFD-AF-234-208-N.jpg","1","1","1","1","0","1","0.381019200081937","0.454334300011396","0.371716399909928","1","1","1","1","1","1","1","1","1"
"250035","img/neutralC/CFD-AF-234-208-N.jpg","img/neutralC/CFD-BF-040-003-N.jpg","img/neutralC/CFD-AM-245-111-N.jpg","1","1","1","1","1","1","0.371716399909928","0.381019200081937","0.407228600000963","1","1","1","1","1","1","1","1","1"
"250035","img/neutralC/CFD-AM-245-111-N.jpg","img/neutralC/CFD-AF-234-208-N.jpg","img/neutralC/CFD-WM-253-119-N.jpg","1","1","1","1","1","1","0.407228600000963","0.371716399909928","0.316644400008954","1","1","1","1","1","1","1","1","1"
"250035","img/neutralC/CFD-WM-253-119-N.jpg","img/neutralC/CFD-AM-245-111-N.jpg","img/neutralC/CFD-AF-213-126-N.jpg","1","1","1","1","1","1","0.316644400008954","0.407228600000963","0.537558199954219","1","1","1","1","1","1","1","1","1"
"250035","img/neutralC/CFD-AF-213-126-N.jpg","img/neutralC/CFD-WM-253-119-N.jpg","img/neutralC/CFD-LF-239-148-N.jpg","1","1","0","1","1","0","0.537558199954219","0.316644400008954","0.377196500077844","1","1","1","1","1","1","1","1","1"
"250035","img/neutralC/CFD-LF-239-148-N.jpg","img/neutralC/CFD-AF-213-126-N.jpg","img/neutralC/CFD-AM-233-236-N.jpg","0","1","1","0","1","1","0.377196500077844","0.537558199954219","0.403210100019351","1","1","1","1","1","1","1","1","1"
"250035","img/neutralC/CFD-AM-233-236-N.jpg","img/neutralC/CFD-LF-239-148-N.jpg","img/neutralC/CFD-IM-669-111-N.jpg","1","0","1","1","0","1","0.403210100019351","0.377196500077844","0.60387140000239","1","1","1","1","1","1","1","1","1"
"250035","img/neutralC/CFD-IM-669-111-N.jpg","img/neutralC/CFD-AM-233-236-N.jpg","img/neutralC/CFD-WM-018-002-N.jpg","1","1","1","1","1","0","0.60387140000239","0.403210100019351","0.322421600110829","1","1","1","1","1","1","1","1","1"
"250035","img/neutralC/CFD-WM-018-002-N.jpg","img/neutralC/CFD-IM-669-111-N.jpg","img/neutralC/CFD-AM-225-102-N.jpg","1","1","1","0","1","0","0.322421600110829","0.60387140000239","0.4596796000842","1","1","1","1","1","1","1","1","1"
"250035","img/neutralC/CFD-AM-225-102-N.jpg","img/neutralC/CFD-WM-018-002-N.jpg","img/neutralC/CFD-BF-020-002-N.jpg","1","1","1","0","0","1","0.4596796000842","0.322421600110829","0.438542200019583","1","1","1","1","1","1","1","1","1"
"250035","img/neutralC/CFD-BF-020-002-N.jpg","img/neutralC/CFD-AM-225-102-N.jpg","img/neutralC/CFD-IF-636-011-N.jpg","1","1","1","1","0","1","0.438542200019583","0.4596796000842","0.471144499955699","1","1","1","1","1","1","1","1","1"
"250035","img/neutralC/CFD-IF-636-011-N.jpg","img/neutralC/CFD-BF-020-002-N.jpg","img/neutralC/CFD-BF-042-026-N.jpg","1","1","1","1","1","1","0.471144499955699","0.438542200019583","0.391172099974938","1","1","1","1","1","1","1","1","1"
"250035","img/neutralC/CFD-BF-042-026-N.jpg","img/neutralC/CFD-IF-636-011-N.jpg","img/neutralC/CFD-AF-246-242-N.jpg","1","1","0","1","1","0","0.391172099974938","0.471144499955699","0.36091549997218","1","1","1","1","1","1","1","1","1"
"250035","img/neutralC/CFD-AF-246-242-N.jpg","img/neutralC/CFD-BF-042-026-N.jpg","img/neutralC/CFD-LM-204-001-N.jpg","0","1","1","0","1","0","0.36091549997218","0.391172099974938","0.417114099953324","1","1","1","1","1","1","1","1","1"
"250035","img/neutralC/CFD-LM-204-001-N.jpg","img/neutralC/CFD-AF-246-242-N.jpg","img/neutralC/CFD-MF-307-002-N.jpg","1","0","1","0","0","1","0.417114099953324","0.36091549997218","0.34408130007796","1","1","1","1","1","1","1","1","1"
"250035","img/neutralC/CFD-MF-307-002-N.jpg","img/neutralC/CFD-LM-204-001-N.jpg","img/neutralC/CFD-IF-732-260-N.jpg","1","1","0","1","0","0","0.34408130007796","0.417114099953324","0.431147500057705","1","1","1","1","1","1","1","1","1"
"250035","img/neutralC/CFD-IF-732-260-N.jpg","img/neutralC/CFD-MF-307-002-N.jpg","img/neutralC/CFD-BF-206-143-N.jpg","0","1","1","0","1","1","0.431147500057705","0.34408130007796","0.49913489993196","1","1","1","1","1","1","1","1","1"
"250035","img/neutralC/CFD-BF-206-143-N.jpg","img/neutralC/CFD-IF-732-260-N.jpg","img/neutralC/CFD-MF-302-027-N.jpg","1","0","1","1","0","0","0.49913489993196","0.431147500057705","0.555745899910107","1","1","1","1","1","1","1","1","1"
"250035","img/neutralC/CFD-MF-302-027-N.jpg","img/neutralC/CFD-BF-206-143-N.jpg","img/neutralC/CFD-IM-635-010-N.jpg","1","1","1","0","1","1","0.555745899910107","0.49913489993196","0.576974499970675","1","1","1","1","1","1","1","1","1"
"250035","img/neutralC/CFD-IM-635-010-N.jpg","img/neutralC/CFD-MF-302-027-N.jpg","img/neutralC/CFD-BF-235-168-N.jpg","1","1","1","1","0","1","0.576974499970675","0.555745899910107","0.344629799947143","1","1","1","1","1","1","1","1","1"
"250035","img/neutralC/CFD-BF-235-168-N.jpg","img/neutralC/CFD-IM-635-010-N.jpg","img/neutralC/CFD-WF-210-086-N.jpg","1","1","0","1","1","0","0.344629799947143","0.576974499970675","0.391005200101063","1","1","1","1","1","1","1","1","1"
"250035","img/neutralC/CFD-WF-210-086-N.jpg","img/neutralC/CFD-BF-235-168-N.jpg","img/neutralC/CFD-BM-215-155-N.jpg","0","1","0","0","1","0","0.391005200101063","0.344629799947143","0.411079999990761","1","1","1","1","1","1","1","1","1"
"250035","img/neutralC/CFD-BM-215-155-N.jpg","img/neutralC/CFD-WF-210-086-N.jpg","img/neutralC/CFD-WF-235-121-N.jpg","0","0","1","0","0","0","0.411079999990761","0.391005200101063","0.503242400009185","1","1","1","1","1","1","1","1","1"
"250035","img/neutralC/CFD-WF-235-121-N.jpg","img/neutralC/CFD-BM-215-155-N.jpg","img/neutralC/CFD-LM-241-125-N.jpg","1","0","1","0","0","1","0.503242400009185","0.411079999990761","0.373135700006969","1","1","1","1","1","1","1","1","1"
"250035","img/neutralC/CFD-LM-241-125-N.jpg","img/neutralC/CFD-WF-235-121-N.jpg","img/neutralC/CFD-IM-678-482-N.jpg","1","1","0","1","0","0","0.373135700006969","0.503242400009185","0.431785700027831","1","1","1","1","1","1","1","1","1"
"250035","img/neutralC/CFD-IM-678-482-N.jpg","img/neutralC/CFD-LM-241-125-N.jpg","img/neutralC/CFD-IM-632-097-N.jpg","0","1","1","0","1","0","0.431785700027831","0.373135700006969","0.511643899953924","1","1","1","1","1","1","1","1","1"
"250035","img/neutralC/CFD-IM-632-097-N.jpg","img/neutralC/CFD-IM-678-482-N.jpg","img/neutralC/CFD-AF-250-200-N.jpg","1","0","1","0","0","1","0.511643899953924","0.431785700027831","0.438746899948455","1","1","1","1","1","1","1","1","1"
"250035","img/neutralC/CFD-AF-250-200-N.jpg","img/neutralC/CFD-IM-632-097-N.jpg",NA,"1","1",NA,"1","0",NA,"0.438746899948455","0.511643899953924",NA,"1","1",NA,"1","1",NA,"1","1",NA
"250035","img/neutralC/CFD-BM-029-024-N.jpg",NA,"img/neutralC/CFD-WF-026-002-N.jpg","1",NA,"1","1",NA,"1","0.529677900020033",NA,"0.443007000023499","1",NA,"1","1",NA,"1","1",NA,"1"
"250035","img/neutralC/CFD-WF-026-002-N.jpg","img/neutralC/CFD-BM-029-024-N.jpg","img/neutralC/CFD-BM-015-015-N.jpg","1","1","0","1","1","0","0.443007000023499","0.529677900020033","0.345874599996023","1","1","1","1","1","1","1","1","1"
"250035","img/neutralC/CFD-BM-015-015-N.jpg","img/neutralC/CFD-WF-026-002-N.jpg","img/neutralC/CFD-IF-672-305-N.jpg","0","1","0","0","1","0","0.345874599996023","0.443007000023499","0.628440100001171","1","1","1","1","1","1","1","1","1"
"250035","img/neutralC/CFD-IF-672-305-N.jpg","img/neutralC/CFD-BM-015-015-N.jpg","img/neutralC/CFD-BF-003-003-N.jpg","0","0","0","0","0","0","0.628440100001171","0.345874599996023","0.389588399906643","1","1","1","1","1","1","1","1","2"
"250035","img/neutralC/CFD-BF-003-003-N.jpg","img/neutralC/CFD-IF-672-305-N.jpg","img/neutralC/CFD-AM-235-241-N.jpg","0","0","1","0","0","0","0.389588399906643","0.628440100001171","0.428113500005566","1","1","1","1","1","1","2","1","1"
"250035","img/neutralC/CFD-AM-235-241-N.jpg","img/neutralC/CFD-BF-003-003-N.jpg","img/neutralC/CFD-IM-728-041-N.jpg","1","0","0","0","0","0","0.428113500005566","0.389588399906643","0.389089299947955","1","1","1","1","1","1","1","2","2"
"250035","img/neutralC/CFD-IM-728-041-N.jpg","img/neutralC/CFD-AM-235-241-N.jpg","img/neutralC/CFD-MM-319-052-N.jpg","0","1","1","0","0","1","0.389089299947955","0.428113500005566","0.403691799961962","1","1","1","1","1","1","2","1","1"
"250035","img/neutralC/CFD-MM-319-052-N.jpg","img/neutralC/CFD-IM-728-041-N.jpg","img/neutralC/CFD-LF-216-121-N.jpg","1","0","1","1","0","1","0.403691799961962","0.389089299947955","0.444253500085324","1","1","1","1","1","1","1","2","1"
"250035","img/neutralC/CFD-LF-216-121-N.jpg","img/neutralC/CFD-MM-319-052-N.jpg","img/neutralC/CFD-IM-639-263-N.jpg","1","1","1","1","1","1","0.444253500085324","0.403691799961962","0.385797000024468","1","1","1","1","1","1","1","1","1"
"250035","img/neutralC/CFD-IM-639-263-N.jpg","img/neutralC/CFD-LF-216-121-N.jpg","img/neutralC/CFD-WF-022-017-N.jpg","1","1","0","1","1","0","0.385797000024468","0.444253500085324","0.36457390000578","1","1","1","1","1","1","1","1","1"
"250035","img/neutralC/CFD-WF-022-017-N.jpg","img/neutralC/CFD-IM-639-263-N.jpg","img/neutralC/CFD-WM-040-022-N.jpg","0","1","1","0","1","0","0.36457390000578","0.385797000024468","0.459461499936879","1","1","1","1","1","1","1","1","1"
"250035","img/neutralC/CFD-WM-040-022-N.jpg","img/neutralC/CFD-WF-022-017-N.jpg","img/neutralC/CFD-WM-038-003-N.jpg","1","0","0","0","0","0","0.459461499936879","0.36457390000578","0.331952899927273","1","1","1","1","1","1","1","1","1"
"250035","img/neutralC/CFD-WM-038-003-N.jpg","img/neutralC/CFD-WM-040-022-N.jpg","img/neutralC/CFD-WM-002-009-N.jpg","0","1","1","0","0","0","0.331952899927273","0.459461499936879","0.458525499911048","1","1","1","1","1","1","1","1","1"
"250035","img/neutralC/CFD-WM-002-009-N.jpg","img/neutralC/CFD-WM-038-003-N.jpg","img/neutralC/CFD-LF-236-221-N.jpg","1","0","1","0","0","1","0.458525499911048","0.331952899927273","0.469584699952975","1","1","1","1","1","1","1","1","1"
"250035","img/neutralC/CFD-LF-236-221-N.jpg","img/neutralC/CFD-WM-002-009-N.jpg","img/neutralC/CFD-BM-211-174-N.jpg","1","1","1","1","0","0","0.469584699952975","0.458525499911048","0.53627439995762","1","1","1","1","1","1","1","1","1"
"250035","img/neutralC/CFD-BM-211-174-N.jpg","img/neutralC/CFD-LF-236-221-N.jpg","img/neutralC/CFD-BF-023-010-N.jpg","1","1","1","0","1","1","0.53627439995762","0.469584699952975","0.581851299968548","1","1","1","1","1","1","1","1","1"
"250035","img/neutralC/CFD-BF-023-010-N.jpg","img/neutralC/CFD-BM-211-174-N.jpg","img/neutralC/CFD-AM-215-120-N.jpg","1","1","1","1","0","1","0.581851299968548","0.53627439995762","0.447030300041661","1","1","1","1","1","1","1","1","1"
"250035","img/neutralC/CFD-AM-215-120-N.jpg","img/neutralC/CFD-BF-023-010-N.jpg","img/neutralC/CFD-BM-027-001-N.jpg","1","1","1","1","1","0","0.447030300041661","0.581851299968548","0.499326099990867","1","1","1","1","1","1","1","1","1"
"250035","img/neutralC/CFD-BM-027-001-N.jpg","img/neutralC/CFD-AM-215-120-N.jpg","img/neutralC/CFD-IM-674-281-N.jpg","1","1","1","0","1","1","0.499326099990867","0.447030300041661","0.384415600099601","1","1","1","1","1","1","1","1","1"
"250035","img/neutralC/CFD-IM-674-281-N.jpg","img/neutralC/CFD-BM-027-001-N.jpg","img/neutralC/CFD-IF-718-001-N.jpg","1","1","1","1","0","1","0.384415600099601","0.499326099990867","0.390653499984182","1","1","1","1","1","1","1","1","1"
"250035","img/neutralC/CFD-IF-718-001-N.jpg","img/neutralC/CFD-IM-674-281-N.jpg","img/neutralC/CFD-BF-204-189-N.jpg","1","1","1","1","1","1","0.390653499984182","0.384415600099601","0.377535799983889","1","1","1","1","1","1","1","1","1"
"250035","img/neutralC/CFD-BF-204-189-N.jpg","img/neutralC/CFD-IF-718-001-N.jpg","img/neutralC/CFD-BF-208-266-N.jpg","1","1","1","1","1","0","0.377535799983889","0.390653499984182","0.657671299995854","1","1","1","1","1","1","1","1","1"
"250035","img/neutralC/CFD-BF-208-266-N.jpg","img/neutralC/CFD-BF-204-189-N.jpg","img/neutralC/CFD-AM-217-085-N.jpg","1","1","1","0","1","0","0.657671299995854","0.377535799983889","0.468279600027017","1","1","1","1","1","1","1","1","1"
"250035","img/neutralC/CFD-AM-217-085-N.jpg","img/neutralC/CFD-BF-208-266-N.jpg","img/neutralC/CFD-WM-225-127-N.jpg","1","1","1","0","0","0","0.468279600027017","0.657671299995854","0.472835000022314","1","1","1","1","1","1","1","1","1"
"250035","img/neutralC/CFD-WM-225-127-N.jpg","img/neutralC/CFD-AM-217-085-N.jpg","img/neutralC/CFD-WF-002-004-N.jpg","1","1","1","0","0","0","0.472835000022314","0.468279600027017","0.523741699988022","1","1","1","1","1","1","1","1","1"
"250035","img/neutralC/CFD-WF-002-004-N.jpg","img/neutralC/CFD-WM-225-127-N.jpg","img/neutralC/CFD-BM-247-240-N.jpg","1","1","0","0","0","0","0.523741699988022","0.472835000022314","0.464790099998936","1","1","1","1","1","1","1","1","2"
"250035","img/neutralC/CFD-BM-247-240-N.jpg","img/neutralC/CFD-WF-002-004-N.jpg","img/neutralC/CFD-BF-201-080-N.jpg","0","1","1","0","0","1","0.464790099998936","0.523741699988022","0.443904899992049","1","1","1","1","1","1","2","1","1"
"250035","img/neutralC/CFD-BF-201-080-N.jpg","img/neutralC/CFD-BM-247-240-N.jpg","img/neutralC/CFD-LM-252-076-N.jpg","1","0","1","1","0","1","0.443904899992049","0.464790099998936","0.427535299910232","1","1","1","1","1","1","1","2","1"
"250035","img/neutralC/CFD-LM-252-076-N.jpg","img/neutralC/CFD-BF-201-080-N.jpg","img/neutralC/CFD-BF-028-001-N.jpg","1","1","1","1","1","1","0.427535299910232","0.443904899992049","0.499259100062773","1","1","1","1","1","1","1","1","1"
"250035","img/neutralC/CFD-BF-028-001-N.jpg","img/neutralC/CFD-LM-252-076-N.jpg","img/neutralC/CFD-BF-255-140-N.jpg","1","1","1","1","1","1","0.499259100062773","0.427535299910232","0.484663999988698","1","1","1","1","1","1","1","1","1"
"250035","img/neutralC/CFD-BF-255-140-N.jpg","img/neutralC/CFD-BF-028-001-N.jpg","img/neutralC/CFD-WM-257-161-N.jpg","1","1","1","1","1","1","0.484663999988698","0.499259100062773","0.427702399902046","1","1","1","1","1","1","1","1","1"
"250035","img/neutralC/CFD-WM-257-161-N.jpg","img/neutralC/CFD-BF-255-140-N.jpg",NA,"1","1",NA,"1","1",NA,"0.427702399902046","0.484663999988698",NA,"1","1",NA,"1","1",NA,"1","1",NA
"250035","img/neutralC/CFD-IM-671-601-N.jpg",NA,"img/neutralC/CFD-WF-200-099-N.jpg","1",NA,"0","0",NA,"0","0.738638100097887",NA,"0.423365200054832","1",NA,"1","1",NA,"1","1",NA,"2"
"250035","img/neutralC/CFD-WF-200-099-N.jpg","img/neutralC/CFD-IM-671-601-N.jpg","img/neutralC/CFD-WM-033-025-N.jpg","0","1","1","0","0","1","0.423365200054832","0.738638100097887","0.440954999998212","1","1","1","1","1","1","2","1","1"
"250035","img/neutralC/CFD-WM-033-025-N.jpg","img/neutralC/CFD-WF-200-099-N.jpg","img/neutralC/CFD-AM-211-052-N.jpg","1","0","1","1","0","1","0.440954999998212","0.423365200054832","0.368838599999435","1","1","1","1","1","1","1","2","1"
"250035","img/neutralC/CFD-AM-211-052-N.jpg","img/neutralC/CFD-WM-033-025-N.jpg","img/neutralC/CFD-AM-251-124-N.jpg","1","1","1","1","1","0","0.368838599999435","0.440954999998212","0.473972800071351","1","1","1","1","1","1","1","1","1"
"250035","img/neutralC/CFD-AM-251-124-N.jpg","img/neutralC/CFD-AM-211-052-N.jpg","img/neutralC/CFD-BF-229-179-N.jpg","1","1","0","0","1","0","0.473972800071351","0.368838599999435","0.458334499970078","1","1","1","1","1","1","1","1","1"
"250035","img/neutralC/CFD-BF-229-179-N.jpg","img/neutralC/CFD-AM-251-124-N.jpg","img/neutralC/CFD-IM-645-001-N.jpg","0","1","1","0","0","0","0.458334499970078","0.473972800071351","0.453356000012718","1","1","1","1","1","1","1","1","1"
"250035","img/neutralC/CFD-IM-645-001-N.jpg","img/neutralC/CFD-BF-229-179-N.jpg","img/neutralC/CFD-BF-232-187-N.jpg","1","0","1","0","0","1","0.453356000012718","0.458334499970078","0.472840700065717","1","1","1","1","1","1","1","1","1"
"250035","img/neutralC/CFD-BF-232-187-N.jpg","img/neutralC/CFD-IM-645-001-N.jpg","img/neutralC/CFD-MF-352-054-N.jpg","1","1","1","1","0","0","0.472840700065717","0.453356000012718","0.503713299985975","1","1","1","1","1","1","1","1","1"
"250035","img/neutralC/CFD-MF-352-054-N.jpg","img/neutralC/CFD-BF-232-187-N.jpg","img/neutralC/CFD-MF-359-019-N.jpg","1","1","1","0","1","0","0.503713299985975","0.472840700065717","0.358481500064954","1","1","1","1","1","1","1","1","1"
"250035","img/neutralC/CFD-MF-359-019-N.jpg","img/neutralC/CFD-MF-352-054-N.jpg","img/neutralC/CFD-WF-036-023-N.jpg","1","1","1","0","0","0","0.358481500064954","0.503713299985975","0.507834099931642","1","1","1","1","1","1","1","1","1"
"250035","img/neutralC/CFD-WF-036-023-N.jpg","img/neutralC/CFD-MF-359-019-N.jpg","img/neutralC/CFD-WF-214-122-N.jpg","1","1","1","0","0","1","0.507834099931642","0.358481500064954","0.372557700029574","1","1","1","1","1","1","1","1","1"
"250035","img/neutralC/CFD-WF-214-122-N.jpg","img/neutralC/CFD-WF-036-023-N.jpg","img/neutralC/CFD-LM-237-264-N.jpg","1","1","1","1","0","0","0.372557700029574","0.507834099931642","0.479401099961251","1","1","1","1","1","1","1","1","1"
"250035","img/neutralC/CFD-LM-237-264-N.jpg","img/neutralC/CFD-WF-214-122-N.jpg","img/neutralC/CFD-LF-218-072-N.jpg","1","1","0","0","1","0","0.479401099961251","0.372557700029574","0.41098729998339","1","1","1","1","1","1","1","1","2"
"250035","img/neutralC/CFD-LF-218-072-N.jpg","img/neutralC/CFD-LM-237-264-N.jpg","img/neutralC/CFD-LF-220-120-N.jpg","0","1","1","0","0","1","0.41098729998339","0.479401099961251","0.418112199986354","1","1","1","1","1","1","2","1","1"
"250035","img/neutralC/CFD-LF-220-120-N.jpg","img/neutralC/CFD-LF-218-072-N.jpg","img/neutralC/CFD-WF-001-003-N.jpg","1","0","1","1","0","1","0.418112199986354","0.41098729998339","0.429337299894542","1","1","1","1","1","1","1","2","1"
"250035","img/neutralC/CFD-WF-001-003-N.jpg","img/neutralC/CFD-LF-220-120-N.jpg","img/neutralC/CFD-BM-225-154-N.jpg","1","1","1","1","1","1","0.429337299894542","0.418112199986354","0.47952539997641","1","1","1","1","1","1","1","1","1"
"250035","img/neutralC/CFD-BM-225-154-N.jpg","img/neutralC/CFD-WF-001-003-N.jpg","img/neutralC/CFD-LM-228-188-N.jpg","1","1","1","1","1","1","0.47952539997641","0.429337299894542","0.435924799996428","1","1","1","1","1","1","1","1","1"
"250035","img/neutralC/CFD-LM-228-188-N.jpg","img/neutralC/CFD-BM-225-154-N.jpg","img/neutralC/CFD-WM-020-001-N.jpg","1","1","1","1","1","1","0.435924799996428","0.47952539997641","0.415367699926719","1","1","1","1","1","1","1","1","1"
"250035","img/neutralC/CFD-WM-020-001-N.jpg","img/neutralC/CFD-LM-228-188-N.jpg","img/neutralC/CFD-BM-253-004-N.jpg","1","1","1","1","1","1","0.415367699926719","0.435924799996428","0.455596399959177","1","1","1","1","1","1","1","1","1"
"250035","img/neutralC/CFD-BM-253-004-N.jpg","img/neutralC/CFD-WM-020-001-N.jpg","img/neutralC/CFD-MF-333-012-N.jpg","1","1","1","1","1","0","0.455596399959177","0.415367699926719","0.487055100034922","1","1","1","1","1","1","1","1","1"
"250035","img/neutralC/CFD-MF-333-012-N.jpg","img/neutralC/CFD-BM-253-004-N.jpg","img/neutralC/CFD-BF-038-037-N.jpg","1","1","1","0","1","1","0.487055100034922","0.455596399959177","0.561747999978252","1","1","1","1","1","1","1","1","1"
"250035","img/neutralC/CFD-BF-038-037-N.jpg","img/neutralC/CFD-MF-333-012-N.jpg","img/neutralC/CFD-WM-235-147-N.jpg","1","1","1","1","0","0","0.561747999978252","0.487055100034922","0.742000899976119","1","1","1","1","1","1","1","1","1"
"250035","img/neutralC/CFD-WM-235-147-N.jpg","img/neutralC/CFD-BF-038-037-N.jpg","img/neutralC/CFD-WM-004-010-N.jpg","1","1","1","0","1","0","0.742000899976119","0.561747999978252","0.52104469994083","1","1","1","1","1","1","1","1","1"
"250035","img/neutralC/CFD-WM-004-010-N.jpg","img/neutralC/CFD-WM-235-147-N.jpg","img/neutralC/CFD-IM-743-006-N.jpg","1","1","1","0","0","1","0.52104469994083","0.742000899976119","0.439239099971019","1","1","1","1","1","1","1","1","1"
"250035","img/neutralC/CFD-IM-743-006-N.jpg","img/neutralC/CFD-WM-004-010-N.jpg","img/neutralC/CFD-AM-242-176-N.jpg","1","1","1","1","0","1","0.439239099971019","0.52104469994083","0.389393499935977","1","1","1","1","1","1","1","1","1"
"250035","img/neutralC/CFD-AM-242-176-N.jpg","img/neutralC/CFD-IM-743-006-N.jpg","img/neutralC/CFD-IF-650-315-N.jpg","1","1","1","1","1","0","0.389393499935977","0.439239099971019","0.474469800014049","1","1","1","1","1","1","1","1","1"
"250035","img/neutralC/CFD-IF-650-315-N.jpg","img/neutralC/CFD-AM-242-176-N.jpg","img/neutralC/CFD-IM-703-182-N.jpg","1","1","1","0","1","1","0.474469800014049","0.389393499935977","0.416717599960975","1","1","1","1","1","1","1","1","1"
"250035","img/neutralC/CFD-IM-703-182-N.jpg","img/neutralC/CFD-IF-650-315-N.jpg","img/neutralC/CFD-IF-623-129-N.jpg","1","1","1","1","0","1","0.416717599960975","0.474469800014049","0.436345499940216","1","1","1","1","1","1","1","1","1"
"250035","img/neutralC/CFD-IF-623-129-N.jpg","img/neutralC/CFD-IM-703-182-N.jpg","img/neutralC/CFD-WM-219-008-N.jpg","1","1","1","1","1","0","0.436345499940216","0.416717599960975","0.537502699997276","1","1","1","1","1","1","1","1","1"
"250035","img/neutralC/CFD-WM-219-008-N.jpg","img/neutralC/CFD-IF-623-129-N.jpg","img/neutralC/CFD-IM-616-214-N.jpg","1","1","0","0","1","0","0.537502699997276","0.436345499940216","0.403835400007665","1","1","1","1","1","1","1","1","2"
"250035","img/neutralC/CFD-IM-616-214-N.jpg","img/neutralC/CFD-WM-219-008-N.jpg","img/neutralC/CFD-BF-226-119-N.jpg","0","1","1","0","0","1","0.403835400007665","0.537502699997276","0.379906399990432","1","1","1","1","1","1","2","1","1"
"250035","img/neutralC/CFD-BF-226-119-N.jpg","img/neutralC/CFD-IM-616-214-N.jpg",NA,"1","0",NA,"1","0",NA,"0.379906399990432","0.403835400007665",NA,"1","1",NA,"1","1",NA,"1","2",NA
"250035","img/neutralC/CFD-WM-014-002-N.jpg",NA,"img/neutralC/CFD-BF-247-179-N.jpg","1",NA,"0","0",NA,"0","0.659424799960107",NA,"0.443146599922329","1",NA,"1","1",NA,"1","1",NA,"2"
"250035","img/neutralC/CFD-BF-247-179-N.jpg","img/neutralC/CFD-WM-014-002-N.jpg","img/neutralC/CFD-BF-236-177-N.jpg","0","1","1","0","0","0","0.443146599922329","0.659424799960107","0.512086700065993","1","1","1","1","1","1","2","1","1"
"250035","img/neutralC/CFD-BF-236-177-N.jpg","img/neutralC/CFD-BF-247-179-N.jpg","img/neutralC/CFD-BF-011-002-N.jpg","1","0","1","0","0","1","0.512086700065993","0.443146599922329","0.351191399968229","1","1","1","1","1","1","1","2","1"
"250035","img/neutralC/CFD-BF-011-002-N.jpg","img/neutralC/CFD-BF-236-177-N.jpg","img/neutralC/CFD-WF-233-112-N.jpg","1","1","1","1","0","1","0.351191399968229","0.512086700065993","0.354448799975216","1","1","1","1","1","1","1","1","1"
"250035","img/neutralC/CFD-WF-233-112-N.jpg","img/neutralC/CFD-BF-011-002-N.jpg","img/neutralC/CFD-BM-241-235-N.jpg","1","1","0","1","1","0","0.354448799975216","0.351191399968229","0.424017400015146","1","1","1","1","1","1","1","1","2"
"250035","img/neutralC/CFD-BM-241-235-N.jpg","img/neutralC/CFD-WF-233-112-N.jpg","img/neutralC/CFD-WM-248-036-N.jpg","0","1","1","0","1","1","0.424017400015146","0.354448799975216","0.324710300075822","1","1","1","1","1","1","2","1","1"
"250035","img/neutralC/CFD-WM-248-036-N.jpg","img/neutralC/CFD-BM-241-235-N.jpg","img/neutralC/CFD-IM-707-105-N.jpg","1","0","1","1","0","1","0.324710300075822","0.424017400015146","0.350139599991962","1","1","1","1","1","1","1","2","1"
"250035","img/neutralC/CFD-IM-707-105-N.jpg","img/neutralC/CFD-WM-248-036-N.jpg","img/neutralC/CFD-WM-034-030-N.jpg","1","1","1","1","1","1","0.350139599991962","0.324710300075822","0.424178999965079","1","1","1","1","1","1","1","1","1"
"250035","img/neutralC/CFD-WM-034-030-N.jpg","img/neutralC/CFD-IM-707-105-N.jpg","img/neutralC/CFD-IM-726-248-N.jpg","1","1","1","1","1","0","0.424178999965079","0.350139599991962","0.38222169992514","1","1","1","1","1","1","1","1","1"
"250035","img/neutralC/CFD-IM-726-248-N.jpg","img/neutralC/CFD-WM-034-030-N.jpg","img/neutralC/CFD-IM-696-001-N.jpg","1","1","0","0","1","0","0.38222169992514","0.424178999965079","0.430543800001033","1","1","1","1","1","1","1","1","2"
"250035","img/neutralC/CFD-IM-696-001-N.jpg","img/neutralC/CFD-IM-726-248-N.jpg","img/neutralC/CFD-BF-006-017-N.jpg","0","1","1","0","0","0","0.430543800001033","0.38222169992514","0.502506799995899","1","1","1","1","1","1","2","1","1"
"250035","img/neutralC/CFD-BF-006-017-N.jpg","img/neutralC/CFD-IM-696-001-N.jpg","img/neutralC/CFD-IM-721-341-N.jpg","1","0","1","0","0","1","0.502506799995899","0.430543800001033","0.414303499972448","1","1","1","1","1","1","1","2","1"
"250035","img/neutralC/CFD-IM-721-341-N.jpg","img/neutralC/CFD-BF-006-017-N.jpg","img/neutralC/CFD-WF-029-002-N.jpg","1","1","0","1","0","0","0.414303499972448","0.502506799995899","0.380310700042173","1","1","1","1","1","1","1","1","2"
"250035","img/neutralC/CFD-WF-029-002-N.jpg","img/neutralC/CFD-IM-721-341-N.jpg","img/neutralC/CFD-BF-214-308-N.jpg","0","1","1","0","1","1","0.380310700042173","0.414303499972448","0.393830899964087","1","1","1","1","1","1","2","1","1"
"250035","img/neutralC/CFD-BF-214-308-N.jpg","img/neutralC/CFD-WF-029-002-N.jpg","img/neutralC/CFD-BF-027-002-N.jpg","1","0","1","1","0","1","0.393830899964087","0.380310700042173","0.425016999943182","1","1","1","1","1","1","1","2","1"
"250035","img/neutralC/CFD-BF-027-002-N.jpg","img/neutralC/CFD-BF-214-308-N.jpg","img/neutralC/CFD-LF-204-133-N.jpg","1","1","1","1","1","1","0.425016999943182","0.393830899964087","0.420911900000647","1","1","1","1","1","1","1","1","1"
"250035","img/neutralC/CFD-LF-204-133-N.jpg","img/neutralC/CFD-BF-027-002-N.jpg","img/neutralC/CFD-IF-742-103-N.jpg","1","1","1","1","1","1","0.420911900000647","0.425016999943182","0.434037699946202","1","1","1","1","1","1","1","1","1"
"250035","img/neutralC/CFD-IF-742-103-N.jpg","img/neutralC/CFD-LF-204-133-N.jpg","img/neutralC/CFD-BF-002-001-N.jpg","1","1","0","1","1","0","0.434037699946202","0.420911900000647","0.378434699960053","1","1","1","1","1","1","1","1","3"
"250035","img/neutralC/CFD-BF-002-001-N.jpg","img/neutralC/CFD-IF-742-103-N.jpg","img/neutralC/CFD-WF-208-068-N.jpg","0","1","1","0","1","1","0.378434699960053","0.434037699946202","0.409082899917848","1","1","1","1","1","1","3","1","1"
"250035","img/neutralC/CFD-WF-208-068-N.jpg","img/neutralC/CFD-BF-002-001-N.jpg","img/neutralC/CFD-MF-301-024-N.jpg","1","0","1","1","0","0","0.409082899917848","0.378434699960053","0.520095599931665","1","1","1","1","1","1","1","3","1"
"250035","img/neutralC/CFD-MF-301-024-N.jpg","img/neutralC/CFD-WF-208-068-N.jpg","img/neutralC/CFD-BM-238-242-N.jpg","1","1","1","0","1","0","0.520095599931665","0.409082899917848","0.510600500041619","1","1","1","1","1","1","1","1","1"
"250035","img/neutralC/CFD-BM-238-242-N.jpg","img/neutralC/CFD-MF-301-024-N.jpg","img/neutralC/CFD-WF-234-086-N.jpg","1","1","1","0","0","1","0.510600500041619","0.520095599931665","0.407463800045662","1","1","1","1","1","1","1","1","1"
"250035","img/neutralC/CFD-WF-234-086-N.jpg","img/neutralC/CFD-BM-238-242-N.jpg","img/neutralC/CFD-IF-677-452-1-N.jpg","1","1","1","1","0","1","0.407463800045662","0.510600500041619","0.363068999955431","1","1","1","1","1","1","1","1","1"
"250035","img/neutralC/CFD-IF-677-452-1-N.jpg","img/neutralC/CFD-WF-234-086-N.jpg","img/neutralC/CFD-BF-044-034-N.jpg","1","1","0","1","1","0","0.363068999955431","0.407463800045662","0.645774299977347","1","1","1","1","1","1","1","1","1"
"250035","img/neutralC/CFD-BF-044-034-N.jpg","img/neutralC/CFD-IF-677-452-1-N.jpg","img/neutralC/CFD-BM-036-003-N.jpg","0","1","1","0","1","1","0.645774299977347","0.363068999955431","0.342069500009529","1","1","1","1","1","1","1","1","1"
"250035","img/neutralC/CFD-BM-036-003-N.jpg","img/neutralC/CFD-BF-044-034-N.jpg","img/neutralC/CFD-IF-729-393-N.jpg","1","0","1","1","0","0","0.342069500009529","0.645774299977347","0.477701099938713","1","1","1","1","1","1","1","1","1"
"250035","img/neutralC/CFD-IF-729-393-N.jpg","img/neutralC/CFD-BM-036-003-N.jpg","img/neutralC/CFD-BF-207-004-N.jpg","1","1","1","0","1","1","0.477701099938713","0.342069500009529","0.392351599992253","1","1","1","1","1","1","1","1","1"
"250035","img/neutralC/CFD-BF-207-004-N.jpg","img/neutralC/CFD-IF-729-393-N.jpg","img/neutralC/CFD-BM-207-024-N.jpg","1","1","1","1","0","1","0.392351599992253","0.477701099938713","0.414888400002383","1","1","1","1","1","1","1","1","1"
"250035","img/neutralC/CFD-BM-207-024-N.jpg","img/neutralC/CFD-BF-207-004-N.jpg","img/neutralC/CFD-BF-036-027-N.jpg","1","1","1","1","1","0","0.414888400002383","0.392351599992253","0.585343300015666","1","1","1","1","1","1","1","1","1"
"250035","img/neutralC/CFD-BF-036-027-N.jpg","img/neutralC/CFD-BM-207-024-N.jpg","img/neutralC/CFD-LM-213-061-N.jpg","1","1","1","0","1","0","0.585343300015666","0.414888400002383","0.504399500088766","1","1","1","1","1","1","1","1","1"
"250035","img/neutralC/CFD-LM-213-061-N.jpg","img/neutralC/CFD-BF-036-027-N.jpg","img/neutralC/CFD-AM-230-150-N.jpg","1","1","1","0","0","0","0.504399500088766","0.585343300015666","0.517464199918322","1","1","1","1","1","1","1","1","1"
"250035","img/neutralC/CFD-AM-230-150-N.jpg","img/neutralC/CFD-LM-213-061-N.jpg",NA,"1","1",NA,"0","0",NA,"0.517464199918322","0.504399500088766",NA,"1","1",NA,"1","1",NA,"1","1",NA
"250035","img/neutralC/CFD-IM-604-014-N.jpg",NA,"img/neutralC/CFD-MF-300-002-N.jpg","0",NA,"0","0",NA,"0","0.634658200084232",NA,"0.392437899950892","1",NA,"1","1",NA,"1","1",NA,"2"
"250035","img/neutralC/CFD-MF-300-002-N.jpg","img/neutralC/CFD-IM-604-014-N.jpg","img/neutralC/CFD-LF-226-174-N.jpg","0","0","0","0","0","0","0.392437899950892","0.634658200084232","0.43126530002337","1","1","1","1","1","1","2","1","2"
"250035","img/neutralC/CFD-LF-226-174-N.jpg","img/neutralC/CFD-MF-300-002-N.jpg","img/neutralC/CFD-BM-039-029-N.jpg","0","0","1","0","0","1","0.43126530002337","0.392437899950892","0.417735100025311","1","1","1","1","1","1","2","2","1"
"250035","img/neutralC/CFD-BM-039-029-N.jpg","img/neutralC/CFD-LF-226-174-N.jpg","img/neutralC/CFD-BF-224-002-N.jpg","1","0","1","1","0","1","0.417735100025311","0.43126530002337","0.397703199996613","1","1","1","1","1","1","1","2","1"
"250035","img/neutralC/CFD-BF-224-002-N.jpg","img/neutralC/CFD-BM-039-029-N.jpg","img/neutralC/CFD-AF-229-160-N.jpg","1","1","0","1","1","0","0.397703199996613","0.417735100025311","0.372041999944486","1","1","1","1","1","1","1","1","2"
"250035","img/neutralC/CFD-AF-229-160-N.jpg","img/neutralC/CFD-BF-224-002-N.jpg","img/neutralC/CFD-IF-608-390-N.jpg","0","1","1","0","1","1","0.372041999944486","0.397703199996613","0.406358700012788","1","1","1","1","1","1","2","1","1"
"250035","img/neutralC/CFD-IF-608-390-N.jpg","img/neutralC/CFD-AF-229-160-N.jpg","img/neutralC/CFD-WF-012-002-N.jpg","1","0","1","1","0","1","0.406358700012788","0.372041999944486","0.448265500017442","1","1","1","1","1","1","1","2","1"
"250035","img/neutralC/CFD-WF-012-002-N.jpg","img/neutralC/CFD-IF-608-390-N.jpg","img/neutralC/CFD-BM-243-218-N.jpg","1","1","1","1","1","1","0.448265500017442","0.406358700012788","0.397275399998762","1","1","1","1","1","1","1","1","1"
"250035","img/neutralC/CFD-BM-243-218-N.jpg","img/neutralC/CFD-WF-012-002-N.jpg","img/neutralC/CFD-MF-329-001-N.jpg","1","1","1","1","1","0","0.397275399998762","0.448265500017442","0.516010300023481","1","1","1","1","1","1","1","1","1"
"250035","img/neutralC/CFD-MF-329-001-N.jpg","img/neutralC/CFD-BM-243-218-N.jpg","img/neutralC/CFD-IM-709-103-N.jpg","1","1","0","0","1","0","0.516010300023481","0.397275399998762","0.385122400010005","1","1","1","1","1","1","1","1","2"
"250035","img/neutralC/CFD-IM-709-103-N.jpg","img/neutralC/CFD-MF-329-001-N.jpg","img/neutralC/CFD-WF-212-050-N.jpg","0","1","1","0","0","0","0.385122400010005","0.516010300023481","0.475047299987637","1","1","1","1","1","1","2","1","1"
"250035","img/neutralC/CFD-WF-212-050-N.jpg","img/neutralC/CFD-IM-709-103-N.jpg","img/neutralC/CFD-AF-254-167-N.jpg","1","0","1","0","0","1","0.475047299987637","0.385122400010005","0.418891799985431","1","1","1","1","1","1","1","2","1"
"250035","img/neutralC/CFD-AF-254-167-N.jpg","img/neutralC/CFD-WF-212-050-N.jpg","img/neutralC/CFD-MF-327-002-N.jpg","1","1","1","1","0","0","0.418891799985431","0.475047299987637","0.480267599923536","1","1","1","1","1","1","1","1","1"
"250035","img/neutralC/CFD-MF-327-002-N.jpg","img/neutralC/CFD-AF-254-167-N.jpg","img/neutralC/CFD-IM-685-004-N.jpg","1","1","1","0","1","1","0.480267599923536","0.418891799985431","0.416950000100769","1","1","1","1","1","1","1","1","1"
"250035","img/neutralC/CFD-IM-685-004-N.jpg","img/neutralC/CFD-MF-327-002-N.jpg","img/neutralC/CFD-AF-215-70-N.jpg","1","1","0","1","0","0","0.416950000100769","0.480267599923536","0.446344899944961","1","1","1","1","1","1","1","1","2"
"250035","img/neutralC/CFD-AF-215-70-N.jpg","img/neutralC/CFD-IM-685-004-N.jpg","img/neutralC/CFD-WM-213-076-N.jpg","0","1","1","0","1","1","0.446344899944961","0.416950000100769","0.389535299967974","1","1","1","1","1","1","2","1","1"
"250035","img/neutralC/CFD-WM-213-076-N.jpg","img/neutralC/CFD-AF-215-70-N.jpg","img/neutralC/CFD-WF-008-002-N.jpg","1","0","1","1","0","1","0.389535299967974","0.446344899944961","0.411793299950659","1","1","1","1","1","1","1","2","1"
"250035","img/neutralC/CFD-WF-008-002-N.jpg","img/neutralC/CFD-WM-213-076-N.jpg","img/neutralC/CFD-IM-637-007-N.jpg","1","1","1","1","1","0","0.411793299950659","0.389535299967974","0.414714099955745","1","1","1","1","1","1","1","1","1"
"250035","img/neutralC/CFD-IM-637-007-N.jpg","img/neutralC/CFD-WF-008-002-N.jpg","img/neutralC/CFD-LM-217-162-N.jpg","1","1","0","0","1","0","0.414714099955745","0.411793299950659","0.415016200044192","1","1","1","1","1","1","1","1","2"
"250035","img/neutralC/CFD-LM-217-162-N.jpg","img/neutralC/CFD-IM-637-007-N.jpg","img/neutralC/CFD-LF-201-035-N.jpg","0","1","1","0","0","1","0.415016200044192","0.414714099955745","0.425123699940741","1","1","1","1","1","1","2","1","1"
"250035","img/neutralC/CFD-LF-201-035-N.jpg","img/neutralC/CFD-LM-217-162-N.jpg","img/neutralC/CFD-IF-619-197-N.jpg","1","0","0","1","0","0","0.425123699940741","0.415016200044192","0.592106700059958","1","1","1","1","1","1","1","2","1"
"250035","img/neutralC/CFD-IF-619-197-N.jpg","img/neutralC/CFD-LF-201-035-N.jpg","img/neutralC/CFD-AM-236-090-N.jpg","0","1","0","0","1","1","0.592106700059958","0.425123699940741","0.432311999960802","1","1","1","1","1","1","1","1","2"
"250035","img/neutralC/CFD-AM-236-090-N.jpg","img/neutralC/CFD-IF-619-197-N.jpg","img/neutralC/CFD-IM-675-015-N.jpg","0","0","1","1","0","1","0.432311999960802","0.592106700059958","0.375831400044262","1","1","1","1","1","1","2","1","1"
"250035","img/neutralC/CFD-IM-675-015-N.jpg","img/neutralC/CFD-AM-236-090-N.jpg","img/neutralC/CFD-WF-248-129-N.jpg","1","0","1","1","1","0","0.375831400044262","0.432311999960802","0.672850499977358","1","1","1","1","1","1","1","2","1"
"250035","img/neutralC/CFD-WF-248-129-N.jpg","img/neutralC/CFD-IM-675-015-N.jpg","img/neutralC/CFD-BF-043-003-N.jpg","1","1","1","0","1","0","0.672850499977358","0.375831400044262","0.492991700069979","1","1","1","1","1","1","1","1","1"
"250035","img/neutralC/CFD-BF-043-003-N.jpg","img/neutralC/CFD-WF-248-129-N.jpg","img/neutralC/CFD-BF-051-035-N.jpg","1","1","0","0","0","0","0.492991700069979","0.672850499977358","0.402173200040124","1","1","1","1","1","1","1","1","2"
"250035","img/neutralC/CFD-BF-051-035-N.jpg","img/neutralC/CFD-BF-043-003-N.jpg","img/neutralC/CFD-MM-304-002-N.jpg","0","1","1","0","0","1","0.402173200040124","0.492991700069979","0.467359000002034","1","1","1","1","1","1","2","1","1"
"250035","img/neutralC/CFD-MM-304-002-N.jpg","img/neutralC/CFD-BF-051-035-N.jpg","img/neutralC/CFD-WM-024-015-N.jpg","1","0","1","1","0","1","0.467359000002034","0.402173200040124","0.396122300066054","1","1","1","1","1","1","1","2","1"
"250035","img/neutralC/CFD-WM-024-015-N.jpg","img/neutralC/CFD-MM-304-002-N.jpg","img/neutralC/CFD-MF-340-026-N.jpg","1","1","1","1","1","1","0.396122300066054","0.467359000002034","0.430839900043793","1","1","1","1","1","1","1","1","1"
"250035","img/neutralC/CFD-MF-340-026-N.jpg","img/neutralC/CFD-WM-024-015-N.jpg","img/neutralC/CFD-WF-217-085-N.jpg","1","1","1","1","1","1","0.430839900043793","0.396122300066054","0.348522400017828","1","1","1","1","1","1","1","1","1"
"250035","img/neutralC/CFD-WF-217-085-N.jpg","img/neutralC/CFD-MF-340-026-N.jpg","img/neutralC/CFD-WM-232-070-N.jpg","1","1","0","1","1","0","0.348522400017828","0.430839900043793","0.388439600006677","1","1","1","1","1","1","1","1","2"
"250035","img/neutralC/CFD-WM-232-070-N.jpg","img/neutralC/CFD-WF-217-085-N.jpg",NA,"0","1",NA,"0","1",NA,"0.388439600006677","0.348522400017828",NA,"1","1",NA,"1","1",NA,"2","1",NA
"250035","img/neutralC/CFD-MF-335-002-N.jpg",NA,"img/neutralC/CFD-WF-005-010-N.jpg","1",NA,"0","0",NA,"0","0.524639199953526",NA,"0.418925900012255","1",NA,"1","1",NA,"1","1",NA,"2"
"250035","img/neutralC/CFD-WF-005-010-N.jpg","img/neutralC/CFD-MF-335-002-N.jpg","img/neutralC/CFD-WM-019-003-N.jpg","0","1","1","0","0","1","0.418925900012255","0.524639199953526","0.349442300037481","1","1","1","1","1","1","2","1","1"
"250035","img/neutralC/CFD-WM-019-003-N.jpg","img/neutralC/CFD-WF-005-010-N.jpg","img/neutralC/CFD-WM-006-002-N.jpg","1","0","1","1","0","0","0.349442300037481","0.418925900012255","0.412328999955207","1","1","1","1","1","1","1","2","1"
"250035","img/neutralC/CFD-WM-006-002-N.jpg","img/neutralC/CFD-WM-019-003-N.jpg","img/neutralC/CFD-LM-214-165-N.jpg","1","1","1","0","1","1","0.412328999955207","0.349442300037481","0.377527500037104","1","1","1","1","1","1","1","1","1"
"250035","img/neutralC/CFD-LM-214-165-N.jpg","img/neutralC/CFD-WM-006-002-N.jpg","img/neutralC/CFD-LM-243-075-N.jpg","1","1","0","1","0","0","0.377527500037104","0.412328999955207","0.404969699913636","1","1","1","1","1","1","1","1","2"
"250035","img/neutralC/CFD-LM-243-075-N.jpg","img/neutralC/CFD-LM-214-165-N.jpg","img/neutralC/CFD-WM-249-239-N.jpg","0","1","1","0","1","1","0.404969699913636","0.377527500037104","0.394267700030468","1","1","1","1","1","1","2","1","1"
"250035","img/neutralC/CFD-WM-249-239-N.jpg","img/neutralC/CFD-LM-243-075-N.jpg","img/neutralC/CFD-BF-041-001-N.jpg","1","0","1","1","0","1","0.394267700030468","0.404969699913636","0.453837700071745","1","1","1","1","1","1","1","2","1"
"250035","img/neutralC/CFD-BF-041-001-N.jpg","img/neutralC/CFD-WM-249-239-N.jpg","img/neutralC/CFD-LM-216-082-N.jpg","1","1","1","1","1","0","0.453837700071745","0.394267700030468","0.477889299974777","1","1","1","1","1","1","1","1","1"
"250035","img/neutralC/CFD-LM-216-082-N.jpg","img/neutralC/CFD-BF-041-001-N.jpg","img/neutralC/CFD-WM-212-097-N.jpg","1","1","1","0","1","0","0.477889299974777","0.453837700071745","0.486195700010285","1","1","1","1","1","1","1","1","1"
"250035","img/neutralC/CFD-WM-212-097-N.jpg","img/neutralC/CFD-LM-216-082-N.jpg","img/neutralC/CFD-BF-212-315-N.jpg","1","1","1","0","0","1","0.486195700010285","0.477889299974777","0.412332500098273","1","1","1","1","1","1","1","1","1"
"250035","img/neutralC/CFD-BF-212-315-N.jpg","img/neutralC/CFD-WM-212-097-N.jpg","img/neutralC/CFD-WM-012-001-N.jpg","1","1","1","1","0","1","0.412332500098273","0.486195700010285","0.479862999985926","1","1","1","1","1","1","1","1","1"
"250035","img/neutralC/CFD-WM-012-001-N.jpg","img/neutralC/CFD-BF-212-315-N.jpg","img/neutralC/CFD-WF-017-003-N.jpg","1","1","1","1","1","1","0.479862999985926","0.412332500098273","0.364568500081077","1","1","1","1","1","1","1","1","1"
"250035","img/neutralC/CFD-WF-017-003-N.jpg","img/neutralC/CFD-WM-012-001-N.jpg","img/neutralC/CFD-LM-201-057-N.jpg","1","1","1","1","1","1","0.364568500081077","0.479862999985926","0.352894600015134","1","1","1","1","1","1","1","1","1"
"250035","img/neutralC/CFD-LM-201-057-N.jpg","img/neutralC/CFD-WF-017-003-N.jpg","img/neutralC/CFD-LM-244-068-N.jpg","1","1","1","1","1","1","0.352894600015134","0.364568500081077","0.409746999968775","1","1","1","1","1","1","1","1","1"
"250035","img/neutralC/CFD-LM-244-068-N.jpg","img/neutralC/CFD-LM-201-057-N.jpg","img/neutralC/CFD-BF-202-109-N.jpg","1","1","1","1","1","1","0.409746999968775","0.352894600015134","0.348721300018951","1","1","1","1","1","1","1","1","1"
"250035","img/neutralC/CFD-BF-202-109-N.jpg","img/neutralC/CFD-LM-244-068-N.jpg","img/neutralC/CFD-WM-026-001-N.jpg","1","1","1","1","1","1","0.348721300018951","0.409746999968775","0.451577999978326","1","1","1","1","1","1","1","1","1"
"250035","img/neutralC/CFD-WM-026-001-N.jpg","img/neutralC/CFD-BF-202-109-N.jpg","img/neutralC/CFD-BF-228-212-N.jpg","1","1","1","1","1","0","0.451577999978326","0.348721300018951","0.490687599987723","1","1","1","1","1","1","1","1","1"
"250035","img/neutralC/CFD-BF-228-212-N.jpg","img/neutralC/CFD-WM-026-001-N.jpg","img/neutralC/CFD-IF-642-295-N.jpg","1","1","1","0","1","1","0.490687599987723","0.451577999978326","0.405184000032023","1","1","1","1","1","1","1","1","1"
"250035","img/neutralC/CFD-IF-642-295-N.jpg","img/neutralC/CFD-BF-228-212-N.jpg","img/neutralC/CFD-AF-240-206-N.jpg","1","1","0","1","0","0","0.405184000032023","0.490687599987723","0.315929799922742","1","1","1","1","1","1","1","1","2"
"250035","img/neutralC/CFD-AF-240-206-N.jpg","img/neutralC/CFD-IF-642-295-N.jpg","img/neutralC/CFD-WM-215-041-N.jpg","0","1","1","0","1","0","0.315929799922742","0.405184000032023","0.499469199916348","1","1","1","1","1","1","2","1","1"
"250035","img/neutralC/CFD-WM-215-041-N.jpg","img/neutralC/CFD-AF-240-206-N.jpg","img/neutralC/CFD-BM-248-128-N.jpg","1","0","1","0","0","0","0.499469199916348","0.315929799922742","0.485488900099881","1","1","1","1","1","1","1","2","1"
"250035","img/neutralC/CFD-BM-248-128-N.jpg","img/neutralC/CFD-WM-215-041-N.jpg","img/neutralC/CFD-BF-025-002-N.jpg","1","1","1","0","0","0","0.485488900099881","0.499469199916348","0.482311700005084","1","1","1","1","1","1","1","1","1"
"250035","img/neutralC/CFD-BF-025-002-N.jpg","img/neutralC/CFD-BM-248-128-N.jpg","img/neutralC/CFD-AM-247-165-N.jpg","1","1","1","0","0","1","0.482311700005084","0.485488900099881","0.375411099987104","1","1","1","1","1","1","1","1","1"
"250035","img/neutralC/CFD-AM-247-165-N.jpg","img/neutralC/CFD-BF-025-002-N.jpg","img/neutralC/CFD-IM-646-023-N.jpg","1","1","1","1","0","1","0.375411099987104","0.482311700005084","0.425274299923331","1","1","1","1","1","1","1","1","1"
"250035","img/neutralC/CFD-IM-646-023-N.jpg","img/neutralC/CFD-AM-247-165-N.jpg","img/neutralC/CFD-IM-648-337-N.jpg","1","1","1","1","1","0","0.425274299923331","0.375411099987104","0.589396999916062","1","1","1","1","1","1","1","1","1"
"250035","img/neutralC/CFD-IM-648-337-N.jpg","img/neutralC/CFD-IM-646-023-N.jpg","img/neutralC/CFD-WF-228-196-N.jpg","1","1","1","0","1","0","0.589396999916062","0.425274299923331","0.522792100091465","1","1","1","1","1","1","1","1","1"
"250035","img/neutralC/CFD-WF-228-196-N.jpg","img/neutralC/CFD-IM-648-337-N.jpg","img/neutralC/CFD-WF-240-083-N.jpg","1","1","1","0","0","0","0.522792100091465","0.589396999916062","0.473134199972264","1","1","1","1","1","1","1","1","2"
"250035","img/neutralC/CFD-WF-240-083-N.jpg","img/neutralC/CFD-WF-228-196-N.jpg","img/neutralC/CFD-MF-309-002-N.jpg","1","1","1","0","0","0","0.473134199972264","0.522792100091465","0.468416300020181","1","1","1","1","1","1","2","1","1"
"250035","img/neutralC/CFD-MF-309-002-N.jpg","img/neutralC/CFD-WF-240-083-N.jpg","img/neutralC/CFD-MM-317-061-N.jpg","1","1","1","0","0","1","0.468416300020181","0.473134199972264","0.357897399924695","1","1","1","1","1","1","1","2","1"
"250035","img/neutralC/CFD-MM-317-061-N.jpg","img/neutralC/CFD-MF-309-002-N.jpg","img/neutralC/CFD-BM-251-013-N.jpg","1","1","1","1","0","1","0.357897399924695","0.468416300020181","0.44826330000069","1","1","1","1","1","1","1","1","1"
"250035","img/neutralC/CFD-BM-251-013-N.jpg","img/neutralC/CFD-MM-317-061-N.jpg","img/neutralC/CFD-BM-205-001-N.jpg","1","1","1","1","1","0","0.44826330000069","0.357897399924695","0.522690500016324","1","1","1","1","1","1","1","1","1"
"250035","img/neutralC/CFD-BM-205-001-N.jpg","img/neutralC/CFD-BM-251-013-N.jpg",NA,"1","1",NA,"0","1",NA,"0.522690500016324","0.44826330000069",NA,"1","1",NA,"1","1",NA,"1","1",NA
"250035","img/neutralC/CFD-BM-013-002-N.jpg",NA,"img/neutralC/CFD-BF-222-240-N.jpg","1",NA,"0","1",NA,"0","0.545004399958998",NA,"0.494811299955472","1",NA,"1","1",NA,"1","1",NA,"2"
"250035","img/neutralC/CFD-BF-222-240-N.jpg","img/neutralC/CFD-BM-013-002-N.jpg","img/neutralC/CFD-LM-238-129-N.jpg","0","1","1","0","1","1","0.494811299955472","0.545004399958998","0.437264800071716","1","1","1","1","1","1","2","1","1"
"250035","img/neutralC/CFD-LM-238-129-N.jpg","img/neutralC/CFD-BF-222-240-N.jpg","img/neutralC/CFD-BM-010-003-N.jpg","1","0","1","1","0","0","0.437264800071716","0.494811299955472","0.426519999979064","1","1","1","1","1","1","1","2","2"
"250035","img/neutralC/CFD-BM-010-003-N.jpg","img/neutralC/CFD-LM-238-129-N.jpg","img/neutralC/CFD-BF-045-003-N.jpg","1","1","1","0","1","0","0.426519999979064","0.437264800071716","0.455044300062582","1","1","1","1","1","1","2","1","1"
"250035","img/neutralC/CFD-BF-045-003-N.jpg","img/neutralC/CFD-BM-010-003-N.jpg","img/neutralC/CFD-MF-336-016-N.jpg","1","1","1","0","0","1","0.455044300062582","0.426519999979064","0.33239729993511","1","1","1","1","1","1","1","2","1"
"250035","img/neutralC/CFD-MF-336-016-N.jpg","img/neutralC/CFD-BF-045-003-N.jpg","img/neutralC/CFD-IM-659-359-N.jpg","1","1","0","1","0","0","0.33239729993511","0.455044300062582","0.396773499902338","1","1","1","1","1","1","1","1","2"
"250035","img/neutralC/CFD-IM-659-359-N.jpg","img/neutralC/CFD-MF-336-016-N.jpg","img/neutralC/CFD-LF-241-188-N.jpg","0","1","0","0","1","0","0.396773499902338","0.33239729993511","0.437625600025058","1","1","1","1","1","1","2","1","2"
"250035","img/neutralC/CFD-LF-241-188-N.jpg","img/neutralC/CFD-IM-659-359-N.jpg","img/neutralC/CFD-LM-247-095-N.jpg","0","0","1","0","0","0","0.437625600025058","0.396773499902338","0.410829300060868","1","1","1","1","1","1","2","2","1"
"250035","img/neutralC/CFD-LM-247-095-N.jpg","img/neutralC/CFD-LF-241-188-N.jpg","img/neutralC/CFD-IF-744-114-N.jpg","1","0","1","0","0","0","0.410829300060868","0.437625600025058","0.47566180001013","1","1","1","1","1","1","1","2","1"
"250035","img/neutralC/CFD-IF-744-114-N.jpg","img/neutralC/CFD-LM-247-095-N.jpg","img/neutralC/CFD-AF-239-171-N.jpg","1","1","1","0","0","1","0.47566180001013","0.410829300060868","0.375710700056516","1","1","1","1","1","1","1","1","1"
"250035","img/neutralC/CFD-AF-239-171-N.jpg","img/neutralC/CFD-IF-744-114-N.jpg","img/neutralC/CFD-AF-210-050-N.jpg","1","1","1","1","0","1","0.375710700056516","0.47566180001013","0.391793500049971","1","1","1","1","1","1","1","1","1"
"250035","img/neutralC/CFD-AF-210-050-N.jpg","img/neutralC/CFD-AF-239-171-N.jpg","img/neutralC/CFD-WM-254-152-N.jpg","1","1","1","1","1","1","0.391793500049971","0.375710700056516","0.542872500023805","1","1","1","1","1","1","1","1","1"
"250035","img/neutralC/CFD-WM-254-152-N.jpg","img/neutralC/CFD-AF-210-050-N.jpg","img/neutralC/CFD-BM-213-134-N.jpg","1","1","1","1","1","1","0.542872500023805","0.391793500049971","0.387949800002389","1","1","1","1","1","1","1","1","1"
"250035","img/neutralC/CFD-BM-213-134-N.jpg","img/neutralC/CFD-WM-254-152-N.jpg","img/neutralC/CFD-AF-227-207-N.jpg","1","1","1","1","1","1","0.387949800002389","0.542872500023805","0.499350399943069","1","1","1","1","1","1","1","1","1"
"250035","img/neutralC/CFD-AF-227-207-N.jpg","img/neutralC/CFD-BM-213-134-N.jpg","img/neutralC/CFD-LF-208-127-N.jpg","1","1","1","1","1","0","0.499350399943069","0.387949800002389","0.56136129994411","1","1","1","1","1","1","1","1","1"
"250035","img/neutralC/CFD-LF-208-127-N.jpg","img/neutralC/CFD-AF-227-207-N.jpg","img/neutralC/CFD-MF-312-002-N.jpg","1","1","1","0","1","1","0.56136129994411","0.499350399943069","0.44069129996933","1","1","1","1","1","1","1","1","1"
"250035","img/neutralC/CFD-MF-312-002-N.jpg","img/neutralC/CFD-LF-208-127-N.jpg","img/neutralC/CFD-LF-225-164-N.jpg","1","1","1","1","0","1","0.44069129996933","0.56136129994411","0.422854600008577","1","1","1","1","1","1","1","1","1"
"250035","img/neutralC/CFD-LF-225-164-N.jpg","img/neutralC/CFD-MF-312-002-N.jpg","img/neutralC/CFD-WF-006-002-N.jpg","1","1","0","1","1","0","0.422854600008577","0.44069129996933","0.426505299983546","1","1","1","1","1","1","1","1","2"
"250035","img/neutralC/CFD-WF-006-002-N.jpg","img/neutralC/CFD-LF-225-164-N.jpg","img/neutralC/CFD-LF-210-220-N.jpg","0","1","1","0","1","1","0.426505299983546","0.422854600008577","0.392056300071999","1","1","1","1","1","1","2","1","1"
"250035","img/neutralC/CFD-LF-210-220-N.jpg","img/neutralC/CFD-WF-006-002-N.jpg","img/neutralC/CFD-WM-228-065-N.jpg","1","0","1","1","0","0","0.392056300071999","0.426505299983546","0.547844299930148","1","1","1","1","1","1","1","2","1"
"250035","img/neutralC/CFD-WM-228-065-N.jpg","img/neutralC/CFD-LF-210-220-N.jpg","img/neutralC/CFD-AM-221-184-N.jpg","1","1","1","0","1","1","0.547844299930148","0.392056300071999","0.434235299937427","1","1","1","1","1","1","1","1","1"
"250035","img/neutralC/CFD-AM-221-184-N.jpg","img/neutralC/CFD-WM-228-065-N.jpg","img/neutralC/CFD-IF-673-389-N.jpg","1","1","1","1","0","0","0.434235299937427","0.547844299930148","0.47663090005517","1","1","1","1","1","1","1","1","1"
"250035","img/neutralC/CFD-IF-673-389-N.jpg","img/neutralC/CFD-AM-221-184-N.jpg","img/neutralC/CFD-BM-028-002-N.jpg","1","1","1","0","1","1","0.47663090005517","0.434235299937427","0.408353699953295","1","1","1","1","1","1","1","1","1"
"250035","img/neutralC/CFD-BM-028-002-N.jpg","img/neutralC/CFD-IF-673-389-N.jpg","img/neutralC/CFD-BF-004-014-N.jpg","1","1","1","1","0","1","0.408353699953295","0.47663090005517","0.420064700068906","1","1","1","1","1","1","1","1","1"
"250035","img/neutralC/CFD-BF-004-014-N.jpg","img/neutralC/CFD-BM-028-002-N.jpg","img/neutralC/CFD-BM-003-003-N.jpg","1","1","1","1","1","0","0.420064700068906","0.408353699953295","0.50519609998446","1","1","1","1","1","1","1","1","1"
"250035","img/neutralC/CFD-BM-003-003-N.jpg","img/neutralC/CFD-BF-004-014-N.jpg","img/neutralC/CFD-WF-223-133-N.jpg","1","1","1","0","1","0","0.50519609998446","0.420064700068906","0.723694799933583","1","1","1","1","1","1","1","1","2"
"250035","img/neutralC/CFD-WF-223-133-N.jpg","img/neutralC/CFD-BM-003-003-N.jpg","img/neutralC/CFD-IM-738-191-N.jpg","1","1","1","0","0","0","0.723694799933583","0.50519609998446","0.413598100072704","1","1","1","1","1","1","2","1","1"
"250035","img/neutralC/CFD-IM-738-191-N.jpg","img/neutralC/CFD-WF-223-133-N.jpg","img/neutralC/CFD-IM-701-312-N.jpg","1","1","0","0","0","0","0.413598100072704","0.723694799933583","0.386921300087124","1","1","1","1","1","1","1","2","2"
"250035","img/neutralC/CFD-IM-701-312-N.jpg","img/neutralC/CFD-IM-738-191-N.jpg","img/neutralC/CFD-WM-202-107-N.jpg","0","1","1","0","0","1","0.386921300087124","0.413598100072704","0.390165899996646","1","1","1","1","1","1","2","1","1"
"250035","img/neutralC/CFD-WM-202-107-N.jpg","img/neutralC/CFD-IM-701-312-N.jpg","img/neutralC/CFD-IF-625-225-N.jpg","1","0","1","1","0","0","0.390165899996646","0.386921300087124","0.426663199905306","1","1","1","1","1","1","1","2","1"
"250035","img/neutralC/CFD-IF-625-225-N.jpg","img/neutralC/CFD-WM-202-107-N.jpg","img/neutralC/CFD-WF-033-002-N.jpg","1","1","1","0","1","1","0.426663199905306","0.390165899996646","0.478945299983025","1","1","1","1","1","1","1","1","1"
"250035","img/neutralC/CFD-WF-033-002-N.jpg","img/neutralC/CFD-IF-625-225-N.jpg",NA,"1","1",NA,"1","0",NA,"0.478945299983025","0.426663199905306",NA,"1","1",NA,"1","1",NA,"1","1",NA
