"participant_id","current_trial_face","pre_trial_face","post_trial_face","current_trial_accuracy","pre_trial_accuracy","post_trial_accuracy","current_trial_congruency","pre_trial_congruency","post_trial_congruency","current_trial_rt","pre_trial_rt","post_trial_rt","current_trial_responded","pre_trial_responded","post_trial_responded","current_trial_legitResponse","pre_trial_legitResponse","post_trial_legitResponse","current_trial_resp_nums","pre_trial_resp_nums","post_trial_resp_nums"
"250048","img/neutralC/CFD-LM-252-076-N.jpg",NA,"img/neutralC/CFD-BF-028-001-N.jpg","1",NA,"1","1",NA,"1","0.56105070002377",NA,"0.429928499972448","1",NA,"1","1",NA,"1","1",NA,"1"
"250048","img/neutralC/CFD-BF-028-001-N.jpg","img/neutralC/CFD-LM-252-076-N.jpg","img/neutralC/CFD-WF-026-002-N.jpg","1","1","1","1","1","1","0.429928499972448","0.56105070002377","0.437480099964887","1","1","1","1","1","1","1","1","1"
"250048","img/neutralC/CFD-WF-026-002-N.jpg","img/neutralC/CFD-BF-028-001-N.jpg","img/neutralC/CFD-IF-718-001-N.jpg","1","1","1","1","1","1","0.437480099964887","0.429928499972448","0.419804200064391","1","1","1","1","1","1","1","1","1"
"250048","img/neutralC/CFD-IF-718-001-N.jpg","img/neutralC/CFD-WF-026-002-N.jpg","img/neutralC/CFD-BM-015-015-N.jpg","1","1","1","1","1","0","0.419804200064391","0.437480099964887","0.561097899917513","1","1","1","1","1","1","1","1","1"
"250048","img/neutralC/CFD-BM-015-015-N.jpg","img/neutralC/CFD-IF-718-001-N.jpg","img/neutralC/CFD-LF-216-121-N.jpg","1","1","1","0","1","1","0.561097899917513","0.419804200064391","0.440607599914074","1","1","1","1","1","1","1","1","1"
"250048","img/neutralC/CFD-LF-216-121-N.jpg","img/neutralC/CFD-BM-015-015-N.jpg","img/neutralC/CFD-IM-674-281-N.jpg","1","1","1","1","0","1","0.440607599914074","0.561097899917513","0.52658209996298","1","1","1","1","1","1","1","1","1"
"250048","img/neutralC/CFD-IM-674-281-N.jpg","img/neutralC/CFD-LF-216-121-N.jpg","img/neutralC/CFD-BF-204-189-N.jpg","1","1","1","1","1","1","0.52658209996298","0.440607599914074","0.542376900091767","1","1","1","1","1","1","1","1","1"
"250048","img/neutralC/CFD-BF-204-189-N.jpg","img/neutralC/CFD-IM-674-281-N.jpg","img/neutralC/CFD-WM-040-022-N.jpg","1","1","1","1","1","0","0.542376900091767","0.52658209996298","0.553598299855366","1","1","1","1","1","1","1","1","1"
"250048","img/neutralC/CFD-WM-040-022-N.jpg","img/neutralC/CFD-BF-204-189-N.jpg","img/neutralC/CFD-BF-208-266-N.jpg","1","1","1","0","1","0","0.553598299855366","0.542376900091767","0.533400099957362","1","1","1","1","1","1","1","1","1"
"250048","img/neutralC/CFD-BF-208-266-N.jpg","img/neutralC/CFD-WM-040-022-N.jpg","img/neutralC/CFD-IM-728-041-N.jpg","1","1","1","0","0","0","0.533400099957362","0.553598299855366","0.641229999950156","1","1","1","1","1","1","1","1","1"
"250048","img/neutralC/CFD-IM-728-041-N.jpg","img/neutralC/CFD-BF-208-266-N.jpg","img/neutralC/CFD-WF-022-017-N.jpg","1","1","1","0","0","0","0.641229999950156","0.533400099957362","0.547563300002366","1","1","1","1","1","1","1","1","1"
"250048","img/neutralC/CFD-WF-022-017-N.jpg","img/neutralC/CFD-IM-728-041-N.jpg","img/neutralC/CFD-BM-027-001-N.jpg","1","1","1","0","0","0","0.547563300002366","0.641229999950156","0.66910699987784","1","1","1","1","1","1","1","1","1"
"250048","img/neutralC/CFD-BM-027-001-N.jpg","img/neutralC/CFD-WF-022-017-N.jpg","img/neutralC/CFD-BF-023-010-N.jpg","1","1","1","0","0","1","0.66910699987784","0.547563300002366","0.360028400085866","1","1","1","1","1","1","1","1","1"
"250048","img/neutralC/CFD-BF-023-010-N.jpg","img/neutralC/CFD-BM-027-001-N.jpg","img/neutralC/CFD-BM-211-174-N.jpg","1","1","1","1","0","0","0.360028400085866","0.66910699987784","0.474446599837393","1","1","1","1","1","1","1","1","1"
"250048","img/neutralC/CFD-BM-211-174-N.jpg","img/neutralC/CFD-BF-023-010-N.jpg","img/neutralC/CFD-LF-236-221-N.jpg","1","1","1","0","1","1","0.474446599837393","0.360028400085866","0.443221899913624","1","1","1","1","1","1","1","1","1"
"250048","img/neutralC/CFD-LF-236-221-N.jpg","img/neutralC/CFD-BM-211-174-N.jpg","img/neutralC/CFD-MM-319-052-N.jpg","1","1","1","1","0","1","0.443221899913624","0.474446599837393","0.494640699820593","1","1","1","1","1","1","1","1","1"
"250048","img/neutralC/CFD-MM-319-052-N.jpg","img/neutralC/CFD-LF-236-221-N.jpg","img/neutralC/CFD-IF-672-305-N.jpg","1","1","1","1","1","0","0.494640699820593","0.443221899913624","0.545941199874505","1","1","1","1","1","1","1","1","1"
"250048","img/neutralC/CFD-IF-672-305-N.jpg","img/neutralC/CFD-MM-319-052-N.jpg","img/neutralC/CFD-BF-201-080-N.jpg","1","1","1","0","1","1","0.545941199874505","0.494640699820593","0.449224699987099","1","1","1","1","1","1","1","1","1"
"250048","img/neutralC/CFD-BF-201-080-N.jpg","img/neutralC/CFD-IF-672-305-N.jpg","img/neutralC/CFD-WM-002-009-N.jpg","1","1","1","1","0","0","0.449224699987099","0.545941199874505","0.541561200050637","1","1","1","1","1","1","1","1","1"
"250048","img/neutralC/CFD-WM-002-009-N.jpg","img/neutralC/CFD-BF-201-080-N.jpg","img/neutralC/CFD-BF-255-140-N.jpg","1","1","1","0","1","1","0.541561200050637","0.449224699987099","0.384733899962157","1","1","1","1","1","1","1","1","1"
"250048","img/neutralC/CFD-BF-255-140-N.jpg","img/neutralC/CFD-WM-002-009-N.jpg","img/neutralC/CFD-BM-029-024-N.jpg","1","1","1","1","0","1","0.384733899962157","0.541561200050637","0.351163899991661","1","1","1","1","1","1","1","1","1"
"250048","img/neutralC/CFD-BM-029-024-N.jpg","img/neutralC/CFD-BF-255-140-N.jpg","img/neutralC/CFD-AM-217-085-N.jpg","1","1","1","1","1","0","0.351163899991661","0.384733899962157","0.536218099994585","1","1","1","1","1","1","1","1","1"
"250048","img/neutralC/CFD-AM-217-085-N.jpg","img/neutralC/CFD-BM-029-024-N.jpg","img/neutralC/CFD-IM-639-263-N.jpg","1","1","1","0","1","1","0.536218099994585","0.351163899991661","0.670147299999371","1","1","1","1","1","1","1","1","1"
"250048","img/neutralC/CFD-IM-639-263-N.jpg","img/neutralC/CFD-AM-217-085-N.jpg","img/neutralC/CFD-BM-247-240-N.jpg","1","1","0","1","0","0","0.670147299999371","0.536218099994585","0.352952599991113","1","1","1","1","1","1","1","1","1"
"250048","img/neutralC/CFD-BM-247-240-N.jpg","img/neutralC/CFD-IM-639-263-N.jpg","img/neutralC/CFD-WM-257-161-N.jpg","0","1","1","0","1","1","0.352952599991113","0.670147299999371","0.530265999957919","1","1","1","1","1","1","1","1","1"
"250048","img/neutralC/CFD-WM-257-161-N.jpg","img/neutralC/CFD-BM-247-240-N.jpg","img/neutralC/CFD-WM-225-127-N.jpg","1","0","1","1","0","0","0.530265999957919","0.352952599991113","0.542581400135532","1","1","1","1","1","1","1","1","1"
"250048","img/neutralC/CFD-WM-225-127-N.jpg","img/neutralC/CFD-WM-257-161-N.jpg","img/neutralC/CFD-WF-002-004-N.jpg","1","1","1","0","1","0","0.542581400135532","0.530265999957919","0.583466800162569","1","1","1","1","1","1","1","1","1"
"250048","img/neutralC/CFD-WF-002-004-N.jpg","img/neutralC/CFD-WM-225-127-N.jpg","img/neutralC/CFD-AM-215-120-N.jpg","1","1","1","0","0","1","0.583466800162569","0.542581400135532","0.492023300146684","1","1","1","1","1","1","1","1","1"
"250048","img/neutralC/CFD-AM-215-120-N.jpg","img/neutralC/CFD-WF-002-004-N.jpg","img/neutralC/CFD-BF-003-003-N.jpg","1","1","1","1","0","0","0.492023300146684","0.583466800162569","0.525445600040257","1","1","1","1","1","1","1","1","1"
"250048","img/neutralC/CFD-BF-003-003-N.jpg","img/neutralC/CFD-AM-215-120-N.jpg","img/neutralC/CFD-AM-235-241-N.jpg","1","1","1","0","1","0","0.525445600040257","0.492023300146684","0.522035700036213","1","1","1","1","1","1","1","1","1"
"250048","img/neutralC/CFD-AM-235-241-N.jpg","img/neutralC/CFD-BF-003-003-N.jpg","img/neutralC/CFD-WM-038-003-N.jpg","1","1","1","0","0","0","0.522035700036213","0.525445600040257","0.516581499949098","1","1","1","1","1","1","1","1","1"
"250048","img/neutralC/CFD-WM-038-003-N.jpg","img/neutralC/CFD-AM-235-241-N.jpg",NA,"1","1",NA,"0","0",NA,"0.516581499949098","0.522035700036213",NA,"1","1",NA,"1","1",NA,"1","1",NA
"250048","img/neutralC/CFD-BF-226-119-N.jpg",NA,"img/neutralC/CFD-WF-200-099-N.jpg","1",NA,"1","1",NA,"0","0.450313100125641",NA,"0.521542999893427","1",NA,"1","1",NA,"1","1",NA,"1"
"250048","img/neutralC/CFD-WF-200-099-N.jpg","img/neutralC/CFD-BF-226-119-N.jpg","img/neutralC/CFD-BF-038-037-N.jpg","1","1","1","0","1","1","0.521542999893427","0.450313100125641","0.391581900184974","1","1","1","1","1","1","1","1","1"
"250048","img/neutralC/CFD-BF-038-037-N.jpg","img/neutralC/CFD-WF-200-099-N.jpg","img/neutralC/CFD-IM-671-601-N.jpg","1","1","0","1","0","0","0.391581900184974","0.521542999893427","0.386333300033584","1","1","1","1","1","1","1","1","1"
"250048","img/neutralC/CFD-IM-671-601-N.jpg","img/neutralC/CFD-BF-038-037-N.jpg","img/neutralC/CFD-IF-650-315-N.jpg","0","1","1","0","1","0","0.386333300033584","0.391581900184974","0.57888159994036","1","1","1","1","1","1","1","1","1"
"250048","img/neutralC/CFD-IF-650-315-N.jpg","img/neutralC/CFD-IM-671-601-N.jpg","img/neutralC/CFD-LM-237-264-N.jpg","1","0","1","0","0","0","0.57888159994036","0.386333300033584","0.536942900158465","1","1","1","1","1","1","1","1","1"
"250048","img/neutralC/CFD-LM-237-264-N.jpg","img/neutralC/CFD-IF-650-315-N.jpg","img/neutralC/CFD-WM-004-010-N.jpg","1","1","1","0","0","0","0.536942900158465","0.57888159994036","0.559597900137305","1","1","1","1","1","1","1","1","1"
"250048","img/neutralC/CFD-WM-004-010-N.jpg","img/neutralC/CFD-LM-237-264-N.jpg","img/neutralC/CFD-WF-036-023-N.jpg","1","1","1","0","0","0","0.559597900137305","0.536942900158465","0.430201400071383","1","1","1","1","1","1","1","1","1"
"250048","img/neutralC/CFD-WF-036-023-N.jpg","img/neutralC/CFD-WM-004-010-N.jpg","img/neutralC/CFD-WF-001-003-N.jpg","1","1","1","0","0","1","0.430201400071383","0.559597900137305","0.403651700122282","1","1","1","1","1","1","1","1","1"
"250048","img/neutralC/CFD-WF-001-003-N.jpg","img/neutralC/CFD-WF-036-023-N.jpg","img/neutralC/CFD-WM-219-008-N.jpg","1","1","1","1","0","0","0.403651700122282","0.430201400071383","0.431963900104165","1","1","1","1","1","1","1","1","1"
"250048","img/neutralC/CFD-WM-219-008-N.jpg","img/neutralC/CFD-WF-001-003-N.jpg","img/neutralC/CFD-BF-232-187-N.jpg","1","1","1","0","1","1","0.431963900104165","0.403651700122282","0.381277400068939","1","1","1","1","1","1","1","1","1"
"250048","img/neutralC/CFD-BF-232-187-N.jpg","img/neutralC/CFD-WM-219-008-N.jpg","img/neutralC/CFD-MF-359-019-N.jpg","1","1","0","1","0","0","0.381277400068939","0.431963900104165","0.350353499874473","1","1","1","1","1","1","1","1","1"
"250048","img/neutralC/CFD-MF-359-019-N.jpg","img/neutralC/CFD-BF-232-187-N.jpg","img/neutralC/CFD-IM-645-001-N.jpg","0","1","1","0","1","0","0.350353499874473","0.381277400068939","0.534159100148827","1","1","1","1","1","1","1","1","1"
"250048","img/neutralC/CFD-IM-645-001-N.jpg","img/neutralC/CFD-MF-359-019-N.jpg","img/neutralC/CFD-WF-214-122-N.jpg","1","0","1","0","0","1","0.534159100148827","0.350353499874473","0.371372800087556","1","1","1","1","1","1","1","1","1"
"250048","img/neutralC/CFD-WF-214-122-N.jpg","img/neutralC/CFD-IM-645-001-N.jpg","img/neutralC/CFD-LM-228-188-N.jpg","1","1","1","1","0","1","0.371372800087556","0.534159100148827","0.365910999942571","1","1","1","1","1","1","1","1","1"
"250048","img/neutralC/CFD-LM-228-188-N.jpg","img/neutralC/CFD-WF-214-122-N.jpg","img/neutralC/CFD-AM-211-052-N.jpg","1","1","1","1","1","1","0.365910999942571","0.371372800087556","0.430398599943146","1","1","1","1","1","1","1","1","1"
"250048","img/neutralC/CFD-AM-211-052-N.jpg","img/neutralC/CFD-LM-228-188-N.jpg","img/neutralC/CFD-LF-218-072-N.jpg","1","1","1","1","1","0","0.430398599943146","0.365910999942571","0.339766099816188","1","1","1","1","1","1","1","1","1"
"250048","img/neutralC/CFD-LF-218-072-N.jpg","img/neutralC/CFD-AM-211-052-N.jpg","img/neutralC/CFD-AM-251-124-N.jpg","1","1","1","0","1","0","0.339766099816188","0.430398599943146","0.369701999938115","1","1","1","1","1","1","1","1","1"
"250048","img/neutralC/CFD-AM-251-124-N.jpg","img/neutralC/CFD-LF-218-072-N.jpg","img/neutralC/CFD-WM-020-001-N.jpg","1","1","1","0","0","1","0.369701999938115","0.339766099816188","0.391306000063196","1","1","1","1","1","1","1","1","1"
"250048","img/neutralC/CFD-WM-020-001-N.jpg","img/neutralC/CFD-AM-251-124-N.jpg","img/neutralC/CFD-IF-623-129-N.jpg","1","1","1","1","0","1","0.391306000063196","0.369701999938115","0.382611700100824","1","1","1","1","1","1","1","1","1"
"250048","img/neutralC/CFD-IF-623-129-N.jpg","img/neutralC/CFD-WM-020-001-N.jpg","img/neutralC/CFD-WM-235-147-N.jpg","1","1","1","1","1","0","0.382611700100824","0.391306000063196","0.546038300031796","1","1","1","1","1","1","1","1","1"
"250048","img/neutralC/CFD-WM-235-147-N.jpg","img/neutralC/CFD-IF-623-129-N.jpg","img/neutralC/CFD-BM-253-004-N.jpg","1","1","1","0","1","1","0.546038300031796","0.382611700100824","0.408231399953365","1","1","1","1","1","1","1","1","1"
"250048","img/neutralC/CFD-BM-253-004-N.jpg","img/neutralC/CFD-WM-235-147-N.jpg","img/neutralC/CFD-IM-616-214-N.jpg","1","1","1","1","0","0","0.408231399953365","0.546038300031796","0.512423499953002","1","1","1","1","1","1","1","1","1"
"250048","img/neutralC/CFD-IM-616-214-N.jpg","img/neutralC/CFD-BM-253-004-N.jpg","img/neutralC/CFD-AM-242-176-N.jpg","1","1","1","0","1","1","0.512423499953002","0.408231399953365","0.390473800012842","1","1","1","1","1","1","1","1","1"
"250048","img/neutralC/CFD-AM-242-176-N.jpg","img/neutralC/CFD-IM-616-214-N.jpg","img/neutralC/CFD-IM-743-006-N.jpg","1","1","1","1","0","1","0.390473800012842","0.512423499953002","0.377419900149107","1","1","1","1","1","1","1","1","1"
"250048","img/neutralC/CFD-IM-743-006-N.jpg","img/neutralC/CFD-AM-242-176-N.jpg","img/neutralC/CFD-MF-333-012-N.jpg","1","1","1","1","1","0","0.377419900149107","0.390473800012842","0.599591600010172","1","1","1","1","1","1","1","1","1"
"250048","img/neutralC/CFD-MF-333-012-N.jpg","img/neutralC/CFD-IM-743-006-N.jpg","img/neutralC/CFD-MF-352-054-N.jpg","1","1","1","0","1","0","0.599591600010172","0.377419900149107","0.637427899986506","1","1","1","1","1","1","1","1","1"
"250048","img/neutralC/CFD-MF-352-054-N.jpg","img/neutralC/CFD-MF-333-012-N.jpg","img/neutralC/CFD-IM-703-182-N.jpg","1","1","1","0","0","1","0.637427899986506","0.599591600010172","0.429185000015423","1","1","1","1","1","1","1","1","1"
"250048","img/neutralC/CFD-IM-703-182-N.jpg","img/neutralC/CFD-MF-352-054-N.jpg","img/neutralC/CFD-BF-229-179-N.jpg","1","1","0","1","0","0","0.429185000015423","0.637427899986506","0.463569500017911","1","1","1","1","1","1","1","1","1"
"250048","img/neutralC/CFD-BF-229-179-N.jpg","img/neutralC/CFD-IM-703-182-N.jpg","img/neutralC/CFD-BM-225-154-N.jpg","0","1","1","0","1","1","0.463569500017911","0.429185000015423","0.457715700147673","1","1","1","1","1","1","1","1","1"
"250048","img/neutralC/CFD-BM-225-154-N.jpg","img/neutralC/CFD-BF-229-179-N.jpg","img/neutralC/CFD-LF-220-120-N.jpg","1","0","1","1","0","1","0.457715700147673","0.463569500017911","0.393272100016475","1","1","1","1","1","1","1","1","1"
"250048","img/neutralC/CFD-LF-220-120-N.jpg","img/neutralC/CFD-BM-225-154-N.jpg","img/neutralC/CFD-WM-033-025-N.jpg","1","1","1","1","1","1","0.393272100016475","0.457715700147673","0.432339300168678","1","1","1","1","1","1","1","1","1"
"250048","img/neutralC/CFD-WM-033-025-N.jpg","img/neutralC/CFD-LF-220-120-N.jpg",NA,"1","1",NA,"1","1",NA,"0.432339300168678","0.393272100016475",NA,"1","1",NA,"1","1",NA,"1","1",NA
"250048","img/neutralC/CFD-AF-215-70-N.jpg",NA,"img/neutralC/CFD-IM-604-014-N.jpg","0",NA,"1","0",NA,"0","0.495548299979419",NA,"0.533671800047159","1",NA,"1","1",NA,"1","2",NA,"1"
"250048","img/neutralC/CFD-IM-604-014-N.jpg","img/neutralC/CFD-AF-215-70-N.jpg","img/neutralC/CFD-MF-329-001-N.jpg","1","0","0","0","0","0","0.533671800047159","0.495548299979419","0.458897299831733","1","1","1","1","1","1","1","2","2"
"250048","img/neutralC/CFD-MF-329-001-N.jpg","img/neutralC/CFD-IM-604-014-N.jpg","img/neutralC/CFD-WF-248-129-N.jpg","0","1","1","0","0","0","0.458897299831733","0.533671800047159","0.560381900053471","1","1","1","1","1","1","2","1","1"
"250048","img/neutralC/CFD-WF-248-129-N.jpg","img/neutralC/CFD-MF-329-001-N.jpg","img/neutralC/CFD-AF-229-160-N.jpg","1","0","1","0","0","0","0.560381900053471","0.458897299831733","0.556139100110158","1","1","1","1","1","1","1","2","1"
"250048","img/neutralC/CFD-AF-229-160-N.jpg","img/neutralC/CFD-WF-248-129-N.jpg","img/neutralC/CFD-BF-051-035-N.jpg","1","1","0","0","0","0","0.556139100110158","0.560381900053471","0.459778600139543","1","1","1","1","1","1","1","1","1"
"250048","img/neutralC/CFD-BF-051-035-N.jpg","img/neutralC/CFD-AF-229-160-N.jpg","img/neutralC/CFD-AF-254-167-N.jpg","0","1","1","0","0","1","0.459778600139543","0.556139100110158","0.376796400174499","1","1","1","1","1","1","1","1","1"
"250048","img/neutralC/CFD-AF-254-167-N.jpg","img/neutralC/CFD-BF-051-035-N.jpg","img/neutralC/CFD-LF-201-035-N.jpg","1","0","1","1","0","1","0.376796400174499","0.459778600139543","0.410123799927533","1","1","1","1","1","1","1","1","1"
"250048","img/neutralC/CFD-LF-201-035-N.jpg","img/neutralC/CFD-AF-254-167-N.jpg","img/neutralC/CFD-MF-300-002-N.jpg","1","1","0","1","1","0","0.410123799927533","0.376796400174499","0.356034400174394","1","1","1","1","1","1","1","1","1"
"250048","img/neutralC/CFD-MF-300-002-N.jpg","img/neutralC/CFD-LF-201-035-N.jpg","img/neutralC/CFD-WF-012-002-N.jpg","0","1","1","0","1","1","0.356034400174394","0.410123799927533","0.41352179995738","1","1","1","1","1","1","1","1","1"
"250048","img/neutralC/CFD-WF-012-002-N.jpg","img/neutralC/CFD-MF-300-002-N.jpg","img/neutralC/CFD-IF-619-197-N.jpg","1","0","1","1","0","0","0.41352179995738","0.356034400174394","0.50459529994987","1","1","1","1","1","1","1","1","1"
"250048","img/neutralC/CFD-IF-619-197-N.jpg","img/neutralC/CFD-WF-012-002-N.jpg","img/neutralC/CFD-LM-217-162-N.jpg","1","1","1","0","1","0","0.50459529994987","0.41352179995738","0.559294399805367","1","1","1","1","1","1","1","1","1"
"250048","img/neutralC/CFD-LM-217-162-N.jpg","img/neutralC/CFD-IF-619-197-N.jpg","img/neutralC/CFD-LF-226-174-N.jpg","1","1","1","0","0","0","0.559294399805367","0.50459529994987","0.541062799980864","1","1","1","1","1","1","1","1","1"
"250048","img/neutralC/CFD-LF-226-174-N.jpg","img/neutralC/CFD-LM-217-162-N.jpg","img/neutralC/CFD-WF-008-002-N.jpg","1","1","1","0","0","1","0.541062799980864","0.559294399805367","0.361916499910876","1","1","1","1","1","1","1","1","1"
"250048","img/neutralC/CFD-WF-008-002-N.jpg","img/neutralC/CFD-LF-226-174-N.jpg","img/neutralC/CFD-MF-327-002-N.jpg","1","1","1","1","0","0","0.361916499910876","0.541062799980864","0.540472699794918","1","1","1","1","1","1","1","1","1"
"250048","img/neutralC/CFD-MF-327-002-N.jpg","img/neutralC/CFD-WF-008-002-N.jpg","img/neutralC/CFD-BF-043-003-N.jpg","1","1","1","0","1","0","0.540472699794918","0.361916499910876","0.55508379987441","1","1","1","1","1","1","1","1","1"
"250048","img/neutralC/CFD-BF-043-003-N.jpg","img/neutralC/CFD-MF-327-002-N.jpg","img/neutralC/CFD-IM-675-015-N.jpg","1","1","1","0","0","1","0.55508379987441","0.540472699794918","0.494521400192752","1","1","1","1","1","1","1","1","1"
"250048","img/neutralC/CFD-IM-675-015-N.jpg","img/neutralC/CFD-BF-043-003-N.jpg","img/neutralC/CFD-WM-232-070-N.jpg","1","1","0","1","0","0","0.494521400192752","0.55508379987441","0.36186939990148","1","1","1","1","1","1","1","1","1"
"250048","img/neutralC/CFD-WM-232-070-N.jpg","img/neutralC/CFD-IM-675-015-N.jpg","img/neutralC/CFD-MF-340-026-N.jpg","0","1","1","0","1","1","0.36186939990148","0.494521400192752","0.411940700141713","1","1","1","1","1","1","1","1","1"
"250048","img/neutralC/CFD-MF-340-026-N.jpg","img/neutralC/CFD-WM-232-070-N.jpg","img/neutralC/CFD-WM-024-015-N.jpg","1","0","1","1","0","1","0.411940700141713","0.36186939990148","0.416841199854389","1","1","1","1","1","1","1","1","1"
"250048","img/neutralC/CFD-WM-024-015-N.jpg","img/neutralC/CFD-MF-340-026-N.jpg","img/neutralC/CFD-IM-637-007-N.jpg","1","1","1","1","1","0","0.416841199854389","0.411940700141713","0.601033299928531","1","1","1","1","1","1","1","1","1"
"250048","img/neutralC/CFD-IM-637-007-N.jpg","img/neutralC/CFD-WM-024-015-N.jpg","img/neutralC/CFD-WM-213-076-N.jpg","1","1","1","0","1","1","0.601033299928531","0.416841199854389","0.492098700022325","1","1","1","1","1","1","1","1","1"
"250048","img/neutralC/CFD-WM-213-076-N.jpg","img/neutralC/CFD-IM-637-007-N.jpg","img/neutralC/CFD-AM-236-090-N.jpg","1","1","1","1","0","1","0.492098700022325","0.601033299928531","0.34643859998323","1","1","1","1","1","1","1","1","1"
"250048","img/neutralC/CFD-AM-236-090-N.jpg","img/neutralC/CFD-WM-213-076-N.jpg","img/neutralC/CFD-BF-224-002-N.jpg","1","1","1","1","1","1","0.34643859998323","0.492098700022325","0.381303299916908","1","1","1","1","1","1","1","1","1"
"250048","img/neutralC/CFD-BF-224-002-N.jpg","img/neutralC/CFD-AM-236-090-N.jpg","img/neutralC/CFD-IF-608-390-N.jpg","1","1","1","1","1","1","0.381303299916908","0.34643859998323","0.454371699830517","1","1","1","1","1","1","1","1","1"
"250048","img/neutralC/CFD-IF-608-390-N.jpg","img/neutralC/CFD-BF-224-002-N.jpg","img/neutralC/CFD-IM-685-004-N.jpg","1","1","1","1","1","1","0.454371699830517","0.381303299916908","0.46248250012286","1","1","1","1","1","1","1","1","1"
"250048","img/neutralC/CFD-IM-685-004-N.jpg","img/neutralC/CFD-IF-608-390-N.jpg","img/neutralC/CFD-WF-217-085-N.jpg","1","1","1","1","1","1","0.46248250012286","0.454371699830517","0.559491600142792","1","1","1","1","1","1","1","1","1"
"250048","img/neutralC/CFD-WF-217-085-N.jpg","img/neutralC/CFD-IM-685-004-N.jpg","img/neutralC/CFD-IM-709-103-N.jpg","1","1","1","1","1","0","0.559491600142792","0.46248250012286","0.538181200157851","1","1","1","1","1","1","1","1","1"
"250048","img/neutralC/CFD-IM-709-103-N.jpg","img/neutralC/CFD-WF-217-085-N.jpg","img/neutralC/CFD-BM-243-218-N.jpg","1","1","1","0","1","1","0.538181200157851","0.559491600142792","0.362286600051448","1","1","1","1","1","1","1","1","1"
"250048","img/neutralC/CFD-BM-243-218-N.jpg","img/neutralC/CFD-IM-709-103-N.jpg","img/neutralC/CFD-BM-039-029-N.jpg","1","1","1","1","0","1","0.362286600051448","0.538181200157851","0.437570800073445","1","1","1","1","1","1","1","1","1"
"250048","img/neutralC/CFD-BM-039-029-N.jpg","img/neutralC/CFD-BM-243-218-N.jpg","img/neutralC/CFD-MM-304-002-N.jpg","1","1","1","1","1","1","0.437570800073445","0.362286600051448","0.451073200209066","1","1","1","1","1","1","1","1","1"
"250048","img/neutralC/CFD-MM-304-002-N.jpg","img/neutralC/CFD-BM-039-029-N.jpg","img/neutralC/CFD-WF-212-050-N.jpg","1","1","1","1","1","0","0.451073200209066","0.437570800073445","0.487322299974039","1","1","1","1","1","1","1","1","1"
"250048","img/neutralC/CFD-WF-212-050-N.jpg","img/neutralC/CFD-MM-304-002-N.jpg",NA,"1","1",NA,"0","1",NA,"0.487322299974039","0.451073200209066",NA,"1","1",NA,"1","1",NA,"1","1",NA
"250048","img/neutralC/CFD-BF-018-039-N.jpg",NA,"img/neutralC/CFD-IM-719-221-N.jpg","1",NA,"1","1",NA,"0","0.662075900007039",NA,"0.497884499840438","1",NA,"1","1",NA,"1","1",NA,"1"
"250048","img/neutralC/CFD-IM-719-221-N.jpg","img/neutralC/CFD-BF-018-039-N.jpg","img/neutralC/CFD-AF-221-147-N.jpg","1","1","1","0","1","0","0.497884499840438","0.662075900007039","0.520755599951372","1","1","1","1","1","1","1","1","1"
"250048","img/neutralC/CFD-AF-221-147-N.jpg","img/neutralC/CFD-IM-719-221-N.jpg","img/neutralC/CFD-MF-342-022-N.jpg","1","1","1","0","0","1","0.520755599951372","0.497884499840438","0.475661400007084","1","1","1","1","1","1","1","1","1"
"250048","img/neutralC/CFD-MF-342-022-N.jpg","img/neutralC/CFD-AF-221-147-N.jpg","img/neutralC/CFD-WM-009-002-N.jpg","1","1","1","1","0","0","0.475661400007084","0.520755599951372","0.545776800019667","1","1","1","1","1","1","1","1","1"
"250048","img/neutralC/CFD-WM-009-002-N.jpg","img/neutralC/CFD-MF-342-022-N.jpg","img/neutralC/CFD-WM-201-063-N.jpg","1","1","1","0","1","1","0.545776800019667","0.475661400007084","0.462262399960309","1","1","1","1","1","1","1","1","1"
"250048","img/neutralC/CFD-WM-201-063-N.jpg","img/neutralC/CFD-WM-009-002-N.jpg","img/neutralC/CFD-WM-221-091-N.jpg","1","1","0","1","0","0","0.462262399960309","0.545776800019667","0.438107300084084","1","1","1","1","1","1","1","1","1"
"250048","img/neutralC/CFD-WM-221-091-N.jpg","img/neutralC/CFD-WM-201-063-N.jpg","img/neutralC/CFD-WM-013-001-N.jpg","0","1","1","0","1","1","0.438107300084084","0.462262399960309","0.756989700021222","1","1","1","1","1","1","1","1","1"
"250048","img/neutralC/CFD-WM-013-001-N.jpg","img/neutralC/CFD-WM-221-091-N.jpg","img/neutralC/CFD-LF-211-003-N.jpg","1","0","1","1","0","0","0.756989700021222","0.438107300084084","0.569737800164148","1","1","1","1","1","1","1","1","1"
"250048","img/neutralC/CFD-LF-211-003-N.jpg","img/neutralC/CFD-WM-013-001-N.jpg","img/neutralC/CFD-BM-204-003-N.jpg","1","1","1","0","1","0","0.569737800164148","0.756989700021222","0.552978999912739","1","1","1","1","1","1","1","1","1"
"250048","img/neutralC/CFD-BM-204-003-N.jpg","img/neutralC/CFD-LF-211-003-N.jpg","img/neutralC/CFD-AM-244-222-N.jpg","1","1","1","0","0","0","0.552978999912739","0.569737800164148","0.518062400165945","1","1","1","1","1","1","1","1","1"
"250048","img/neutralC/CFD-AM-244-222-N.jpg","img/neutralC/CFD-BM-204-003-N.jpg","img/neutralC/CFD-IM-627-178-N.jpg","1","1","1","0","0","1","0.518062400165945","0.552978999912739","0.416473000077531","1","1","1","1","1","1","1","1","1"
"250048","img/neutralC/CFD-IM-627-178-N.jpg","img/neutralC/CFD-AM-244-222-N.jpg","img/neutralC/CFD-LM-253-075-N.jpg","1","1","1","1","0","0","0.416473000077531","0.518062400165945","0.535019699949771","1","1","1","1","1","1","1","1","1"
"250048","img/neutralC/CFD-LM-253-075-N.jpg","img/neutralC/CFD-IM-627-178-N.jpg","img/neutralC/CFD-WF-238-023-N.jpg","1","1","1","0","1","0","0.535019699949771","0.416473000077531","0.589135800022632","1","1","1","1","1","1","1","1","1"
"250048","img/neutralC/CFD-WF-238-023-N.jpg","img/neutralC/CFD-LM-253-075-N.jpg","img/neutralC/CFD-AF-232-078-N.jpg","1","1","1","0","0","1","0.589135800022632","0.535019699949771","0.584173699840903","1","1","1","1","1","1","1","1","1"
"250048","img/neutralC/CFD-AF-232-078-N.jpg","img/neutralC/CFD-WF-238-023-N.jpg","img/neutralC/CFD-WM-255-219-N.jpg","1","1","1","1","0","0","0.584173699840903","0.589135800022632","0.585193499922752","1","1","1","1","1","1","1","1","1"
"250048","img/neutralC/CFD-WM-255-219-N.jpg","img/neutralC/CFD-AF-232-078-N.jpg","img/neutralC/CFD-IM-700-009-N.jpg","1","1","1","0","1","1","0.585193499922752","0.584173699840903","0.458700800081715","1","1","1","1","1","1","1","1","1"
"250048","img/neutralC/CFD-IM-700-009-N.jpg","img/neutralC/CFD-WM-255-219-N.jpg","img/neutralC/CFD-BF-254-201-N.jpg","1","1","1","1","0","0","0.458700800081715","0.585193499922752","0.535812000045553","1","1","1","1","1","1","1","1","1"
"250048","img/neutralC/CFD-BF-254-201-N.jpg","img/neutralC/CFD-IM-700-009-N.jpg","img/neutralC/CFD-BM-023-029-N.jpg","1","1","1","0","1","1","0.535812000045553","0.458700800081715","0.473484499845654","1","1","1","1","1","1","1","1","1"
"250048","img/neutralC/CFD-BM-023-029-N.jpg","img/neutralC/CFD-BF-254-201-N.jpg","img/neutralC/CFD-WF-023-003-N.jpg","1","1","1","1","0","1","0.473484499845654","0.535812000045553","0.398461599834263","1","1","1","1","1","1","1","1","1"
"250048","img/neutralC/CFD-WF-023-003-N.jpg","img/neutralC/CFD-BM-023-029-N.jpg","img/neutralC/CFD-WF-027-003-N.jpg","1","1","1","1","1","1","0.398461599834263","0.473484499845654","0.424840899882838","1","1","1","1","1","1","1","1","1"
"250048","img/neutralC/CFD-WF-027-003-N.jpg","img/neutralC/CFD-WF-023-003-N.jpg","img/neutralC/CFD-WM-237-052-N.jpg","1","1","1","1","1","1","0.424840899882838","0.398461599834263","0.417448899941519","1","1","1","1","1","1","1","1","1"
"250048","img/neutralC/CFD-WM-237-052-N.jpg","img/neutralC/CFD-WF-027-003-N.jpg","img/neutralC/CFD-MM-321-021-N.jpg","1","1","1","1","1","0","0.417448899941519","0.424840899882838","0.607975099934265","1","1","1","1","1","1","1","1","1"
"250048","img/neutralC/CFD-MM-321-021-N.jpg","img/neutralC/CFD-WM-237-052-N.jpg","img/neutralC/CFD-MF-321-003-N.jpg","1","1","1","0","1","0","0.607975099934265","0.417448899941519","0.466071099974215","1","1","1","1","1","1","1","1","1"
"250048","img/neutralC/CFD-MF-321-003-N.jpg","img/neutralC/CFD-MM-321-021-N.jpg","img/neutralC/CFD-WF-245-084-N.jpg","1","1","1","0","0","1","0.466071099974215","0.607975099934265","0.448701099958271","1","1","1","1","1","1","1","1","1"
"250048","img/neutralC/CFD-WF-245-084-N.jpg","img/neutralC/CFD-MF-321-003-N.jpg","img/neutralC/CFD-WF-226-095-N.jpg","1","1","1","1","0","1","0.448701099958271","0.466071099974215","0.478639100212604","1","1","1","1","1","1","1","1","1"
"250048","img/neutralC/CFD-WF-226-095-N.jpg","img/neutralC/CFD-WF-245-084-N.jpg","img/neutralC/CFD-LF-215-157-N.jpg","1","1","1","1","1","0","0.478639100212604","0.448701099958271","0.545838600024581","1","1","1","1","1","1","1","1","1"
"250048","img/neutralC/CFD-LF-215-157-N.jpg","img/neutralC/CFD-WF-226-095-N.jpg","img/neutralC/CFD-BM-200-046-N.jpg","1","1","1","0","1","0","0.545838600024581","0.478639100212604","0.569200300145894","1","1","1","1","1","1","1","1","1"
"250048","img/neutralC/CFD-BM-200-046-N.jpg","img/neutralC/CFD-LF-215-157-N.jpg","img/neutralC/CFD-IF-629-234-N.jpg","1","1","1","0","0","0","0.569200300145894","0.545838600024581","0.560557200107723","1","1","1","1","1","1","1","1","1"
"250048","img/neutralC/CFD-IF-629-234-N.jpg","img/neutralC/CFD-BM-200-046-N.jpg","img/neutralC/CFD-WF-018-017-N.jpg","1","1","1","0","0","1","0.560557200107723","0.569200300145894","0.504366199951619","1","1","1","1","1","1","1","1","1"
"250048","img/neutralC/CFD-WF-018-017-N.jpg","img/neutralC/CFD-IF-629-234-N.jpg","img/neutralC/CFD-BF-218-207-N.jpg","1","1","1","1","0","1","0.504366199951619","0.560557200107723","0.449772099964321","1","1","1","1","1","1","1","1","1"
"250048","img/neutralC/CFD-BF-218-207-N.jpg","img/neutralC/CFD-WF-018-017-N.jpg","img/neutralC/CFD-MF-318-022-N.jpg","1","1","1","1","1","1","0.449772099964321","0.504366199951619","0.386592000024393","1","1","1","1","1","1","1","1","1"
"250048","img/neutralC/CFD-MF-318-022-N.jpg","img/neutralC/CFD-BF-218-207-N.jpg",NA,"1","1",NA,"1","1",NA,"0.386592000024393","0.449772099964321",NA,"1","1",NA,"1","1",NA,"1","1",NA
"250048","img/neutralC/CFD-IF-626-375-N.jpg",NA,"img/neutralC/CFD-AF-253-130-N.jpg","1",NA,"1","0",NA,"1","0.639968000119552",NA,"0.452952600084245","1",NA,"1","1",NA,"1","1",NA,"1"
"250048","img/neutralC/CFD-AF-253-130-N.jpg","img/neutralC/CFD-IF-626-375-N.jpg","img/neutralC/CFD-IM-664-651-N.jpg","1","1","1","1","0","1","0.452952600084245","0.639968000119552","0.432766400044784","1","1","1","1","1","1","1","1","1"
"250048","img/neutralC/CFD-IM-664-651-N.jpg","img/neutralC/CFD-AF-253-130-N.jpg","img/neutralC/CFD-BM-250-170-N.jpg","1","1","1","1","1","1","0.432766400044784","0.452952600084245","0.36614209995605","1","1","1","1","1","1","1","1","1"
"250048","img/neutralC/CFD-BM-250-170-N.jpg","img/neutralC/CFD-IM-664-651-N.jpg","img/neutralC/CFD-IF-660-464-N.jpg","1","1","1","1","1","0","0.36614209995605","0.432766400044784","0.525613300036639","1","1","1","1","1","1","1","1","1"
"250048","img/neutralC/CFD-IF-660-464-N.jpg","img/neutralC/CFD-BM-250-170-N.jpg","img/neutralC/CFD-MF-316-001-N.jpg","1","1","1","0","1","0","0.525613300036639","0.36614209995605","0.549234099918976","1","1","1","1","1","1","1","1","1"
"250048","img/neutralC/CFD-MF-316-001-N.jpg","img/neutralC/CFD-IF-660-464-N.jpg","img/neutralC/CFD-WM-218-074-N.jpg","1","1","1","0","0","1","0.549234099918976","0.525613300036639","0.338359799934551","1","1","1","1","1","1","1","1","1"
"250048","img/neutralC/CFD-WM-218-074-N.jpg","img/neutralC/CFD-MF-316-001-N.jpg","img/neutralC/CFD-MF-305-014-N.jpg","1","1","1","1","0","1","0.338359799934551","0.549234099918976","0.423184299841523","1","1","1","1","1","1","1","1","1"
"250048","img/neutralC/CFD-MF-305-014-N.jpg","img/neutralC/CFD-WM-218-074-N.jpg","img/neutralC/CFD-WF-030-002-N.jpg","1","1","0","1","1","0","0.423184299841523","0.338359799934551","0.434981799917296","1","1","1","1","1","1","1","1","1"
"250048","img/neutralC/CFD-WF-030-002-N.jpg","img/neutralC/CFD-MF-305-014-N.jpg","img/neutralC/CFD-LF-255-088-N.jpg","0","1","1","0","1","0","0.434981799917296","0.423184299841523","0.504836200037971","1","1","1","1","1","1","1","1","1"
"250048","img/neutralC/CFD-LF-255-088-N.jpg","img/neutralC/CFD-WF-030-002-N.jpg","img/neutralC/CFD-WF-222-092-N.jpg","1","0","1","0","0","1","0.504836200037971","0.434981799917296","0.399573700036854","1","1","1","1","1","1","1","1","1"
"250048","img/neutralC/CFD-WF-222-092-N.jpg","img/neutralC/CFD-LF-255-088-N.jpg","img/neutralC/CFD-IM-702-101-N.jpg","1","1","1","1","0","1","0.399573700036854","0.504836200037971","0.446608599973843","1","1","1","1","1","1","1","1","1"
"250048","img/neutralC/CFD-IM-702-101-N.jpg","img/neutralC/CFD-WF-222-092-N.jpg","img/neutralC/CFD-MF-357-002-N.jpg","1","1","1","1","1","0","0.446608599973843","0.399573700036854","0.525660400046036","1","1","1","1","1","1","1","1","1"
"250048","img/neutralC/CFD-MF-357-002-N.jpg","img/neutralC/CFD-IM-702-101-N.jpg","img/neutralC/CFD-LM-225-130-N.jpg","1","1","1","0","1","0","0.525660400046036","0.446608599973843","0.532908400055021","1","1","1","1","1","1","1","1","1"
"250048","img/neutralC/CFD-LM-225-130-N.jpg","img/neutralC/CFD-MF-357-002-N.jpg","img/neutralC/CFD-WM-209-038-N.jpg","1","1","1","0","0","0","0.532908400055021","0.525660400046036","0.470753399888054","1","1","1","1","1","1","1","1","1"
"250048","img/neutralC/CFD-WM-209-038-N.jpg","img/neutralC/CFD-LM-225-130-N.jpg","img/neutralC/CFD-AF-233-190-N.jpg","1","1","1","0","0","0","0.470753399888054","0.532908400055021","0.577883200021461","1","1","1","1","1","1","1","1","1"
"250048","img/neutralC/CFD-AF-233-190-N.jpg","img/neutralC/CFD-WM-209-038-N.jpg","img/neutralC/CFD-BM-001-014-N.jpg","1","1","1","0","0","0","0.577883200021461","0.470753399888054","0.499446599977091","1","1","1","1","1","1","1","1","1"
"250048","img/neutralC/CFD-BM-001-014-N.jpg","img/neutralC/CFD-AF-233-190-N.jpg","img/neutralC/CFD-MF-303-013-N.jpg","1","1","1","0","0","0","0.499446599977091","0.577883200021461","0.511193299898878","1","1","1","1","1","1","1","1","1"
"250048","img/neutralC/CFD-MF-303-013-N.jpg","img/neutralC/CFD-BM-001-014-N.jpg","img/neutralC/CFD-WF-244-163-N.jpg","1","1","1","0","0","1","0.511193299898878","0.499446599977091","0.435683800140396","1","1","1","1","1","1","1","1","1"
"250048","img/neutralC/CFD-WF-244-163-N.jpg","img/neutralC/CFD-MF-303-013-N.jpg","img/neutralC/CFD-LM-200-045-N.jpg","1","1","1","1","0","1","0.435683800140396","0.511193299898878","0.418286300031468","1","1","1","1","1","1","1","1","1"
"250048","img/neutralC/CFD-LM-200-045-N.jpg","img/neutralC/CFD-WF-244-163-N.jpg","img/neutralC/CFD-IM-706-002-N.jpg","1","1","0","1","1","0","0.418286300031468","0.435683800140396","0.324652000097558","1","1","1","1","1","1","1","1","1"
"250048","img/neutralC/CFD-IM-706-002-N.jpg","img/neutralC/CFD-LM-200-045-N.jpg","img/neutralC/CFD-BF-014-002-N.jpg","0","1","1","0","1","1","0.324652000097558","0.418286300031468","0.492625999962911","1","1","1","1","1","1","1","1","1"
"250048","img/neutralC/CFD-BF-014-002-N.jpg","img/neutralC/CFD-IM-706-002-N.jpg","img/neutralC/CFD-BM-217-082-N.jpg","1","0","1","1","0","0","0.492625999962911","0.324652000097558","0.53582979994826","1","1","1","1","1","1","1","1","1"
"250048","img/neutralC/CFD-BM-217-082-N.jpg","img/neutralC/CFD-BF-014-002-N.jpg","img/neutralC/CFD-IM-667-369-N.jpg","1","1","1","0","1","0","0.53582979994826","0.492625999962911","0.513395400019363","1","1","1","1","1","1","1","1","1"
"250048","img/neutralC/CFD-IM-667-369-N.jpg","img/neutralC/CFD-BM-217-082-N.jpg","img/neutralC/CFD-IM-680-369-N.jpg","1","1","1","0","0","1","0.513395400019363","0.53582979994826","0.484967799857259","1","1","1","1","1","1","1","1","1"
"250048","img/neutralC/CFD-IM-680-369-N.jpg","img/neutralC/CFD-IM-667-369-N.jpg","img/neutralC/CFD-WM-015-002-N.jpg","1","1","1","1","0","0","0.484967799857259","0.513395400019363","0.499737999867648","1","1","1","1","1","1","1","1","1"
"250048","img/neutralC/CFD-WM-015-002-N.jpg","img/neutralC/CFD-IM-680-369-N.jpg","img/neutralC/CFD-BF-237-172-N.jpg","1","1","1","0","1","1","0.499737999867648","0.484967799857259","0.460252299904823","1","1","1","1","1","1","1","1","1"
"250048","img/neutralC/CFD-BF-237-172-N.jpg","img/neutralC/CFD-WM-015-002-N.jpg","img/neutralC/CFD-LF-206-078-N.jpg","1","1","1","1","0","1","0.460252299904823","0.499737999867648","0.406274999957532","1","1","1","1","1","1","1","1","1"
"250048","img/neutralC/CFD-LF-206-078-N.jpg","img/neutralC/CFD-BF-237-172-N.jpg","img/neutralC/CFD-AM-220-134-N.jpg","1","1","1","1","1","0","0.406274999957532","0.460252299904823","0.518522500060499","1","1","1","1","1","1","1","1","1"
"250048","img/neutralC/CFD-AM-220-134-N.jpg","img/neutralC/CFD-LF-206-078-N.jpg","img/neutralC/CFD-WF-007-001-N.jpg","1","1","1","0","1","1","0.518522500060499","0.406274999957532","0.481127900071442","1","1","1","1","1","1","1","1","1"
"250048","img/neutralC/CFD-WF-007-001-N.jpg","img/neutralC/CFD-AM-220-134-N.jpg","img/neutralC/CFD-MM-324-069-N.jpg","1","1","1","1","0","1","0.481127900071442","0.518522500060499","0.39222739986144","1","1","1","1","1","1","1","1","1"
"250048","img/neutralC/CFD-MM-324-069-N.jpg","img/neutralC/CFD-WF-007-001-N.jpg","img/neutralC/CFD-MF-343-001-N.jpg","1","1","1","1","1","1","0.39222739986144","0.481127900071442","0.38988049980253","1","1","1","1","1","1","1","1","1"
"250048","img/neutralC/CFD-MF-343-001-N.jpg","img/neutralC/CFD-MM-324-069-N.jpg",NA,"1","1",NA,"1","1",NA,"0.38988049980253","0.39222739986144",NA,"1","1",NA,"1","1",NA,"1","1",NA
"250048","img/neutralC/CFD-WM-026-001-N.jpg",NA,"img/neutralC/CFD-WM-249-239-N.jpg","1",NA,"1","1",NA,"1","0.530182299902663",NA,"0.436648499919102","1",NA,"1","1",NA,"1","1",NA,"1"
"250048","img/neutralC/CFD-WM-249-239-N.jpg","img/neutralC/CFD-WM-026-001-N.jpg","img/neutralC/CFD-WF-005-010-N.jpg","1","1","1","1","1","0","0.436648499919102","0.530182299902663","0.49759570020251","1","1","1","1","1","1","1","1","1"
"250048","img/neutralC/CFD-WF-005-010-N.jpg","img/neutralC/CFD-WM-249-239-N.jpg","img/neutralC/CFD-WF-240-083-N.jpg","1","1","1","0","1","0","0.49759570020251","0.436648499919102","0.509189700009301","1","1","1","1","1","1","1","1","1"
"250048","img/neutralC/CFD-WF-240-083-N.jpg","img/neutralC/CFD-WF-005-010-N.jpg","img/neutralC/CFD-MF-309-002-N.jpg","1","1","1","0","0","0","0.509189700009301","0.49759570020251","0.619142899988219","1","1","1","1","1","1","1","1","1"
"250048","img/neutralC/CFD-MF-309-002-N.jpg","img/neutralC/CFD-WF-240-083-N.jpg","img/neutralC/CFD-BF-202-109-N.jpg","1","1","1","0","0","1","0.619142899988219","0.509189700009301","0.410290500149131","1","1","1","1","1","1","1","1","1"
"250048","img/neutralC/CFD-BF-202-109-N.jpg","img/neutralC/CFD-MF-309-002-N.jpg","img/neutralC/CFD-AF-240-206-N.jpg","1","1","1","1","0","0","0.410290500149131","0.619142899988219","0.394469999941066","1","1","1","1","1","1","1","1","1"
"250048","img/neutralC/CFD-AF-240-206-N.jpg","img/neutralC/CFD-BF-202-109-N.jpg","img/neutralC/CFD-MM-317-061-N.jpg","1","1","1","0","1","1","0.394469999941066","0.410290500149131","0.410020699957386","1","1","1","1","1","1","1","1","1"
"250048","img/neutralC/CFD-MM-317-061-N.jpg","img/neutralC/CFD-AF-240-206-N.jpg","img/neutralC/CFD-BF-025-002-N.jpg","1","1","1","1","0","0","0.410020699957386","0.394469999941066","0.633358600083739","1","1","1","1","1","1","1","1","1"
"250048","img/neutralC/CFD-BF-025-002-N.jpg","img/neutralC/CFD-MM-317-061-N.jpg","img/neutralC/CFD-WM-006-002-N.jpg","1","1","1","0","1","0","0.633358600083739","0.410020699957386","0.393760700011626","1","1","1","1","1","1","1","1","1"
"250048","img/neutralC/CFD-WM-006-002-N.jpg","img/neutralC/CFD-BF-025-002-N.jpg","img/neutralC/CFD-AM-247-165-N.jpg","1","1","1","0","0","1","0.393760700011626","0.633358600083739","0.414443100104108","1","1","1","1","1","1","1","1","1"
"250048","img/neutralC/CFD-AM-247-165-N.jpg","img/neutralC/CFD-WM-006-002-N.jpg","img/neutralC/CFD-IM-648-337-N.jpg","1","1","1","1","0","0","0.414443100104108","0.393760700011626","0.612768500111997","1","1","1","1","1","1","1","1","1"
"250048","img/neutralC/CFD-IM-648-337-N.jpg","img/neutralC/CFD-AM-247-165-N.jpg","img/neutralC/CFD-BM-251-013-N.jpg","1","1","1","0","1","1","0.612768500111997","0.414443100104108","0.402153800008819","1","1","1","1","1","1","1","1","1"
"250048","img/neutralC/CFD-BM-251-013-N.jpg","img/neutralC/CFD-IM-648-337-N.jpg","img/neutralC/CFD-BF-228-212-N.jpg","1","1","1","1","0","0","0.402153800008819","0.612768500111997","0.495495600160211","1","1","1","1","1","1","1","1","1"
"250048","img/neutralC/CFD-BF-228-212-N.jpg","img/neutralC/CFD-BM-251-013-N.jpg","img/neutralC/CFD-WF-228-196-N.jpg","1","1","1","0","1","0","0.495495600160211","0.402153800008819","0.509431899990886","1","1","1","1","1","1","1","1","1"
"250048","img/neutralC/CFD-WF-228-196-N.jpg","img/neutralC/CFD-BF-228-212-N.jpg","img/neutralC/CFD-BF-041-001-N.jpg","1","1","0","0","0","1","0.509431899990886","0.495495600160211",NA,"1","1","0","1","1","0","1","1","0"
"250048","img/neutralC/CFD-BF-041-001-N.jpg","img/neutralC/CFD-WF-228-196-N.jpg","img/neutralC/CFD-WM-212-097-N.jpg","0","1","1","1","0","0",NA,"0.509431899990886","0.593649999937043","0","1","1","0","1","1","0","1","1"
"250048","img/neutralC/CFD-WM-212-097-N.jpg","img/neutralC/CFD-BF-041-001-N.jpg","img/neutralC/CFD-BM-248-128-N.jpg","1","0","1","0","1","0","0.593649999937043",NA,"0.466762899886817","1","0","1","1","0","1","1","0","1"
"250048","img/neutralC/CFD-BM-248-128-N.jpg","img/neutralC/CFD-WM-212-097-N.jpg","img/neutralC/CFD-WM-215-041-N.jpg","1","1","1","0","0","0","0.466762899886817","0.593649999937043","0.581118099857122","1","1","1","1","1","1","1","1","1"
"250048","img/neutralC/CFD-WM-215-041-N.jpg","img/neutralC/CFD-BM-248-128-N.jpg","img/neutralC/CFD-WM-012-001-N.jpg","1","1","1","0","0","1","0.581118099857122","0.466762899886817","0.474827699828893","1","1","1","1","1","1","1","1","1"
"250048","img/neutralC/CFD-WM-012-001-N.jpg","img/neutralC/CFD-WM-215-041-N.jpg","img/neutralC/CFD-BF-212-315-N.jpg","1","1","1","1","0","1","0.474827699828893","0.581118099857122","0.388553299941122","1","1","1","1","1","1","1","1","1"
"250048","img/neutralC/CFD-BF-212-315-N.jpg","img/neutralC/CFD-WM-012-001-N.jpg","img/neutralC/CFD-WM-019-003-N.jpg","1","1","1","1","1","1","0.388553299941122","0.474827699828893","0.498968800064176","1","1","1","1","1","1","1","1","1"
"250048","img/neutralC/CFD-WM-019-003-N.jpg","img/neutralC/CFD-BF-212-315-N.jpg","img/neutralC/CFD-IF-642-295-N.jpg","1","1","1","1","1","1","0.498968800064176","0.388553299941122","0.45389959984459","1","1","1","1","1","1","1","1","1"
"250048","img/neutralC/CFD-IF-642-295-N.jpg","img/neutralC/CFD-WM-019-003-N.jpg","img/neutralC/CFD-BM-205-001-N.jpg","1","1","1","1","1","0","0.45389959984459","0.498968800064176","0.46498110005632","1","1","1","1","1","1","1","1","1"
"250048","img/neutralC/CFD-BM-205-001-N.jpg","img/neutralC/CFD-IF-642-295-N.jpg","img/neutralC/CFD-MF-335-002-N.jpg","1","1","1","0","1","0","0.46498110005632","0.45389959984459","0.553988300031051","1","1","1","1","1","1","1","1","1"
"250048","img/neutralC/CFD-MF-335-002-N.jpg","img/neutralC/CFD-BM-205-001-N.jpg","img/neutralC/CFD-LM-214-165-N.jpg","1","1","1","0","0","1","0.553988300031051","0.46498110005632","0.435695100110024","1","1","1","1","1","1","1","1","1"
"250048","img/neutralC/CFD-LM-214-165-N.jpg","img/neutralC/CFD-MF-335-002-N.jpg","img/neutralC/CFD-LM-216-082-N.jpg","1","1","1","1","0","0","0.435695100110024","0.553988300031051","0.544435300165787","1","1","1","1","1","1","1","1","1"
"250048","img/neutralC/CFD-LM-216-082-N.jpg","img/neutralC/CFD-LM-214-165-N.jpg","img/neutralC/CFD-LM-201-057-N.jpg","1","1","1","0","1","1","0.544435300165787","0.435695100110024","0.473439499968663","1","1","1","1","1","1","1","1","1"
"250048","img/neutralC/CFD-LM-201-057-N.jpg","img/neutralC/CFD-LM-216-082-N.jpg","img/neutralC/CFD-LM-243-075-N.jpg","1","1","1","1","0","0","0.473439499968663","0.544435300165787","0.508041700115427","1","1","1","1","1","1","1","1","1"
"250048","img/neutralC/CFD-LM-243-075-N.jpg","img/neutralC/CFD-LM-201-057-N.jpg","img/neutralC/CFD-IM-646-023-N.jpg","1","1","1","0","1","1","0.508041700115427","0.473439499968663","0.398804800119251","1","1","1","1","1","1","1","1","1"
"250048","img/neutralC/CFD-IM-646-023-N.jpg","img/neutralC/CFD-LM-243-075-N.jpg","img/neutralC/CFD-WF-017-003-N.jpg","1","1","1","1","0","1","0.398804800119251","0.508041700115427","0.430206999881193","1","1","1","1","1","1","1","1","1"
"250048","img/neutralC/CFD-WF-017-003-N.jpg","img/neutralC/CFD-IM-646-023-N.jpg","img/neutralC/CFD-LM-244-068-N.jpg","1","1","1","1","1","1","0.430206999881193","0.398804800119251","0.359851599903777","1","1","1","1","1","1","1","1","1"
"250048","img/neutralC/CFD-LM-244-068-N.jpg","img/neutralC/CFD-WF-017-003-N.jpg",NA,"1","1",NA,"1","1",NA,"0.359851599903777","0.430206999881193",NA,"1","1",NA,"1","1",NA,"1","1",NA
"250048","img/neutralC/CFD-BF-213-188-N.jpg",NA,"img/neutralC/CFD-IF-693-172-N.jpg","1",NA,"0","1",NA,"0","0.437813400058076",NA,"0.461989199975506","1",NA,"1","1",NA,"1","1",NA,"2"
"250048","img/neutralC/CFD-IF-693-172-N.jpg","img/neutralC/CFD-BF-213-188-N.jpg","img/neutralC/CFD-BM-041-035-N.jpg","0","1","1","0","1","0","0.461989199975506","0.437813400058076","0.503193299984559","1","1","1","1","1","1","2","1","1"
"250048","img/neutralC/CFD-BM-041-035-N.jpg","img/neutralC/CFD-IF-693-172-N.jpg","img/neutralC/CFD-AM-201-076-N.jpg","1","0","1","0","0","1","0.503193299984559","0.461989199975506","0.41631509992294","1","1","1","1","1","1","1","2","1"
"250048","img/neutralC/CFD-AM-201-076-N.jpg","img/neutralC/CFD-BM-041-035-N.jpg","img/neutralC/CFD-WM-011-002-N.jpg","1","1","1","1","0","0","0.41631509992294","0.503193299984559","0.485815600026399","1","1","1","1","1","1","1","1","1"
"250048","img/neutralC/CFD-WM-011-002-N.jpg","img/neutralC/CFD-AM-201-076-N.jpg","img/neutralC/CFD-BF-039-031-N.jpg","1","1","1","0","1","1","0.485815600026399","0.41631509992294","0.376627099933103","1","1","1","1","1","1","1","1","1"
"250048","img/neutralC/CFD-BF-039-031-N.jpg","img/neutralC/CFD-WM-011-002-N.jpg","img/neutralC/CFD-BF-029-031-N.jpg","1","1","1","1","0","1","0.376627099933103","0.485815600026399","0.331658399896696","1","1","1","1","1","1","1","1","1"
"250048","img/neutralC/CFD-BF-029-031-N.jpg","img/neutralC/CFD-BF-039-031-N.jpg","img/neutralC/CFD-LF-224-176-N.jpg","1","1","1","1","1","0","0.331658399896696","0.376627099933103","0.459237300092354","1","1","1","1","1","1","1","1","1"
"250048","img/neutralC/CFD-LF-224-176-N.jpg","img/neutralC/CFD-BF-029-031-N.jpg","img/neutralC/CFD-BF-253-202-N.jpg","1","1","1","0","1","0","0.459237300092354","0.331658399896696","0.446359599940479","1","1","1","1","1","1","1","1","1"
"250048","img/neutralC/CFD-BF-253-202-N.jpg","img/neutralC/CFD-LF-224-176-N.jpg","img/neutralC/CFD-IF-634-382-N.jpg","1","1","1","0","0","1","0.446359599940479","0.459237300092354","0.348656499991193","1","1","1","1","1","1","1","1","1"
"250048","img/neutralC/CFD-IF-634-382-N.jpg","img/neutralC/CFD-BF-253-202-N.jpg","img/neutralC/CFD-WF-250-167-N.jpg","1","1","1","1","0","1","0.348656499991193","0.446359599940479","0.435493300203234","1","1","1","1","1","1","1","1","1"
"250048","img/neutralC/CFD-WF-250-167-N.jpg","img/neutralC/CFD-IF-634-382-N.jpg","img/neutralC/CFD-BM-033-003-N.jpg","1","1","0","1","1","0","0.435493300203234","0.348656499991193","0.407229000004008","1","1","1","1","1","1","1","1","1"
"250048","img/neutralC/CFD-BM-033-003-N.jpg","img/neutralC/CFD-WF-250-167-N.jpg","img/neutralC/CFD-WF-224-099-N.jpg","0","1","1","0","1","0","0.407229000004008","0.435493300203234","0.463480400154367","1","1","1","1","1","1","1","1","1"
"250048","img/neutralC/CFD-WF-224-099-N.jpg","img/neutralC/CFD-BM-033-003-N.jpg","img/neutralC/CFD-LF-205-100-N.jpg","1","0","1","0","0","1","0.463480400154367","0.407229000004008","0.460179799934849","1","1","1","1","1","1","1","1","1"
"250048","img/neutralC/CFD-LF-205-100-N.jpg","img/neutralC/CFD-WF-224-099-N.jpg","img/neutralC/CFD-BF-205-141-N.jpg","1","1","1","1","0","0","0.460179799934849","0.463480400154367","0.517840299988165","1","1","1","1","1","1","1","1","1"
"250048","img/neutralC/CFD-BF-205-141-N.jpg","img/neutralC/CFD-LF-205-100-N.jpg","img/neutralC/CFD-BM-239-136-N.jpg","1","1","1","0","1","1","0.517840299988165","0.460179799934849","0.387224300066009","1","1","1","1","1","1","1","1","1"
"250048","img/neutralC/CFD-BM-239-136-N.jpg","img/neutralC/CFD-BF-205-141-N.jpg","img/neutralC/CFD-LF-230-203-N.jpg","1","1","1","1","0","0","0.387224300066009","0.517840299988165","0.451516799861565","1","1","1","1","1","1","1","1","1"
"250048","img/neutralC/CFD-LF-230-203-N.jpg","img/neutralC/CFD-BM-239-136-N.jpg","img/neutralC/CFD-LM-215-247-N.jpg","1","1","1","0","1","0","0.451516799861565","0.387224300066009","0.435968500096351","1","1","1","1","1","1","1","1","1"
"250048","img/neutralC/CFD-LM-215-247-N.jpg","img/neutralC/CFD-LF-230-203-N.jpg","img/neutralC/CFD-LF-203-066-N.jpg","1","1","1","0","0","0","0.435968500096351","0.451516799861565","0.576528399949893","1","1","1","1","1","1","1","1","1"
"250048","img/neutralC/CFD-LF-203-066-N.jpg","img/neutralC/CFD-LM-215-247-N.jpg","img/neutralC/CFD-IM-651-308-N.jpg","1","1","0","0","0","0","0.576528399949893","0.435968500096351","0.376929099904373","1","1","1","1","1","1","1","1","1"
"250048","img/neutralC/CFD-IM-651-308-N.jpg","img/neutralC/CFD-LF-203-066-N.jpg","img/neutralC/CFD-LF-214-090-N.jpg","0","1","1","0","0","0","0.376929099904373","0.576528399949893","0.524745699949563","1","1","1","1","1","1","1","1","1"
"250048","img/neutralC/CFD-LF-214-090-N.jpg","img/neutralC/CFD-IM-651-308-N.jpg","img/neutralC/CFD-AM-212-050-N.jpg","1","0","1","0","0","1","0.524745699949563","0.376929099904373","0.466835699975491","1","1","1","1","1","1","1","1","1"
"250048","img/neutralC/CFD-AM-212-050-N.jpg","img/neutralC/CFD-LF-214-090-N.jpg","img/neutralC/CFD-WM-041-021-N.jpg","1","1","1","1","0","0","0.466835699975491","0.524745699949563","0.517003699904308","1","1","1","1","1","1","1","1","1"
"250048","img/neutralC/CFD-WM-041-021-N.jpg","img/neutralC/CFD-AM-212-050-N.jpg","img/neutralC/CFD-BM-019-002-N.jpg","1","1","1","0","1","0","0.517003699904308","0.466835699975491","0.522372900042683","1","1","1","1","1","1","1","1","1"
"250048","img/neutralC/CFD-BM-019-002-N.jpg","img/neutralC/CFD-WM-041-021-N.jpg","img/neutralC/CFD-WM-021-001-N.jpg","1","1","1","0","0","1","0.522372900042683","0.517003699904308","0.504271799931303","1","1","1","1","1","1","1","1","1"
"250048","img/neutralC/CFD-WM-021-001-N.jpg","img/neutralC/CFD-BM-019-002-N.jpg","img/neutralC/CFD-LM-218-183-N.jpg","1","1","1","1","0","1","0.504271799931303","0.522372900042683","0.46169100003317","1","1","1","1","1","1","1","1","1"
"250048","img/neutralC/CFD-LM-218-183-N.jpg","img/neutralC/CFD-WM-021-001-N.jpg","img/neutralC/CFD-AF-231-357-N.jpg","1","1","1","1","1","1","0.46169100003317","0.504271799931303","0.404266400029883","1","1","1","1","1","1","1","1","1"
"250048","img/neutralC/CFD-AF-231-357-N.jpg","img/neutralC/CFD-LM-218-183-N.jpg","img/neutralC/CFD-IF-710-016-N.jpg","1","1","1","1","1","0","0.404266400029883","0.46169100003317","0.61358300014399","1","1","1","1","1","1","1","1","1"
"250048","img/neutralC/CFD-IF-710-016-N.jpg","img/neutralC/CFD-AF-231-357-N.jpg","img/neutralC/CFD-IM-684-008-N.jpg","1","1","1","0","1","1","0.61358300014399","0.404266400029883","0.487511300016195","1","1","1","1","1","1","1","1","1"
"250048","img/neutralC/CFD-IM-684-008-N.jpg","img/neutralC/CFD-IF-710-016-N.jpg","img/neutralC/CFD-MM-316-156-N.jpg","1","1","1","1","0","1","0.487511300016195","0.61358300014399","0.408553099958226","1","1","1","1","1","1","1","1","1"
"250048","img/neutralC/CFD-MM-316-156-N.jpg","img/neutralC/CFD-IM-684-008-N.jpg","img/neutralC/CFD-WF-213-031-N.jpg","1","1","1","1","1","1","0.408553099958226","0.487511300016195","0.446066700154915","1","1","1","1","1","1","1","1","1"
"250048","img/neutralC/CFD-WF-213-031-N.jpg","img/neutralC/CFD-MM-316-156-N.jpg","img/neutralC/CFD-MF-337-026-N.jpg","1","1","1","1","1","1","0.446066700154915","0.408553099958226","0.356760200113058","1","1","1","1","1","1","1","1","1"
"250048","img/neutralC/CFD-MF-337-026-N.jpg","img/neutralC/CFD-WF-213-031-N.jpg",NA,"1","1",NA,"1","1",NA,"0.356760200113058","0.446066700154915",NA,"1","1",NA,"1","1",NA,"1","1",NA
"250048","img/neutralC/CFD-LF-208-127-N.jpg",NA,"img/neutralC/CFD-IM-659-359-N.jpg","1",NA,"0","0",NA,"0","0.594991900026798",NA,"0.354643600061536","1",NA,"1","1",NA,"1","1",NA,"1"
"250048","img/neutralC/CFD-IM-659-359-N.jpg","img/neutralC/CFD-LF-208-127-N.jpg","img/neutralC/CFD-BF-222-240-N.jpg","0","1","1","0","0","0","0.354643600061536","0.594991900026798","0.548016699962318","1","1","1","1","1","1","1","1","1"
"250048","img/neutralC/CFD-BF-222-240-N.jpg","img/neutralC/CFD-IM-659-359-N.jpg","img/neutralC/CFD-BM-003-003-N.jpg","1","0","1","0","0","0","0.548016699962318","0.354643600061536","0.348833699943498","1","1","1","1","1","1","1","1","1"
"250048","img/neutralC/CFD-BM-003-003-N.jpg","img/neutralC/CFD-BF-222-240-N.jpg","img/neutralC/CFD-LM-247-095-N.jpg","1","1","1","0","0","0","0.348833699943498","0.548016699962318","0.445257300045341","1","1","1","1","1","1","1","1","1"
"250048","img/neutralC/CFD-LM-247-095-N.jpg","img/neutralC/CFD-BM-003-003-N.jpg","img/neutralC/CFD-AF-239-171-N.jpg","1","1","1","0","0","1","0.445257300045341","0.348833699943498","0.385944299865514","1","1","1","1","1","1","1","1","1"
"250048","img/neutralC/CFD-AF-239-171-N.jpg","img/neutralC/CFD-LM-247-095-N.jpg","img/neutralC/CFD-MF-312-002-N.jpg","1","1","1","1","0","1","0.385944299865514","0.445257300045341","0.381454899907112","1","1","1","1","1","1","1","1","1"
"250048","img/neutralC/CFD-MF-312-002-N.jpg","img/neutralC/CFD-AF-239-171-N.jpg","img/neutralC/CFD-BF-004-014-N.jpg","1","1","1","1","1","1","0.381454899907112","0.385944299865514","0.365354900015518","1","1","1","1","1","1","1","1","1"
"250048","img/neutralC/CFD-BF-004-014-N.jpg","img/neutralC/CFD-MF-312-002-N.jpg","img/neutralC/CFD-IF-673-389-N.jpg","1","1","1","1","1","0","0.365354900015518","0.381454899907112","0.352162699913606","1","1","1","1","1","1","1","1","1"
"250048","img/neutralC/CFD-IF-673-389-N.jpg","img/neutralC/CFD-BF-004-014-N.jpg","img/neutralC/CFD-WM-228-065-N.jpg","1","1","1","0","1","0","0.352162699913606","0.365354900015518","0.416822399944067","1","1","1","1","1","1","1","1","1"
"250048","img/neutralC/CFD-WM-228-065-N.jpg","img/neutralC/CFD-IF-673-389-N.jpg","img/neutralC/CFD-WM-254-152-N.jpg","1","1","1","0","0","1","0.416822399944067","0.352162699913606","0.335658899974078","1","1","1","1","1","1","1","1","1"
"250048","img/neutralC/CFD-WM-254-152-N.jpg","img/neutralC/CFD-WM-228-065-N.jpg","img/neutralC/CFD-IM-701-312-N.jpg","1","1","1","1","0","0","0.335658899974078","0.416822399944067","0.484245199942961","1","1","1","1","1","1","1","1","1"
"250048","img/neutralC/CFD-IM-701-312-N.jpg","img/neutralC/CFD-WM-254-152-N.jpg","img/neutralC/CFD-AF-210-050-N.jpg","1","1","1","0","1","1","0.484245199942961","0.335658899974078","0.328232999891043","1","1","1","1","1","1","1","1","1"
"250048","img/neutralC/CFD-AF-210-050-N.jpg","img/neutralC/CFD-IM-701-312-N.jpg","img/neutralC/CFD-IF-625-225-N.jpg","1","1","0","1","0","0","0.328232999891043","0.484245199942961","0.351442200131714","1","1","1","1","1","1","1","1","1"
"250048","img/neutralC/CFD-IF-625-225-N.jpg","img/neutralC/CFD-AF-210-050-N.jpg","img/neutralC/CFD-BM-010-003-N.jpg","0","1","0","0","1","0","0.351442200131714","0.328232999891043","0.357819200027734","1","1","1","1","1","1","1","1","1"
"250048","img/neutralC/CFD-BM-010-003-N.jpg","img/neutralC/CFD-IF-625-225-N.jpg","img/neutralC/CFD-LF-241-188-N.jpg","0","0","1","0","0","0","0.357819200027734","0.351442200131714","0.554031300125644","1","1","1","1","1","1","1","1","1"
"250048","img/neutralC/CFD-LF-241-188-N.jpg","img/neutralC/CFD-BM-010-003-N.jpg","img/neutralC/CFD-BM-213-134-N.jpg","1","0","1","0","0","1","0.554031300125644","0.357819200027734","0.38827049988322","1","1","1","1","1","1","1","1","1"
"250048","img/neutralC/CFD-BM-213-134-N.jpg","img/neutralC/CFD-LF-241-188-N.jpg","img/neutralC/CFD-BM-013-002-N.jpg","1","1","1","1","0","1","0.38827049988322","0.554031300125644","0.358927399851382","1","1","1","1","1","1","1","1","1"
"250048","img/neutralC/CFD-BM-013-002-N.jpg","img/neutralC/CFD-BM-213-134-N.jpg","img/neutralC/CFD-BF-045-003-N.jpg","1","1","1","1","1","0","0.358927399851382","0.38827049988322","0.34639160009101","1","1","1","1","1","1","1","1","1"
"250048","img/neutralC/CFD-BF-045-003-N.jpg","img/neutralC/CFD-BM-013-002-N.jpg","img/neutralC/CFD-IM-738-191-N.jpg","1","1","1","0","1","0","0.34639160009101","0.358927399851382","0.554068400058895","1","1","1","1","1","1","1","1","1"
"250048","img/neutralC/CFD-IM-738-191-N.jpg","img/neutralC/CFD-BF-045-003-N.jpg","img/neutralC/CFD-LM-238-129-N.jpg","1","1","1","0","0","1","0.554068400058895","0.34639160009101","0.450145799899474","1","1","1","1","1","1","1","1","1"
"250048","img/neutralC/CFD-LM-238-129-N.jpg","img/neutralC/CFD-IM-738-191-N.jpg","img/neutralC/CFD-LF-210-220-N.jpg","1","1","1","1","0","1","0.450145799899474","0.554068400058895","0.402529699960724","1","1","1","1","1","1","1","1","1"
"250048","img/neutralC/CFD-LF-210-220-N.jpg","img/neutralC/CFD-LM-238-129-N.jpg","img/neutralC/CFD-WF-223-133-N.jpg","1","1","1","1","1","0","0.402529699960724","0.450145799899474","0.511646599974483","1","1","1","1","1","1","1","1","1"
"250048","img/neutralC/CFD-WF-223-133-N.jpg","img/neutralC/CFD-LF-210-220-N.jpg","img/neutralC/CFD-LF-225-164-N.jpg","1","1","1","0","1","1","0.511646599974483","0.402529699960724","0.380682899849489","1","1","1","1","1","1","1","1","1"
"250048","img/neutralC/CFD-LF-225-164-N.jpg","img/neutralC/CFD-WF-223-133-N.jpg","img/neutralC/CFD-WF-033-002-N.jpg","1","1","1","1","0","1","0.380682899849489","0.511646599974483","0.436447999905795","1","1","1","1","1","1","1","1","1"
"250048","img/neutralC/CFD-WF-033-002-N.jpg","img/neutralC/CFD-LF-225-164-N.jpg","img/neutralC/CFD-AF-227-207-N.jpg","1","1","1","1","1","1","0.436447999905795","0.380682899849489","0.417311100056395","1","1","1","1","1","1","1","1","1"
"250048","img/neutralC/CFD-AF-227-207-N.jpg","img/neutralC/CFD-WF-033-002-N.jpg","img/neutralC/CFD-IF-744-114-N.jpg","1","1","1","1","1","0","0.417311100056395","0.436447999905795","0.507609399966896","1","1","1","1","1","1","1","1","1"
"250048","img/neutralC/CFD-IF-744-114-N.jpg","img/neutralC/CFD-AF-227-207-N.jpg","img/neutralC/CFD-AM-221-184-N.jpg","1","1","1","0","1","1","0.507609399966896","0.417311100056395","0.384365399833769","1","1","1","1","1","1","1","1","1"
"250048","img/neutralC/CFD-AM-221-184-N.jpg","img/neutralC/CFD-IF-744-114-N.jpg","img/neutralC/CFD-BM-028-002-N.jpg","1","1","1","1","0","1","0.384365399833769","0.507609399966896","0.40801199991256","1","1","1","1","1","1","1","1","1"
"250048","img/neutralC/CFD-BM-028-002-N.jpg","img/neutralC/CFD-AM-221-184-N.jpg","img/neutralC/CFD-WM-202-107-N.jpg","1","1","1","1","1","1","0.40801199991256","0.384365399833769","0.417606599861756","1","1","1","1","1","1","1","1","1"
"250048","img/neutralC/CFD-WM-202-107-N.jpg","img/neutralC/CFD-BM-028-002-N.jpg","img/neutralC/CFD-MF-336-016-N.jpg","1","1","1","1","1","1","0.417606599861756","0.40801199991256","0.39184039994143","1","1","1","1","1","1","1","1","1"
"250048","img/neutralC/CFD-MF-336-016-N.jpg","img/neutralC/CFD-WM-202-107-N.jpg","img/neutralC/CFD-WF-006-002-N.jpg","1","1","1","1","1","0","0.39184039994143","0.417606599861756","0.47876810003072","1","1","1","1","1","1","1","1","1"
"250048","img/neutralC/CFD-WF-006-002-N.jpg","img/neutralC/CFD-MF-336-016-N.jpg",NA,"1","1",NA,"0","1",NA,"0.47876810003072","0.39184039994143",NA,"1","1",NA,"1","1",NA,"1","1",NA
"250048","img/neutralC/CFD-IM-707-105-N.jpg",NA,"img/neutralC/CFD-BF-027-002-N.jpg","1",NA,"1","1",NA,"1","0.465900600189343",NA,"0.372397900093347","1",NA,"1","1",NA,"1","1",NA,"1"
"250048","img/neutralC/CFD-BF-027-002-N.jpg","img/neutralC/CFD-IM-707-105-N.jpg","img/neutralC/CFD-BM-241-235-N.jpg","1","1","1","1","1","0","0.372397900093347","0.465900600189343","0.37232800014317","1","1","1","1","1","1","1","1","1"
"250048","img/neutralC/CFD-BM-241-235-N.jpg","img/neutralC/CFD-BF-027-002-N.jpg","img/neutralC/CFD-WM-014-002-N.jpg","1","1","1","0","1","0","0.37232800014317","0.372397900093347","0.304341100156307","1","1","1","1","1","1","1","1","1"
"250048","img/neutralC/CFD-WM-014-002-N.jpg","img/neutralC/CFD-BM-241-235-N.jpg","img/neutralC/CFD-IM-726-248-N.jpg","1","1","0","0","0","0","0.304341100156307","0.37232800014317","0.387032599886879","1","1","1","1","1","1","1","1","2"
"250048","img/neutralC/CFD-IM-726-248-N.jpg","img/neutralC/CFD-WM-014-002-N.jpg","img/neutralC/CFD-IF-729-393-N.jpg","0","1","1","0","0","0","0.387032599886879","0.304341100156307","0.344653500011191","1","1","1","1","1","1","2","1","1"
"250048","img/neutralC/CFD-IF-729-393-N.jpg","img/neutralC/CFD-IM-726-248-N.jpg","img/neutralC/CFD-IM-721-341-N.jpg","1","0","1","0","0","1","0.344653500011191","0.387032599886879","0.405155600048602","1","1","1","1","1","1","1","2","1"
"250048","img/neutralC/CFD-IM-721-341-N.jpg","img/neutralC/CFD-IF-729-393-N.jpg","img/neutralC/CFD-BF-036-027-N.jpg","1","1","1","1","0","0","0.405155600048602","0.344653500011191","0.329985299846157","1","1","1","1","1","1","1","1","1"
"250048","img/neutralC/CFD-BF-036-027-N.jpg","img/neutralC/CFD-IM-721-341-N.jpg","img/neutralC/CFD-WF-029-002-N.jpg","1","1","1","0","1","0","0.329985299846157","0.405155600048602","0.361801400082186","1","1","1","1","1","1","1","1","1"
"250048","img/neutralC/CFD-WF-029-002-N.jpg","img/neutralC/CFD-BF-036-027-N.jpg","img/neutralC/CFD-MF-301-024-N.jpg","1","1","0","0","0","0","0.361801400082186","0.329985299846157","0.469938799971715","1","1","1","1","1","1","1","1","2"
"250048","img/neutralC/CFD-MF-301-024-N.jpg","img/neutralC/CFD-WF-029-002-N.jpg","img/neutralC/CFD-WM-248-036-N.jpg","0","1","1","0","0","1","0.469938799971715","0.361801400082186","0.452134700026363","1","1","1","1","1","1","2","1","1"
"250048","img/neutralC/CFD-WM-248-036-N.jpg","img/neutralC/CFD-MF-301-024-N.jpg","img/neutralC/CFD-WF-233-112-N.jpg","1","0","1","1","0","1","0.452134700026363","0.469938799971715","0.412298099836335","1","1","1","1","1","1","1","2","1"
"250048","img/neutralC/CFD-WF-233-112-N.jpg","img/neutralC/CFD-WM-248-036-N.jpg","img/neutralC/CFD-IF-677-452-1-N.jpg","1","1","1","1","1","1","0.412298099836335","0.452134700026363","0.3766389999073","1","1","1","1","1","1","1","1","1"
"250048","img/neutralC/CFD-IF-677-452-1-N.jpg","img/neutralC/CFD-WF-233-112-N.jpg","img/neutralC/CFD-BF-214-308-N.jpg","1","1","1","1","1","1","0.3766389999073","0.412298099836335","0.389046099968255","1","1","1","1","1","1","1","1","1"
"250048","img/neutralC/CFD-BF-214-308-N.jpg","img/neutralC/CFD-IF-677-452-1-N.jpg","img/neutralC/CFD-WM-034-030-N.jpg","1","1","1","1","1","1","0.389046099968255","0.3766389999073","0.321436299942434","1","1","1","1","1","1","1","1","1"
"250048","img/neutralC/CFD-WM-034-030-N.jpg","img/neutralC/CFD-BF-214-308-N.jpg","img/neutralC/CFD-WF-234-086-N.jpg","1","1","1","1","1","1","0.321436299942434","0.389046099968255","0.379961100174114","1","1","1","1","1","1","1","1","1"
"250048","img/neutralC/CFD-WF-234-086-N.jpg","img/neutralC/CFD-WM-034-030-N.jpg","img/neutralC/CFD-BM-207-024-N.jpg","1","1","1","1","1","1","0.379961100174114","0.321436299942434","0.295093799941242","1","1","1","1","1","1","1","1","1"
"250048","img/neutralC/CFD-BM-207-024-N.jpg","img/neutralC/CFD-WF-234-086-N.jpg","img/neutralC/CFD-BF-011-002-N.jpg","1","1","1","1","1","1","0.295093799941242","0.379961100174114","0.410575699992478","1","1","1","1","1","1","1","1","1"
"250048","img/neutralC/CFD-BF-011-002-N.jpg","img/neutralC/CFD-BM-207-024-N.jpg","img/neutralC/CFD-BF-044-034-N.jpg","1","1","1","1","1","0","0.410575699992478","0.295093799941242","0.491407899884507","1","1","1","1","1","1","1","1","1"
"250048","img/neutralC/CFD-BF-044-034-N.jpg","img/neutralC/CFD-BF-011-002-N.jpg","img/neutralC/CFD-LF-204-133-N.jpg","1","1","1","0","1","1","0.491407899884507","0.410575699992478","0.308143599890172","1","1","1","1","1","1","1","1","1"
"250048","img/neutralC/CFD-LF-204-133-N.jpg","img/neutralC/CFD-BF-044-034-N.jpg","img/neutralC/CFD-BF-006-017-N.jpg","1","1","1","1","0","0","0.308143599890172","0.491407899884507","0.603830399923027","1","1","1","1","1","1","1","1","1"
"250048","img/neutralC/CFD-BF-006-017-N.jpg","img/neutralC/CFD-LF-204-133-N.jpg","img/neutralC/CFD-BF-247-179-N.jpg","1","1","1","0","1","0","0.603830399923027","0.308143599890172","0.388151600025594","1","1","1","1","1","1","1","1","1"
"250048","img/neutralC/CFD-BF-247-179-N.jpg","img/neutralC/CFD-BF-006-017-N.jpg","img/neutralC/CFD-IM-696-001-N.jpg","1","1","0","0","0","0","0.388151600025594","0.603830399923027","0.3383041000925","1","1","1","1","1","1","1","1","1"
"250048","img/neutralC/CFD-IM-696-001-N.jpg","img/neutralC/CFD-BF-247-179-N.jpg","img/neutralC/CFD-BM-238-242-N.jpg","0","1","1","0","0","0","0.3383041000925","0.388151600025594","0.480235100025311","1","1","1","1","1","1","1","1","1"
"250048","img/neutralC/CFD-BM-238-242-N.jpg","img/neutralC/CFD-IM-696-001-N.jpg","img/neutralC/CFD-WF-208-068-N.jpg","1","0","1","0","0","1","0.480235100025311","0.3383041000925","0.463568100007251","1","1","1","1","1","1","1","1","1"
"250048","img/neutralC/CFD-WF-208-068-N.jpg","img/neutralC/CFD-BM-238-242-N.jpg","img/neutralC/CFD-BF-207-004-N.jpg","1","1","1","1","0","1","0.463568100007251","0.480235100025311","0.336757400073111","1","1","1","1","1","1","1","1","1"
"250048","img/neutralC/CFD-BF-207-004-N.jpg","img/neutralC/CFD-WF-208-068-N.jpg","img/neutralC/CFD-BM-036-003-N.jpg","1","1","1","1","1","1","0.336757400073111","0.463568100007251","0.397298399824649","1","1","1","1","1","1","1","1","1"
"250048","img/neutralC/CFD-BM-036-003-N.jpg","img/neutralC/CFD-BF-207-004-N.jpg","img/neutralC/CFD-LM-213-061-N.jpg","1","1","1","1","1","0","0.397298399824649","0.336757400073111","0.576241000089794","1","1","1","1","1","1","1","1","1"
"250048","img/neutralC/CFD-LM-213-061-N.jpg","img/neutralC/CFD-BM-036-003-N.jpg","img/neutralC/CFD-BF-236-177-N.jpg","1","1","1","0","1","0","0.576241000089794","0.397298399824649","0.43304629996419","1","1","1","1","1","1","1","1","1"
"250048","img/neutralC/CFD-BF-236-177-N.jpg","img/neutralC/CFD-LM-213-061-N.jpg","img/neutralC/CFD-AM-230-150-N.jpg","1","1","1","0","0","0","0.43304629996419","0.576241000089794","0.471689200028777","1","1","1","1","1","1","1","1","1"
"250048","img/neutralC/CFD-AM-230-150-N.jpg","img/neutralC/CFD-BF-236-177-N.jpg","img/neutralC/CFD-BF-002-001-N.jpg","1","1","1","0","0","0","0.471689200028777","0.43304629996419","0.588675700128078","1","1","1","1","1","1","1","1","1"
"250048","img/neutralC/CFD-BF-002-001-N.jpg","img/neutralC/CFD-AM-230-150-N.jpg","img/neutralC/CFD-IF-742-103-N.jpg","1","1","1","0","0","1","0.588675700128078","0.471689200028777","0.44763349997811","1","1","1","1","1","1","1","1","1"
"250048","img/neutralC/CFD-IF-742-103-N.jpg","img/neutralC/CFD-BF-002-001-N.jpg",NA,"1","1",NA,"1","0",NA,"0.44763349997811","0.588675700128078",NA,"1","1",NA,"1","1",NA,"1","1",NA
"250048","img/neutralC/CFD-IM-678-482-N.jpg",NA,"img/neutralC/CFD-AF-205-155-N.jpg","0",NA,"1","0",NA,"0","0.411321799969301",NA,"0.441521599888802","1",NA,"1","1",NA,"1","1",NA,"1"
"250048","img/neutralC/CFD-AF-205-155-N.jpg","img/neutralC/CFD-IM-678-482-N.jpg","img/neutralC/CFD-AM-233-236-N.jpg","1","0","1","0","0","1","0.441521599888802","0.411321799969301","0.375478700036183","1","1","1","1","1","1","1","1","1"
"250048","img/neutralC/CFD-AM-233-236-N.jpg","img/neutralC/CFD-AF-205-155-N.jpg","img/neutralC/CFD-MF-302-027-N.jpg","1","1","1","1","0","0","0.375478700036183","0.441521599888802","0.494519900064915","1","1","1","1","1","1","1","1","1"
"250048","img/neutralC/CFD-MF-302-027-N.jpg","img/neutralC/CFD-AM-233-236-N.jpg","img/neutralC/CFD-BF-235-168-N.jpg","1","1","1","0","1","1","0.494519900064915","0.375478700036183","0.410703500034288","1","1","1","1","1","1","1","1","1"
"250048","img/neutralC/CFD-BF-235-168-N.jpg","img/neutralC/CFD-MF-302-027-N.jpg","img/neutralC/CFD-IF-732-260-N.jpg","1","1","0","1","0","0","0.410703500034288","0.494519900064915","0.352604900021106","1","1","1","1","1","1","1","1","1"
"250048","img/neutralC/CFD-IF-732-260-N.jpg","img/neutralC/CFD-BF-235-168-N.jpg","img/neutralC/CFD-BM-215-155-N.jpg","0","1","1","0","1","0","0.352604900021106","0.410703500034288","0.455441899830475","1","1","1","1","1","1","1","1","1"
"250048","img/neutralC/CFD-BM-215-155-N.jpg","img/neutralC/CFD-IF-732-260-N.jpg","img/neutralC/CFD-LF-239-148-N.jpg","1","0","1","0","0","0","0.455441899830475","0.352604900021106","0.35491960006766","1","1","1","1","1","1","1","1","1"
"250048","img/neutralC/CFD-LF-239-148-N.jpg","img/neutralC/CFD-BM-215-155-N.jpg","img/neutralC/CFD-IM-669-111-N.jpg","1","1","1","0","0","1","0.35491960006766","0.455441899830475","0.336341300047934","1","1","1","1","1","1","1","1","1"
"250048","img/neutralC/CFD-IM-669-111-N.jpg","img/neutralC/CFD-LF-239-148-N.jpg","img/neutralC/CFD-IM-632-097-N.jpg","1","1","1","1","0","0","0.336341300047934","0.35491960006766","0.503902799915522","1","1","1","1","1","1","1","1","1"
"250048","img/neutralC/CFD-IM-632-097-N.jpg","img/neutralC/CFD-IM-669-111-N.jpg","img/neutralC/CFD-AF-244-168-N.jpg","1","1","1","0","1","0","0.503902799915522","0.336341300047934","0.490974199958146","1","1","1","1","1","1","1","1","1"
"250048","img/neutralC/CFD-AF-244-168-N.jpg","img/neutralC/CFD-IM-632-097-N.jpg","img/neutralC/CFD-AF-246-242-N.jpg","1","1","1","0","0","0","0.490974199958146","0.503902799915522","0.455918100196868","1","1","1","1","1","1","1","1","1"
"250048","img/neutralC/CFD-AF-246-242-N.jpg","img/neutralC/CFD-AF-244-168-N.jpg","img/neutralC/CFD-WM-018-002-N.jpg","1","1","1","0","0","0","0.455918100196868","0.490974199958146","0.519943400053307","1","1","1","1","1","1","1","1","1"
"250048","img/neutralC/CFD-WM-018-002-N.jpg","img/neutralC/CFD-AF-246-242-N.jpg","img/neutralC/CFD-BF-040-003-N.jpg","1","1","1","0","0","1","0.519943400053307","0.455918100196868","0.326497300062329","1","1","1","1","1","1","1","1","1"
"250048","img/neutralC/CFD-BF-040-003-N.jpg","img/neutralC/CFD-WM-018-002-N.jpg","img/neutralC/CFD-AM-225-102-N.jpg","1","1","0","1","0","0","0.326497300062329","0.519943400053307","0.384099799906835","1","1","1","1","1","1","1","1","1"
"250048","img/neutralC/CFD-AM-225-102-N.jpg","img/neutralC/CFD-BF-040-003-N.jpg","img/neutralC/CFD-WF-210-086-N.jpg","0","1","1","0","1","0","0.384099799906835","0.326497300062329","0.451801500050351","1","1","1","1","1","1","1","1","1"
"250048","img/neutralC/CFD-WF-210-086-N.jpg","img/neutralC/CFD-AM-225-102-N.jpg","img/neutralC/CFD-MF-307-002-N.jpg","1","0","1","0","0","1","0.451801500050351","0.384099799906835","0.376388400094584","1","1","1","1","1","1","1","1","1"
"250048","img/neutralC/CFD-MF-307-002-N.jpg","img/neutralC/CFD-WF-210-086-N.jpg","img/neutralC/CFD-BF-020-002-N.jpg","1","1","1","1","0","1","0.376388400094584","0.451801500050351","0.406556400004774","1","1","1","1","1","1","1","1","1"
"250048","img/neutralC/CFD-BF-020-002-N.jpg","img/neutralC/CFD-MF-307-002-N.jpg","img/neutralC/CFD-BF-206-143-N.jpg","1","1","1","1","1","1","0.406556400004774","0.376388400094584","0.366753700189292","1","1","1","1","1","1","1","1","1"
"250048","img/neutralC/CFD-BF-206-143-N.jpg","img/neutralC/CFD-BF-020-002-N.jpg","img/neutralC/CFD-AF-213-126-N.jpg","1","1","1","1","1","1","0.366753700189292","0.406556400004774","0.350382099859416","1","1","1","1","1","1","1","1","1"
"250048","img/neutralC/CFD-AF-213-126-N.jpg","img/neutralC/CFD-BF-206-143-N.jpg","img/neutralC/CFD-BF-217-189-N.jpg","1","1","1","1","1","0","0.350382099859416","0.366753700189292","0.349156200187281","1","1","1","1","1","1","1","1","1"
"250048","img/neutralC/CFD-BF-217-189-N.jpg","img/neutralC/CFD-AF-213-126-N.jpg","img/neutralC/CFD-AM-245-111-N.jpg","1","1","1","0","1","1","0.349156200187281","0.350382099859416","0.50819669989869","1","1","1","1","1","1","1","1","1"
"250048","img/neutralC/CFD-AM-245-111-N.jpg","img/neutralC/CFD-BF-217-189-N.jpg","img/neutralC/CFD-WF-235-121-N.jpg","1","1","1","1","0","0","0.50819669989869","0.349156200187281","0.571902800118551","1","1","1","1","1","1","1","1","1"
"250048","img/neutralC/CFD-WF-235-121-N.jpg","img/neutralC/CFD-AM-245-111-N.jpg","img/neutralC/CFD-IF-636-011-N.jpg","1","1","1","0","1","1","0.571902800118551","0.50819669989869","0.347260700073093","1","1","1","1","1","1","1","1","1"
"250048","img/neutralC/CFD-IF-636-011-N.jpg","img/neutralC/CFD-WF-235-121-N.jpg","img/neutralC/CFD-WM-253-119-N.jpg","1","1","1","1","0","1","0.347260700073093","0.571902800118551","0.395273499889299","1","1","1","1","1","1","1","1","1"
"250048","img/neutralC/CFD-WM-253-119-N.jpg","img/neutralC/CFD-IF-636-011-N.jpg","img/neutralC/CFD-LM-241-125-N.jpg","1","1","1","1","1","1","0.395273499889299","0.347260700073093","0.43474579998292","1","1","1","1","1","1","1","1","1"
"250048","img/neutralC/CFD-LM-241-125-N.jpg","img/neutralC/CFD-WM-253-119-N.jpg","img/neutralC/CFD-AF-234-208-N.jpg","1","1","1","1","1","1","0.43474579998292","0.395273499889299","0.396454200148582","1","1","1","1","1","1","1","1","1"
"250048","img/neutralC/CFD-AF-234-208-N.jpg","img/neutralC/CFD-LM-241-125-N.jpg","img/neutralC/CFD-BF-042-026-N.jpg","1","1","1","1","1","1","0.396454200148582","0.43474579998292","0.415073999902233","1","1","1","1","1","1","1","1","1"
"250048","img/neutralC/CFD-BF-042-026-N.jpg","img/neutralC/CFD-AF-234-208-N.jpg","img/neutralC/CFD-IM-635-010-N.jpg","1","1","1","1","1","1","0.415073999902233","0.396454200148582","0.35468879994005","1","1","1","1","1","1","1","1","1"
"250048","img/neutralC/CFD-IM-635-010-N.jpg","img/neutralC/CFD-BF-042-026-N.jpg","img/neutralC/CFD-AF-250-200-N.jpg","1","1","1","1","1","1","0.35468879994005","0.415073999902233","0.394772599916905","1","1","1","1","1","1","1","1","1"
"250048","img/neutralC/CFD-AF-250-200-N.jpg","img/neutralC/CFD-IM-635-010-N.jpg","img/neutralC/CFD-BM-004-002-N.jpg","1","1","1","1","1","0","0.394772599916905","0.35468879994005","0.627253700047731","1","1","1","1","1","1","1","1","1"
"250048","img/neutralC/CFD-BM-004-002-N.jpg","img/neutralC/CFD-AF-250-200-N.jpg","img/neutralC/CFD-LM-204-001-N.jpg","1","1","1","0","1","0","0.627253700047731","0.394772599916905","0.590808500070125","1","1","1","1","1","1","1","1","1"
"250048","img/neutralC/CFD-LM-204-001-N.jpg","img/neutralC/CFD-BM-004-002-N.jpg",NA,"1","1",NA,"0","0",NA,"0.590808500070125","0.627253700047731",NA,"1","1",NA,"1","1",NA,"1","1",NA
"250048","img/neutralC/CFD-LF-250-169-N.jpg",NA,"img/neutralC/CFD-BM-005-003-N.jpg","1",NA,"1","1",NA,"1","0.469609499908984",NA,"0.319876500172541","1",NA,"1","1",NA,"1","1",NA,"1"
"250048","img/neutralC/CFD-BM-005-003-N.jpg","img/neutralC/CFD-LF-250-169-N.jpg","img/neutralC/CFD-BF-010-001-N.jpg","1","1","1","1","1","1","0.319876500172541","0.469609499908984","0.351666300091892","1","1","1","1","1","1","1","1","1"
"250048","img/neutralC/CFD-BF-010-001-N.jpg","img/neutralC/CFD-BM-005-003-N.jpg","img/neutralC/CFD-BM-018-001-N.jpg","1","1","1","1","1","1","0.351666300091892","0.319876500172541","0.301640199963003","1","1","1","1","1","1","1","1","1"
"250048","img/neutralC/CFD-BM-018-001-N.jpg","img/neutralC/CFD-BF-010-001-N.jpg","img/neutralC/CFD-LF-245-166-N.jpg","1","1","1","1","1","1","0.301640199963003","0.351666300091892","0.360902699874714","1","1","1","1","1","1","1","1","1"
"250048","img/neutralC/CFD-LF-245-166-N.jpg","img/neutralC/CFD-BM-018-001-N.jpg","img/neutralC/CFD-IF-620-218-N.jpg","1","1","0","1","1","0","0.360902699874714","0.301640199963003","0.396130799781531","1","1","1","1","1","1","1","1","2"
"250048","img/neutralC/CFD-IF-620-218-N.jpg","img/neutralC/CFD-LF-245-166-N.jpg","img/neutralC/CFD-AF-241-141-N.jpg","0","1","1","0","1","1","0.396130799781531","0.360902699874714","0.452299199998379","1","1","1","1","1","1","2","1","1"
"250048","img/neutralC/CFD-AF-241-141-N.jpg","img/neutralC/CFD-IF-620-218-N.jpg","img/neutralC/CFD-LM-219-295-N.jpg","1","0","1","1","0","1","0.452299199998379","0.396130799781531","0.368207999970764","1","1","1","1","1","1","1","2","1"
"250048","img/neutralC/CFD-LM-219-295-N.jpg","img/neutralC/CFD-AF-241-141-N.jpg","img/neutralC/CFD-WF-209-052-N.jpg","1","1","1","1","1","1","0.368207999970764","0.452299199998379","0.320367699954659","1","1","1","1","1","1","1","1","1"
"250048","img/neutralC/CFD-WF-209-052-N.jpg","img/neutralC/CFD-LM-219-295-N.jpg","img/neutralC/CFD-WM-227-099-N.jpg","1","1","1","1","1","1","0.320367699954659","0.368207999970764","0.421520699979737","1","1","1","1","1","1","1","1","1"
"250048","img/neutralC/CFD-WM-227-099-N.jpg","img/neutralC/CFD-WF-209-052-N.jpg","img/neutralC/CFD-LM-233-171-N.jpg","1","1","1","1","1","0","0.421520699979737","0.320367699954659","0.520691599929705","1","1","1","1","1","1","1","1","1"
"250048","img/neutralC/CFD-LM-233-171-N.jpg","img/neutralC/CFD-WM-227-099-N.jpg","img/neutralC/CFD-AF-206-079-N.jpg","1","1","1","0","1","1","0.520691599929705","0.421520699979737","0.426094100112095","1","1","1","1","1","1","1","1","1"
"250048","img/neutralC/CFD-AF-206-079-N.jpg","img/neutralC/CFD-LM-233-171-N.jpg","img/neutralC/CFD-IM-686-097-N.jpg","1","1","0","1","0","0","0.426094100112095","0.520691599929705","0.281170000089332","1","1","1","1","1","1","1","1","1"
"250048","img/neutralC/CFD-IM-686-097-N.jpg","img/neutralC/CFD-AF-206-079-N.jpg","img/neutralC/CFD-WM-258-125-N.jpg","0","1","1","0","1","0","0.281170000089332","0.426094100112095","0.4903754000552","1","1","1","1","1","1","1","1","1"
"250048","img/neutralC/CFD-WM-258-125-N.jpg","img/neutralC/CFD-IM-686-097-N.jpg","img/neutralC/CFD-BF-238-190-N.jpg","1","0","1","0","0","1","0.4903754000552","0.281170000089332","0.436586200026795","1","1","1","1","1","1","1","1","1"
"250048","img/neutralC/CFD-BF-238-190-N.jpg","img/neutralC/CFD-WM-258-125-N.jpg","img/neutralC/CFD-LM-226-175-N.jpg","1","1","1","1","0","0","0.436586200026795","0.4903754000552","0.380824899999425","1","1","1","1","1","1","1","1","1"
"250048","img/neutralC/CFD-LM-226-175-N.jpg","img/neutralC/CFD-BF-238-190-N.jpg","img/neutralC/CFD-IM-727-195-N.jpg","1","1","1","0","1","1","0.380824899999425","0.436586200026795","0.333027800079435","1","1","1","1","1","1","1","1","1"
"250048","img/neutralC/CFD-IM-727-195-N.jpg","img/neutralC/CFD-LM-226-175-N.jpg","img/neutralC/CFD-IM-653-008-N.jpg","1","1","0","1","0","0","0.333027800079435","0.380824899999425","0.406366300070658","1","1","1","1","1","1","1","1","1"
"250048","img/neutralC/CFD-IM-653-008-N.jpg","img/neutralC/CFD-IM-727-195-N.jpg","img/neutralC/CFD-IM-617-174-N.jpg","0","1","1","0","1","0","0.406366300070658","0.333027800079435","0.505695600062609","1","1","1","1","1","1","1","1","1"
"250048","img/neutralC/CFD-IM-617-174-N.jpg","img/neutralC/CFD-IM-653-008-N.jpg","img/neutralC/CFD-WM-242-011-N.jpg","1","0","1","0","0","0","0.505695600062609","0.406366300070658","0.524990400066599","1","1","1","1","1","1","1","1","1"
"250048","img/neutralC/CFD-WM-242-011-N.jpg","img/neutralC/CFD-IM-617-174-N.jpg","img/neutralC/CFD-IF-665-015-N.jpg","1","1","1","0","0","0","0.524990400066599","0.505695600062609","0.481511699967086","1","1","1","1","1","1","1","1","1"
"250048","img/neutralC/CFD-IF-665-015-N.jpg","img/neutralC/CFD-WM-242-011-N.jpg","img/neutralC/CFD-LF-242-121-N.jpg","1","1","1","0","0","0","0.481511699967086","0.524990400066599","0.516786199994385","1","1","1","1","1","1","1","1","1"
"250048","img/neutralC/CFD-LF-242-121-N.jpg","img/neutralC/CFD-IF-665-015-N.jpg","img/neutralC/CFD-IM-638-250-1-N.jpg","1","1","1","0","0","1","0.516786199994385","0.481511699967086","0.401277999859303","1","1","1","1","1","1","1","1","1"
"250048","img/neutralC/CFD-IM-638-250-1-N.jpg","img/neutralC/CFD-LF-242-121-N.jpg","img/neutralC/CFD-BM-212-117-N.jpg","1","1","0","1","0","0","0.401277999859303","0.516786199994385","0.439850499853492","1","1","1","1","1","1","1","1","1"
"250048","img/neutralC/CFD-BM-212-117-N.jpg","img/neutralC/CFD-IM-638-250-1-N.jpg","img/neutralC/CFD-MF-313-002-N.jpg","0","1","1","0","1","0","0.439850499853492","0.401277999859303","0.494277500081807","1","1","1","1","1","1","1","1","1"
"250048","img/neutralC/CFD-MF-313-002-N.jpg","img/neutralC/CFD-BM-212-117-N.jpg","img/neutralC/CFD-LF-247-051-N.jpg","1","0","1","0","0","1","0.494277500081807","0.439850499853492","0.467446099966765","1","1","1","1","1","1","1","1","1"
"250048","img/neutralC/CFD-LF-247-051-N.jpg","img/neutralC/CFD-MF-313-002-N.jpg","img/neutralC/CFD-AF-202-122-N.jpg","1","1","1","1","0","1","0.467446099966765","0.494277500081807","0.386752199847251","1","1","1","1","1","1","1","1","1"
"250048","img/neutralC/CFD-AF-202-122-N.jpg","img/neutralC/CFD-LF-247-051-N.jpg","img/neutralC/CFD-BF-033-028-N.jpg","1","1","1","1","1","0","0.386752199847251","0.467446099966765","0.544700900092721","1","1","1","1","1","1","1","1","1"
"250048","img/neutralC/CFD-BF-033-028-N.jpg","img/neutralC/CFD-AF-202-122-N.jpg","img/neutralC/CFD-BM-231-155-N.jpg","1","1","1","0","1","1","0.544700900092721","0.386752199847251","0.440059999935329","1","1","1","1","1","1","1","1","1"
"250048","img/neutralC/CFD-BM-231-155-N.jpg","img/neutralC/CFD-BF-033-028-N.jpg","img/neutralC/CFD-IM-657-308-N.jpg","1","1","0","1","0","0","0.440059999935329","0.544700900092721","0.398289200151339","1","1","1","1","1","1","1","1","1"
"250048","img/neutralC/CFD-IM-657-308-N.jpg","img/neutralC/CFD-BM-231-155-N.jpg","img/neutralC/CFD-WM-017-002-N.jpg","0","1","1","0","1","0","0.398289200151339","0.440059999935329","0.460777299944311","1","1","1","1","1","1","1","1","1"
"250048","img/neutralC/CFD-WM-017-002-N.jpg","img/neutralC/CFD-IM-657-308-N.jpg","img/neutralC/CFD-BM-026-002-N.jpg","1","0","1","0","0","0","0.460777299944311","0.398289200151339","0.55937539995648","1","1","1","1","1","1","1","1","1"
"250048","img/neutralC/CFD-BM-026-002-N.jpg","img/neutralC/CFD-WM-017-002-N.jpg",NA,"1","1",NA,"0","0",NA,"0.55937539995648","0.460777299944311",NA,"1","1",NA,"1","1",NA,"1","1",NA
"250048","img/neutralC/CFD-AM-249-163-N.jpg",NA,"img/neutralC/CFD-BM-020-001-N.jpg","1",NA,"1","1",NA,"0","0.460710099898279",NA,"0.483245800016448","1",NA,"1","1",NA,"1","1",NA,"1"
"250048","img/neutralC/CFD-BM-020-001-N.jpg","img/neutralC/CFD-AM-249-163-N.jpg","img/neutralC/CFD-WM-025-002-N.jpg","1","1","0","0","1","0","0.483245800016448","0.460710099898279","0.379589400021359","1","1","1","1","1","1","1","1","1"
"250048","img/neutralC/CFD-WM-025-002-N.jpg","img/neutralC/CFD-BM-020-001-N.jpg","img/neutralC/CFD-LF-222-147-N.jpg","0","1","1","0","0","0","0.379589400021359","0.483245800016448","0.466262799920514","1","1","1","1","1","1","1","1","1"
"250048","img/neutralC/CFD-LF-222-147-N.jpg","img/neutralC/CFD-WM-025-002-N.jpg","img/neutralC/CFD-WF-243-148-N.jpg","1","0","1","0","0","0","0.466262799920514","0.379589400021359","0.647969499928877","1","1","1","1","1","1","1","1","1"
"250048","img/neutralC/CFD-WF-243-148-N.jpg","img/neutralC/CFD-LF-222-147-N.jpg","img/neutralC/CFD-AM-219-101-N.jpg","1","1","1","0","0","0","0.647969499928877","0.466262799920514","0.473911799956113","1","1","1","1","1","1","1","1","1"
"250048","img/neutralC/CFD-AM-219-101-N.jpg","img/neutralC/CFD-WF-243-148-N.jpg","img/neutralC/CFD-LF-212-066-N.jpg","1","1","1","0","0","1","0.473911799956113","0.647969499928877","0.355780699988827","1","1","1","1","1","1","1","1","1"
"250048","img/neutralC/CFD-LF-212-066-N.jpg","img/neutralC/CFD-AM-219-101-N.jpg","img/neutralC/CFD-IM-689-263-N.jpg","1","1","1","1","0","1","0.355780699988827","0.473911799956113","0.39093009987846","1","1","1","1","1","1","1","1","1"
"250048","img/neutralC/CFD-IM-689-263-N.jpg","img/neutralC/CFD-LF-212-066-N.jpg","img/neutralC/CFD-IM-606-008-N.jpg","1","1","1","1","1","0","0.39093009987846","0.355780699988827","0.377534299856052","1","1","1","1","1","1","1","1","1"
"250048","img/neutralC/CFD-IM-606-008-N.jpg","img/neutralC/CFD-IM-689-263-N.jpg","img/neutralC/CFD-MF-328-020-N.jpg","1","1","0","0","1","0","0.377534299856052","0.39093009987846","0.328001199988648","1","1","1","1","1","1","1","1","1"
"250048","img/neutralC/CFD-MF-328-020-N.jpg","img/neutralC/CFD-IM-606-008-N.jpg","img/neutralC/CFD-AM-243-212-N.jpg","0","1","1","0","0","1","0.328001199988648","0.377534299856052","0.346874299924821","1","1","1","1","1","1","1","1","1"
"250048","img/neutralC/CFD-AM-243-212-N.jpg","img/neutralC/CFD-MF-328-020-N.jpg","img/neutralC/CFD-WF-221-005-N.jpg","1","0","1","1","0","0","0.346874299924821","0.328001199988648","0.346919900039211","1","1","1","1","1","1","1","1","1"
"250048","img/neutralC/CFD-WF-221-005-N.jpg","img/neutralC/CFD-AM-243-212-N.jpg","img/neutralC/CFD-WF-207-014-N.jpg","1","1","1","0","1","1","0.346919900039211","0.346874299924821","0.371726700104773","1","1","1","1","1","1","1","1","1"
"250048","img/neutralC/CFD-WF-207-014-N.jpg","img/neutralC/CFD-WF-221-005-N.jpg","img/neutralC/CFD-BF-012-001-N.jpg","1","1","1","1","0","0","0.371726700104773","0.346919900039211","0.468848799820989","1","1","1","1","1","1","1","1","1"
"250048","img/neutralC/CFD-BF-012-001-N.jpg","img/neutralC/CFD-WF-207-014-N.jpg","img/neutralC/CFD-IF-676-017-N.jpg","1","1","1","0","1","1","0.468848799820989","0.371726700104773","0.41946590016596","1","1","1","1","1","1","1","1","1"
"250048","img/neutralC/CFD-IF-676-017-N.jpg","img/neutralC/CFD-BF-012-001-N.jpg","img/neutralC/CFD-IM-615-167-N.jpg","1","1","1","1","0","0","0.41946590016596","0.468848799820989","0.532994800014421","1","1","1","1","1","1","1","1","1"
"250048","img/neutralC/CFD-IM-615-167-N.jpg","img/neutralC/CFD-IF-676-017-N.jpg","img/neutralC/CFD-IM-697-015-N.jpg","1","1","1","0","1","1","0.532994800014421","0.41946590016596","0.482962199952453","1","1","1","1","1","1","1","1","1"
"250048","img/neutralC/CFD-IM-697-015-N.jpg","img/neutralC/CFD-IM-615-167-N.jpg","img/neutralC/CFD-BM-227-191-N.jpg","1","1","1","1","0","1","0.482962199952453","0.532994800014421","0.381520300172269","1","1","1","1","1","1","1","1","1"
"250048","img/neutralC/CFD-BM-227-191-N.jpg","img/neutralC/CFD-IM-697-015-N.jpg","img/neutralC/CFD-AM-205-153-N.jpg","1","1","1","1","1","1","0.381520300172269","0.482962199952453","0.362431299872696","1","1","1","1","1","1","1","1","1"
"250048","img/neutralC/CFD-AM-205-153-N.jpg","img/neutralC/CFD-BM-227-191-N.jpg","img/neutralC/CFD-MM-306-010-N.jpg","1","1","0","1","1","0","0.362431299872696","0.381520300172269","0.355114199919626","1","1","1","1","1","1","1","1","1"
"250048","img/neutralC/CFD-MM-306-010-N.jpg","img/neutralC/CFD-AM-205-153-N.jpg","img/neutralC/CFD-WM-028-003-N.jpg","0","1","1","0","1","1","0.355114199919626","0.362431299872696","0.412803600076586","1","1","1","1","1","1","1","1","1"
"250048","img/neutralC/CFD-WM-028-003-N.jpg","img/neutralC/CFD-MM-306-010-N.jpg","img/neutralC/CFD-BM-043-071-N.jpg","1","0","1","1","0","0","0.412803600076586","0.355114199919626","0.481246400158852","1","1","1","1","1","1","1","1","1"
"250048","img/neutralC/CFD-BM-043-071-N.jpg","img/neutralC/CFD-WM-028-003-N.jpg","img/neutralC/CFD-WF-241-210-N.jpg","1","1","0","0","1","0","0.481246400158852","0.412803600076586","0.364223800133914","1","1","1","1","1","1","1","1","1"
"250048","img/neutralC/CFD-WF-241-210-N.jpg","img/neutralC/CFD-BM-043-071-N.jpg","img/neutralC/CFD-BM-009-002-N.jpg","0","1","1","0","0","1","0.364223800133914","0.481246400158852","0.454227899899706","1","1","1","1","1","1","1","1","1"
"250048","img/neutralC/CFD-BM-009-002-N.jpg","img/neutralC/CFD-WF-241-210-N.jpg","img/neutralC/CFD-LF-238-154-N.jpg","1","0","1","1","0","1","0.454227899899706","0.364223800133914","0.414496700046584","1","1","1","1","1","1","1","1","1"
"250048","img/neutralC/CFD-LF-238-154-N.jpg","img/neutralC/CFD-BM-009-002-N.jpg","img/neutralC/CFD-BM-030-003-N.jpg","1","1","1","1","1","0","0.414496700046584","0.454227899899706","0.481365700019524","1","1","1","1","1","1","1","1","1"
"250048","img/neutralC/CFD-BM-030-003-N.jpg","img/neutralC/CFD-LF-238-154-N.jpg","img/neutralC/CFD-BM-021-021-N.jpg","1","1","1","0","1","1","0.481365700019524","0.414496700046584","0.376495899865404","1","1","1","1","1","1","1","1","1"
"250048","img/neutralC/CFD-BM-021-021-N.jpg","img/neutralC/CFD-BM-030-003-N.jpg","img/neutralC/CFD-BF-244-231-N.jpg","1","1","1","1","0","1","0.376495899865404","0.481365700019524","0.363017300143838","1","1","1","1","1","1","1","1","1"
"250048","img/neutralC/CFD-BF-244-231-N.jpg","img/neutralC/CFD-BM-021-021-N.jpg","img/neutralC/CFD-LM-240-013-N.jpg","1","1","1","1","1","1","0.363017300143838","0.376495899865404","0.428353500086814","1","1","1","1","1","1","1","1","1"
"250048","img/neutralC/CFD-LM-240-013-N.jpg","img/neutralC/CFD-BF-244-231-N.jpg","img/neutralC/CFD-WM-023-001-N.jpg","1","1","0","1","1","0","0.428353500086814","0.363017300143838","0.424783900147304","1","1","1","1","1","1","1","1","1"
"250048","img/neutralC/CFD-WM-023-001-N.jpg","img/neutralC/CFD-LM-240-013-N.jpg","img/neutralC/CFD-WF-009-001-N.jpg","0","1","1","0","1","1","0.424783900147304","0.428353500086814","0.423270800150931","1","1","1","1","1","1","1","1","1"
"250048","img/neutralC/CFD-WF-009-001-N.jpg","img/neutralC/CFD-WM-023-001-N.jpg","img/neutralC/CFD-AF-237-223-N.jpg","1","0","1","1","0","0","0.423270800150931","0.424783900147304","0.479332400020212","1","1","1","1","1","1","1","1","1"
"250048","img/neutralC/CFD-AF-237-223-N.jpg","img/neutralC/CFD-WF-009-001-N.jpg",NA,"1","1",NA,"0","1",NA,"0.479332400020212","0.423270800150931",NA,"1","1",NA,"1","1",NA,"1","1",NA
