"participant_id","face","surpAcc","memory_surp_responses","memory_surp_rt","keep_surp_memory_trial_based_on_rt","surp_block_num","exclude_block","number_of_surp_resp_items_used","num_blocks_excluded"
"250016","img/neutralC/CFD-MF-336-016-N.jpg","1","s","2.11755139997695",1,1,0,2,0
"250016","img/neutralC/CFD-IM-743-006-N.jpg","0","s","1.86391180002829",1,1,0,2,0
"250016","img/neutralC/CFD-BF-207-004-N.jpg","1","s","2.31462710001506",1,1,0,2,0
"250016","img/neutralC/CFD-BF-202-109-N.jpg","1","s","1.78207969997311",1,1,0,2,0
"250016","img/neutralC/CFD-IM-684-008-N.jpg","1","k","1.0911189999897",1,1,0,2,0
"250016","img/neutralC/CFD-BF-014-002-N.jpg","0","s","1.84866200003307",1,1,0,2,0
"250016","img/neutralC/CFD-WF-029-002-N.jpg","1","s","2.81213689997094",1,1,0,2,0
"250016","img/neutralC/CFD-WF-207-014-N.jpg","0","s","2.10657579998951",1,1,0,2,0
"250016","img/neutralC/CFD-BF-217-189-N.jpg","0","s","2.39208270004019",1,1,0,2,0
"250016","img/neutralC/CFD-WM-225-127-N.jpg","0","k","2.95204639999429",1,1,0,2,0
"250016","img/neutralC/CFD-LF-211-003-N.jpg","0","k","2.44464050000533",1,1,0,2,0
"250016","img/neutralC/CFD-LF-203-066-N.jpg","1","s","1.97147769998992",1,1,0,2,0
"250016","img/neutralC/CFD-LF-242-121-N.jpg","0","s","4.93952870002249",1,1,0,2,0
"250016","img/neutralC/CFD-MF-328-020-N.jpg","0","s","1.43284280004445",1,1,0,2,0
"250016","img/neutralC/CFD-BM-010-003-N.jpg","1","s","1.44093580002664",1,1,0,2,0
"250016","img/neutralC/CFD-LF-239-148-N.jpg","1","s","3.20496599999024",1,1,0,2,0
"250016","img/neutralC/CFD-IM-635-010-N.jpg","1","s","0.918074399989564",1,1,0,2,0
"250016","img/neutralC/CFD-AM-236-090-N.jpg","1","s","1.08391919999849",1,1,0,2,0
"250016","img/neutralC/CFD-AM-221-184-N.jpg","0","k","1.19439449999481",1,1,0,2,0
"250016","img/neutralC/CFD-WM-249-239-N.jpg","1","k","3.92836419999367",1,1,0,2,0
"250016","img/neutralC/CFD-BF-237-172-N.jpg","1","k","1.46411160001298",1,1,0,2,0
"250016","img/neutralC/CFD-WF-027-003-N.jpg","1","k","2.59065349999582",1,1,0,2,0
"250016","img/neutralC/CFD-AF-254-167-N.jpg","1","k","2.26991869998164",1,1,0,2,0
"250016","img/neutralC/CFD-WF-005-010-N.jpg","0","s","2.44343709998066",1,1,0,2,0
"250016","img/neutralC/CFD-WF-228-196-N.jpg","0","s","1.05914369999664",1,1,0,2,0
"250016","img/neutralC/CFD-BF-236-177-N.jpg","0","s","1.36336529999971",1,1,0,2,0
"250016","img/neutralC/CFD-MF-340-026-N.jpg","1","k","1.42568350001238",1,1,0,2,0
"250016","img/neutralC/CFD-AM-220-134-N.jpg","1","s","2.19113360001938",1,1,0,2,0
"250016","img/neutralC/CFD-LM-244-068-N.jpg","1","k","1.57281839998905",1,1,0,2,0
"250016","img/neutralC/CFD-WF-224-099-N.jpg","0","s","1.12663239997346",1,1,0,2,0
"250016","img/neutralC/CFD-AF-205-155-N.jpg","0","k","3.52456390002044",1,1,0,2,0
"250016","img/neutralC/CFD-BM-029-024-N.jpg","1","k","0.743225499987602",1,1,0,2,0
"250016","img/neutralC/CFD-AF-240-206-N.jpg","1","s","1.47515880002175",1,1,0,2,0
"250016","img/neutralC/CFD-WF-002-004-N.jpg","0","s","1.70084090001183",1,1,0,2,0
"250016","img/neutralC/CFD-WM-221-091-N.jpg","0","k","1.57535050000297",1,1,0,2,0
"250016","img/neutralC/CFD-IM-606-008-N.jpg","0","k","5.46636209997814",1,1,0,2,0
"250016","img/neutralC/CFD-IF-642-295-N.jpg","1","s","3.43260820000432",1,1,0,2,0
"250016","img/neutralC/CFD-BF-041-001-N.jpg","0","s","1.89238750003278",1,1,0,2,0
"250016","img/neutralC/CFD-BM-027-001-N.jpg","1","k","0.955663500004448",1,1,0,2,0
"250016","img/neutralC/CFD-BF-201-080-N.jpg","0","k","2.08369220001623",1,1,0,2,0
"250016","img/neutralC/CFD-WF-221-005-N.jpg","0","k","1.44963510002708",1,1,0,2,0
"250016","img/neutralC/CFD-WF-243-148-N.jpg","0","s","0.998386799998116",1,1,0,2,0
"250016","img/neutralC/CFD-IF-625-225-N.jpg","1","s","1.92816010001116",1,1,0,2,0
"250016","img/neutralC/CFD-IM-638-250-1-N.jpg","1","s","1.05845379998209",1,1,0,2,0
"250016","img/neutralC/CFD-AF-233-190-N.jpg","0","k","2.00122520001605",1,1,0,2,0
"250016","img/neutralC/CFD-LM-252-076-N.jpg","1","s","4.22113939997507",1,1,0,2,0
"250016","img/neutralC/CFD-WM-021-001-N.jpg","0","k","1.61409559997264",1,1,0,2,0
"250016","img/neutralC/CFD-WF-245-084-N.jpg","0","s","2.52469220000785",1,1,0,2,0
"250016","img/neutralC/CFD-LM-238-129-N.jpg","0","s","2.34435249998933",1,2,0,2,0
"250016","img/neutralC/CFD-AF-215-70-N.jpg","1","k","2.19438410003204",1,2,0,2,0
"250016","img/neutralC/CFD-AM-245-111-N.jpg","1","s","1.28557309997268",1,2,0,2,0
"250016","img/neutralC/CFD-LM-226-175-N.jpg","0","k","1.54121679998934",1,2,0,2,0
"250016","img/neutralC/CFD-WM-024-015-N.jpg","0","k","2.22544290003134",1,2,0,2,0
"250016","img/neutralC/CFD-LF-212-066-N.jpg","0","k","1.19150669994997",1,2,0,2,0
"250016","img/neutralC/CFD-IM-696-001-N.jpg","1","k","1.19937079999363",1,2,0,2,0
"250016","img/neutralC/CFD-LF-208-127-N.jpg","0","s","1.01394799997797",1,2,0,2,0
"250016","img/neutralC/CFD-BM-013-002-N.jpg","1","k","2.37592179997591",1,2,0,2,0
"250016","img/neutralC/CFD-LF-222-147-N.jpg","1","k","2.59348139999202",1,2,0,2,0
"250016","img/neutralC/CFD-BM-250-170-N.jpg","1","k","2.376945099968",1,2,0,2,0
"250016","img/neutralC/CFD-WF-007-001-N.jpg","0","k","1.68126049998682",1,2,0,2,0
"250016","img/neutralC/CFD-LM-218-183-N.jpg","0","k","1.67475089995423",1,2,0,2,0
"250016","img/neutralC/CFD-BM-018-001-N.jpg","1","k","1.61361559998477",1,2,0,2,0
"250016","img/neutralC/CFD-AM-230-150-N.jpg","1","s","2.54911389999325",1,2,0,2,0
"250016","img/neutralC/CFD-WF-209-052-N.jpg","1","k","5.866825300036",1,2,0,2,0
"250016","img/neutralC/CFD-BM-001-014-N.jpg","0","k","1.33070640004007",1,2,0,2,0
"250016","img/neutralC/CFD-BF-226-119-N.jpg","0","s","1.72678880003514",1,2,0,2,0
"250016","img/neutralC/CFD-MF-335-002-N.jpg","1","k","1.25594220001949",1,2,0,2,0
"250016","img/neutralC/CFD-LM-219-295-N.jpg","1","s","1.90731320000486",1,2,0,2,0
"250016","img/neutralC/CFD-BF-020-002-N.jpg","0","k","2.22403749998193",1,2,0,2,0
"250016","img/neutralC/CFD-AF-229-160-N.jpg","0","k","1.3889173999778",1,2,0,2,0
"250016","img/neutralC/CFD-IM-703-182-N.jpg","1","k","1.51756180002121",1,2,0,2,0
"250016","img/neutralC/CFD-WM-018-002-N.jpg","0","s","1.99180929997237",1,2,0,2,0
"250016","img/neutralC/CFD-WF-238-023-N.jpg","0","k","1.16882419999456",1,2,0,2,0
"250016","img/neutralC/CFD-BF-232-187-N.jpg","0","s","1.66099210001994",1,2,0,2,0
"250016","img/neutralC/CFD-LF-214-090-N.jpg","0","s","2.13137920002919",1,2,0,2,0
"250016","img/neutralC/CFD-MF-318-022-N.jpg","0","k","2.68438880000031",1,2,0,2,0
"250016","img/neutralC/CFD-BF-039-031-N.jpg","1","s","2.3576867999509",1,2,0,2,0
"250016","img/neutralC/CFD-LM-243-075-N.jpg","1","k","3.49877410003683",1,2,0,2,0
"250016","img/neutralC/CFD-BF-010-001-N.jpg","1","k","1.77998719998868",1,2,0,2,0
"250016","img/neutralC/CFD-LM-200-045-N.jpg","1","s","1.70072239998262",1,2,0,2,0
"250016","img/neutralC/CFD-MF-301-024-N.jpg","1","k","1.5293701000046",1,2,0,2,0
"250016","img/neutralC/CFD-BF-002-001-N.jpg","1","s","0.672978899965528",1,2,0,2,0
"250016","img/neutralC/CFD-WM-006-002-N.jpg","1","s","1.59846979996655",1,2,0,2,0
"250016","img/neutralC/CFD-WF-235-121-N.jpg","1","k","1.0796219999902",1,2,0,2,0
"250016","img/neutralC/CFD-WM-253-119-N.jpg","0","k","1.2332859999733",1,2,0,2,0
"250016","img/neutralC/CFD-IM-675-015-N.jpg","1","s","0.820360300014727",1,2,0,2,0
"250016","img/neutralC/CFD-AM-247-165-N.jpg","0","k","0.797732900013216",1,2,0,2,0
"250016","img/neutralC/CFD-MF-309-002-N.jpg","1","s","1.07513780001318",1,2,0,2,0
"250016","img/neutralC/CFD-AM-235-241-N.jpg","0","k","1.49650879995897",1,2,0,2,0
"250016","img/neutralC/CFD-BM-247-240-N.jpg","0","s","1.09466170001542",1,2,0,2,0
"250016","img/neutralC/CFD-WF-006-002-N.jpg","1","s","2.69067790004192",1,2,0,2,0
"250016","img/neutralC/CFD-BF-028-001-N.jpg","0","s","1.29467070003739",1,2,0,2,0
"250016","img/neutralC/CFD-BF-212-315-N.jpg","1","s","1.91385529999388",1,2,0,2,0
"250016","img/neutralC/CFD-AF-221-147-N.jpg","1","k","2.08919189998414",1,2,0,2,0
"250016","img/neutralC/CFD-WF-226-095-N.jpg","0","s","2.10589690000052",1,2,0,2,0
"250016","img/neutralC/CFD-AF-237-223-N.jpg","1","k","0.960380700009409",1,2,0,2,0
"250016","img/neutralC/CFD-BM-243-218-N.jpg","0","k","4.54149109998252",1,3,0,2,0
"250016","img/neutralC/CFD-WF-223-133-N.jpg","0","k","1.33433799998602",1,3,0,2,0
"250016","img/neutralC/CFD-MF-337-026-N.jpg","0","s","1.87607639998896",1,3,0,2,0
"250016","img/neutralC/CFD-AM-244-222-N.jpg","1","k","2.90924170002108",1,3,0,2,0
"250016","img/neutralC/CFD-LM-215-247-N.jpg","0","k","1.93868520000251",1,3,0,2,0
"250016","img/neutralC/CFD-WM-237-052-N.jpg","1","k","3.36145610001404",1,3,0,2,0
"250016","img/neutralC/CFD-AF-206-079-N.jpg","0","k","1.72033260000171",1,3,0,2,0
"250016","img/neutralC/CFD-IM-697-015-N.jpg","0","s","2.64923270000145",1,3,0,2,0
"250016","img/neutralC/CFD-LM-233-171-N.jpg","0","s","1.59988490003161",1,3,0,2,0
"250016","img/neutralC/CFD-IM-616-214-N.jpg","1","s","1.72844149998855",1,3,0,2,0
"250016","img/neutralC/CFD-WF-018-017-N.jpg","1","s","2.17015819996595",1,3,0,2,0
"250016","img/neutralC/CFD-IF-629-234-N.jpg","0","k","1.35190059995512",1,3,0,2,0
"250016","img/neutralC/CFD-IM-702-101-N.jpg","1","k","0.90583920001518",1,3,0,2,0
"250016","img/neutralC/CFD-IM-615-167-N.jpg","0","s","1.8248714999645",1,3,0,2,0
"250016","img/neutralC/CFD-LM-253-075-N.jpg","0","k","2.29813660000218",1,3,0,2,0
"250016","img/neutralC/CFD-BM-021-021-N.jpg","1","s","1.35879280004883",1,3,0,2,0
"250016","img/neutralC/CFD-LM-214-165-N.jpg","1","k","0.634802099957597",1,3,0,2,0
"250016","img/neutralC/CFD-AF-202-122-N.jpg","0","k","0.609417599975131",1,3,0,2,0
"250016","img/neutralC/CFD-LF-230-203-N.jpg","0","s","1.08851729996968",1,3,0,2,0
"250016","img/neutralC/CFD-BM-019-002-N.jpg","1","k","0.838711099990178",1,3,0,2,0
"250016","img/neutralC/CFD-WM-041-021-N.jpg","0","k","1.1392398000462",1,3,0,2,0
"250016","img/neutralC/CFD-LF-238-154-N.jpg","1","s","1.1184016999905",1,3,0,2,0
"250016","img/neutralC/CFD-LF-218-072-N.jpg","1","s","1.40553420002107",1,3,0,2,0
"250016","img/neutralC/CFD-IF-676-017-N.jpg","1","k","1.41297419997863",1,3,0,2,0
"250016","img/neutralC/CFD-IM-604-014-N.jpg","1","k","1.46115639997879",1,3,0,2,0
"250016","img/neutralC/CFD-BM-215-155-N.jpg","1","k","3.83911950001493",1,3,0,2,0
"250016","img/neutralC/CFD-WF-241-210-N.jpg","1","k","1.37806189997355",1,3,0,2,0
"250016","img/neutralC/CFD-IM-646-023-N.jpg","1","k","1.30569750000723",1,3,0,2,0
"250016","img/neutralC/CFD-IF-608-390-N.jpg","1","k","1.04429029999301",1,3,0,2,0
"250016","img/neutralC/CFD-BM-225-154-N.jpg","1","k","1.20517189998645",1,3,0,2,0
"250016","img/neutralC/CFD-WF-222-092-N.jpg","0","k","0.929238600016106",1,3,0,2,0
"250016","img/neutralC/CFD-MF-302-027-N.jpg","0","s","1.57360210001934",1,3,0,2,0
"250016","img/neutralC/CFD-LF-247-051-N.jpg","1","k","1.13020519999554",1,3,0,2,0
"250016","img/neutralC/CFD-BF-222-240-N.jpg","1","k","1.32325519999722",1,3,0,2,0
"250016","img/neutralC/CFD-BF-253-202-N.jpg","1","k","0.640412799955811",1,3,0,2,0
"250016","img/neutralC/CFD-BF-042-026-N.jpg","0","k","1.41326500003925",1,3,0,2,0
"250016","img/neutralC/CFD-LF-250-169-N.jpg","1","s","1.21043679997092",1,3,0,2,0
"250016","img/neutralC/CFD-MF-343-001-N.jpg","0","k","1.13106939999852",1,3,0,2,0
"250016","img/neutralC/CFD-BF-214-308-N.jpg","1","k","1.40412109997123",1,3,0,2,0
"250016","img/neutralC/CFD-IM-637-007-N.jpg","0","k","1.43928930000402",1,3,0,2,0
"250016","img/neutralC/CFD-LF-236-221-N.jpg","1","k","3.48549940000521",1,3,0,2,0
"250016","img/neutralC/CFD-LF-210-220-N.jpg","1","k","1.3777517999988",1,3,0,2,0
"250016","img/neutralC/CFD-WM-002-009-N.jpg","0","s","1.07562979997601",1,3,0,2,0
"250016","img/neutralC/CFD-BM-241-235-N.jpg","1","s","1.02406600001268",1,3,0,2,0
"250016","img/neutralC/CFD-IF-620-218-N.jpg","1","s","1.84533089998877",1,3,0,2,0
"250016","img/neutralC/CFD-BF-006-017-N.jpg","1","s","1.97830409999005",1,3,0,2,0
"250016","img/neutralC/CFD-IM-719-221-N.jpg","0","k","0.900133799994364",1,3,0,2,0
"250016","img/neutralC/CFD-BF-254-201-N.jpg","1","k","1.34186360001331",1,3,0,2,0
"250016","img/neutralC/CFD-AM-201-076-N.jpg","0","s","2.78547010000329",1,4,0,2,0
"250016","img/neutralC/CFD-BF-029-031-N.jpg","1","k","1.05216059996746",1,4,0,2,0
"250016","img/neutralC/CFD-BM-212-117-N.jpg","0","s","1.24506459996337",1,4,0,2,0
"250016","img/neutralC/CFD-WF-248-129-N.jpg","0","s","1.26762549998239",1,4,0,2,0
"250016","img/neutralC/CFD-IM-706-002-N.jpg","1","k","0.994970300002024",1,4,0,2,0
"250016","img/neutralC/CFD-MF-342-022-N.jpg","0","k","1.46831509994809",1,4,0,2,0
"250016","img/neutralC/CFD-AM-205-153-N.jpg","0","s","0.961821000033524",1,4,0,2,0
"250016","img/neutralC/CFD-WM-040-022-N.jpg","0","k","1.41323069995269",1,4,0,2,0
"250016","img/neutralC/CFD-MF-316-001-N.jpg","0","s","1.66095959994709",1,4,0,2,0
"250016","img/neutralC/CFD-MF-303-013-N.jpg","0","s","0.732265399943572",1,4,0,2,0
"250016","img/neutralC/CFD-BF-224-002-N.jpg","1","s","3.02615260001039",1,4,0,2,0
"250016","img/neutralC/CFD-WM-257-161-N.jpg","1","k","0.826156699971762",1,4,0,2,0
"250016","img/neutralC/CFD-BF-213-188-N.jpg","0","k","1.34725940000499",1,4,0,2,0
"250016","img/neutralC/CFD-WF-210-086-N.jpg","0","s","1.19894869998097",1,4,0,2,0
"250016","img/neutralC/CFD-BM-248-128-N.jpg","1","k","2.03903099999297",1,4,0,2,0
"250016","img/neutralC/CFD-WM-025-002-N.jpg","0","k","1.10386289999587",1,4,0,2,0
"250016","img/neutralC/CFD-LF-226-174-N.jpg","1","k","2.080392999982",1,4,0,2,0
"250016","img/neutralC/CFD-WF-012-002-N.jpg","1","s","1.9442930999794",1,4,0,2,0
"250016","img/neutralC/CFD-LF-205-100-N.jpg","1","k","1.29022349999286",1,4,0,2,0
"250016","img/neutralC/CFD-AF-241-141-N.jpg","0","s","1.07492599997204",1,4,0,2,0
"250016","img/neutralC/CFD-IM-721-341-N.jpg","1","k","0.822253299993463",1,4,0,2,0
"250016","img/neutralC/CFD-LM-225-130-N.jpg","0","s","1.8139335999731",1,4,0,2,0
"250016","img/neutralC/CFD-BM-211-174-N.jpg","1","s","1.32132599997567",1,4,0,2,0
"250016","img/neutralC/CFD-IM-727-195-N.jpg","1","k","0.887751500005834",1,4,0,2,0
"250016","img/neutralC/CFD-BM-033-003-N.jpg","0","s","0.985701300029177",1,4,0,2,0
"250016","img/neutralC/CFD-WF-009-001-N.jpg","0","k","0.841941500024404",1,4,0,2,0
"250016","img/neutralC/CFD-LF-220-120-N.jpg","1","s","1.5603116999846",1,4,0,2,0
"250016","img/neutralC/CFD-BF-206-143-N.jpg","1","k","0.772118100023363",1,4,0,2,0
"250016","img/neutralC/CFD-WM-026-001-N.jpg","0","s","1.70973269996466",1,4,0,2,0
"250016","img/neutralC/CFD-IM-653-008-N.jpg","1","k","1.16050859994721",1,4,0,2,0
"250016","img/neutralC/CFD-AM-249-163-N.jpg","0","k","2.44277330004843",1,4,0,2,0
"250016","img/neutralC/CFD-MF-312-002-N.jpg","1","s","2.11129119998077",1,4,0,2,0
"250016","img/neutralC/CFD-IM-685-004-N.jpg","1","k","0.668177000014111",1,4,0,2,0
"250016","img/neutralC/CFD-WM-232-070-N.jpg","0","s","1.00191340001766",1,4,0,2,0
"250016","img/neutralC/CFD-IF-742-103-N.jpg","1","k","1.21189989999402",1,4,0,2,0
"250016","img/neutralC/CFD-IM-709-103-N.jpg","1","k","0.999840400007088",1,4,0,2,0
"250016","img/neutralC/CFD-BM-200-046-N.jpg","1","k","0.913677500037011",1,4,0,2,0
"250016","img/neutralC/CFD-IF-650-315-N.jpg","0","s","1.83722169999965",1,4,0,2,0
"250016","img/neutralC/CFD-BM-204-003-N.jpg","1","k","0.956802300002892",1,4,0,2,0
"250016","img/neutralC/CFD-AM-243-212-N.jpg","1","k","1.83908810000867",1,4,0,2,0
"250016","img/neutralC/CFD-MF-329-001-N.jpg","0","s","1.30056539998623",1,4,0,2,0
"250016","img/neutralC/CFD-MF-327-002-N.jpg","0","k","0.743886800017208",1,4,0,2,0
"250016","img/neutralC/CFD-WF-214-122-N.jpg","0","k","0.920944000012241",1,4,0,2,0
"250016","img/neutralC/CFD-IM-648-337-N.jpg","1","k","2.1118086000206",1,4,0,2,0
"250016","img/neutralC/CFD-AF-210-050-N.jpg","1","s","1.6971805000212",1,4,0,2,0
"250016","img/neutralC/CFD-IF-732-260-N.jpg","1","k","0.949158200004604",1,4,0,2,0
"250016","img/neutralC/CFD-IF-729-393-N.jpg","0","s","0.752503300027456",1,4,0,2,0
"250016","img/neutralC/CFD-MF-357-002-N.jpg","0","k","0.749527600011788",1,4,0,2,0
"250016","img/neutralC/CFD-IM-659-359-N.jpg","1","k","1.14753750001546",1,5,0,2,0
"250016","img/neutralC/CFD-WM-202-107-N.jpg","0","s","1.58577129995683",1,5,0,2,0
"250016","img/neutralC/CFD-WM-258-125-N.jpg","0","s","1.9701593000209",1,5,0,2,0
"250016","img/neutralC/CFD-BF-003-003-N.jpg","1","k","1.96372380002867",1,5,0,2,0
"250016","img/neutralC/CFD-LF-206-078-N.jpg","0","k","1.46241390000796",1,5,0,2,0
"250016","img/neutralC/CFD-AF-244-168-N.jpg","0","s","1.62100749998353",1,5,0,2,0
"250016","img/neutralC/CFD-AM-242-176-N.jpg","1","k","1.63578179996694",1,5,0,2,0
"250016","img/neutralC/CFD-WM-254-152-N.jpg","0","k","1.67164260003483",1,5,0,2,0
"250016","img/neutralC/CFD-WF-036-023-N.jpg","1","k","1.7100612000213",1,5,0,2,0
"250016","img/neutralC/CFD-BF-027-002-N.jpg","0","s","2.11169140000129",1,5,0,2,0
"250016","img/neutralC/CFD-BF-004-014-N.jpg","1","k","1.62280810001539",1,5,0,2,0
"250016","img/neutralC/CFD-IM-738-191-N.jpg","1","s","1.05177770002047",1,5,0,2,0
"250016","img/neutralC/CFD-AM-251-124-N.jpg","0","k","1.45320089999586",1,5,0,2,0
"250016","img/neutralC/CFD-LF-255-088-N.jpg","0","s","1.77925349998986",1,5,0,2,0
"250016","img/neutralC/CFD-AM-212-050-N.jpg","1","s","1.85331760003464",1,5,0,2,0
"250016","img/neutralC/CFD-WM-209-038-N.jpg","0","s","1.7659064999898",1,5,0,2,0
"250016","img/neutralC/CFD-BF-025-002-N.jpg","0","s","1.51450019999174",1,5,0,2,0
"250016","img/neutralC/CFD-BF-018-039-N.jpg","1","k","2.14839829999255",1,5,0,2,0
"250016","img/neutralC/CFD-BF-238-190-N.jpg","0","s","1.54217999998946",1,5,0,2,0
"250016","img/neutralC/CFD-LM-216-082-N.jpg","1","k","2.3768054000102",1,5,0,2,0
"250016","img/neutralC/CFD-IM-680-369-N.jpg","1","s","2.12153239996405",1,5,0,2,0
"250016","img/neutralC/CFD-BF-033-028-N.jpg","1","s","2.03870979999192",1,5,0,2,0
"250016","img/neutralC/CFD-IM-701-312-N.jpg","1","k","2.01812359999167",1,5,0,2,0
"250016","img/neutralC/CFD-AF-227-207-N.jpg","0","k","4.15153659996577",1,5,0,2,0
"250016","img/neutralC/CFD-MM-316-156-N.jpg","0","k","1.57766330003506",1,5,0,2,0
"250016","img/neutralC/CFD-WM-255-219-N.jpg","1","s","1.49809350003488",1,5,0,2,0
"250016","img/neutralC/CFD-AM-225-102-N.jpg","1","k","2.33144059998449",1,5,0,2,0
"250016","img/neutralC/CFD-IF-673-389-N.jpg","1","k","1.03977619996294",1,5,0,2,0
"250016","img/neutralC/CFD-WM-213-076-N.jpg","0","s","2.47466990002431",1,5,0,2,0
"250016","img/neutralC/CFD-IM-639-263-N.jpg","1","s","2.07378429995151",1,5,0,2,0
"250016","img/neutralC/CFD-BM-039-029-N.jpg","1","s","1.32602340000449",1,5,0,2,0
"250016","img/neutralC/CFD-BM-005-003-N.jpg","0","s","1.544090600044",1,5,0,2,0
"250016","img/neutralC/CFD-WM-038-003-N.jpg","0","k","0.782881400024053",1,5,0,2,0
"250016","img/neutralC/CFD-BF-208-266-N.jpg","0","k","1.52794510003878",1,5,0,2,0
"250016","img/neutralC/CFD-WF-008-002-N.jpg","0","k","0.92136609996669",1,5,0,2,0
"250016","img/neutralC/CFD-BM-251-013-N.jpg","1","k","0.995666800008621",1,5,0,2,0
"250016","img/neutralC/CFD-IF-677-452-1-N.jpg","1","s","1.3416802000138",1,5,0,2,0
"250016","img/neutralC/CFD-BF-045-003-N.jpg","1","s","1.7071305999998",1,5,0,2,0
"250016","img/neutralC/CFD-WM-014-002-N.jpg","0","k","1.19231330003822",1,5,0,2,0
"250016","img/neutralC/CFD-AF-213-126-N.jpg","0","s","1.52514759998303",1,5,0,2,0
"250016","img/neutralC/CFD-LF-241-188-N.jpg","1","k","1.28943499998422",1,5,0,2,0
"250016","img/neutralC/CFD-WF-026-002-N.jpg","0","k","1.76787129999138",1,5,0,2,0
"250016","img/neutralC/CFD-AF-232-078-N.jpg","1","s","1.97573930001818",1,5,0,2,0
"250016","img/neutralC/CFD-LM-217-162-N.jpg","0","s","2.06452050001826",1,5,0,2,0
"250016","img/neutralC/CFD-BF-038-037-N.jpg","1","s","1.77530360000674",1,5,0,2,0
"250016","img/neutralC/CFD-LM-204-001-N.jpg","1","s","1.83328729995992",1,5,0,2,0
"250016","img/neutralC/CFD-MM-321-021-N.jpg","1","s","2.91238140000496",1,5,0,2,0
"250016","img/neutralC/CFD-BF-255-140-N.jpg","1","s","6.5989666999667",1,5,0,2,0
"250016","img/neutralC/CFD-BM-015-015-N.jpg","1","s","1.20637609995902",1,6,0,2,0
"250016","img/neutralC/CFD-WM-017-002-N.jpg","0","k","1.37535649997881",1,6,0,2,0
"250016","img/neutralC/CFD-WF-033-002-N.jpg","0","s","0.914679799985606",1,6,0,2,0
"250016","img/neutralC/CFD-BF-051-035-N.jpg","0","s","0.852574000018649",1,6,0,2,0
"250016","img/neutralC/CFD-IM-689-263-N.jpg","1","k","1.19829480000772",1,6,0,2,0
"250016","img/neutralC/CFD-AM-211-052-N.jpg","0","s","1.62047090003034",1,6,0,2,0
"250016","img/neutralC/CFD-BM-036-003-N.jpg","1","k","1.04705290001584",1,6,0,2,0
"250016","img/neutralC/CFD-LM-241-125-N.jpg","0","s","0.961688100011088",1,6,0,2,0
"250016","img/neutralC/CFD-WM-242-011-N.jpg","0","s","1.12205270002596",1,6,0,2,0
"250016","img/neutralC/CFD-BM-003-003-N.jpg","1","s","1.76723130000755",1,6,0,2,0
"250016","img/neutralC/CFD-BF-043-003-N.jpg","0","k","1.25593159999698",1,6,0,2,0
"250016","img/neutralC/CFD-IF-634-382-N.jpg","0","k","1.36225770000601",1,6,0,2,0
"250016","img/neutralC/CFD-WM-228-065-N.jpg","1","s","1.51705659995787",1,6,0,2,0
"250016","img/neutralC/CFD-IF-718-001-N.jpg","1","s","1.29873929999303",1,6,0,2,0
"250016","img/neutralC/CFD-IM-664-651-N.jpg","1","k","1.16568590002134",1,6,0,2,0
"250016","img/neutralC/CFD-WM-019-003-N.jpg","1","k","1.4065151999821",1,6,0,2,0
"250016","img/neutralC/CFD-IM-667-369-N.jpg","1","s","1.49455539998598",1,6,0,2,0
"250016","img/neutralC/CFD-WM-219-008-N.jpg","0","k","1.06433139997534",1,6,0,2,0
"250016","img/neutralC/CFD-IF-693-172-N.jpg","1","s","1.65788690000772",1,6,0,2,0
"250016","img/neutralC/CFD-IF-710-016-N.jpg","0","k","0.711539300042205",1,6,0,2,0
"250016","img/neutralC/CFD-MF-321-003-N.jpg","0","s","0.984853100031614",1,6,0,2,0
"250016","img/neutralC/CFD-BM-026-002-N.jpg","1","s","0.70165550004458",1,6,0,2,0
"250016","img/neutralC/CFD-BF-044-034-N.jpg","0","k","1.28215029998682",1,6,0,2,0
"250016","img/neutralC/CFD-BM-207-024-N.jpg","0","k","0.785357599961571",1,6,0,2,0
"250016","img/neutralC/CFD-AF-239-171-N.jpg","0","s","0.994844499975443",1,6,0,2,0
"250016","img/neutralC/CFD-WF-208-068-N.jpg","0","s","1.77659560000757",1,6,0,2,0
"250016","img/neutralC/CFD-BM-023-029-N.jpg","1","k","1.02800469996873",1,6,0,2,0
"250016","img/neutralC/CFD-WF-240-083-N.jpg","1","k","0.861734799982514",1,6,0,2,0
"250016","img/neutralC/CFD-WF-200-099-N.jpg","1","s","1.06773680000333",1,6,0,2,0
"250016","img/neutralC/CFD-WF-023-003-N.jpg","0","k","0.731451899977401",1,6,0,2,0
"250016","img/neutralC/CFD-LM-213-061-N.jpg","1","s","0.850295300013386",1,6,0,2,0
"250016","img/neutralC/CFD-IM-669-111-N.jpg","1","s","4.08965150004951",1,6,0,2,0
"250016","img/neutralC/CFD-LM-237-264-N.jpg","0","k","2.34632220002823",1,6,0,2,0
"250016","img/neutralC/CFD-AF-250-200-N.jpg","1","k","1.82730060000904",1,6,0,2,0
"250016","img/neutralC/CFD-IM-627-178-N.jpg","1","s","1.5694137000246",1,6,0,2,0
"250016","img/neutralC/CFD-BM-217-082-N.jpg","1","k","1.59982880001189",1,6,0,2,0
"250016","img/neutralC/CFD-WM-009-002-N.jpg","1","s","1.49025700002676",1,6,0,2,0
"250016","img/neutralC/CFD-MM-319-052-N.jpg","1","s","1.37246220000088",1,6,0,2,0
"250016","img/neutralC/CFD-IM-651-308-N.jpg","1","s","1.45902070001466",1,6,0,2,0
"250016","img/neutralC/CFD-LF-224-176-N.jpg","1","k","2.10578949999763",1,6,0,2,0
"250016","img/neutralC/CFD-BF-218-207-N.jpg","0","k","1.36669449997135",1,6,0,2,0
"250016","img/neutralC/CFD-IF-665-015-N.jpg","1","k","1.64943670004141",1,6,0,2,0
"250016","img/neutralC/CFD-IF-672-305-N.jpg","0","s","1.42326910002157",1,6,0,2,0
"250016","img/neutralC/CFD-WM-248-036-N.jpg","0","k","1.57280139997602",1,6,0,2,0
"250016","img/neutralC/CFD-BM-030-003-N.jpg","1","k","1.23784489999525",1,6,0,2,0
"250016","img/neutralC/CFD-MM-306-010-N.jpg","0","k","1.64770060003502",1,6,0,2,0
"250016","img/neutralC/CFD-MF-313-002-N.jpg","1","k","1.54728759999853",1,6,0,2,0
"250016","img/neutralC/CFD-WM-015-002-N.jpg","0","s","1.96814910002286",1,6,0,2,0
"250016","img/neutralC/CFD-WF-233-112-N.jpg","1","s","1.90529770002468",1,7,0,2,0
"250016","img/neutralC/CFD-MF-305-014-N.jpg","1","k","1.91687810001895",1,7,0,2,0
"250016","img/neutralC/CFD-LF-245-166-N.jpg","0","s","1.80815939995227",1,7,0,2,0
"250016","img/neutralC/CFD-BF-012-001-N.jpg","1","k","1.4338636000175",1,7,0,2,0
"250016","img/neutralC/CFD-WM-012-001-N.jpg","0","s","1.1724635999999",1,7,0,2,0
"250016","img/neutralC/CFD-MF-307-002-N.jpg","1","s","1.31671240000287",1,7,0,2,0
"250016","img/neutralC/CFD-IM-617-174-N.jpg","1","s","1.72523709997768",1,7,0,2,0
"250016","img/neutralC/CFD-BM-253-004-N.jpg","0","s","1.47451810003258",1,7,0,2,0
"250016","img/neutralC/CFD-AM-233-236-N.jpg","0","k","2.11597919999622",1,7,0,2,0
"250016","img/neutralC/CFD-BM-238-242-N.jpg","0","s","2.0108814999694",1,7,0,2,0
"250016","img/neutralC/CFD-IM-632-097-N.jpg","1","k","1.70799120003358",1,7,0,2,0
"250016","img/neutralC/CFD-MF-300-002-N.jpg","0","k","1.45880110003054",1,7,0,2,0
"250016","img/neutralC/CFD-BM-213-134-N.jpg","0","k","1.55730650003534",1,7,0,2,0
"250016","img/neutralC/CFD-MM-304-002-N.jpg","0","k","3.31177999998908",1,7,0,2,0
"250016","img/neutralC/CFD-WM-215-041-N.jpg","0","k","1.46596149995457",1,7,0,2,0
"250016","img/neutralC/CFD-WM-034-030-N.jpg","1","s","2.01434320001863",1,7,0,2,0
"250016","img/neutralC/CFD-WM-028-003-N.jpg","1","s","1.76793989998987",1,7,0,2,0
"250016","img/neutralC/CFD-IM-674-281-N.jpg","1","k","1.70264910004335",1,7,0,2,0
"250016","img/neutralC/CFD-WF-244-163-N.jpg","1","k","0.998382699966896",1,7,0,2,0
"250016","img/neutralC/CFD-IM-700-009-N.jpg","1","s","1.5420486999792",1,7,0,2,0
"250016","img/neutralC/CFD-WF-213-031-N.jpg","0","k","1.78268070000922",1,7,0,2,0
"250016","img/neutralC/CFD-BM-227-191-N.jpg","1","s","1.35795289999805",1,7,0,2,0
"250016","img/neutralC/CFD-IF-744-114-N.jpg","1","s","2.34359770000447",1,7,0,2,0
"250016","img/neutralC/CFD-LF-204-133-N.jpg","1","s","1.4540960000013",1,7,0,2,0
"250016","img/neutralC/CFD-BM-009-002-N.jpg","1","s","2.49204089998966",1,7,0,2,0
"250016","img/neutralC/CFD-WM-023-001-N.jpg","0","k","1.37908919999609",1,7,0,2,0
"250016","img/neutralC/CFD-IM-657-308-N.jpg","0","k","1.50555810000515",1,7,0,2,0
"250016","img/neutralC/CFD-IM-707-105-N.jpg","0","k","1.1490410999977",1,7,0,2,0
"250016","img/neutralC/CFD-WM-212-097-N.jpg","0","k","1.4726396999904",1,7,0,2,0
"250016","img/neutralC/CFD-BM-239-136-N.jpg","1","s","1.55393980001099",1,7,0,2,0
"250016","img/neutralC/CFD-LM-247-095-N.jpg","0","s","2.0902378000319",1,7,0,2,0
"250016","img/neutralC/CFD-WF-030-002-N.jpg","1","k","1.39269720000448",1,7,0,2,0
"250016","img/neutralC/CFD-WM-033-025-N.jpg","0","s","1.65200259996345",1,7,0,2,0
"250016","img/neutralC/CFD-WM-227-099-N.jpg","0","s","1.63245869998354",1,7,0,2,0
"250016","img/neutralC/CFD-AF-253-130-N.jpg","1","k","1.37817490001908",1,7,0,2,0
"250016","img/neutralC/CFD-LF-225-164-N.jpg","1","k","2.11389670002973",1,7,0,2,0
"250016","img/neutralC/CFD-WF-001-003-N.jpg","1","s","1.90173979999963",1,7,0,2,0
"250016","img/neutralC/CFD-WM-020-001-N.jpg","1","s","1.44113240001025",1,7,0,2,0
"250016","img/neutralC/CFD-WF-234-086-N.jpg","0","k","1.31823189998977",1,7,0,2,0
"250016","img/neutralC/CFD-BM-020-001-N.jpg","1","s","1.9039665000164",1,7,0,2,0
"250016","img/neutralC/CFD-WM-004-010-N.jpg","1","s","1.95209129998693",1,7,0,2,0
"250016","img/neutralC/CFD-BF-205-141-N.jpg","1","k","0.66942689998541",1,7,0,2,0
"250016","img/neutralC/CFD-AM-219-101-N.jpg","1","k","0.856777700013481",1,7,0,2,0
"250016","img/neutralC/CFD-WF-250-167-N.jpg","0","k","1.01085119997151",1,7,0,2,0
"250016","img/neutralC/CFD-AF-246-242-N.jpg","1","k","1.16851450002287",1,7,0,2,0
"250016","img/neutralC/CFD-BM-004-002-N.jpg","1","s","0.672392300039064",1,7,0,2,0
"250016","img/neutralC/CFD-IM-671-601-N.jpg","1","k","1.24008389998926",1,7,0,2,0
"250016","img/neutralC/CFD-IF-660-464-N.jpg","0","s","0.804630199971143",1,7,0,2,0
"250016","img/neutralC/CFD-BM-041-035-N.jpg","1","s","1.39903259999119",1,8,0,2,0
"250016","img/neutralC/CFD-IM-728-041-N.jpg","1","k","0.678456699999515",1,8,0,2,0
"250016","img/neutralC/CFD-BM-205-001-N.jpg","1","s","0.691412599990144",1,8,0,2,0
"250016","img/neutralC/CFD-IM-686-097-N.jpg","1","s","0.683683499984909",1,8,0,2,0
"250016","img/neutralC/CFD-WM-235-147-N.jpg","1","s","1.04094659996917",1,8,0,2,0
"250016","img/neutralC/CFD-LM-201-057-N.jpg","0","k","0.631436299998313",1,8,0,2,0
"250016","img/neutralC/CFD-MF-333-012-N.jpg","0","k","1.06802170001902",1,8,0,2,0
"250016","img/neutralC/CFD-BF-036-027-N.jpg","1","s","1.20013760001166",1,8,0,2,0
"250016","img/neutralC/CFD-LF-201-035-N.jpg","0","k","0.628845700004604",1,8,0,2,0
"250016","img/neutralC/CFD-LF-216-121-N.jpg","0","k","0.94280840002466",1,8,0,2,0
"250016","img/neutralC/CFD-MF-359-019-N.jpg","1","s","0.739278399967588",1,8,0,2,0
"250016","img/neutralC/CFD-IM-645-001-N.jpg","1","k","1.87868250004249",1,8,0,2,0
"250016","img/neutralC/CFD-BF-204-189-N.jpg","0","k","0.787284299964085",1,8,0,2,0
"250016","img/neutralC/CFD-WF-212-050-N.jpg","1","s","0.933955299959052",1,8,0,2,0
"250016","img/neutralC/CFD-BM-231-155-N.jpg","1","s","1.02532419998897",1,8,0,2,0
"250016","img/neutralC/CFD-AM-217-085-N.jpg","0","k","1.44530069996836",1,8,0,2,0
"250016","img/neutralC/CFD-BF-244-231-N.jpg","1","k","0.72612669999944",1,8,0,2,0
"250016","img/neutralC/CFD-BF-011-002-N.jpg","1","k","0.71016860002419",1,8,0,2,0
"250016","img/neutralC/CFD-WM-201-063-N.jpg","0","k","1.53223309997702",1,8,0,2,0
"250016","img/neutralC/CFD-LF-215-157-N.jpg","0","k","0.771297500003129",1,8,0,2,0
"250016","img/neutralC/CFD-BF-023-010-N.jpg","1","k","0.937425799958874",1,8,0,2,0
"250016","img/neutralC/CFD-MM-317-061-N.jpg","0","s","0.941154100000858",1,8,0,2,0
"250016","img/neutralC/CFD-AF-234-208-N.jpg","0","k","0.697636700002477",1,8,0,2,0
"250016","img/neutralC/CFD-IF-619-197-N.jpg","0","s","0.74643489997834",1,8,0,2,0
"250016","img/neutralC/CFD-BM-028-002-N.jpg","0","s","1.67075950000435",1,8,0,2,0
"250016","img/neutralC/CFD-MF-352-054-N.jpg","1","k","1.41436319996137",1,8,0,2,0
"250016","img/neutralC/CFD-IM-726-248-N.jpg","1","k","1.04955240001436",1,8,0,2,0
"250016","img/neutralC/CFD-IM-678-482-N.jpg","0","k","1.98766260000411",1,8,0,2,0
"250016","img/neutralC/CFD-IF-623-129-N.jpg","0","k","1.44801290001487",1,8,0,2,0
"250016","img/neutralC/CFD-BF-228-212-N.jpg","1","s","1.25200120004592",1,8,0,2,0
"250016","img/neutralC/CFD-WM-218-074-N.jpg","0","s","0.945525700051803",1,8,0,2,0
"250016","img/neutralC/CFD-LM-240-013-N.jpg","0","s","1.31667100003688",1,8,0,2,0
"250016","img/neutralC/CFD-AF-231-357-N.jpg","0","s","1.30017020000378",1,8,0,2,0
"250016","img/neutralC/CFD-WM-011-002-N.jpg","1","k","1.35158039996168",1,8,0,2,0
"250016","img/neutralC/CFD-BF-229-179-N.jpg","1","k","1.07170000002952",1,8,0,2,0
"250016","img/neutralC/CFD-IF-626-375-N.jpg","1","k","1.26730200002203",1,8,0,2,0
"250016","img/neutralC/CFD-MM-324-069-N.jpg","1","s","1.19224120001309",1,8,0,2,0
"250016","img/neutralC/CFD-BF-247-179-N.jpg","1","s","1.09474590001628",1,8,0,2,0
"250016","img/neutralC/CFD-IF-636-011-N.jpg","1","k","1.21548910002457",1,8,0,2,0
"250016","img/neutralC/CFD-BF-040-003-N.jpg","1","s","1.28654250002",1,8,0,2,0
"250016","img/neutralC/CFD-BM-043-071-N.jpg","1","k","1.62103819998447",1,8,0,2,0
"250016","img/neutralC/CFD-WF-017-003-N.jpg","0","k","0.780770899960771",1,8,0,2,0
"250016","img/neutralC/CFD-WF-022-017-N.jpg","0","k","1.26509090000764",1,8,0,2,0
"250016","img/neutralC/CFD-WF-217-085-N.jpg","0","k","1.8623730999534",1,8,0,2,0
"250016","img/neutralC/CFD-LM-228-188-N.jpg","0","s","1.45182449999265",1,8,0,2,0
"250016","img/neutralC/CFD-BF-235-168-N.jpg","1","s","1.94581280002603",1,8,0,2,0
"250016","img/neutralC/CFD-WM-013-001-N.jpg","0","s","2.59878459997708",1,8,0,2,0
"250016","img/neutralC/CFD-AM-215-120-N.jpg","1","s","1.74477399996249",1,8,0,2,0
