"participant_id","current_trial_face","pre_trial_face","post_trial_face","current_trial_accuracy","pre_trial_accuracy","post_trial_accuracy","current_trial_congruency","pre_trial_congruency","post_trial_congruency","current_trial_rt","pre_trial_rt","post_trial_rt","current_trial_responded","pre_trial_responded","post_trial_responded","current_trial_legitResponse","pre_trial_legitResponse","post_trial_legitResponse","current_trial_resp_nums","pre_trial_resp_nums","post_trial_resp_nums"
"250036","img/neutralC/CFD-BF-020-002-N.jpg",NA,"img/neutralC/CFD-WF-235-121-N.jpg","1",NA,"1","1",NA,"0","0.726005500066094",NA,"0.585473099956289","1",NA,"1","1",NA,"1","1",NA,"1"
"250036","img/neutralC/CFD-WF-235-121-N.jpg","img/neutralC/CFD-BF-020-002-N.jpg","img/neutralC/CFD-AM-245-111-N.jpg","1","1","1","0","1","1","0.585473099956289","0.726005500066094","0.417814099928364","1","1","1","1","1","1","1","1","1"
"250036","img/neutralC/CFD-AM-245-111-N.jpg","img/neutralC/CFD-WF-235-121-N.jpg","img/neutralC/CFD-IM-669-111-N.jpg","1","1","1","1","0","1","0.417814099928364","0.585473099956289","0.535371799953282","1","1","1","1","1","1","1","1","1"
"250036","img/neutralC/CFD-IM-669-111-N.jpg","img/neutralC/CFD-AM-245-111-N.jpg","img/neutralC/CFD-BM-215-155-N.jpg","1","1","1","1","1","0","0.535371799953282","0.417814099928364","0.545150100020692","1","1","1","1","1","1","1","1","1"
"250036","img/neutralC/CFD-BM-215-155-N.jpg","img/neutralC/CFD-IM-669-111-N.jpg","img/neutralC/CFD-IM-632-097-N.jpg","1","1","1","0","1","0","0.545150100020692","0.535371799953282","0.669740599929355","1","1","1","1","1","1","1","1","1"
"250036","img/neutralC/CFD-IM-632-097-N.jpg","img/neutralC/CFD-BM-215-155-N.jpg","img/neutralC/CFD-AF-246-242-N.jpg","1","1","1","0","0","0","0.669740599929355","0.545150100020692","0.364240799914114","1","1","1","1","1","1","1","1","1"
"250036","img/neutralC/CFD-AF-246-242-N.jpg","img/neutralC/CFD-IM-632-097-N.jpg","img/neutralC/CFD-WF-210-086-N.jpg","1","1","1","0","0","0","0.364240799914114","0.669740599929355","0.501470600022003","1","1","1","1","1","1","1","1","1"
"250036","img/neutralC/CFD-WF-210-086-N.jpg","img/neutralC/CFD-AF-246-242-N.jpg","img/neutralC/CFD-AF-250-200-N.jpg","1","1","1","0","0","1","0.501470600022003","0.364240799914114","0.497436000034213","1","1","1","1","1","1","1","1","1"
"250036","img/neutralC/CFD-AF-250-200-N.jpg","img/neutralC/CFD-WF-210-086-N.jpg","img/neutralC/CFD-IF-732-260-N.jpg","1","1","1","1","0","0","0.497436000034213","0.501470600022003","0.505259300000034","1","1","1","1","1","1","1","1","1"
"250036","img/neutralC/CFD-IF-732-260-N.jpg","img/neutralC/CFD-AF-250-200-N.jpg","img/neutralC/CFD-WM-018-002-N.jpg","1","1","1","0","1","0","0.505259300000034","0.497436000034213","0.544196899980307","1","1","1","1","1","1","1","1","1"
"250036","img/neutralC/CFD-WM-018-002-N.jpg","img/neutralC/CFD-IF-732-260-N.jpg","img/neutralC/CFD-MF-302-027-N.jpg","1","1","1","0","0","0","0.544196899980307","0.505259300000034","0.505267600063235","1","1","1","1","1","1","1","1","1"
"250036","img/neutralC/CFD-MF-302-027-N.jpg","img/neutralC/CFD-WM-018-002-N.jpg","img/neutralC/CFD-IM-678-482-N.jpg","1","1","1","0","0","0","0.505267600063235","0.544196899980307","0.527227699989453","1","1","1","1","1","1","1","1","1"
"250036","img/neutralC/CFD-IM-678-482-N.jpg","img/neutralC/CFD-MF-302-027-N.jpg","img/neutralC/CFD-IM-635-010-N.jpg","1","1","1","0","0","1","0.527227699989453","0.505267600063235","0.466767899924889","1","1","1","1","1","1","1","1","1"
"250036","img/neutralC/CFD-IM-635-010-N.jpg","img/neutralC/CFD-IM-678-482-N.jpg","img/neutralC/CFD-AF-244-168-N.jpg","1","1","1","1","0","0","0.466767899924889","0.527227699989453","0.546083700028248","1","1","1","1","1","1","1","1","1"
"250036","img/neutralC/CFD-AF-244-168-N.jpg","img/neutralC/CFD-IM-635-010-N.jpg","img/neutralC/CFD-BF-235-168-N.jpg","1","1","1","0","1","1","0.546083700028248","0.466767899924889","0.405292500043288","1","1","1","1","1","1","1","1","1"
"250036","img/neutralC/CFD-BF-235-168-N.jpg","img/neutralC/CFD-AF-244-168-N.jpg","img/neutralC/CFD-LM-241-125-N.jpg","1","1","1","1","0","1","0.405292500043288","0.546083700028248","0.489882600028068","1","1","1","1","1","1","1","1","1"
"250036","img/neutralC/CFD-LM-241-125-N.jpg","img/neutralC/CFD-BF-235-168-N.jpg","img/neutralC/CFD-AM-233-236-N.jpg","1","1","1","1","1","1","0.489882600028068","0.405292500043288","0.406945500057191","1","1","1","1","1","1","1","1","1"
"250036","img/neutralC/CFD-AM-233-236-N.jpg","img/neutralC/CFD-LM-241-125-N.jpg","img/neutralC/CFD-AF-234-208-N.jpg","1","1","1","1","1","1","0.406945500057191","0.489882600028068","0.470721999998204","1","1","1","1","1","1","1","1","1"
"250036","img/neutralC/CFD-AF-234-208-N.jpg","img/neutralC/CFD-AM-233-236-N.jpg","img/neutralC/CFD-AM-225-102-N.jpg","1","1","1","1","1","0","0.470721999998204","0.406945500057191","0.503237100085244","1","1","1","1","1","1","1","1","1"
"250036","img/neutralC/CFD-AM-225-102-N.jpg","img/neutralC/CFD-AF-234-208-N.jpg","img/neutralC/CFD-MF-307-002-N.jpg","1","1","1","0","1","1","0.503237100085244","0.470721999998204","0.520835200091824","1","1","1","1","1","1","1","1","1"
"250036","img/neutralC/CFD-MF-307-002-N.jpg","img/neutralC/CFD-AM-225-102-N.jpg","img/neutralC/CFD-WM-253-119-N.jpg","1","1","1","1","0","1","0.520835200091824","0.503237100085244","0.357686999952421","1","1","1","1","1","1","1","1","1"
"250036","img/neutralC/CFD-WM-253-119-N.jpg","img/neutralC/CFD-MF-307-002-N.jpg","img/neutralC/CFD-LF-239-148-N.jpg","1","1","1","1","1","0","0.357686999952421","0.520835200091824","0.46762059989851","1","1","1","1","1","1","1","1","1"
"250036","img/neutralC/CFD-LF-239-148-N.jpg","img/neutralC/CFD-WM-253-119-N.jpg","img/neutralC/CFD-BF-042-026-N.jpg","1","1","1","0","1","1","0.46762059989851","0.357686999952421","0.572832499979995","1","1","1","1","1","1","1","1","1"
"250036","img/neutralC/CFD-BF-042-026-N.jpg","img/neutralC/CFD-LF-239-148-N.jpg","img/neutralC/CFD-BM-004-002-N.jpg","1","1","1","1","0","0","0.572832499979995","0.46762059989851","0.519117400050163","1","1","1","1","1","1","1","1","1"
"250036","img/neutralC/CFD-BM-004-002-N.jpg","img/neutralC/CFD-BF-042-026-N.jpg","img/neutralC/CFD-IF-636-011-N.jpg","1","1","1","0","1","1","0.519117400050163","0.572832499979995","0.482875099987723","1","1","1","1","1","1","1","1","1"
"250036","img/neutralC/CFD-IF-636-011-N.jpg","img/neutralC/CFD-BM-004-002-N.jpg","img/neutralC/CFD-LM-204-001-N.jpg","1","1","1","1","0","0","0.482875099987723","0.519117400050163","0.425505200051703","1","1","1","1","1","1","1","1","1"
"250036","img/neutralC/CFD-LM-204-001-N.jpg","img/neutralC/CFD-IF-636-011-N.jpg","img/neutralC/CFD-AF-213-126-N.jpg","1","1","1","0","1","1","0.425505200051703","0.482875099987723","0.447065099957399","1","1","1","1","1","1","1","1","1"
"250036","img/neutralC/CFD-AF-213-126-N.jpg","img/neutralC/CFD-LM-204-001-N.jpg","img/neutralC/CFD-BF-040-003-N.jpg","1","1","1","1","0","1","0.447065099957399","0.425505200051703","0.556686799973249","1","1","1","1","1","1","1","1","1"
"250036","img/neutralC/CFD-BF-040-003-N.jpg","img/neutralC/CFD-AF-213-126-N.jpg","img/neutralC/CFD-BF-206-143-N.jpg","1","1","1","1","1","1","0.556686799973249","0.447065099957399","0.565069100004621","1","1","1","1","1","1","1","1","1"
"250036","img/neutralC/CFD-BF-206-143-N.jpg","img/neutralC/CFD-BF-040-003-N.jpg","img/neutralC/CFD-AF-205-155-N.jpg","1","1","1","1","1","0","0.565069100004621","0.556686799973249","0.556724100024439","1","1","1","1","1","1","1","1","1"
"250036","img/neutralC/CFD-AF-205-155-N.jpg","img/neutralC/CFD-BF-206-143-N.jpg","img/neutralC/CFD-BF-217-189-N.jpg","1","1","1","0","1","0","0.556724100024439","0.565069100004621","0.595781500102021","1","1","1","1","1","1","1","1","1"
"250036","img/neutralC/CFD-BF-217-189-N.jpg","img/neutralC/CFD-AF-205-155-N.jpg",NA,"1","1",NA,"0","0",NA,"0.595781500102021","0.556724100024439",NA,"1","1",NA,"1","1",NA,"1","1",NA
"250036","img/neutralC/CFD-LM-238-129-N.jpg",NA,"img/neutralC/CFD-AM-221-184-N.jpg","1",NA,"1","1",NA,"1","0.402718500001356",NA,"0.413432599976659","1",NA,"1","1",NA,"1","1",NA,"1"
"250036","img/neutralC/CFD-AM-221-184-N.jpg","img/neutralC/CFD-LM-238-129-N.jpg","img/neutralC/CFD-BM-003-003-N.jpg","1","1","1","1","1","0","0.413432599976659","0.402718500001356","0.280120600014925","1","1","1","1","1","1","1","1","1"
"250036","img/neutralC/CFD-BM-003-003-N.jpg","img/neutralC/CFD-AM-221-184-N.jpg","img/neutralC/CFD-LF-208-127-N.jpg","1","1","1","0","1","0","0.280120600014925","0.413432599976659","0.327802899992093","1","1","1","1","1","1","1","1","1"
"250036","img/neutralC/CFD-LF-208-127-N.jpg","img/neutralC/CFD-BM-003-003-N.jpg","img/neutralC/CFD-IM-701-312-N.jpg","1","1","1","0","0","0","0.327802899992093","0.280120600014925","0.402176499948837","1","1","1","1","1","1","1","1","1"
"250036","img/neutralC/CFD-IM-701-312-N.jpg","img/neutralC/CFD-LF-208-127-N.jpg","img/neutralC/CFD-LM-247-095-N.jpg","1","1","1","0","0","0","0.402176499948837","0.327802899992093","0.367863200022839","1","1","1","1","1","1","1","1","1"
"250036","img/neutralC/CFD-LM-247-095-N.jpg","img/neutralC/CFD-IM-701-312-N.jpg","img/neutralC/CFD-LF-241-188-N.jpg","1","1","0","0","0","0","0.367863200022839","0.402176499948837","0.337603399995714","1","1","1","1","1","1","1","1","1"
"250036","img/neutralC/CFD-LF-241-188-N.jpg","img/neutralC/CFD-LM-247-095-N.jpg","img/neutralC/CFD-BM-010-003-N.jpg","0","1","0","0","0","0","0.337603399995714","0.367863200022839","0.389770200010389","1","1","1","1","1","1","1","1","1"
"250036","img/neutralC/CFD-BM-010-003-N.jpg","img/neutralC/CFD-LF-241-188-N.jpg","img/neutralC/CFD-BF-045-003-N.jpg","0","0","1","0","0","0","0.389770200010389","0.337603399995714","0.359995699953288","1","1","1","1","1","1","1","1","1"
"250036","img/neutralC/CFD-BF-045-003-N.jpg","img/neutralC/CFD-BM-010-003-N.jpg","img/neutralC/CFD-MF-312-002-N.jpg","1","0","1","0","0","1","0.359995699953288","0.389770200010389","0.372462600003928","1","1","1","1","1","1","1","1","1"
"250036","img/neutralC/CFD-MF-312-002-N.jpg","img/neutralC/CFD-BF-045-003-N.jpg","img/neutralC/CFD-IM-738-191-N.jpg","1","1","1","1","0","0","0.372462600003928","0.359995699953288","0.534589699935168","1","1","1","1","1","1","1","1","1"
"250036","img/neutralC/CFD-IM-738-191-N.jpg","img/neutralC/CFD-MF-312-002-N.jpg","img/neutralC/CFD-BM-028-002-N.jpg","1","1","1","0","1","1","0.534589699935168","0.372462600003928","0.366734399925917","1","1","1","1","1","1","1","1","1"
"250036","img/neutralC/CFD-BM-028-002-N.jpg","img/neutralC/CFD-IM-738-191-N.jpg","img/neutralC/CFD-AF-210-050-N.jpg","1","1","1","1","0","1","0.366734399925917","0.534589699935168","0.351679500075988","1","1","1","1","1","1","1","1","1"
"250036","img/neutralC/CFD-AF-210-050-N.jpg","img/neutralC/CFD-BM-028-002-N.jpg","img/neutralC/CFD-BF-222-240-N.jpg","1","1","1","1","1","0","0.351679500075988","0.366734399925917","0.406110499985516","1","1","1","1","1","1","1","1","1"
"250036","img/neutralC/CFD-BF-222-240-N.jpg","img/neutralC/CFD-AF-210-050-N.jpg","img/neutralC/CFD-IM-659-359-N.jpg","1","1","1","0","1","0","0.406110499985516","0.351679500075988","0.443012200063094","1","1","1","1","1","1","1","1","1"
"250036","img/neutralC/CFD-IM-659-359-N.jpg","img/neutralC/CFD-BF-222-240-N.jpg","img/neutralC/CFD-BM-213-134-N.jpg","1","1","1","0","0","1","0.443012200063094","0.406110499985516","0.345441799960099","1","1","1","1","1","1","1","1","2"
"250036","img/neutralC/CFD-BM-213-134-N.jpg","img/neutralC/CFD-IM-659-359-N.jpg","img/neutralC/CFD-IF-625-225-N.jpg","1","1","1","1","0","0","0.345441799960099","0.443012200063094","0.566442499984987","1","1","1","1","1","1","2","1","1"
"250036","img/neutralC/CFD-IF-625-225-N.jpg","img/neutralC/CFD-BM-213-134-N.jpg","img/neutralC/CFD-WF-033-002-N.jpg","1","1","1","0","1","1","0.566442499984987","0.345441799960099","0.35049770004116","1","1","1","1","1","1","1","2","1"
"250036","img/neutralC/CFD-WF-033-002-N.jpg","img/neutralC/CFD-IF-625-225-N.jpg","img/neutralC/CFD-MF-336-016-N.jpg","1","1","1","1","0","1","0.35049770004116","0.566442499984987","0.401616999995895","1","1","1","1","1","1","1","1","1"
"250036","img/neutralC/CFD-MF-336-016-N.jpg","img/neutralC/CFD-WF-033-002-N.jpg","img/neutralC/CFD-AF-227-207-N.jpg","1","1","0","1","1","1","0.401616999995895","0.35049770004116","0.303033599979244","1","1","1","1","1","1","1","1","1"
"250036","img/neutralC/CFD-AF-227-207-N.jpg","img/neutralC/CFD-MF-336-016-N.jpg","img/neutralC/CFD-WF-223-133-N.jpg","0","1","1","1","1","0","0.303033599979244","0.401616999995895","0.395279100048356","1","1","1","1","1","1","1","1","1"
"250036","img/neutralC/CFD-WF-223-133-N.jpg","img/neutralC/CFD-AF-227-207-N.jpg","img/neutralC/CFD-BM-013-002-N.jpg","1","0","0","0","1","1","0.395279100048356","0.303033599979244","0.47198820009362","1","1","1","1","1","1","1","1","1"
"250036","img/neutralC/CFD-BM-013-002-N.jpg","img/neutralC/CFD-WF-223-133-N.jpg","img/neutralC/CFD-WM-202-107-N.jpg","0","1","1","1","0","1","0.47198820009362","0.395279100048356","0.392992499982938","1","1","1","1","1","1","1","1","1"
"250036","img/neutralC/CFD-WM-202-107-N.jpg","img/neutralC/CFD-BM-013-002-N.jpg","img/neutralC/CFD-BF-004-014-N.jpg","1","0","1","1","1","1","0.392992499982938","0.47198820009362","0.453321999986656","1","1","1","1","1","1","1","1","1"
"250036","img/neutralC/CFD-BF-004-014-N.jpg","img/neutralC/CFD-WM-202-107-N.jpg","img/neutralC/CFD-IF-744-114-N.jpg","1","1","1","1","1","0","0.453321999986656","0.392992499982938","0.470061999978498","1","1","1","1","1","1","1","1","1"
"250036","img/neutralC/CFD-IF-744-114-N.jpg","img/neutralC/CFD-BF-004-014-N.jpg","img/neutralC/CFD-LF-210-220-N.jpg","1","1","1","0","1","1","0.470061999978498","0.453321999986656","0.487605800037272","1","1","1","1","1","1","1","1","1"
"250036","img/neutralC/CFD-LF-210-220-N.jpg","img/neutralC/CFD-IF-744-114-N.jpg","img/neutralC/CFD-WM-228-065-N.jpg","1","1","1","1","0","0","0.487605800037272","0.470061999978498","0.512539300019853","1","1","1","1","1","1","1","1","1"
"250036","img/neutralC/CFD-WM-228-065-N.jpg","img/neutralC/CFD-LF-210-220-N.jpg","img/neutralC/CFD-IF-673-389-N.jpg","1","1","1","0","1","0","0.512539300019853","0.487605800037272","0.439562599989586","1","1","1","1","1","1","1","1","1"
"250036","img/neutralC/CFD-IF-673-389-N.jpg","img/neutralC/CFD-WM-228-065-N.jpg","img/neutralC/CFD-WF-006-002-N.jpg","1","1","1","0","0","0","0.439562599989586","0.512539300019853","0.642177100060508","1","1","1","1","1","1","1","1","1"
"250036","img/neutralC/CFD-WF-006-002-N.jpg","img/neutralC/CFD-IF-673-389-N.jpg","img/neutralC/CFD-AF-239-171-N.jpg","1","1","1","0","0","1","0.642177100060508","0.439562599989586","0.397359999944456","1","1","1","1","1","1","1","1","1"
"250036","img/neutralC/CFD-AF-239-171-N.jpg","img/neutralC/CFD-WF-006-002-N.jpg","img/neutralC/CFD-LF-225-164-N.jpg","1","1","1","1","0","1","0.397359999944456","0.642177100060508","0.450044300057925","1","1","1","1","1","1","1","1","1"
"250036","img/neutralC/CFD-LF-225-164-N.jpg","img/neutralC/CFD-AF-239-171-N.jpg","img/neutralC/CFD-WM-254-152-N.jpg","1","1","1","1","1","1","0.450044300057925","0.397359999944456","0.484180299914442","1","1","1","1","1","1","1","1","1"
"250036","img/neutralC/CFD-WM-254-152-N.jpg","img/neutralC/CFD-LF-225-164-N.jpg",NA,"1","1",NA,"1","1",NA,"0.484180299914442","0.450044300057925",NA,"1","1",NA,"1","1",NA,"1","1",NA
"250036","img/neutralC/CFD-BM-251-013-N.jpg",NA,"img/neutralC/CFD-BM-205-001-N.jpg","1",NA,"1","1",NA,"0","0.572787499986589",NA,"0.514138599974103","1",NA,"1","1",NA,"1","1",NA,"1"
"250036","img/neutralC/CFD-BM-205-001-N.jpg","img/neutralC/CFD-BM-251-013-N.jpg","img/neutralC/CFD-WF-240-083-N.jpg","1","1","1","0","1","0","0.514138599974103","0.572787499986589","0.483852799981833","1","1","1","1","1","1","1","1","1"
"250036","img/neutralC/CFD-WF-240-083-N.jpg","img/neutralC/CFD-BM-205-001-N.jpg","img/neutralC/CFD-BF-025-002-N.jpg","1","1","1","0","0","0","0.483852799981833","0.514138599974103","0.452614099951461","1","1","1","1","1","1","1","1","1"
"250036","img/neutralC/CFD-BF-025-002-N.jpg","img/neutralC/CFD-WF-240-083-N.jpg","img/neutralC/CFD-MF-309-002-N.jpg","1","1","0","0","0","0","0.452614099951461","0.483852799981833","0.358319199993275","1","1","1","1","1","1","1","1","1"
"250036","img/neutralC/CFD-MF-309-002-N.jpg","img/neutralC/CFD-BF-025-002-N.jpg","img/neutralC/CFD-WM-249-239-N.jpg","0","1","1","0","0","1","0.358319199993275","0.452614099951461","0.688172399997711","1","1","1","1","1","1","1","1","1"
"250036","img/neutralC/CFD-WM-249-239-N.jpg","img/neutralC/CFD-MF-309-002-N.jpg","img/neutralC/CFD-AM-247-165-N.jpg","1","0","1","1","0","1","0.688172399997711","0.358319199993275","0.426470800070092","1","1","1","1","1","1","1","1","1"
"250036","img/neutralC/CFD-AM-247-165-N.jpg","img/neutralC/CFD-WM-249-239-N.jpg","img/neutralC/CFD-IF-642-295-N.jpg","1","1","0","1","1","1","0.426470800070092","0.688172399997711","0.377251800033264","1","1","1","1","1","1","1","1","1"
"250036","img/neutralC/CFD-IF-642-295-N.jpg","img/neutralC/CFD-AM-247-165-N.jpg","img/neutralC/CFD-BF-228-212-N.jpg","0","1","1","1","1","0","0.377251800033264","0.426470800070092","0.600078799994662","1","1","1","1","1","1","1","1","1"
"250036","img/neutralC/CFD-BF-228-212-N.jpg","img/neutralC/CFD-IF-642-295-N.jpg","img/neutralC/CFD-MM-317-061-N.jpg","1","0","1","0","1","1","0.600078799994662","0.377251800033264","0.444049200043082","1","1","1","1","1","1","1","1","1"
"250036","img/neutralC/CFD-MM-317-061-N.jpg","img/neutralC/CFD-BF-228-212-N.jpg","img/neutralC/CFD-LM-201-057-N.jpg","1","1","1","1","0","1","0.444049200043082","0.600078799994662","0.505509900045581","1","1","1","1","1","1","1","1","1"
"250036","img/neutralC/CFD-LM-201-057-N.jpg","img/neutralC/CFD-MM-317-061-N.jpg","img/neutralC/CFD-BM-248-128-N.jpg","1","1","0","1","1","0","0.505509900045581","0.444049200043082","0.402812899905257","1","1","1","1","1","1","1","1","1"
"250036","img/neutralC/CFD-BM-248-128-N.jpg","img/neutralC/CFD-LM-201-057-N.jpg","img/neutralC/CFD-LM-216-082-N.jpg","0","1","1","0","1","0","0.402812899905257","0.505509900045581","0.48148190008942","1","1","1","1","1","1","1","1","1"
"250036","img/neutralC/CFD-LM-216-082-N.jpg","img/neutralC/CFD-BM-248-128-N.jpg","img/neutralC/CFD-WF-005-010-N.jpg","1","0","1","0","0","0","0.48148190008942","0.402812899905257","0.446763599989936","1","1","1","1","1","1","1","1","1"
"250036","img/neutralC/CFD-WF-005-010-N.jpg","img/neutralC/CFD-LM-216-082-N.jpg","img/neutralC/CFD-WM-215-041-N.jpg","1","1","1","0","0","0","0.446763599989936","0.48148190008942","0.441344700055197","1","1","1","1","1","1","1","1","1"
"250036","img/neutralC/CFD-WM-215-041-N.jpg","img/neutralC/CFD-WF-005-010-N.jpg","img/neutralC/CFD-IM-646-023-N.jpg","1","1","1","0","0","1","0.441344700055197","0.446763599989936","0.375534899998456","1","1","1","1","1","1","1","1","1"
"250036","img/neutralC/CFD-IM-646-023-N.jpg","img/neutralC/CFD-WM-215-041-N.jpg","img/neutralC/CFD-IM-648-337-N.jpg","1","1","1","1","0","0","0.375534899998456","0.441344700055197","0.417557100066915","1","1","1","1","1","1","1","1","1"
"250036","img/neutralC/CFD-IM-648-337-N.jpg","img/neutralC/CFD-IM-646-023-N.jpg","img/neutralC/CFD-WM-026-001-N.jpg","1","1","1","0","1","1","0.417557100066915","0.375534899998456","0.540354500059038","1","1","1","1","1","1","1","1","1"
"250036","img/neutralC/CFD-WM-026-001-N.jpg","img/neutralC/CFD-IM-648-337-N.jpg","img/neutralC/CFD-BF-202-109-N.jpg","1","1","1","1","0","1","0.540354500059038","0.417557100066915","0.557372800074518","1","1","1","1","1","1","1","1","1"
"250036","img/neutralC/CFD-BF-202-109-N.jpg","img/neutralC/CFD-WM-026-001-N.jpg","img/neutralC/CFD-WM-212-097-N.jpg","1","1","1","1","1","0","0.557372800074518","0.540354500059038","0.613799200044014","1","1","1","1","1","1","1","1","1"
"250036","img/neutralC/CFD-WM-212-097-N.jpg","img/neutralC/CFD-BF-202-109-N.jpg","img/neutralC/CFD-WM-019-003-N.jpg","1","1","1","0","1","1","0.613799200044014","0.557372800074518","0.480503499973565","1","1","1","1","1","1","1","1","1"
"250036","img/neutralC/CFD-WM-019-003-N.jpg","img/neutralC/CFD-WM-212-097-N.jpg","img/neutralC/CFD-MF-335-002-N.jpg","1","1","1","1","0","0","0.480503499973565","0.613799200044014","0.444752399926074","1","1","1","1","1","1","1","1","1"
"250036","img/neutralC/CFD-MF-335-002-N.jpg","img/neutralC/CFD-WM-019-003-N.jpg","img/neutralC/CFD-WM-006-002-N.jpg","1","1","1","0","1","0","0.444752399926074","0.480503499973565","0.469049299950711","1","1","1","1","1","1","1","1","1"
"250036","img/neutralC/CFD-WM-006-002-N.jpg","img/neutralC/CFD-MF-335-002-N.jpg","img/neutralC/CFD-WF-017-003-N.jpg","1","1","1","0","0","1","0.469049299950711","0.444752399926074","0.36613270000089","1","1","1","1","1","1","1","1","1"
"250036","img/neutralC/CFD-WF-017-003-N.jpg","img/neutralC/CFD-WM-006-002-N.jpg","img/neutralC/CFD-WF-228-196-N.jpg","1","1","1","1","0","0","0.36613270000089","0.469049299950711","0.436987100052647","1","1","1","1","1","1","1","1","1"
"250036","img/neutralC/CFD-WF-228-196-N.jpg","img/neutralC/CFD-WF-017-003-N.jpg","img/neutralC/CFD-LM-244-068-N.jpg","1","1","1","0","1","1","0.436987100052647","0.36613270000089","0.451063000014983","1","1","1","1","1","1","1","1","1"
"250036","img/neutralC/CFD-LM-244-068-N.jpg","img/neutralC/CFD-WF-228-196-N.jpg","img/neutralC/CFD-LM-214-165-N.jpg","1","1","1","1","0","1","0.451063000014983","0.436987100052647","0.535766599932685","1","1","1","1","1","1","1","1","1"
"250036","img/neutralC/CFD-LM-214-165-N.jpg","img/neutralC/CFD-LM-244-068-N.jpg","img/neutralC/CFD-BF-212-315-N.jpg","1","1","1","1","1","1","0.535766599932685","0.451063000014983","0.422835599980317","1","1","1","1","1","1","1","1","1"
"250036","img/neutralC/CFD-BF-212-315-N.jpg","img/neutralC/CFD-LM-214-165-N.jpg","img/neutralC/CFD-LM-243-075-N.jpg","1","1","1","1","1","0","0.422835599980317","0.535766599932685","0.541589799919166","1","1","1","1","1","1","1","1","1"
"250036","img/neutralC/CFD-LM-243-075-N.jpg","img/neutralC/CFD-BF-212-315-N.jpg","img/neutralC/CFD-WM-012-001-N.jpg","1","1","1","0","1","1","0.541589799919166","0.422835599980317","0.457603599992581","1","1","1","1","1","1","1","1","1"
"250036","img/neutralC/CFD-WM-012-001-N.jpg","img/neutralC/CFD-LM-243-075-N.jpg","img/neutralC/CFD-BF-041-001-N.jpg","1","1","1","1","0","1","0.457603599992581","0.541589799919166","0.679715600097552","1","1","1","1","1","1","1","1","1"
"250036","img/neutralC/CFD-BF-041-001-N.jpg","img/neutralC/CFD-WM-012-001-N.jpg","img/neutralC/CFD-AF-240-206-N.jpg","1","1","1","1","1","0","0.679715600097552","0.457603599992581","0.48340760008432","1","1","1","1","1","1","1","1","1"
"250036","img/neutralC/CFD-AF-240-206-N.jpg","img/neutralC/CFD-BF-041-001-N.jpg",NA,"1","1",NA,"0","1",NA,"0.48340760008432","0.679715600097552",NA,"1","1",NA,"1","1",NA,"1","1",NA
"250036","img/neutralC/CFD-LF-215-157-N.jpg",NA,"img/neutralC/CFD-BF-018-039-N.jpg","1",NA,"1","0",NA,"1","0.591175999958068",NA,"0.356007399968803","1",NA,"1","1",NA,"1","1",NA,"1"
"250036","img/neutralC/CFD-BF-018-039-N.jpg","img/neutralC/CFD-LF-215-157-N.jpg","img/neutralC/CFD-MF-321-003-N.jpg","1","1","1","1","0","0","0.356007399968803","0.591175999958068","0.320331000024453","1","1","1","1","1","1","1","1","1"
"250036","img/neutralC/CFD-MF-321-003-N.jpg","img/neutralC/CFD-BF-018-039-N.jpg","img/neutralC/CFD-WM-221-091-N.jpg","1","1","1","0","1","0","0.320331000024453","0.356007399968803","0.331941799959168","1","1","1","1","1","1","1","1","1"
"250036","img/neutralC/CFD-WM-221-091-N.jpg","img/neutralC/CFD-MF-321-003-N.jpg","img/neutralC/CFD-WF-018-017-N.jpg","1","1","1","0","0","1","0.331941799959168","0.320331000024453","0.393918400048278","1","1","1","1","1","1","1","1","1"
"250036","img/neutralC/CFD-WF-018-017-N.jpg","img/neutralC/CFD-WM-221-091-N.jpg","img/neutralC/CFD-AF-232-078-N.jpg","1","1","1","1","0","1","0.393918400048278","0.331941799959168","0.4904794000322","1","1","1","1","1","1","1","1","1"
"250036","img/neutralC/CFD-AF-232-078-N.jpg","img/neutralC/CFD-WF-018-017-N.jpg","img/neutralC/CFD-WM-237-052-N.jpg","1","1","1","1","1","1","0.4904794000322","0.393918400048278","0.410187800065614","1","1","1","1","1","1","1","1","1"
"250036","img/neutralC/CFD-WM-237-052-N.jpg","img/neutralC/CFD-AF-232-078-N.jpg","img/neutralC/CFD-WM-255-219-N.jpg","1","1","1","1","1","0","0.410187800065614","0.4904794000322","0.510689100017771","1","1","1","1","1","1","1","1","1"
"250036","img/neutralC/CFD-WM-255-219-N.jpg","img/neutralC/CFD-WM-237-052-N.jpg","img/neutralC/CFD-BF-254-201-N.jpg","1","1","1","0","1","0","0.510689100017771","0.410187800065614","0.406706100096926","1","1","1","1","1","1","1","1","1"
"250036","img/neutralC/CFD-BF-254-201-N.jpg","img/neutralC/CFD-WM-255-219-N.jpg","img/neutralC/CFD-LF-211-003-N.jpg","1","1","0","0","0","0","0.406706100096926","0.510689100017771","0.408743500011042","1","1","1","1","1","1","1","1","2"
"250036","img/neutralC/CFD-LF-211-003-N.jpg","img/neutralC/CFD-BF-254-201-N.jpg","img/neutralC/CFD-WF-226-095-N.jpg","0","1","1","0","0","1","0.408743500011042","0.406706100096926","0.438608499942347","1","1","1","1","1","1","2","1","1"
"250036","img/neutralC/CFD-WF-226-095-N.jpg","img/neutralC/CFD-LF-211-003-N.jpg","img/neutralC/CFD-IM-627-178-N.jpg","1","0","1","1","0","1","0.438608499942347","0.408743500011042","0.445749000064097","1","1","1","1","1","1","1","2","1"
"250036","img/neutralC/CFD-IM-627-178-N.jpg","img/neutralC/CFD-WF-226-095-N.jpg","img/neutralC/CFD-WF-245-084-N.jpg","1","1","1","1","1","1","0.445749000064097","0.438608499942347","0.45045919995755","1","1","1","1","1","1","1","1","1"
"250036","img/neutralC/CFD-WF-245-084-N.jpg","img/neutralC/CFD-IM-627-178-N.jpg","img/neutralC/CFD-BF-218-207-N.jpg","1","1","1","1","1","1","0.45045919995755","0.445749000064097","0.471831899951212","1","1","1","1","1","1","1","1","1"
"250036","img/neutralC/CFD-BF-218-207-N.jpg","img/neutralC/CFD-WF-245-084-N.jpg","img/neutralC/CFD-BM-200-046-N.jpg","1","1","0","1","1","0","0.471831899951212","0.45045919995755","0.710685699945316","1","1","1","1","1","1","1","1","1"
"250036","img/neutralC/CFD-BM-200-046-N.jpg","img/neutralC/CFD-BF-218-207-N.jpg","img/neutralC/CFD-WM-013-001-N.jpg","0","1","1","0","1","1","0.710685699945316","0.471831899951212","0.407484999974258","1","1","1","1","1","1","1","1","1"
"250036","img/neutralC/CFD-WM-013-001-N.jpg","img/neutralC/CFD-BM-200-046-N.jpg","img/neutralC/CFD-IF-629-234-N.jpg","1","0","0","1","0","0","0.407484999974258","0.710685699945316","0.397459500003606","1","1","1","1","1","1","1","1","1"
"250036","img/neutralC/CFD-IF-629-234-N.jpg","img/neutralC/CFD-WM-013-001-N.jpg","img/neutralC/CFD-AM-244-222-N.jpg","0","1","1","0","1","0","0.397459500003606","0.407484999974258","0.514843999990262","1","1","1","1","1","1","1","1","1"
"250036","img/neutralC/CFD-AM-244-222-N.jpg","img/neutralC/CFD-IF-629-234-N.jpg","img/neutralC/CFD-WF-027-003-N.jpg","1","0","1","0","0","1","0.514843999990262","0.397459500003606","0.476768000051379","1","1","1","1","1","1","1","1","1"
"250036","img/neutralC/CFD-WF-027-003-N.jpg","img/neutralC/CFD-AM-244-222-N.jpg","img/neutralC/CFD-BM-023-029-N.jpg","1","1","1","1","0","1","0.476768000051379","0.514843999990262","0.435140400077216","1","1","1","1","1","1","1","1","1"
"250036","img/neutralC/CFD-BM-023-029-N.jpg","img/neutralC/CFD-WF-027-003-N.jpg","img/neutralC/CFD-WM-201-063-N.jpg","1","1","1","1","1","1","0.435140400077216","0.476768000051379","0.444955299957655","1","1","1","1","1","1","1","1","1"
"250036","img/neutralC/CFD-WM-201-063-N.jpg","img/neutralC/CFD-BM-023-029-N.jpg","img/neutralC/CFD-WM-009-002-N.jpg","1","1","1","1","1","0","0.444955299957655","0.435140400077216","0.401646299986169","1","1","1","1","1","1","1","1","1"
"250036","img/neutralC/CFD-WM-009-002-N.jpg","img/neutralC/CFD-WM-201-063-N.jpg","img/neutralC/CFD-BM-204-003-N.jpg","1","1","1","0","1","0","0.401646299986169","0.444955299957655","0.423594299936667","1","1","1","1","1","1","1","1","1"
"250036","img/neutralC/CFD-BM-204-003-N.jpg","img/neutralC/CFD-WM-009-002-N.jpg","img/neutralC/CFD-IM-719-221-N.jpg","1","1","0","0","0","0","0.423594299936667","0.401646299986169","0.372861200012267","1","1","1","1","1","1","1","1","1"
"250036","img/neutralC/CFD-IM-719-221-N.jpg","img/neutralC/CFD-BM-204-003-N.jpg","img/neutralC/CFD-IM-700-009-N.jpg","0","1","1","0","0","1","0.372861200012267","0.423594299936667","0.393851200002246","1","1","1","1","1","1","1","1","1"
"250036","img/neutralC/CFD-IM-700-009-N.jpg","img/neutralC/CFD-IM-719-221-N.jpg","img/neutralC/CFD-MF-342-022-N.jpg","1","0","1","1","0","1","0.393851200002246","0.372861200012267","0.413443400058895","1","1","1","1","1","1","1","1","1"
"250036","img/neutralC/CFD-MF-342-022-N.jpg","img/neutralC/CFD-IM-700-009-N.jpg","img/neutralC/CFD-AF-221-147-N.jpg","1","1","1","1","1","0","0.413443400058895","0.393851200002246","0.504208200029097","1","1","1","1","1","1","1","1","1"
"250036","img/neutralC/CFD-AF-221-147-N.jpg","img/neutralC/CFD-MF-342-022-N.jpg","img/neutralC/CFD-LM-253-075-N.jpg","1","1","1","0","1","0","0.504208200029097","0.413443400058895","0.42653319996316","1","1","1","1","1","1","1","1","1"
"250036","img/neutralC/CFD-LM-253-075-N.jpg","img/neutralC/CFD-AF-221-147-N.jpg","img/neutralC/CFD-WF-238-023-N.jpg","1","1","1","0","0","0","0.42653319996316","0.504208200029097","0.612408199929632","1","1","1","1","1","1","1","1","1"
"250036","img/neutralC/CFD-WF-238-023-N.jpg","img/neutralC/CFD-LM-253-075-N.jpg","img/neutralC/CFD-MM-321-021-N.jpg","1","1","1","0","0","0","0.612408199929632","0.42653319996316","0.475847200024873","1","1","1","1","1","1","1","1","1"
"250036","img/neutralC/CFD-MM-321-021-N.jpg","img/neutralC/CFD-WF-238-023-N.jpg","img/neutralC/CFD-WF-023-003-N.jpg","1","1","1","0","0","1","0.475847200024873","0.612408199929632","0.511688100057654","1","1","1","1","1","1","1","1","1"
"250036","img/neutralC/CFD-WF-023-003-N.jpg","img/neutralC/CFD-MM-321-021-N.jpg","img/neutralC/CFD-MF-318-022-N.jpg","1","1","1","1","0","1","0.511688100057654","0.475847200024873","0.481905299937352","1","1","1","1","1","1","1","1","1"
"250036","img/neutralC/CFD-MF-318-022-N.jpg","img/neutralC/CFD-WF-023-003-N.jpg",NA,"1","1",NA,"1","1",NA,"0.481905299937352","0.511688100057654",NA,"1","1",NA,"1","1",NA,"1","1",NA
"250036","img/neutralC/CFD-BF-237-172-N.jpg",NA,"img/neutralC/CFD-AF-233-190-N.jpg","1",NA,"1","1",NA,"0","0.709840400028042",NA,"0.555930199916475","1",NA,"1","1",NA,"1","1",NA,"1"
"250036","img/neutralC/CFD-AF-233-190-N.jpg","img/neutralC/CFD-BF-237-172-N.jpg","img/neutralC/CFD-AF-253-130-N.jpg","1","1","1","0","1","1","0.555930199916475","0.709840400028042","0.548909800010733","1","1","1","1","1","1","1","1","1"
"250036","img/neutralC/CFD-AF-253-130-N.jpg","img/neutralC/CFD-AF-233-190-N.jpg","img/neutralC/CFD-BF-014-002-N.jpg","1","1","1","1","0","1","0.548909800010733","0.555930199916475","0.410039399983361","1","1","1","1","1","1","1","1","1"
"250036","img/neutralC/CFD-BF-014-002-N.jpg","img/neutralC/CFD-AF-253-130-N.jpg","img/neutralC/CFD-WF-030-002-N.jpg","1","1","1","1","1","0","0.410039399983361","0.548909800010733","0.391661799978465","1","1","1","1","1","1","1","1","1"
"250036","img/neutralC/CFD-WF-030-002-N.jpg","img/neutralC/CFD-BF-014-002-N.jpg","img/neutralC/CFD-WM-218-074-N.jpg","1","1","1","0","1","1","0.391661799978465","0.410039399983361","0.55236790003255","1","1","1","1","1","1","1","1","1"
"250036","img/neutralC/CFD-WM-218-074-N.jpg","img/neutralC/CFD-WF-030-002-N.jpg","img/neutralC/CFD-MF-343-001-N.jpg","1","1","1","1","0","1","0.55236790003255","0.391661799978465","0.532737700035796","1","1","1","1","1","1","1","1","1"
"250036","img/neutralC/CFD-MF-343-001-N.jpg","img/neutralC/CFD-WM-218-074-N.jpg","img/neutralC/CFD-MF-305-014-N.jpg","1","1","1","1","1","1","0.532737700035796","0.55236790003255","0.422430300037377","1","1","1","1","1","1","1","1","1"
"250036","img/neutralC/CFD-MF-305-014-N.jpg","img/neutralC/CFD-MF-343-001-N.jpg","img/neutralC/CFD-IF-660-464-N.jpg","1","1","1","1","1","0","0.422430300037377","0.532737700035796","0.473662200034596","1","1","1","1","1","1","1","1","1"
"250036","img/neutralC/CFD-IF-660-464-N.jpg","img/neutralC/CFD-MF-305-014-N.jpg","img/neutralC/CFD-IM-706-002-N.jpg","1","1","1","0","1","0","0.473662200034596","0.422430300037377","0.489992699935101","1","1","1","1","1","1","1","1","1"
"250036","img/neutralC/CFD-IM-706-002-N.jpg","img/neutralC/CFD-IF-660-464-N.jpg","img/neutralC/CFD-BM-217-082-N.jpg","1","1","1","0","0","0","0.489992699935101","0.473662200034596","0.477959099924192","1","1","1","1","1","1","1","1","1"
"250036","img/neutralC/CFD-BM-217-082-N.jpg","img/neutralC/CFD-IM-706-002-N.jpg","img/neutralC/CFD-MF-316-001-N.jpg","1","1","0","0","0","0","0.477959099924192","0.489992699935101","0.45939869992435","1","1","1","1","1","1","1","1","2"
"250036","img/neutralC/CFD-MF-316-001-N.jpg","img/neutralC/CFD-BM-217-082-N.jpg","img/neutralC/CFD-LF-255-088-N.jpg","0","1","1","0","0","0","0.45939869992435","0.477959099924192","0.530241600004956","1","1","1","1","1","1","2","1","1"
"250036","img/neutralC/CFD-LF-255-088-N.jpg","img/neutralC/CFD-MF-316-001-N.jpg","img/neutralC/CFD-IF-626-375-N.jpg","1","0","1","0","0","0","0.530241600004956","0.45939869992435","0.489988199900836","1","1","1","1","1","1","1","2","1"
"250036","img/neutralC/CFD-IF-626-375-N.jpg","img/neutralC/CFD-LF-255-088-N.jpg","img/neutralC/CFD-WF-007-001-N.jpg","1","1","1","0","0","1","0.489988199900836","0.530241600004956","0.496040800004266","1","1","1","1","1","1","1","1","1"
"250036","img/neutralC/CFD-WF-007-001-N.jpg","img/neutralC/CFD-IF-626-375-N.jpg","img/neutralC/CFD-IM-680-369-N.jpg","1","1","1","1","0","1","0.496040800004266","0.489988199900836","0.386612200061791","1","1","1","1","1","1","1","1","1"
"250036","img/neutralC/CFD-IM-680-369-N.jpg","img/neutralC/CFD-WF-007-001-N.jpg","img/neutralC/CFD-MF-357-002-N.jpg","1","1","1","1","1","0","0.386612200061791","0.496040800004266","0.53618599998299","1","1","1","1","1","1","1","1","1"
"250036","img/neutralC/CFD-MF-357-002-N.jpg","img/neutralC/CFD-IM-680-369-N.jpg","img/neutralC/CFD-WF-222-092-N.jpg","1","1","1","0","1","1","0.53618599998299","0.386612200061791","0.400863000075333","1","1","1","1","1","1","1","1","1"
"250036","img/neutralC/CFD-WF-222-092-N.jpg","img/neutralC/CFD-MF-357-002-N.jpg","img/neutralC/CFD-LM-225-130-N.jpg","1","1","1","1","0","0","0.400863000075333","0.53618599998299","0.392280100029893","1","1","1","1","1","1","1","1","1"
"250036","img/neutralC/CFD-LM-225-130-N.jpg","img/neutralC/CFD-WF-222-092-N.jpg","img/neutralC/CFD-WM-015-002-N.jpg","1","1","1","0","1","0","0.392280100029893","0.400863000075333","0.556661600014195","1","1","1","1","1","1","1","1","1"
"250036","img/neutralC/CFD-WM-015-002-N.jpg","img/neutralC/CFD-LM-225-130-N.jpg","img/neutralC/CFD-LF-206-078-N.jpg","1","1","1","0","0","1","0.556661600014195","0.392280100029893","0.429052800056525","1","1","1","1","1","1","1","1","1"
"250036","img/neutralC/CFD-LF-206-078-N.jpg","img/neutralC/CFD-WM-015-002-N.jpg","img/neutralC/CFD-WF-244-163-N.jpg","1","1","1","1","0","1","0.429052800056525","0.556661600014195","0.362328000017442","1","1","1","1","1","1","1","1","1"
"250036","img/neutralC/CFD-WF-244-163-N.jpg","img/neutralC/CFD-LF-206-078-N.jpg","img/neutralC/CFD-IM-664-651-N.jpg","1","1","0","1","1","1","0.362328000017442","0.429052800056525","0.368032699916512","1","1","1","1","1","1","1","1","1"
"250036","img/neutralC/CFD-IM-664-651-N.jpg","img/neutralC/CFD-WF-244-163-N.jpg","img/neutralC/CFD-BM-250-170-N.jpg","0","1","1","1","1","1","0.368032699916512","0.362328000017442","0.396483899909072","1","1","1","1","1","1","1","1","1"
"250036","img/neutralC/CFD-BM-250-170-N.jpg","img/neutralC/CFD-IM-664-651-N.jpg","img/neutralC/CFD-MF-303-013-N.jpg","1","0","1","1","1","0","0.396483899909072","0.368032699916512","0.60622970003169","1","1","1","1","1","1","1","1","1"
"250036","img/neutralC/CFD-MF-303-013-N.jpg","img/neutralC/CFD-BM-250-170-N.jpg","img/neutralC/CFD-WM-209-038-N.jpg","1","1","1","0","1","0","0.60622970003169","0.396483899909072","0.42623779992573","1","1","1","1","1","1","1","1","1"
"250036","img/neutralC/CFD-WM-209-038-N.jpg","img/neutralC/CFD-MF-303-013-N.jpg","img/neutralC/CFD-BM-001-014-N.jpg","1","1","1","0","0","0","0.42623779992573","0.60622970003169","0.492119299946353","1","1","1","1","1","1","1","1","1"
"250036","img/neutralC/CFD-BM-001-014-N.jpg","img/neutralC/CFD-WM-209-038-N.jpg","img/neutralC/CFD-IM-667-369-N.jpg","1","1","1","0","0","0","0.492119299946353","0.42623779992573","0.447988100000657","1","1","1","1","1","1","1","1","1"
"250036","img/neutralC/CFD-IM-667-369-N.jpg","img/neutralC/CFD-BM-001-014-N.jpg","img/neutralC/CFD-IM-702-101-N.jpg","1","1","1","0","0","1","0.447988100000657","0.492119299946353","0.380554800038226","1","1","1","1","1","1","1","1","1"
"250036","img/neutralC/CFD-IM-702-101-N.jpg","img/neutralC/CFD-IM-667-369-N.jpg","img/neutralC/CFD-LM-200-045-N.jpg","1","1","1","1","0","1","0.380554800038226","0.447988100000657","0.392060099984519","1","1","1","1","1","1","1","1","1"
"250036","img/neutralC/CFD-LM-200-045-N.jpg","img/neutralC/CFD-IM-702-101-N.jpg","img/neutralC/CFD-MM-324-069-N.jpg","1","1","1","1","1","1","0.392060099984519","0.380554800038226","0.485772300045937","1","1","1","1","1","1","1","1","1"
"250036","img/neutralC/CFD-MM-324-069-N.jpg","img/neutralC/CFD-LM-200-045-N.jpg","img/neutralC/CFD-AM-220-134-N.jpg","1","1","1","1","1","0","0.485772300045937","0.392060099984519","0.593760700081475","1","1","1","1","1","1","1","1","1"
"250036","img/neutralC/CFD-AM-220-134-N.jpg","img/neutralC/CFD-MM-324-069-N.jpg",NA,"1","1",NA,"0","1",NA,"0.593760700081475","0.485772300045937",NA,"1","1",NA,"1","1",NA,"1","1",NA
"250036","img/neutralC/CFD-WM-248-036-N.jpg",NA,"img/neutralC/CFD-IM-696-001-N.jpg","1",NA,"1","1",NA,"0","0.588185300002806",NA,"0.584920999943279","1",NA,"1","1",NA,"1","1",NA,"1"
"250036","img/neutralC/CFD-IM-696-001-N.jpg","img/neutralC/CFD-WM-248-036-N.jpg","img/neutralC/CFD-BF-207-004-N.jpg","1","1","1","0","1","1","0.584920999943279","0.588185300002806","0.33542379993014","1","1","1","1","1","1","1","1","1"
"250036","img/neutralC/CFD-BF-207-004-N.jpg","img/neutralC/CFD-IM-696-001-N.jpg","img/neutralC/CFD-BF-247-179-N.jpg","1","1","1","1","0","0","0.33542379993014","0.584920999943279","0.384596400079317","1","1","1","1","1","1","1","1","1"
"250036","img/neutralC/CFD-BF-247-179-N.jpg","img/neutralC/CFD-BF-207-004-N.jpg","img/neutralC/CFD-BM-207-024-N.jpg","1","1","1","0","1","1","0.384596400079317","0.33542379993014","0.399065600009635","1","1","1","1","1","1","1","1","1"
"250036","img/neutralC/CFD-BM-207-024-N.jpg","img/neutralC/CFD-BF-247-179-N.jpg","img/neutralC/CFD-AM-230-150-N.jpg","1","1","1","1","0","0","0.399065600009635","0.384596400079317","0.456592200091109","1","1","1","1","1","1","1","1","1"
"250036","img/neutralC/CFD-AM-230-150-N.jpg","img/neutralC/CFD-BM-207-024-N.jpg","img/neutralC/CFD-BM-241-235-N.jpg","1","1","1","0","1","0","0.456592200091109","0.399065600009635","0.403907999978401","1","1","1","1","1","1","1","1","1"
"250036","img/neutralC/CFD-BM-241-235-N.jpg","img/neutralC/CFD-AM-230-150-N.jpg","img/neutralC/CFD-WM-034-030-N.jpg","1","1","1","0","0","1","0.403907999978401","0.456592200091109","0.379130300018005","1","1","1","1","1","1","1","1","1"
"250036","img/neutralC/CFD-WM-034-030-N.jpg","img/neutralC/CFD-BM-241-235-N.jpg","img/neutralC/CFD-LF-204-133-N.jpg","1","1","1","1","0","1","0.379130300018005","0.403907999978401","0.57605410006363","1","1","1","1","1","1","1","1","1"
"250036","img/neutralC/CFD-LF-204-133-N.jpg","img/neutralC/CFD-WM-034-030-N.jpg","img/neutralC/CFD-BM-238-242-N.jpg","1","1","1","1","1","0","0.57605410006363","0.379130300018005","0.492088900064118","1","1","1","1","1","1","1","1","1"
"250036","img/neutralC/CFD-BM-238-242-N.jpg","img/neutralC/CFD-LF-204-133-N.jpg","img/neutralC/CFD-WF-029-002-N.jpg","1","1","1","0","1","0","0.492088900064118","0.57605410006363","0.403173000086099","1","1","1","1","1","1","1","1","1"
"250036","img/neutralC/CFD-WF-029-002-N.jpg","img/neutralC/CFD-BM-238-242-N.jpg","img/neutralC/CFD-WF-234-086-N.jpg","1","1","1","0","0","1","0.403173000086099","0.492088900064118","0.425567199941724","1","1","1","1","1","1","1","1","1"
"250036","img/neutralC/CFD-WF-234-086-N.jpg","img/neutralC/CFD-WF-029-002-N.jpg","img/neutralC/CFD-BF-002-001-N.jpg","1","1","1","1","0","0","0.425567199941724","0.403173000086099","0.609374499996193","1","1","1","1","1","1","1","1","1"
"250036","img/neutralC/CFD-BF-002-001-N.jpg","img/neutralC/CFD-WF-234-086-N.jpg","img/neutralC/CFD-WF-233-112-N.jpg","1","1","1","0","1","1","0.609374499996193","0.425567199941724","0.512745299958624","1","1","1","1","1","1","1","1","1"
"250036","img/neutralC/CFD-WF-233-112-N.jpg","img/neutralC/CFD-BF-002-001-N.jpg","img/neutralC/CFD-BM-036-003-N.jpg","1","1","0","1","0","1","0.512745299958624","0.609374499996193","0.372508100001141","1","1","1","1","1","1","1","1","1"
"250036","img/neutralC/CFD-BM-036-003-N.jpg","img/neutralC/CFD-WF-233-112-N.jpg","img/neutralC/CFD-WF-208-068-N.jpg","0","1","1","1","1","1","0.372508100001141","0.512745299958624","0.481960600009188","1","1","1","1","1","1","1","1","1"
"250036","img/neutralC/CFD-WF-208-068-N.jpg","img/neutralC/CFD-BM-036-003-N.jpg","img/neutralC/CFD-IF-677-452-1-N.jpg","1","0","1","1","1","1","0.481960600009188","0.372508100001141","0.599855900043622","1","1","1","1","1","1","1","1","1"
"250036","img/neutralC/CFD-IF-677-452-1-N.jpg","img/neutralC/CFD-WF-208-068-N.jpg","img/neutralC/CFD-BF-011-002-N.jpg","1","1","1","1","1","1","0.599855900043622","0.481960600009188","0.458811599994078","1","1","1","1","1","1","1","1","1"
"250036","img/neutralC/CFD-BF-011-002-N.jpg","img/neutralC/CFD-IF-677-452-1-N.jpg","img/neutralC/CFD-IM-721-341-N.jpg","1","1","1","1","1","1","0.458811599994078","0.599855900043622","0.472554899984971","1","1","1","1","1","1","1","1","1"
"250036","img/neutralC/CFD-IM-721-341-N.jpg","img/neutralC/CFD-BF-011-002-N.jpg","img/neutralC/CFD-BF-027-002-N.jpg","1","1","1","1","1","1","0.472554899984971","0.458811599994078","0.511733300052583","1","1","1","1","1","1","1","1","1"
"250036","img/neutralC/CFD-BF-027-002-N.jpg","img/neutralC/CFD-IM-721-341-N.jpg","img/neutralC/CFD-IF-729-393-N.jpg","1","1","1","1","1","0","0.511733300052583","0.472554899984971","0.545864299987443","1","1","1","1","1","1","1","1","1"
"250036","img/neutralC/CFD-IF-729-393-N.jpg","img/neutralC/CFD-BF-027-002-N.jpg","img/neutralC/CFD-BF-006-017-N.jpg","1","1","1","0","1","0","0.545864299987443","0.511733300052583","0.452259799931198","1","1","1","1","1","1","1","1","1"
"250036","img/neutralC/CFD-BF-006-017-N.jpg","img/neutralC/CFD-IF-729-393-N.jpg","img/neutralC/CFD-IM-726-248-N.jpg","1","1","1","0","0","0","0.452259799931198","0.545864299987443","0.62500760005787","1","1","1","1","1","1","1","1","1"
"250036","img/neutralC/CFD-IM-726-248-N.jpg","img/neutralC/CFD-BF-006-017-N.jpg","img/neutralC/CFD-IF-742-103-N.jpg","1","1","1","0","0","1","0.62500760005787","0.452259799931198","0.351521600037813","1","1","1","1","1","1","1","1","1"
"250036","img/neutralC/CFD-IF-742-103-N.jpg","img/neutralC/CFD-IM-726-248-N.jpg","img/neutralC/CFD-BF-036-027-N.jpg","1","1","1","1","0","0","0.351521600037813","0.62500760005787","0.336771000060253","1","1","1","1","1","1","1","1","1"
"250036","img/neutralC/CFD-BF-036-027-N.jpg","img/neutralC/CFD-IF-742-103-N.jpg","img/neutralC/CFD-BF-044-034-N.jpg","1","1","0","0","1","0","0.336771000060253","0.351521600037813","0.368151200003922","1","1","1","1","1","1","1","1","1"
"250036","img/neutralC/CFD-BF-044-034-N.jpg","img/neutralC/CFD-BF-036-027-N.jpg","img/neutralC/CFD-WM-014-002-N.jpg","0","1","1","0","0","0","0.368151200003922","0.336771000060253","0.625136799993925","1","1","1","1","1","1","1","1","1"
"250036","img/neutralC/CFD-WM-014-002-N.jpg","img/neutralC/CFD-BF-044-034-N.jpg","img/neutralC/CFD-BF-236-177-N.jpg","1","0","1","0","0","0","0.625136799993925","0.368151200003922","0.5159021000145","1","1","1","1","1","1","1","1","1"
"250036","img/neutralC/CFD-BF-236-177-N.jpg","img/neutralC/CFD-WM-014-002-N.jpg","img/neutralC/CFD-MF-301-024-N.jpg","1","1","0","0","0","0","0.5159021000145","0.625136799993925","0.364032999961637","1","1","1","1","1","1","1","1","1"
"250036","img/neutralC/CFD-MF-301-024-N.jpg","img/neutralC/CFD-BF-236-177-N.jpg","img/neutralC/CFD-BF-214-308-N.jpg","0","1","0","0","0","1","0.364032999961637","0.5159021000145","0.376450799987651","1","1","1","1","1","1","1","1","1"
"250036","img/neutralC/CFD-BF-214-308-N.jpg","img/neutralC/CFD-MF-301-024-N.jpg","img/neutralC/CFD-LM-213-061-N.jpg","0","0","1","1","0","0","0.376450799987651","0.364032999961637","0.52308409998659","1","1","1","1","1","1","1","1","1"
"250036","img/neutralC/CFD-LM-213-061-N.jpg","img/neutralC/CFD-BF-214-308-N.jpg","img/neutralC/CFD-IM-707-105-N.jpg","1","0","1","0","1","1","0.52308409998659","0.376450799987651","0.41900190000888","1","1","1","1","1","1","1","1","1"
"250036","img/neutralC/CFD-IM-707-105-N.jpg","img/neutralC/CFD-LM-213-061-N.jpg",NA,"1","1",NA,"1","0",NA,"0.41900190000888","0.52308409998659",NA,"1","1",NA,"1","1",NA,"1","1",NA
"250036","img/neutralC/CFD-WF-022-017-N.jpg",NA,"img/neutralC/CFD-IM-674-281-N.jpg","1",NA,"1","0",NA,"1","0.574503800016828",NA,"0.369510699994862","1",NA,"1","1",NA,"1","1",NA,"1"
"250036","img/neutralC/CFD-IM-674-281-N.jpg","img/neutralC/CFD-WF-022-017-N.jpg","img/neutralC/CFD-WM-038-003-N.jpg","1","1","0","1","0","0","0.369510699994862","0.574503800016828","0.38459969998803","1","1","1","1","1","1","1","1","1"
"250036","img/neutralC/CFD-WM-038-003-N.jpg","img/neutralC/CFD-IM-674-281-N.jpg","img/neutralC/CFD-WM-257-161-N.jpg","0","1","1","0","1","1","0.38459969998803","0.369510699994862","0.426121199969202","1","1","1","1","1","1","1","1","1"
"250036","img/neutralC/CFD-WM-257-161-N.jpg","img/neutralC/CFD-WM-038-003-N.jpg","img/neutralC/CFD-BF-255-140-N.jpg","1","0","1","1","0","1","0.426121199969202","0.38459969998803","0.40363260009326","1","1","1","1","1","1","1","1","1"
"250036","img/neutralC/CFD-BF-255-140-N.jpg","img/neutralC/CFD-WM-257-161-N.jpg","img/neutralC/CFD-BF-003-003-N.jpg","1","1","1","1","1","0","0.40363260009326","0.426121199969202","0.406510600005277","1","1","1","1","1","1","1","1","1"
"250036","img/neutralC/CFD-BF-003-003-N.jpg","img/neutralC/CFD-BF-255-140-N.jpg","img/neutralC/CFD-AM-217-085-N.jpg","1","1","1","0","1","0","0.406510600005277","0.40363260009326","0.42289940000046","1","1","1","1","1","1","1","1","1"
"250036","img/neutralC/CFD-AM-217-085-N.jpg","img/neutralC/CFD-BF-003-003-N.jpg","img/neutralC/CFD-MM-319-052-N.jpg","1","1","1","0","0","1","0.42289940000046","0.406510600005277","0.323903399985284","1","1","1","1","1","1","1","1","1"
"250036","img/neutralC/CFD-MM-319-052-N.jpg","img/neutralC/CFD-AM-217-085-N.jpg","img/neutralC/CFD-LM-252-076-N.jpg","1","1","1","1","0","1","0.323903399985284","0.42289940000046","0.455455799936317","1","1","1","1","1","1","1","1","1"
"250036","img/neutralC/CFD-LM-252-076-N.jpg","img/neutralC/CFD-MM-319-052-N.jpg","img/neutralC/CFD-AM-235-241-N.jpg","1","1","0","1","1","0","0.455455799936317","0.323903399985284","0.382162500056438","1","1","1","1","1","1","1","1","1"
"250036","img/neutralC/CFD-AM-235-241-N.jpg","img/neutralC/CFD-LM-252-076-N.jpg","img/neutralC/CFD-IF-718-001-N.jpg","0","1","0","0","1","1","0.382162500056438","0.455455799936317","0.345990000059828","1","1","1","1","1","1","1","1","1"
"250036","img/neutralC/CFD-IF-718-001-N.jpg","img/neutralC/CFD-AM-235-241-N.jpg","img/neutralC/CFD-BF-023-010-N.jpg","0","0","1","1","0","1","0.345990000059828","0.382162500056438","0.413868100033142","1","1","1","1","1","1","1","1","1"
"250036","img/neutralC/CFD-BF-023-010-N.jpg","img/neutralC/CFD-IF-718-001-N.jpg","img/neutralC/CFD-BM-015-015-N.jpg","1","0","1","1","1","0","0.413868100033142","0.345990000059828","0.440178100019693","1","1","1","1","1","1","1","1","1"
"250036","img/neutralC/CFD-BM-015-015-N.jpg","img/neutralC/CFD-BF-023-010-N.jpg","img/neutralC/CFD-WF-002-004-N.jpg","1","1","0","0","1","0","0.440178100019693","0.413868100033142","0.356701600016095","1","1","1","1","1","1","1","1","1"
"250036","img/neutralC/CFD-WF-002-004-N.jpg","img/neutralC/CFD-BM-015-015-N.jpg","img/neutralC/CFD-BM-027-001-N.jpg","0","1","1","0","0","0","0.356701600016095","0.440178100019693","0.392780199996196","1","1","1","1","1","1","1","1","1"
"250036","img/neutralC/CFD-BM-027-001-N.jpg","img/neutralC/CFD-WF-002-004-N.jpg","img/neutralC/CFD-AM-215-120-N.jpg","1","0","1","0","0","1","0.392780199996196","0.356701600016095","0.362575100036338","1","1","1","1","1","1","1","1","1"
"250036","img/neutralC/CFD-AM-215-120-N.jpg","img/neutralC/CFD-BM-027-001-N.jpg","img/neutralC/CFD-BM-029-024-N.jpg","1","1","1","1","0","1","0.362575100036338","0.392780199996196","0.399657499976456","1","1","1","1","1","1","1","1","1"
"250036","img/neutralC/CFD-BM-029-024-N.jpg","img/neutralC/CFD-AM-215-120-N.jpg","img/neutralC/CFD-BF-204-189-N.jpg","1","1","1","1","1","1","0.399657499976456","0.362575100036338","0.45751510001719","1","1","1","1","1","1","1","1","1"
"250036","img/neutralC/CFD-BF-204-189-N.jpg","img/neutralC/CFD-BM-029-024-N.jpg","img/neutralC/CFD-LF-216-121-N.jpg","1","1","1","1","1","1","0.45751510001719","0.399657499976456","0.436691300012171","1","1","1","1","1","1","1","1","1"
"250036","img/neutralC/CFD-LF-216-121-N.jpg","img/neutralC/CFD-BF-204-189-N.jpg","img/neutralC/CFD-WM-002-009-N.jpg","1","1","0","1","1","0","0.436691300012171","0.45751510001719","0.335873200092465","1","1","1","1","1","1","1","1","1"
"250036","img/neutralC/CFD-WM-002-009-N.jpg","img/neutralC/CFD-LF-216-121-N.jpg","img/neutralC/CFD-WM-225-127-N.jpg","0","1","1","0","1","0","0.335873200092465","0.436691300012171","0.468753600027412","1","1","1","1","1","1","1","1","1"
"250036","img/neutralC/CFD-WM-225-127-N.jpg","img/neutralC/CFD-WM-002-009-N.jpg","img/neutralC/CFD-BM-247-240-N.jpg","1","0","1","0","0","0","0.468753600027412","0.335873200092465","0.40335449995473","1","1","1","1","1","1","1","1","1"
"250036","img/neutralC/CFD-BM-247-240-N.jpg","img/neutralC/CFD-WM-225-127-N.jpg","img/neutralC/CFD-BM-211-174-N.jpg","1","1","1","0","0","0","0.40335449995473","0.468753600027412","0.53925250004977","1","1","1","1","1","1","1","1","1"
"250036","img/neutralC/CFD-BM-211-174-N.jpg","img/neutralC/CFD-BM-247-240-N.jpg","img/neutralC/CFD-IM-728-041-N.jpg","1","1","0","0","0","0","0.53925250004977","0.40335449995473","0.427467299974523","1","1","1","1","1","1","1","1","1"
"250036","img/neutralC/CFD-IM-728-041-N.jpg","img/neutralC/CFD-BM-211-174-N.jpg","img/neutralC/CFD-BF-028-001-N.jpg","0","1","1","0","0","1","0.427467299974523","0.53925250004977","0.442215800052509","1","1","1","1","1","1","1","1","1"
"250036","img/neutralC/CFD-BF-028-001-N.jpg","img/neutralC/CFD-IM-728-041-N.jpg","img/neutralC/CFD-IM-639-263-N.jpg","1","0","1","1","0","1","0.442215800052509","0.427467299974523","0.451379499980249","1","1","1","1","1","1","1","1","1"
"250036","img/neutralC/CFD-IM-639-263-N.jpg","img/neutralC/CFD-BF-028-001-N.jpg","img/neutralC/CFD-LF-236-221-N.jpg","1","1","1","1","1","1","0.451379499980249","0.442215800052509","0.374927700031549","1","1","1","1","1","1","1","1","1"
"250036","img/neutralC/CFD-LF-236-221-N.jpg","img/neutralC/CFD-IM-639-263-N.jpg","img/neutralC/CFD-WF-026-002-N.jpg","1","1","1","1","1","1","0.374927700031549","0.451379499980249","0.53178899991326","1","1","1","1","1","1","1","1","1"
"250036","img/neutralC/CFD-WF-026-002-N.jpg","img/neutralC/CFD-LF-236-221-N.jpg","img/neutralC/CFD-IF-672-305-N.jpg","1","1","1","1","1","0","0.53178899991326","0.374927700031549","0.328860400011763","1","1","1","1","1","1","1","1","1"
"250036","img/neutralC/CFD-IF-672-305-N.jpg","img/neutralC/CFD-WF-026-002-N.jpg","img/neutralC/CFD-BF-201-080-N.jpg","1","1","1","0","1","1","0.328860400011763","0.53178899991326","0.52657420001924","1","1","1","1","1","1","1","1","1"
"250036","img/neutralC/CFD-BF-201-080-N.jpg","img/neutralC/CFD-IF-672-305-N.jpg","img/neutralC/CFD-WM-040-022-N.jpg","1","1","1","1","0","0","0.52657420001924","0.328860400011763","0.560770099982619","1","1","1","1","1","1","1","1","1"
"250036","img/neutralC/CFD-WM-040-022-N.jpg","img/neutralC/CFD-BF-201-080-N.jpg","img/neutralC/CFD-BF-208-266-N.jpg","1","1","1","0","1","0","0.560770099982619","0.52657420001924","0.521399199962616","1","1","1","1","1","1","1","1","1"
"250036","img/neutralC/CFD-BF-208-266-N.jpg","img/neutralC/CFD-WM-040-022-N.jpg",NA,"1","1",NA,"0","0",NA,"0.521399199962616","0.560770099982619",NA,"1","1",NA,"1","1",NA,"1","1",NA
"250036","img/neutralC/CFD-AM-205-153-N.jpg",NA,"img/neutralC/CFD-BM-021-021-N.jpg","1",NA,"1","1",NA,"1","0.49995129997842",NA,"0.444439599988982","1",NA,"1","1",NA,"1","1",NA,"1"
"250036","img/neutralC/CFD-BM-021-021-N.jpg","img/neutralC/CFD-AM-205-153-N.jpg","img/neutralC/CFD-IF-676-017-N.jpg","1","1","1","1","1","1","0.444439599988982","0.49995129997842","0.329494599951431","1","1","1","1","1","1","1","1","1"
"250036","img/neutralC/CFD-IF-676-017-N.jpg","img/neutralC/CFD-BM-021-021-N.jpg","img/neutralC/CFD-LM-240-013-N.jpg","1","1","0","1","1","1","0.329494599951431","0.444439599988982","0.391764300060458","1","1","1","1","1","1","1","1","1"
"250036","img/neutralC/CFD-LM-240-013-N.jpg","img/neutralC/CFD-IF-676-017-N.jpg","img/neutralC/CFD-BM-020-001-N.jpg","0","1","1","1","1","0","0.391764300060458","0.329494599951431","0.439400699920952","1","1","1","1","1","1","1","1","1"
"250036","img/neutralC/CFD-BM-020-001-N.jpg","img/neutralC/CFD-LM-240-013-N.jpg","img/neutralC/CFD-WF-221-005-N.jpg","1","0","1","0","1","0","0.439400699920952","0.391764300060458","0.3742365000071","1","1","1","1","1","1","1","1","1"
"250036","img/neutralC/CFD-WF-221-005-N.jpg","img/neutralC/CFD-BM-020-001-N.jpg","img/neutralC/CFD-LF-222-147-N.jpg","1","1","1","0","0","0","0.3742365000071","0.439400699920952","0.514713000040501","1","1","1","1","1","1","1","1","1"
"250036","img/neutralC/CFD-LF-222-147-N.jpg","img/neutralC/CFD-WF-221-005-N.jpg","img/neutralC/CFD-WF-243-148-N.jpg","1","1","1","0","0","0","0.514713000040501","0.3742365000071","0.451885599992238","1","1","1","1","1","1","1","1","1"
"250036","img/neutralC/CFD-WF-243-148-N.jpg","img/neutralC/CFD-LF-222-147-N.jpg","img/neutralC/CFD-BF-012-001-N.jpg","1","1","1","0","0","0","0.451885599992238","0.514713000040501","0.382416200009175","1","1","1","1","1","1","1","1","1"
"250036","img/neutralC/CFD-BF-012-001-N.jpg","img/neutralC/CFD-WF-243-148-N.jpg","img/neutralC/CFD-WM-023-001-N.jpg","1","1","0","0","0","0","0.382416200009175","0.451885599992238","0.316197999985889","1","1","1","1","1","1","1","1","1"
"250036","img/neutralC/CFD-WM-023-001-N.jpg","img/neutralC/CFD-BF-012-001-N.jpg","img/neutralC/CFD-WM-028-003-N.jpg","0","1","1","0","0","1","0.316197999985889","0.382416200009175","0.448122799978592","1","1","1","1","1","1","1","1","1"
"250036","img/neutralC/CFD-WM-028-003-N.jpg","img/neutralC/CFD-WM-023-001-N.jpg","img/neutralC/CFD-BM-227-191-N.jpg","1","0","1","1","0","1","0.448122799978592","0.316197999985889","0.441478000022471","1","1","1","1","1","1","1","1","1"
"250036","img/neutralC/CFD-BM-227-191-N.jpg","img/neutralC/CFD-WM-028-003-N.jpg","img/neutralC/CFD-LF-238-154-N.jpg","1","1","0","1","1","1","0.441478000022471","0.448122799978592","0.658547900035046","1","1","1","1","1","1","1","1","1"
"250036","img/neutralC/CFD-LF-238-154-N.jpg","img/neutralC/CFD-BM-227-191-N.jpg","img/neutralC/CFD-WF-009-001-N.jpg","0","1","1","1","1","1","0.658547900035046","0.441478000022471","0.536379300057888","1","1","1","1","1","1","1","1","1"
"250036","img/neutralC/CFD-WF-009-001-N.jpg","img/neutralC/CFD-LF-238-154-N.jpg","img/neutralC/CFD-AM-243-212-N.jpg","1","0","1","1","1","1","0.536379300057888","0.658547900035046","0.406694300007075","1","1","1","1","1","1","1","1","1"
"250036","img/neutralC/CFD-AM-243-212-N.jpg","img/neutralC/CFD-WF-009-001-N.jpg","img/neutralC/CFD-AF-237-223-N.jpg","1","1","1","1","1","0","0.406694300007075","0.536379300057888","0.492237999918871","1","1","1","1","1","1","1","1","1"
"250036","img/neutralC/CFD-AF-237-223-N.jpg","img/neutralC/CFD-AM-243-212-N.jpg","img/neutralC/CFD-MM-306-010-N.jpg","1","1","1","0","1","0","0.492237999918871","0.406694300007075","0.454229099908844","1","1","1","1","1","1","1","1","1"
"250036","img/neutralC/CFD-MM-306-010-N.jpg","img/neutralC/CFD-AF-237-223-N.jpg","img/neutralC/CFD-WF-207-014-N.jpg","1","1","1","0","0","1","0.454229099908844","0.492237999918871","0.424302999977954","1","1","1","1","1","1","1","1","1"
"250036","img/neutralC/CFD-WF-207-014-N.jpg","img/neutralC/CFD-MM-306-010-N.jpg","img/neutralC/CFD-BM-009-002-N.jpg","1","1","1","1","0","1","0.424302999977954","0.454229099908844","0.351622499991208","1","1","1","1","1","1","1","1","1"
"250036","img/neutralC/CFD-BM-009-002-N.jpg","img/neutralC/CFD-WF-207-014-N.jpg","img/neutralC/CFD-IM-697-015-N.jpg","1","1","1","1","1","1","0.351622499991208","0.424302999977954","0.31865170004312","1","1","1","1","1","1","1","1","1"
"250036","img/neutralC/CFD-IM-697-015-N.jpg","img/neutralC/CFD-BM-009-002-N.jpg","img/neutralC/CFD-IM-606-008-N.jpg","1","1","0","1","1","0","0.31865170004312","0.351622499991208","0.350797600112855","1","1","1","1","1","1","1","1","1"
"250036","img/neutralC/CFD-IM-606-008-N.jpg","img/neutralC/CFD-IM-697-015-N.jpg","img/neutralC/CFD-WM-025-002-N.jpg","0","1","1","0","1","0","0.350797600112855","0.31865170004312","0.477760799927637","1","1","1","1","1","1","1","1","1"
"250036","img/neutralC/CFD-WM-025-002-N.jpg","img/neutralC/CFD-IM-606-008-N.jpg","img/neutralC/CFD-IM-615-167-N.jpg","1","0","1","0","0","0","0.477760799927637","0.350797600112855","0.441684999968857","1","1","1","1","1","1","1","1","1"
"250036","img/neutralC/CFD-IM-615-167-N.jpg","img/neutralC/CFD-WM-025-002-N.jpg","img/neutralC/CFD-AM-249-163-N.jpg","1","1","0","0","0","1","0.441684999968857","0.477760799927637","0.375407399958931","1","1","1","1","1","1","1","1","1"
"250036","img/neutralC/CFD-AM-249-163-N.jpg","img/neutralC/CFD-IM-615-167-N.jpg","img/neutralC/CFD-BF-244-231-N.jpg","0","1","1","1","0","1","0.375407399958931","0.441684999968857","0.361371699953452","1","1","1","1","1","1","1","1","1"
"250036","img/neutralC/CFD-BF-244-231-N.jpg","img/neutralC/CFD-AM-249-163-N.jpg","img/neutralC/CFD-BM-030-003-N.jpg","1","0","1","1","1","0","0.361371699953452","0.375407399958931","0.434202400036156","1","1","1","1","1","1","1","1","1"
"250036","img/neutralC/CFD-BM-030-003-N.jpg","img/neutralC/CFD-BF-244-231-N.jpg","img/neutralC/CFD-BM-043-071-N.jpg","1","1","1","0","1","0","0.434202400036156","0.361371699953452","0.400278399931267","1","1","1","1","1","1","1","1","1"
"250036","img/neutralC/CFD-BM-043-071-N.jpg","img/neutralC/CFD-BM-030-003-N.jpg","img/neutralC/CFD-AM-219-101-N.jpg","1","1","1","0","0","0","0.400278399931267","0.434202400036156","0.335468199918978","1","1","1","1","1","1","1","1","1"
"250036","img/neutralC/CFD-AM-219-101-N.jpg","img/neutralC/CFD-BM-043-071-N.jpg","img/neutralC/CFD-LF-212-066-N.jpg","1","1","1","0","0","1","0.335468199918978","0.400278399931267","0.331684000091627","1","1","1","1","1","1","1","1","1"
"250036","img/neutralC/CFD-LF-212-066-N.jpg","img/neutralC/CFD-AM-219-101-N.jpg","img/neutralC/CFD-WF-241-210-N.jpg","1","1","1","1","0","0","0.331684000091627","0.335468199918978","0.497111900011078","1","1","1","1","1","1","1","1","1"
"250036","img/neutralC/CFD-WF-241-210-N.jpg","img/neutralC/CFD-LF-212-066-N.jpg","img/neutralC/CFD-MF-328-020-N.jpg","1","1","0","0","1","0","0.497111900011078","0.331684000091627","0.411022300017066","1","1","1","1","1","1","1","1","2"
"250036","img/neutralC/CFD-MF-328-020-N.jpg","img/neutralC/CFD-WF-241-210-N.jpg","img/neutralC/CFD-IM-689-263-N.jpg","0","1","1","0","0","1","0.411022300017066","0.497111900011078","0.411477999994531","1","1","1","1","1","1","2","1","1"
"250036","img/neutralC/CFD-IM-689-263-N.jpg","img/neutralC/CFD-MF-328-020-N.jpg",NA,"1","0",NA,"1","0",NA,"0.411477999994531","0.411022300017066",NA,"1","1",NA,"1","1",NA,"1","2",NA
"250036","img/neutralC/CFD-WF-012-002-N.jpg",NA,"img/neutralC/CFD-IM-709-103-N.jpg","1",NA,"1","1",NA,"0","0.567777999909595",NA,"0.417678600060754","1",NA,"1","1",NA,"1","1",NA,"1"
"250036","img/neutralC/CFD-IM-709-103-N.jpg","img/neutralC/CFD-WF-012-002-N.jpg","img/neutralC/CFD-BF-224-002-N.jpg","1","1","0","0","1","1","0.417678600060754","0.567777999909595","0.303808000055142","1","1","1","1","1","1","1","1","1"
"250036","img/neutralC/CFD-BF-224-002-N.jpg","img/neutralC/CFD-IM-709-103-N.jpg","img/neutralC/CFD-MF-329-001-N.jpg","0","1","1","1","0","0","0.303808000055142","0.417678600060754","0.448832600028254","1","1","1","1","1","1","1","1","1"
"250036","img/neutralC/CFD-MF-329-001-N.jpg","img/neutralC/CFD-BF-224-002-N.jpg","img/neutralC/CFD-IM-637-007-N.jpg","1","0","1","0","1","0","0.448832600028254","0.303808000055142","0.477107899961993","1","1","1","1","1","1","1","1","1"
"250036","img/neutralC/CFD-IM-637-007-N.jpg","img/neutralC/CFD-MF-329-001-N.jpg","img/neutralC/CFD-IM-675-015-N.jpg","1","1","1","0","0","1","0.477107899961993","0.448832600028254","0.425596100045368","1","1","1","1","1","1","1","1","1"
"250036","img/neutralC/CFD-IM-675-015-N.jpg","img/neutralC/CFD-IM-637-007-N.jpg","img/neutralC/CFD-MF-300-002-N.jpg","1","1","1","1","0","0","0.425596100045368","0.477107899961993","0.486489500035532","1","1","1","1","1","1","1","1","1"
"250036","img/neutralC/CFD-MF-300-002-N.jpg","img/neutralC/CFD-IM-675-015-N.jpg","img/neutralC/CFD-WF-212-050-N.jpg","1","1","0","0","1","0","0.486489500035532","0.425596100045368","0.296471299952827","1","1","1","1","1","1","1","1","1"
"250036","img/neutralC/CFD-WF-212-050-N.jpg","img/neutralC/CFD-MF-300-002-N.jpg","img/neutralC/CFD-WF-248-129-N.jpg","0","1","1","0","0","0","0.296471299952827","0.486489500035532","0.429344599950127","1","1","1","1","1","1","1","1","1"
"250036","img/neutralC/CFD-WF-248-129-N.jpg","img/neutralC/CFD-WF-212-050-N.jpg","img/neutralC/CFD-LM-217-162-N.jpg","1","0","1","0","0","0","0.429344599950127","0.296471299952827","0.408983900095336","1","1","1","1","1","1","1","1","1"
"250036","img/neutralC/CFD-LM-217-162-N.jpg","img/neutralC/CFD-WF-248-129-N.jpg","img/neutralC/CFD-MF-327-002-N.jpg","1","1","1","0","0","0","0.408983900095336","0.429344599950127","0.411991799948737","1","1","1","1","1","1","1","1","1"
"250036","img/neutralC/CFD-MF-327-002-N.jpg","img/neutralC/CFD-LM-217-162-N.jpg","img/neutralC/CFD-WF-217-085-N.jpg","1","1","1","0","0","1","0.411991799948737","0.408983900095336","0.430240700021386","1","1","1","1","1","1","1","1","1"
"250036","img/neutralC/CFD-WF-217-085-N.jpg","img/neutralC/CFD-MF-327-002-N.jpg","img/neutralC/CFD-WM-232-070-N.jpg","1","1","1","1","0","0","0.430240700021386","0.411991799948737","0.32946689997334","1","1","1","1","1","1","1","1","1"
"250036","img/neutralC/CFD-WM-232-070-N.jpg","img/neutralC/CFD-WF-217-085-N.jpg","img/neutralC/CFD-BF-043-003-N.jpg","1","1","1","0","1","0","0.32946689997334","0.430240700021386","0.587935299961828","1","1","1","1","1","1","1","1","1"
"250036","img/neutralC/CFD-BF-043-003-N.jpg","img/neutralC/CFD-WM-232-070-N.jpg","img/neutralC/CFD-BM-243-218-N.jpg","1","1","1","0","0","1","0.587935299961828","0.32946689997334","0.360419400036335","1","1","1","1","1","1","1","1","1"
"250036","img/neutralC/CFD-BM-243-218-N.jpg","img/neutralC/CFD-BF-043-003-N.jpg","img/neutralC/CFD-AM-236-090-N.jpg","1","1","0","1","0","1","0.360419400036335","0.587935299961828","0.375795900006779","1","1","1","1","1","1","1","1","1"
"250036","img/neutralC/CFD-AM-236-090-N.jpg","img/neutralC/CFD-BM-243-218-N.jpg","img/neutralC/CFD-WM-213-076-N.jpg","0","1","1","1","1","1","0.375795900006779","0.360419400036335","0.376759200007655","1","1","1","1","1","1","1","1","1"
"250036","img/neutralC/CFD-WM-213-076-N.jpg","img/neutralC/CFD-AM-236-090-N.jpg","img/neutralC/CFD-IM-685-004-N.jpg","1","0","1","1","1","1","0.376759200007655","0.375795900006779","0.437131199985743","1","1","1","1","1","1","1","1","1"
"250036","img/neutralC/CFD-IM-685-004-N.jpg","img/neutralC/CFD-WM-213-076-N.jpg","img/neutralC/CFD-MF-340-026-N.jpg","1","1","1","1","1","1","0.437131199985743","0.376759200007655","0.374997599981725","1","1","1","1","1","1","1","1","1"
"250036","img/neutralC/CFD-MF-340-026-N.jpg","img/neutralC/CFD-IM-685-004-N.jpg","img/neutralC/CFD-LF-226-174-N.jpg","1","1","1","1","1","0","0.374997599981725","0.437131199985743","0.504819899913855","1","1","1","1","1","1","1","1","1"
"250036","img/neutralC/CFD-LF-226-174-N.jpg","img/neutralC/CFD-MF-340-026-N.jpg","img/neutralC/CFD-AF-254-167-N.jpg","1","1","1","0","1","1","0.504819899913855","0.374997599981725","0.464075800031424","1","1","1","1","1","1","1","1","1"
"250036","img/neutralC/CFD-AF-254-167-N.jpg","img/neutralC/CFD-LF-226-174-N.jpg","img/neutralC/CFD-BF-051-035-N.jpg","1","1","1","1","0","0","0.464075800031424","0.504819899913855","0.487593700061552","1","1","1","1","1","1","1","1","1"
"250036","img/neutralC/CFD-BF-051-035-N.jpg","img/neutralC/CFD-AF-254-167-N.jpg","img/neutralC/CFD-WM-024-015-N.jpg","1","1","1","0","1","1","0.487593700061552","0.464075800031424","0.386841100058518","1","1","1","1","1","1","1","1","1"
"250036","img/neutralC/CFD-WM-024-015-N.jpg","img/neutralC/CFD-BF-051-035-N.jpg","img/neutralC/CFD-MM-304-002-N.jpg","1","1","1","1","0","1","0.386841100058518","0.487593700061552","0.329561199992895","1","1","1","1","1","1","1","1","1"
"250036","img/neutralC/CFD-MM-304-002-N.jpg","img/neutralC/CFD-WM-024-015-N.jpg","img/neutralC/CFD-IF-608-390-N.jpg","1","1","1","1","1","1","0.329561199992895","0.386841100058518","0.350678799906746","1","1","1","1","1","1","1","1","1"
"250036","img/neutralC/CFD-IF-608-390-N.jpg","img/neutralC/CFD-MM-304-002-N.jpg","img/neutralC/CFD-IM-604-014-N.jpg","1","1","1","1","1","0","0.350678799906746","0.329561199992895","0.440236900001764","1","1","1","1","1","1","1","1","1"
"250036","img/neutralC/CFD-IM-604-014-N.jpg","img/neutralC/CFD-IF-608-390-N.jpg","img/neutralC/CFD-LF-201-035-N.jpg","1","1","1","0","1","1","0.440236900001764","0.350678799906746","0.409041599952616","1","1","1","1","1","1","1","1","1"
"250036","img/neutralC/CFD-LF-201-035-N.jpg","img/neutralC/CFD-IM-604-014-N.jpg","img/neutralC/CFD-WF-008-002-N.jpg","1","1","1","1","0","1","0.409041599952616","0.440236900001764","0.500766200013459","1","1","1","1","1","1","1","1","1"
"250036","img/neutralC/CFD-WF-008-002-N.jpg","img/neutralC/CFD-LF-201-035-N.jpg","img/neutralC/CFD-IF-619-197-N.jpg","1","1","1","1","1","0","0.500766200013459","0.409041599952616","0.477857099962421","1","1","1","1","1","1","1","1","1"
"250036","img/neutralC/CFD-IF-619-197-N.jpg","img/neutralC/CFD-WF-008-002-N.jpg","img/neutralC/CFD-AF-229-160-N.jpg","1","1","1","0","1","0","0.477857099962421","0.500766200013459","0.348684999975376","1","1","1","1","1","1","1","1","1"
"250036","img/neutralC/CFD-AF-229-160-N.jpg","img/neutralC/CFD-IF-619-197-N.jpg","img/neutralC/CFD-AF-215-70-N.jpg","1","1","1","0","0","0","0.348684999975376","0.477857099962421","0.437834099982865","1","1","1","1","1","1","1","1","1"
"250036","img/neutralC/CFD-AF-215-70-N.jpg","img/neutralC/CFD-AF-229-160-N.jpg","img/neutralC/CFD-BM-039-029-N.jpg","1","1","0","0","0","1","0.437834099982865","0.348684999975376","0.383632000070065","1","1","1","1","1","1","1","1","2"
"250036","img/neutralC/CFD-BM-039-029-N.jpg","img/neutralC/CFD-AF-215-70-N.jpg",NA,"0","1",NA,"1","0",NA,"0.383632000070065","0.437834099982865",NA,"1","1",NA,"1","1",NA,"2","1",NA
"250036","img/neutralC/CFD-BM-018-001-N.jpg",NA,"img/neutralC/CFD-BF-033-028-N.jpg","0",NA,"1","1",NA,"0","1.23863839998376",NA,"0.549337000004016","1",NA,"1","1",NA,"1","1",NA,"1"
"250036","img/neutralC/CFD-BF-033-028-N.jpg","img/neutralC/CFD-BM-018-001-N.jpg","img/neutralC/CFD-LF-250-169-N.jpg","1","0","1","0","1","1","0.549337000004016","1.23863839998376","0.395756399957463","1","1","1","1","1","1","1","1","1"
"250036","img/neutralC/CFD-LF-250-169-N.jpg","img/neutralC/CFD-BF-033-028-N.jpg","img/neutralC/CFD-AF-241-141-N.jpg","1","1","1","1","0","1","0.395756399957463","0.549337000004016","0.38679149991367","1","1","1","1","1","1","1","1","1"
"250036","img/neutralC/CFD-AF-241-141-N.jpg","img/neutralC/CFD-LF-250-169-N.jpg","img/neutralC/CFD-IF-620-218-N.jpg","1","1","1","1","1","0","0.38679149991367","0.395756399957463","0.431567799998447","1","1","1","1","1","1","1","1","1"
"250036","img/neutralC/CFD-IF-620-218-N.jpg","img/neutralC/CFD-AF-241-141-N.jpg","img/neutralC/CFD-BM-231-155-N.jpg","1","1","1","0","1","1","0.431567799998447","0.38679149991367","0.40262409998104","1","1","1","1","1","1","1","1","1"
"250036","img/neutralC/CFD-BM-231-155-N.jpg","img/neutralC/CFD-IF-620-218-N.jpg","img/neutralC/CFD-AF-202-122-N.jpg","1","1","1","1","0","1","0.40262409998104","0.431567799998447","0.581990299979225","1","1","1","1","1","1","1","1","1"
"250036","img/neutralC/CFD-AF-202-122-N.jpg","img/neutralC/CFD-BM-231-155-N.jpg","img/neutralC/CFD-IM-638-250-1-N.jpg","1","1","1","1","1","1","0.581990299979225","0.40262409998104","0.548294999985956","1","1","1","1","1","1","1","1","1"
"250036","img/neutralC/CFD-IM-638-250-1-N.jpg","img/neutralC/CFD-AF-202-122-N.jpg","img/neutralC/CFD-BM-212-117-N.jpg","1","1","1","1","1","0","0.548294999985956","0.581990299979225","0.343151199980639","1","1","1","1","1","1","1","1","1"
"250036","img/neutralC/CFD-BM-212-117-N.jpg","img/neutralC/CFD-IM-638-250-1-N.jpg","img/neutralC/CFD-LM-226-175-N.jpg","1","1","0","0","1","0","0.343151199980639","0.548294999985956","0.327245399937965","1","1","1","1","1","1","1","1","1"
"250036","img/neutralC/CFD-LM-226-175-N.jpg","img/neutralC/CFD-BM-212-117-N.jpg","img/neutralC/CFD-IF-665-015-N.jpg","0","1","1","0","0","0","0.327245399937965","0.343151199980639","0.463987199938856","1","1","1","1","1","1","1","1","1"
"250036","img/neutralC/CFD-IF-665-015-N.jpg","img/neutralC/CFD-LM-226-175-N.jpg","img/neutralC/CFD-IM-727-195-N.jpg","1","0","1","0","0","1","0.463987199938856","0.327245399937965","0.353623599978164","1","1","1","1","1","1","1","1","1"
"250036","img/neutralC/CFD-IM-727-195-N.jpg","img/neutralC/CFD-IF-665-015-N.jpg","img/neutralC/CFD-WM-258-125-N.jpg","1","1","1","1","0","0","0.353623599978164","0.463987199938856","0.296972899930552","1","1","1","1","1","1","1","1","1"
"250036","img/neutralC/CFD-WM-258-125-N.jpg","img/neutralC/CFD-IM-727-195-N.jpg","img/neutralC/CFD-IM-617-174-N.jpg","1","1","1","0","1","0","0.296972899930552","0.353623599978164","0.392865599947982","1","1","1","1","1","1","1","1","1"
"250036","img/neutralC/CFD-IM-617-174-N.jpg","img/neutralC/CFD-WM-258-125-N.jpg","img/neutralC/CFD-BM-026-002-N.jpg","1","1","1","0","0","0","0.392865599947982","0.296972899930552","0.418419099994935","1","1","1","1","1","1","1","1","1"
"250036","img/neutralC/CFD-BM-026-002-N.jpg","img/neutralC/CFD-IM-617-174-N.jpg","img/neutralC/CFD-BF-238-190-N.jpg","1","1","1","0","0","1","0.418419099994935","0.392865599947982","0.38150380004663","1","1","1","1","1","1","1","1","1"
"250036","img/neutralC/CFD-BF-238-190-N.jpg","img/neutralC/CFD-BM-026-002-N.jpg","img/neutralC/CFD-LF-242-121-N.jpg","1","1","1","1","0","0","0.38150380004663","0.418419099994935","0.386870000045747","1","1","1","1","1","1","1","1","1"
"250036","img/neutralC/CFD-LF-242-121-N.jpg","img/neutralC/CFD-BF-238-190-N.jpg","img/neutralC/CFD-LF-247-051-N.jpg","1","1","1","0","1","1","0.386870000045747","0.38150380004663","0.387323300004937","1","1","1","1","1","1","1","1","1"
"250036","img/neutralC/CFD-LF-247-051-N.jpg","img/neutralC/CFD-LF-242-121-N.jpg","img/neutralC/CFD-BM-005-003-N.jpg","1","1","1","1","0","1","0.387323300004937","0.386870000045747","0.476743799983524","1","1","1","1","1","1","1","1","1"
"250036","img/neutralC/CFD-BM-005-003-N.jpg","img/neutralC/CFD-LF-247-051-N.jpg","img/neutralC/CFD-IM-657-308-N.jpg","1","1","1","1","1","0","0.476743799983524","0.387323300004937","0.397967000026256","1","1","1","1","1","1","1","1","1"
"250036","img/neutralC/CFD-IM-657-308-N.jpg","img/neutralC/CFD-BM-005-003-N.jpg","img/neutralC/CFD-WM-227-099-N.jpg","1","1","1","0","1","1","0.397967000026256","0.476743799983524","0.469884300022386","1","1","1","1","1","1","1","1","1"
"250036","img/neutralC/CFD-WM-227-099-N.jpg","img/neutralC/CFD-IM-657-308-N.jpg","img/neutralC/CFD-LM-233-171-N.jpg","1","1","1","1","0","0","0.469884300022386","0.397967000026256","0.47862989990972","1","1","1","1","1","1","1","1","1"
"250036","img/neutralC/CFD-LM-233-171-N.jpg","img/neutralC/CFD-WM-227-099-N.jpg","img/neutralC/CFD-WM-017-002-N.jpg","1","1","1","0","1","0","0.47862989990972","0.469884300022386","0.340553299989551","1","1","1","1","1","1","1","1","1"
"250036","img/neutralC/CFD-WM-017-002-N.jpg","img/neutralC/CFD-LM-233-171-N.jpg","img/neutralC/CFD-MF-313-002-N.jpg","1","1","1","0","0","0","0.340553299989551","0.47862989990972","0.541295900009573","1","1","1","1","1","1","1","1","1"
"250036","img/neutralC/CFD-MF-313-002-N.jpg","img/neutralC/CFD-WM-017-002-N.jpg","img/neutralC/CFD-BF-010-001-N.jpg","1","1","1","0","0","1","0.541295900009573","0.340553299989551","0.51730859989766","1","1","1","1","1","1","1","1","1"
"250036","img/neutralC/CFD-BF-010-001-N.jpg","img/neutralC/CFD-MF-313-002-N.jpg","img/neutralC/CFD-IM-653-008-N.jpg","1","1","1","1","0","0","0.51730859989766","0.541295900009573","0.42725219996646","1","1","1","1","1","1","1","1","1"
"250036","img/neutralC/CFD-IM-653-008-N.jpg","img/neutralC/CFD-BF-010-001-N.jpg","img/neutralC/CFD-LM-219-295-N.jpg","1","1","1","0","1","1","0.42725219996646","0.51730859989766","0.358006300055422","1","1","1","1","1","1","1","1","1"
"250036","img/neutralC/CFD-LM-219-295-N.jpg","img/neutralC/CFD-IM-653-008-N.jpg","img/neutralC/CFD-IM-686-097-N.jpg","1","1","0","1","0","0","0.358006300055422","0.42725219996646","0.311924399924465","1","1","1","1","1","1","1","1","1"
"250036","img/neutralC/CFD-IM-686-097-N.jpg","img/neutralC/CFD-LM-219-295-N.jpg","img/neutralC/CFD-WM-242-011-N.jpg","0","1","0","0","1","0","0.311924399924465","0.358006300055422","0.334181800018996","1","1","1","1","1","1","1","1","1"
"250036","img/neutralC/CFD-WM-242-011-N.jpg","img/neutralC/CFD-IM-686-097-N.jpg","img/neutralC/CFD-WF-209-052-N.jpg","0","0","1","0","0","1","0.334181800018996","0.311924399924465","0.387948299990967","1","1","1","1","1","1","1","1","1"
"250036","img/neutralC/CFD-WF-209-052-N.jpg","img/neutralC/CFD-WM-242-011-N.jpg","img/neutralC/CFD-LF-245-166-N.jpg","1","0","1","1","0","1","0.387948299990967","0.334181800018996","0.320256200036965","1","1","1","1","1","1","1","1","1"
"250036","img/neutralC/CFD-LF-245-166-N.jpg","img/neutralC/CFD-WF-209-052-N.jpg","img/neutralC/CFD-AF-206-079-N.jpg","1","1","1","1","1","1","0.320256200036965","0.387948299990967","0.391364600043744","1","1","1","1","1","1","1","1","1"
"250036","img/neutralC/CFD-AF-206-079-N.jpg","img/neutralC/CFD-LF-245-166-N.jpg",NA,"1","1",NA,"1","1",NA,"0.391364600043744","0.320256200036965",NA,"1","1",NA,"1","1",NA,"1","1",NA
"250036","img/neutralC/CFD-LF-203-066-N.jpg",NA,"img/neutralC/CFD-WF-250-167-N.jpg","1",NA,"1","0",NA,"1","0.550546900019981",NA,"0.433866600040346","1",NA,"1","1",NA,"1","1",NA,"1"
"250036","img/neutralC/CFD-WF-250-167-N.jpg","img/neutralC/CFD-LF-203-066-N.jpg","img/neutralC/CFD-BM-041-035-N.jpg","1","1","1","1","0","0","0.433866600040346","0.550546900019981","0.441007500048727","1","1","1","1","1","1","1","1","1"
"250036","img/neutralC/CFD-BM-041-035-N.jpg","img/neutralC/CFD-WF-250-167-N.jpg","img/neutralC/CFD-WM-011-002-N.jpg","1","1","1","0","1","0","0.441007500048727","0.433866600040346","0.438067800016142","1","1","1","1","1","1","1","1","1"
"250036","img/neutralC/CFD-WM-011-002-N.jpg","img/neutralC/CFD-BM-041-035-N.jpg","img/neutralC/CFD-LM-215-247-N.jpg","1","1","0","0","0","0","0.438067800016142","0.441007500048727","0.34077430004254","1","1","1","1","1","1","1","1","1"
"250036","img/neutralC/CFD-LM-215-247-N.jpg","img/neutralC/CFD-WM-011-002-N.jpg","img/neutralC/CFD-BF-039-031-N.jpg","0","1","1","0","0","1","0.34077430004254","0.438067800016142","0.374738799990155","1","1","1","1","1","1","1","1","1"
"250036","img/neutralC/CFD-BF-039-031-N.jpg","img/neutralC/CFD-LM-215-247-N.jpg","img/neutralC/CFD-WM-041-021-N.jpg","1","0","1","1","0","0","0.374738799990155","0.34077430004254","0.399695699918084","1","1","1","1","1","1","1","1","1"
"250036","img/neutralC/CFD-WM-041-021-N.jpg","img/neutralC/CFD-BF-039-031-N.jpg","img/neutralC/CFD-BF-213-188-N.jpg","1","1","1","0","1","1","0.399695699918084","0.374738799990155","0.397436699946411","1","1","1","1","1","1","1","1","1"
"250036","img/neutralC/CFD-BF-213-188-N.jpg","img/neutralC/CFD-WM-041-021-N.jpg","img/neutralC/CFD-LM-218-183-N.jpg","1","1","1","1","0","1","0.397436699946411","0.399695699918084","0.44682610000018","1","1","1","1","1","1","1","1","1"
"250036","img/neutralC/CFD-LM-218-183-N.jpg","img/neutralC/CFD-BF-213-188-N.jpg","img/neutralC/CFD-LF-214-090-N.jpg","1","1","1","1","1","0","0.44682610000018","0.397436699946411","0.471845900057815","1","1","1","1","1","1","1","1","1"
"250036","img/neutralC/CFD-LF-214-090-N.jpg","img/neutralC/CFD-LM-218-183-N.jpg","img/neutralC/CFD-MM-316-156-N.jpg","1","1","1","0","1","1","0.471845900057815","0.44682610000018","0.40615329996217","1","1","1","1","1","1","1","1","1"
"250036","img/neutralC/CFD-MM-316-156-N.jpg","img/neutralC/CFD-LF-214-090-N.jpg","img/neutralC/CFD-BF-253-202-N.jpg","1","1","0","1","0","0","0.40615329996217","0.471845900057815","0.387736300006509","1","1","1","1","1","1","1","1","1"
"250036","img/neutralC/CFD-BF-253-202-N.jpg","img/neutralC/CFD-MM-316-156-N.jpg","img/neutralC/CFD-AF-231-357-N.jpg","0","1","1","0","1","1","0.387736300006509","0.40615329996217","0.440171500085853","1","1","1","1","1","1","1","1","1"
"250036","img/neutralC/CFD-AF-231-357-N.jpg","img/neutralC/CFD-BF-253-202-N.jpg","img/neutralC/CFD-IM-684-008-N.jpg","1","0","1","1","0","1","0.440171500085853","0.387736300006509","0.602293099975213","1","1","1","1","1","1","1","1","1"
"250036","img/neutralC/CFD-IM-684-008-N.jpg","img/neutralC/CFD-AF-231-357-N.jpg","img/neutralC/CFD-LF-224-176-N.jpg","1","1","1","1","1","0","0.602293099975213","0.440171500085853","0.362535299966112","1","1","1","1","1","1","1","1","1"
"250036","img/neutralC/CFD-LF-224-176-N.jpg","img/neutralC/CFD-IM-684-008-N.jpg","img/neutralC/CFD-AM-212-050-N.jpg","1","1","1","0","1","1","0.362535299966112","0.602293099975213","0.410132399993017","1","1","1","1","1","1","1","1","1"
"250036","img/neutralC/CFD-AM-212-050-N.jpg","img/neutralC/CFD-LF-224-176-N.jpg","img/neutralC/CFD-IF-710-016-N.jpg","1","1","1","1","0","0","0.410132399993017","0.362535299966112","0.415599199943244","1","1","1","1","1","1","1","1","1"
"250036","img/neutralC/CFD-IF-710-016-N.jpg","img/neutralC/CFD-AM-212-050-N.jpg","img/neutralC/CFD-LF-205-100-N.jpg","1","1","1","0","1","1","0.415599199943244","0.410132399993017","0.387065400020219","1","1","1","1","1","1","1","1","1"
"250036","img/neutralC/CFD-LF-205-100-N.jpg","img/neutralC/CFD-IF-710-016-N.jpg","img/neutralC/CFD-WM-021-001-N.jpg","1","1","1","1","0","1","0.387065400020219","0.415599199943244","0.289907099911943","1","1","1","1","1","1","1","1","1"
"250036","img/neutralC/CFD-WM-021-001-N.jpg","img/neutralC/CFD-LF-205-100-N.jpg","img/neutralC/CFD-LF-230-203-N.jpg","1","1","1","1","1","0","0.289907099911943","0.387065400020219","0.357829799992032","1","1","1","1","1","1","1","1","1"
"250036","img/neutralC/CFD-LF-230-203-N.jpg","img/neutralC/CFD-WM-021-001-N.jpg","img/neutralC/CFD-WF-224-099-N.jpg","1","1","1","0","1","0","0.357829799992032","0.289907099911943","0.460598599980585","1","1","1","1","1","1","1","1","1"
"250036","img/neutralC/CFD-WF-224-099-N.jpg","img/neutralC/CFD-LF-230-203-N.jpg","img/neutralC/CFD-BM-239-136-N.jpg","1","1","1","0","0","1","0.460598599980585","0.357829799992032","0.433327800012194","1","1","1","1","1","1","1","1","1"
"250036","img/neutralC/CFD-BM-239-136-N.jpg","img/neutralC/CFD-WF-224-099-N.jpg","img/neutralC/CFD-IM-651-308-N.jpg","1","1","0","1","0","0","0.433327800012194","0.460598599980585","0.484440199914388","1","1","1","1","1","1","1","1","1"
"250036","img/neutralC/CFD-IM-651-308-N.jpg","img/neutralC/CFD-BM-239-136-N.jpg","img/neutralC/CFD-IF-634-382-N.jpg","0","1","1","0","1","1","0.484440199914388","0.433327800012194","0.382078900001943","1","1","1","1","1","1","1","1","1"
"250036","img/neutralC/CFD-IF-634-382-N.jpg","img/neutralC/CFD-IM-651-308-N.jpg","img/neutralC/CFD-WF-213-031-N.jpg","1","0","1","1","0","1","0.382078900001943","0.484440199914388","0.478559199953452","1","1","1","1","1","1","1","1","1"
"250036","img/neutralC/CFD-WF-213-031-N.jpg","img/neutralC/CFD-IF-634-382-N.jpg","img/neutralC/CFD-BF-205-141-N.jpg","1","1","0","1","1","0","0.478559199953452","0.382078900001943","0.313414599979296","1","1","1","1","1","1","1","1","1"
"250036","img/neutralC/CFD-BF-205-141-N.jpg","img/neutralC/CFD-WF-213-031-N.jpg","img/neutralC/CFD-BM-033-003-N.jpg","0","1","1","0","1","0","0.313414599979296","0.478559199953452","0.441428699996322","1","1","1","1","1","1","1","1","1"
"250036","img/neutralC/CFD-BM-033-003-N.jpg","img/neutralC/CFD-BF-205-141-N.jpg","img/neutralC/CFD-MF-337-026-N.jpg","1","0","1","0","0","1","0.441428699996322","0.313414599979296","0.295790599891916","1","1","1","1","1","1","1","1","1"
"250036","img/neutralC/CFD-MF-337-026-N.jpg","img/neutralC/CFD-BM-033-003-N.jpg","img/neutralC/CFD-BM-019-002-N.jpg","1","1","1","1","0","0","0.295790599891916","0.441428699996322","0.466151500004344","1","1","1","1","1","1","1","1","1"
"250036","img/neutralC/CFD-BM-019-002-N.jpg","img/neutralC/CFD-MF-337-026-N.jpg","img/neutralC/CFD-AM-201-076-N.jpg","1","1","1","0","1","1","0.466151500004344","0.295790599891916","0.350281299906783","1","1","1","1","1","1","1","1","1"
"250036","img/neutralC/CFD-AM-201-076-N.jpg","img/neutralC/CFD-BM-019-002-N.jpg","img/neutralC/CFD-IF-693-172-N.jpg","1","1","1","1","0","0","0.350281299906783","0.466151500004344","0.311646700021811","1","1","1","1","1","1","1","1","1"
"250036","img/neutralC/CFD-IF-693-172-N.jpg","img/neutralC/CFD-AM-201-076-N.jpg","img/neutralC/CFD-BF-029-031-N.jpg","1","1","1","0","1","1","0.311646700021811","0.350281299906783","0.45989030005876","1","1","1","1","1","1","1","1","1"
"250036","img/neutralC/CFD-BF-029-031-N.jpg","img/neutralC/CFD-IF-693-172-N.jpg",NA,"1","1",NA,"1","0",NA,"0.45989030005876","0.311646700021811",NA,"1","1",NA,"1","1",NA,"1","1",NA
"250036","img/neutralC/CFD-WM-033-025-N.jpg",NA,"img/neutralC/CFD-WF-214-122-N.jpg","1",NA,"1","1",NA,"1","0.38879670004826",NA,"0.502443799981847","1",NA,"1","1",NA,"1","1",NA,"1"
"250036","img/neutralC/CFD-WF-214-122-N.jpg","img/neutralC/CFD-WM-033-025-N.jpg","img/neutralC/CFD-BF-038-037-N.jpg","1","1","1","1","1","1","0.502443799981847","0.38879670004826","0.434186300029978","1","1","1","1","1","1","1","1","1"
"250036","img/neutralC/CFD-BF-038-037-N.jpg","img/neutralC/CFD-WF-214-122-N.jpg","img/neutralC/CFD-WF-001-003-N.jpg","1","1","1","1","1","1","0.434186300029978","0.502443799981847","0.325123099959455","1","1","1","1","1","1","1","1","1"
"250036","img/neutralC/CFD-WF-001-003-N.jpg","img/neutralC/CFD-BF-038-037-N.jpg","img/neutralC/CFD-IM-743-006-N.jpg","1","1","1","1","1","1","0.325123099959455","0.434186300029978","0.404003200004809","1","1","1","1","1","1","1","1","1"
"250036","img/neutralC/CFD-IM-743-006-N.jpg","img/neutralC/CFD-WF-001-003-N.jpg","img/neutralC/CFD-MF-359-019-N.jpg","1","1","1","1","1","0","0.404003200004809","0.325123099959455","0.876063099945895","1","1","1","1","1","1","1","1","1"
"250036","img/neutralC/CFD-MF-359-019-N.jpg","img/neutralC/CFD-IM-743-006-N.jpg","img/neutralC/CFD-IM-703-182-N.jpg","1","1","1","0","1","1","0.876063099945895","0.404003200004809","0.576119999983348","1","1","1","1","1","1","1","1","1"
"250036","img/neutralC/CFD-IM-703-182-N.jpg","img/neutralC/CFD-MF-359-019-N.jpg","img/neutralC/CFD-BM-225-154-N.jpg","1","1","1","1","0","1","0.576119999983348","0.876063099945895","0.377656900091097","1","1","1","1","1","1","1","1","1"
"250036","img/neutralC/CFD-BM-225-154-N.jpg","img/neutralC/CFD-IM-703-182-N.jpg","img/neutralC/CFD-BF-229-179-N.jpg","1","1","0","1","1","0","0.377656900091097","0.576119999983348","0.381284400005825","1","1","1","1","1","1","1","1","1"
"250036","img/neutralC/CFD-BF-229-179-N.jpg","img/neutralC/CFD-BM-225-154-N.jpg","img/neutralC/CFD-BM-253-004-N.jpg","0","1","1","0","1","1","0.381284400005825","0.377656900091097","0.369754399987869","1","1","1","1","1","1","1","1","1"
"250036","img/neutralC/CFD-BM-253-004-N.jpg","img/neutralC/CFD-BF-229-179-N.jpg","img/neutralC/CFD-WF-036-023-N.jpg","1","0","0","1","0","0","0.369754399987869","0.381284400005825","0.378016100032255","1","1","1","1","1","1","1","1","1"
"250036","img/neutralC/CFD-WF-036-023-N.jpg","img/neutralC/CFD-BM-253-004-N.jpg","img/neutralC/CFD-WM-004-010-N.jpg","0","1","0","0","1","0","0.378016100032255","0.369754399987869","0.361551999929361","1","1","1","1","1","1","1","1","2"
"250036","img/neutralC/CFD-WM-004-010-N.jpg","img/neutralC/CFD-WF-036-023-N.jpg","img/neutralC/CFD-IM-671-601-N.jpg","0","0","1","0","0","0","0.361551999929361","0.378016100032255","0.509747600066476","1","1","1","1","1","1","2","1","1"
"250036","img/neutralC/CFD-IM-671-601-N.jpg","img/neutralC/CFD-WM-004-010-N.jpg","img/neutralC/CFD-BF-226-119-N.jpg","1","0","1","0","0","1","0.509747600066476","0.361551999929361","0.378225100110285","1","1","1","1","1","1","1","2","1"
"250036","img/neutralC/CFD-BF-226-119-N.jpg","img/neutralC/CFD-IM-671-601-N.jpg","img/neutralC/CFD-AM-251-124-N.jpg","1","1","1","1","0","0","0.378225100110285","0.509747600066476","0.59314919996541","1","1","1","1","1","1","1","1","1"
"250036","img/neutralC/CFD-AM-251-124-N.jpg","img/neutralC/CFD-BF-226-119-N.jpg","img/neutralC/CFD-MF-352-054-N.jpg","1","1","1","0","1","0","0.59314919996541","0.378225100110285","0.301228599972092","1","1","1","1","1","1","1","1","1"
"250036","img/neutralC/CFD-MF-352-054-N.jpg","img/neutralC/CFD-AM-251-124-N.jpg","img/neutralC/CFD-AM-211-052-N.jpg","1","1","1","0","0","1","0.301228599972092","0.59314919996541","0.325706799980253","1","1","1","1","1","1","1","1","1"
"250036","img/neutralC/CFD-AM-211-052-N.jpg","img/neutralC/CFD-MF-352-054-N.jpg","img/neutralC/CFD-WM-219-008-N.jpg","1","1","1","1","0","0","0.325706799980253","0.301228599972092","0.323903099982999","1","1","1","1","1","1","1","1","1"
"250036","img/neutralC/CFD-WM-219-008-N.jpg","img/neutralC/CFD-AM-211-052-N.jpg","img/neutralC/CFD-LF-218-072-N.jpg","1","1","0","0","1","0","0.323903099982999","0.325706799980253","0.343152399989776","1","1","1","1","1","1","1","1","1"
"250036","img/neutralC/CFD-LF-218-072-N.jpg","img/neutralC/CFD-WM-219-008-N.jpg","img/neutralC/CFD-LM-228-188-N.jpg","0","1","1","0","0","1","0.343152399989776","0.323903099982999","0.388825400033966","1","1","1","1","1","1","1","1","1"
"250036","img/neutralC/CFD-LM-228-188-N.jpg","img/neutralC/CFD-LF-218-072-N.jpg","img/neutralC/CFD-WM-235-147-N.jpg","1","0","1","1","0","0","0.388825400033966","0.343152399989776","0.631250999984331","1","1","1","1","1","1","1","1","1"
"250036","img/neutralC/CFD-WM-235-147-N.jpg","img/neutralC/CFD-LM-228-188-N.jpg","img/neutralC/CFD-IF-650-315-N.jpg","1","1","1","0","1","0","0.631250999984331","0.388825400033966","0.386363199912012","1","1","1","1","1","1","1","1","1"
"250036","img/neutralC/CFD-IF-650-315-N.jpg","img/neutralC/CFD-WM-235-147-N.jpg","img/neutralC/CFD-IF-623-129-N.jpg","1","1","1","0","0","1","0.386363199912012","0.631250999984331","0.34654259996023","1","1","1","1","1","1","1","1","1"
"250036","img/neutralC/CFD-IF-623-129-N.jpg","img/neutralC/CFD-IF-650-315-N.jpg","img/neutralC/CFD-BF-232-187-N.jpg","1","1","1","1","0","1","0.34654259996023","0.386363199912012","0.342660999973305","1","1","1","1","1","1","1","1","1"
"250036","img/neutralC/CFD-BF-232-187-N.jpg","img/neutralC/CFD-IF-623-129-N.jpg","img/neutralC/CFD-IM-645-001-N.jpg","1","1","1","1","1","0","0.342660999973305","0.34654259996023","0.32897769997362","1","1","1","1","1","1","1","1","1"
"250036","img/neutralC/CFD-IM-645-001-N.jpg","img/neutralC/CFD-BF-232-187-N.jpg","img/neutralC/CFD-AM-242-176-N.jpg","1","1","0","0","1","1","0.32897769997362","0.342660999973305","0.36245570005849","1","1","1","1","1","1","1","1","1"
"250036","img/neutralC/CFD-AM-242-176-N.jpg","img/neutralC/CFD-IM-645-001-N.jpg","img/neutralC/CFD-LF-220-120-N.jpg","0","1","1","1","0","1","0.36245570005849","0.32897769997362","0.506657700054348","1","1","1","1","1","1","1","1","1"
"250036","img/neutralC/CFD-LF-220-120-N.jpg","img/neutralC/CFD-AM-242-176-N.jpg","img/neutralC/CFD-WF-200-099-N.jpg","1","0","1","1","1","0","0.506657700054348","0.36245570005849","0.532505800016224","1","1","1","1","1","1","1","1","1"
"250036","img/neutralC/CFD-WF-200-099-N.jpg","img/neutralC/CFD-LF-220-120-N.jpg","img/neutralC/CFD-MF-333-012-N.jpg","1","1","1","0","1","0","0.532505800016224","0.506657700054348","0.389196900068782","1","1","1","1","1","1","1","1","1"
"250036","img/neutralC/CFD-MF-333-012-N.jpg","img/neutralC/CFD-WF-200-099-N.jpg","img/neutralC/CFD-WM-020-001-N.jpg","1","1","1","0","0","1","0.389196900068782","0.532505800016224","0.422663199948147","1","1","1","1","1","1","1","1","1"
"250036","img/neutralC/CFD-WM-020-001-N.jpg","img/neutralC/CFD-MF-333-012-N.jpg","img/neutralC/CFD-LM-237-264-N.jpg","1","1","1","1","0","0","0.422663199948147","0.389196900068782","0.552837499999441","1","1","1","1","1","1","1","1","1"
"250036","img/neutralC/CFD-LM-237-264-N.jpg","img/neutralC/CFD-WM-020-001-N.jpg","img/neutralC/CFD-IM-616-214-N.jpg","1","1","1","0","1","0","0.552837499999441","0.422663199948147","0.455433700000867","1","1","1","1","1","1","1","1","1"
"250036","img/neutralC/CFD-IM-616-214-N.jpg","img/neutralC/CFD-LM-237-264-N.jpg",NA,"1","1",NA,"0","0",NA,"0.455433700000867","0.552837499999441",NA,"1","1",NA,"1","1",NA,"1","1",NA
