"participant_id","face","surpAcc","memory_surp_responses","memory_surp_rt","keep_surp_memory_trial_based_on_rt","surp_block_num","exclude_block","number_of_surp_resp_items_used","num_blocks_excluded"
"250029","img/neutralC/CFD-IM-707-105-N.jpg","1","s","1.12064049998298",1,1,0,2,0
"250029","img/neutralC/CFD-AF-253-130-N.jpg","0","k","3.96004549995996",1,1,0,2,0
"250029","img/neutralC/CFD-WM-227-099-N.jpg","0","s","1.80403959995601",1,1,0,2,0
"250029","img/neutralC/CFD-BM-213-134-N.jpg","1","k","1.35964389995206",1,1,0,2,0
"250029","img/neutralC/CFD-WF-030-002-N.jpg","0","k","1.0250332999276",1,1,0,2,0
"250029","img/neutralC/CFD-BM-253-004-N.jpg","0","s","2.24056339997332",1,1,0,2,0
"250029","img/neutralC/CFD-WM-004-010-N.jpg","1","s","1.41525489999913",1,1,0,2,0
"250029","img/neutralC/CFD-IF-660-464-N.jpg","1","s","4.78409839991946",1,1,0,2,0
"250029","img/neutralC/CFD-LM-247-095-N.jpg","1","k","1.24045649997424",1,1,0,2,0
"250029","img/neutralC/CFD-MF-300-002-N.jpg","1","s","1.63526739994995",1,1,0,2,0
"250029","img/neutralC/CFD-BM-239-136-N.jpg","1","s","1.34466529998463",1,1,0,2,0
"250029","img/neutralC/CFD-WF-234-086-N.jpg","0","k","2.05296400003135",1,1,0,2,0
"250029","img/neutralC/CFD-WM-023-001-N.jpg","1","s","1.70718929998111",1,1,0,2,0
"250029","img/neutralC/CFD-WF-001-003-N.jpg","1","s","1.55267339991406",1,1,0,2,0
"250029","img/neutralC/CFD-WF-233-112-N.jpg","1","s","4.01377879991196",1,1,0,2,0
"250029","img/neutralC/CFD-IM-671-601-N.jpg","1","s","0.932037799968384",1,1,0,2,0
"250029","img/neutralC/CFD-BM-020-001-N.jpg","0","s","1.67020249995403",1,1,0,2,0
"250029","img/neutralC/CFD-IM-657-308-N.jpg","1","s","0.816575600067154",1,1,0,2,0
"250029","img/neutralC/CFD-IM-700-009-N.jpg","1","s","1.00331129995175",1,1,0,2,0
"250029","img/neutralC/CFD-WF-244-163-N.jpg","1","s","1.19674459996168",1,1,0,2,0
"250029","img/neutralC/CFD-LF-245-166-N.jpg","1","k","1.26795230002608",1,1,0,2,0
"250029","img/neutralC/CFD-BM-227-191-N.jpg","1","k","1.83994400000665",1,1,0,2,0
"250029","img/neutralC/CFD-BF-205-141-N.jpg","1","s","2.00731530005578",1,1,0,2,0
"250029","img/neutralC/CFD-LF-204-133-N.jpg","0","k","0.823272099951282",1,1,0,2,0
"250029","img/neutralC/CFD-BM-238-242-N.jpg","1","s","5.06950770004187",1,1,0,2,0
"250029","img/neutralC/CFD-WM-034-030-N.jpg","1","k","1.52294829988386",1,1,0,2,0
"250029","img/neutralC/CFD-WF-213-031-N.jpg","0","k","1.401215699967",1,1,0,2,0
"250029","img/neutralC/CFD-AF-246-242-N.jpg","1","k","2.62371379998513",1,1,0,2,0
"250029","img/neutralC/CFD-WM-012-001-N.jpg","0","s","2.29196840000805",1,1,0,2,0
"250029","img/neutralC/CFD-BM-009-002-N.jpg","1","k","2.95990860008169",1,1,0,2,0
"250029","img/neutralC/CFD-AM-219-101-N.jpg","0","k","2.75212550000288",1,1,0,2,0
"250029","img/neutralC/CFD-WF-250-167-N.jpg","1","k","1.83111879997887",1,1,0,2,0
"250029","img/neutralC/CFD-MM-304-002-N.jpg","0","s","1.9668393000029",1,1,0,2,0
"250029","img/neutralC/CFD-WM-212-097-N.jpg","0","k","1.73479550005868",1,1,0,2,0
"250029","img/neutralC/CFD-LF-225-164-N.jpg","0","k","1.28675720002502",1,1,0,2,0
"250029","img/neutralC/CFD-BF-012-001-N.jpg","0","k","2.04694799997378",1,1,0,2,0
"250029","img/neutralC/CFD-WM-215-041-N.jpg","1","s","2.11603579996154",1,1,0,2,0
"250029","img/neutralC/CFD-MF-307-002-N.jpg","1","k","2.06285620003473",1,1,0,2,0
"250029","img/neutralC/CFD-WM-028-003-N.jpg","1","s","2.22250110004097",1,1,0,2,0
"250029","img/neutralC/CFD-WM-033-025-N.jpg","1","k","1.11029209999833",1,1,0,2,0
"250029","img/neutralC/CFD-IM-674-281-N.jpg","1","k","1.47845279995818",1,1,0,2,0
"250029","img/neutralC/CFD-AM-233-236-N.jpg","1","s","1.55741280002985",1,1,0,2,0
"250029","img/neutralC/CFD-WM-020-001-N.jpg","0","s","1.28877929993905",1,1,0,2,0
"250029","img/neutralC/CFD-BM-004-002-N.jpg","0","s","1.59792789991479",1,1,0,2,0
"250029","img/neutralC/CFD-IM-632-097-N.jpg","1","s","1.83603949996177",1,1,0,2,0
"250029","img/neutralC/CFD-IF-744-114-N.jpg","1","k","5.06232290004846",1,1,0,2,0
"250029","img/neutralC/CFD-IM-617-174-N.jpg","1","k","1.02768569998443",1,1,0,2,0
"250029","img/neutralC/CFD-MF-305-014-N.jpg","0","k","1.3408281999873",1,1,0,2,0
"250029","img/neutralC/CFD-BF-218-207-N.jpg","0","k","2.11507599998731",1,2,0,2,0
"250029","img/neutralC/CFD-BF-044-034-N.jpg","1","s","1.82964120001998",1,2,0,2,0
"250029","img/neutralC/CFD-WF-033-002-N.jpg","0","s","1.7892220999347",1,2,0,2,0
"250029","img/neutralC/CFD-IM-689-263-N.jpg","1","k","2.55147239996586",1,2,0,2,0
"250029","img/neutralC/CFD-BM-003-003-N.jpg","0","k","3.29961710004136",1,2,0,2,0
"250029","img/neutralC/CFD-LF-224-176-N.jpg","0","s","1.08856339997146",1,2,0,2,0
"250029","img/neutralC/CFD-WF-208-068-N.jpg","1","k","2.24697830004152",1,2,0,2,0
"250029","img/neutralC/CFD-IF-718-001-N.jpg","0","s","4.21112110000104",1,2,0,2,0
"250029","img/neutralC/CFD-IF-634-382-N.jpg","1","s","1.40117050008848",1,2,0,2,0
"250029","img/neutralC/CFD-BM-026-002-N.jpg","1","k","1.46281669999007",1,2,0,2,0
"250029","img/neutralC/CFD-MF-313-002-N.jpg","1","k","2.69035349995829",1,2,0,2,0
"250029","img/neutralC/CFD-IM-669-111-N.jpg","1","s","0.89355230005458",1,2,0,2,0
"250029","img/neutralC/CFD-IF-672-305-N.jpg","0","s","2.87732549989596",1,2,0,2,0
"250029","img/neutralC/CFD-BM-036-003-N.jpg","1","s","1.4500556999119",1,2,0,2,0
"250029","img/neutralC/CFD-BM-217-082-N.jpg","1","s","1.52983700006735",1,2,0,2,0
"250029","img/neutralC/CFD-WM-228-065-N.jpg","1","k","1.26317449996714",1,2,0,2,0
"250029","img/neutralC/CFD-BM-030-003-N.jpg","1","s","1.2915040999651",1,2,0,2,0
"250029","img/neutralC/CFD-BM-207-024-N.jpg","1","s","1.44286800001282",1,2,0,2,0
"250029","img/neutralC/CFD-WM-242-011-N.jpg","0","k","2.17858189996332",1,2,0,2,0
"250029","img/neutralC/CFD-AM-211-052-N.jpg","1","s","1.9335551999975",1,2,0,2,0
"250029","img/neutralC/CFD-BF-051-035-N.jpg","1","s","0.838868300081231",1,2,0,2,0
"250029","img/neutralC/CFD-WF-023-003-N.jpg","0","s","1.86864460003562",1,2,0,2,0
"250029","img/neutralC/CFD-IM-651-308-N.jpg","1","k","1.09261749999132",1,2,0,2,0
"250029","img/neutralC/CFD-WM-219-008-N.jpg","1","s","3.07685690000653",1,2,0,2,0
"250029","img/neutralC/CFD-IF-710-016-N.jpg","1","s","2.98287940002047",1,2,0,2,0
"250029","img/neutralC/CFD-WM-019-003-N.jpg","1","s","2.68584720010404",1,2,0,2,0
"250029","img/neutralC/CFD-AF-239-171-N.jpg","1","k","1.34378019999713",1,2,0,2,0
"250029","img/neutralC/CFD-BF-043-003-N.jpg","1","s","3.11901649995707",1,2,0,2,0
"250029","img/neutralC/CFD-BM-023-029-N.jpg","0","s","2.39368460001424",1,2,0,2,0
"250029","img/neutralC/CFD-IM-627-178-N.jpg","0","k","2.78356740006711",1,2,0,2,0
"250029","img/neutralC/CFD-AF-250-200-N.jpg","1","s","1.50104380003177",1,2,0,2,0
"250029","img/neutralC/CFD-LM-237-264-N.jpg","0","k","1.99044899991713",1,2,0,2,0
"250029","img/neutralC/CFD-WM-015-002-N.jpg","0","k","1.37969229998998",1,2,0,2,0
"250029","img/neutralC/CFD-WF-240-083-N.jpg","0","s","1.19141520000994",1,2,0,2,0
"250029","img/neutralC/CFD-WM-017-002-N.jpg","0","k","3.42298379994463",1,2,0,2,0
"250029","img/neutralC/CFD-MM-306-010-N.jpg","0","s","1.88260340003762",1,2,0,2,0
"250029","img/neutralC/CFD-IF-665-015-N.jpg","0","s","3.22488670004532",1,2,0,2,0
"250029","img/neutralC/CFD-WF-200-099-N.jpg","1","k","3.08797310001682",1,2,0,2,0
"250029","img/neutralC/CFD-WM-009-002-N.jpg","0","s","1.78008379996754",1,2,0,2,0
"250029","img/neutralC/CFD-MF-321-003-N.jpg","1","s","1.98392270004842",1,2,0,2,0
"250029","img/neutralC/CFD-IM-667-369-N.jpg","0","k","1.17392710002605",1,2,0,2,0
"250029","img/neutralC/CFD-IF-693-172-N.jpg","0","s","1.37399279989768",1,2,0,2,0
"250029","img/neutralC/CFD-MM-319-052-N.jpg","0","k","0.83900919998996",1,2,0,2,0
"250029","img/neutralC/CFD-LM-213-061-N.jpg","0","k","1.06829969992395",1,2,0,2,0
"250029","img/neutralC/CFD-IM-664-651-N.jpg","0","s","2.12581429991405",1,2,0,2,0
"250029","img/neutralC/CFD-WM-248-036-N.jpg","1","s","1.52348950004671",1,2,0,2,0
"250029","img/neutralC/CFD-LM-241-125-N.jpg","1","k","1.54295679996721",1,2,0,2,0
"250029","img/neutralC/CFD-BM-015-015-N.jpg","1","k","1.21837669995148",1,2,0,2,0
"250029","img/neutralC/CFD-WM-255-219-N.jpg","0","s","3.39393439993728",1,3,0,2,0
"250029","img/neutralC/CFD-WM-202-107-N.jpg","1","s","1.00674839993007",1,3,0,2,0
"250029","img/neutralC/CFD-AF-232-078-N.jpg","1","k","1.89488209993578",1,3,0,2,0
"250029","img/neutralC/CFD-LM-216-082-N.jpg","0","k","1.73712999990676",1,3,0,2,0
"250029","img/neutralC/CFD-IM-659-359-N.jpg","1","s","1.43089079996571",1,3,0,2,0
"250029","img/neutralC/CFD-BF-038-037-N.jpg","1","s","1.54076360003091",1,3,0,2,0
"250029","img/neutralC/CFD-IF-677-452-1-N.jpg","1","s","2.42936519999057",1,3,0,2,0
"250029","img/neutralC/CFD-BF-027-002-N.jpg","0","s","2.0123057999881",1,3,0,2,0
"250029","img/neutralC/CFD-LF-255-088-N.jpg","0","s","1.30196770001203",1,3,0,2,0
"250029","img/neutralC/CFD-BF-025-002-N.jpg","0","k","1.04055240005255",1,3,0,2,0
"250029","img/neutralC/CFD-LM-204-001-N.jpg","0","s","2.08650089998264",1,3,0,2,0
"250029","img/neutralC/CFD-BF-003-003-N.jpg","0","s","4.98867120000068",1,3,0,2,0
"250029","img/neutralC/CFD-WM-213-076-N.jpg","0","s","2.43208850000519",1,3,0,2,0
"250029","img/neutralC/CFD-WM-254-152-N.jpg","1","k","1.72189919999801",1,3,0,2,0
"250029","img/neutralC/CFD-MM-316-156-N.jpg","0","k","2.41463460004888",1,3,0,2,0
"250029","img/neutralC/CFD-AM-251-124-N.jpg","1","k","1.5190763999708",1,3,0,2,0
"250029","img/neutralC/CFD-BM-251-013-N.jpg","1","k","4.14362440002151",1,3,0,2,0
"250029","img/neutralC/CFD-BF-018-039-N.jpg","1","k","2.83430440002121",1,3,0,2,0
"250029","img/neutralC/CFD-AF-227-207-N.jpg","1","s","1.54204299999401",1,3,0,2,0
"250029","img/neutralC/CFD-LM-217-162-N.jpg","1","s","1.90989550005179",1,3,0,2,0
"250029","img/neutralC/CFD-AM-242-176-N.jpg","1","s","2.26966600003652",1,3,0,2,0
"250029","img/neutralC/CFD-IF-673-389-N.jpg","1","s","3.69191699998919",1,3,0,2,0
"250029","img/neutralC/CFD-IM-639-263-N.jpg","1","k","2.78752679994795",1,3,0,2,0
"250029","img/neutralC/CFD-BM-005-003-N.jpg","1","k","1.50745749997441",1,3,0,2,0
"250029","img/neutralC/CFD-WM-209-038-N.jpg","0","k","0.876992599922232",1,3,0,2,0
"250029","img/neutralC/CFD-BM-039-029-N.jpg","1","s","0.921111600007862",1,3,0,2,0
"250029","img/neutralC/CFD-AF-213-126-N.jpg","1","s","2.39608330000192",1,3,0,2,0
"250029","img/neutralC/CFD-IM-738-191-N.jpg","1","k","1.23400659998879",1,3,0,2,0
"250029","img/neutralC/CFD-AM-225-102-N.jpg","1","s","3.63250249996781",1,3,0,2,0
"250029","img/neutralC/CFD-IM-680-369-N.jpg","0","k","1.59386180003639",1,3,0,2,0
"250029","img/neutralC/CFD-AF-244-168-N.jpg","1","s","1.60091719997581",1,3,0,2,0
"250029","img/neutralC/CFD-WM-258-125-N.jpg","0","s","1.74994170002174",1,3,0,2,0
"250029","img/neutralC/CFD-WF-008-002-N.jpg","0","k","1.57530829997268",1,3,0,2,0
"250029","img/neutralC/CFD-BF-255-140-N.jpg","0","s","2.40041190001648",1,3,0,2,0
"250029","img/neutralC/CFD-WM-038-003-N.jpg","1","k","1.08663979999255",1,3,0,2,0
"250029","img/neutralC/CFD-WF-036-023-N.jpg","0","s","2.21470520005096",1,3,0,2,0
"250029","img/neutralC/CFD-WM-014-002-N.jpg","1","s","1.82964079990052",1,3,0,2,0
"250029","img/neutralC/CFD-IM-701-312-N.jpg","1","k","0.984647299977951",1,3,0,2,0
"250029","img/neutralC/CFD-WF-026-002-N.jpg","1","s","1.4708193000406",1,3,0,2,0
"250029","img/neutralC/CFD-BF-208-266-N.jpg","1","s","1.4653365999693",1,3,0,2,0
"250029","img/neutralC/CFD-BF-238-190-N.jpg","0","k","1.95819559996016",1,3,0,2,0
"250029","img/neutralC/CFD-LF-206-078-N.jpg","0","s","1.21011540002655",1,3,0,2,0
"250029","img/neutralC/CFD-BF-033-028-N.jpg","1","k","2.42801030003466",1,3,0,2,0
"250029","img/neutralC/CFD-MM-321-021-N.jpg","1","k","1.27231559995562",1,3,0,2,0
"250029","img/neutralC/CFD-BF-045-003-N.jpg","0","s","0.944292600033805",1,3,0,2,0
"250029","img/neutralC/CFD-AM-212-050-N.jpg","1","s","2.01285139995161",1,3,0,2,0
"250029","img/neutralC/CFD-LF-241-188-N.jpg","1","k","2.34170780004933",1,3,0,2,0
"250029","img/neutralC/CFD-BF-004-014-N.jpg","1","s","1.71163049992174",1,3,0,2,0
"250029","img/neutralC/CFD-LM-226-175-N.jpg","0","k","3.61521630000789",1,4,0,2,0
"250029","img/neutralC/CFD-WF-209-052-N.jpg","0","s","1.35569689993281",1,4,0,2,0
"250029","img/neutralC/CFD-AM-235-241-N.jpg","0","s","1.06958540005144",1,4,0,2,0
"250029","img/neutralC/CFD-MF-335-002-N.jpg","1","s","1.45860269991681",1,4,0,2,0
"250029","img/neutralC/CFD-LM-243-075-N.jpg","1","k","2.88214260002133",1,4,0,2,0
"250029","img/neutralC/CFD-LF-208-127-N.jpg","1","s","4.61449320008978",1,4,0,2,0
"250029","img/neutralC/CFD-BF-226-119-N.jpg","1","k","1.2183561999118",1,4,0,2,0
"250029","img/neutralC/CFD-BF-232-187-N.jpg","0","s","2.11260120000225",1,4,0,2,0
"250029","img/neutralC/CFD-WM-024-015-N.jpg","0","s","1.26744730002247",1,4,0,2,0
"250029","img/neutralC/CFD-MF-301-024-N.jpg","0","s","1.70445140008815",1,4,0,2,0
"250029","img/neutralC/CFD-WF-226-095-N.jpg","0","k","1.30655890004709",1,4,0,2,0
"250029","img/neutralC/CFD-AM-230-150-N.jpg","1","s","1.7477253000252",1,4,0,2,0
"250029","img/neutralC/CFD-AF-229-160-N.jpg","1","s","1.08882459998131",1,4,0,2,0
"250029","img/neutralC/CFD-LF-212-066-N.jpg","1","s","1.28295409993734",1,4,0,2,0
"250029","img/neutralC/CFD-LM-200-045-N.jpg","0","s","3.05033170001116",1,4,0,2,0
"250029","img/neutralC/CFD-AF-221-147-N.jpg","0","k","3.71178909996524",1,4,0,2,0
"250029","img/neutralC/CFD-BF-002-001-N.jpg","0","s","1.63096320000477",1,4,0,2,0
"250029","img/neutralC/CFD-AF-237-223-N.jpg","1","k","1.63856520003174",1,4,0,2,0
"250029","img/neutralC/CFD-WM-253-119-N.jpg","0","k","1.6113561000675",1,4,0,2,0
"250029","img/neutralC/CFD-BM-250-170-N.jpg","1","s","2.39520099991933",1,4,0,2,0
"250029","img/neutralC/CFD-LM-219-295-N.jpg","0","k","1.17542889993638",1,4,0,2,0
"250029","img/neutralC/CFD-LM-238-129-N.jpg","1","s","1.97552440001164",1,4,0,2,0
"250029","img/neutralC/CFD-BM-013-002-N.jpg","1","k","2.01502579997759",1,4,0,2,0
"250029","img/neutralC/CFD-IM-675-015-N.jpg","1","s","1.40357720002066",1,4,0,2,0
"250029","img/neutralC/CFD-AM-247-165-N.jpg","0","k","1.12800910009537",1,4,0,2,0
"250029","img/neutralC/CFD-WF-007-001-N.jpg","0","k","1.1010558999842",1,4,0,2,0
"250029","img/neutralC/CFD-BF-039-031-N.jpg","0","s","0.635008899960667",1,4,0,2,0
"250029","img/neutralC/CFD-IM-696-001-N.jpg","1","k","1.6438168999739",1,4,0,2,0
"250029","img/neutralC/CFD-MF-318-022-N.jpg","0","s","1.67650309996679",1,4,0,2,0
"250029","img/neutralC/CFD-WF-238-023-N.jpg","1","k","2.50401199993212",1,4,0,2,0
"250029","img/neutralC/CFD-BM-247-240-N.jpg","1","s","1.74639119999483",1,4,0,2,0
"250029","img/neutralC/CFD-BF-010-001-N.jpg","0","s","1.48777490004431",1,4,0,2,0
"250029","img/neutralC/CFD-BF-212-315-N.jpg","1","k","1.07695339992642",1,4,0,2,0
"250029","img/neutralC/CFD-WF-235-121-N.jpg","0","s","1.08906230004504",1,4,0,2,0
"250029","img/neutralC/CFD-AF-215-70-N.jpg","1","s","1.18903129990213",1,4,0,2,0
"250029","img/neutralC/CFD-BF-028-001-N.jpg","1","s","1.27419710007962",1,4,0,2,0
"250029","img/neutralC/CFD-IM-703-182-N.jpg","1","k","1.14522849989589",1,4,0,2,0
"250029","img/neutralC/CFD-BF-020-002-N.jpg","1","k","1.64436999999452",1,4,0,2,0
"250029","img/neutralC/CFD-WF-006-002-N.jpg","1","k","2.47563010000158",1,4,0,2,0
"250029","img/neutralC/CFD-WM-006-002-N.jpg","1","k","1.02869080007076",1,4,0,2,0
"250029","img/neutralC/CFD-BM-018-001-N.jpg","0","s","2.25555080000777",1,4,0,2,0
"250029","img/neutralC/CFD-LF-214-090-N.jpg","1","s","2.13583879999351",1,4,0,2,0
"250029","img/neutralC/CFD-MF-309-002-N.jpg","0","k","2.43486450007185",1,4,0,2,0
"250029","img/neutralC/CFD-WM-018-002-N.jpg","0","k","1.0066189999925",1,4,0,2,0
"250029","img/neutralC/CFD-LM-218-183-N.jpg","1","s","1.50340230006259",1,4,0,2,0
"250029","img/neutralC/CFD-LF-222-147-N.jpg","0","k","2.55931090004742",1,4,0,2,0
"250029","img/neutralC/CFD-BM-001-014-N.jpg","0","k","4.13272630004212",1,4,0,2,0
"250029","img/neutralC/CFD-AM-245-111-N.jpg","0","s","1.1514822000172",1,4,0,2,0
"250029","img/neutralC/CFD-MF-336-016-N.jpg","1","s","2.36040200002026",1,5,0,2,0
"250029","img/neutralC/CFD-BF-041-001-N.jpg","0","s","2.7277665999718",1,5,0,2,0
"250029","img/neutralC/CFD-WF-207-014-N.jpg","0","k","1.34979340003338",1,5,0,2,0
"250029","img/neutralC/CFD-LF-203-066-N.jpg","0","k","1.25472580001224",1,5,0,2,0
"250029","img/neutralC/CFD-WM-021-001-N.jpg","1","s","2.0206725000171",1,5,0,2,0
"250029","img/neutralC/CFD-BF-217-189-N.jpg","1","s","1.83858600002714",1,5,0,2,0
"250029","img/neutralC/CFD-AF-205-155-N.jpg","1","k","1.67117820004933",1,5,0,2,0
"250029","img/neutralC/CFD-MF-340-026-N.jpg","0","k","1.46012219996192",1,5,0,2,0
"250029","img/neutralC/CFD-AM-221-184-N.jpg","1","s","2.27503279992379",1,5,0,2,0
"250029","img/neutralC/CFD-BF-207-004-N.jpg","0","s","2.01078429992776",1,5,0,2,0
"250029","img/neutralC/CFD-BF-236-177-N.jpg","0","s","1.4416651999345",1,5,0,2,0
"250029","img/neutralC/CFD-IF-625-225-N.jpg","0","k","1.70993100001942",1,5,0,2,0
"250029","img/neutralC/CFD-WF-243-148-N.jpg","0","s","1.12259819998872",1,5,0,2,0
"250029","img/neutralC/CFD-BM-027-001-N.jpg","0","s","1.66473719989881",1,5,0,2,0
"250029","img/neutralC/CFD-LF-239-148-N.jpg","0","s","1.5600063999882",1,5,0,2,0
"250029","img/neutralC/CFD-WF-029-002-N.jpg","0","k","0.981840600026771",1,5,0,2,0
"250029","img/neutralC/CFD-WF-224-099-N.jpg","0","s","1.61831619997974",1,5,0,2,0
"250029","img/neutralC/CFD-WF-002-004-N.jpg","0","k","2.99255619989708",1,5,0,2,0
"250029","img/neutralC/CFD-WM-225-127-N.jpg","0","k","2.00500360003207",1,5,0,2,0
"250029","img/neutralC/CFD-BM-010-003-N.jpg","0","s","2.01942630007397",1,5,0,2,0
"250029","img/neutralC/CFD-LM-252-076-N.jpg","0","k","1.09832760004792",1,5,0,2,0
"250029","img/neutralC/CFD-WF-245-084-N.jpg","0","s","3.50333330000285",1,5,0,2,0
"250029","img/neutralC/CFD-LF-242-121-N.jpg","1","k","1.23635559994727",1,5,0,2,0
"250029","img/neutralC/CFD-WF-027-003-N.jpg","0","k","3.00893240002915",1,5,0,2,0
"250029","img/neutralC/CFD-IM-606-008-N.jpg","0","k","3.30471719999332",1,5,0,2,0
"250029","img/neutralC/CFD-IM-743-006-N.jpg","1","k","2.61182019999251",1,5,0,2,0
"250029","img/neutralC/CFD-LM-244-068-N.jpg","1","k","3.39286639995407",1,5,0,2,0
"250029","img/neutralC/CFD-WM-221-091-N.jpg","0","s","1.21442319999915",1,5,0,2,0
"250029","img/neutralC/CFD-BF-237-172-N.jpg","0","k","1.08488009998109",1,5,0,2,0
"250029","img/neutralC/CFD-IF-642-295-N.jpg","1","k","1.34632080001757",1,5,0,2,0
"250029","img/neutralC/CFD-BF-014-002-N.jpg","1","k","2.9181165000191",1,5,0,2,0
"250029","img/neutralC/CFD-AF-254-167-N.jpg","0","k","2.23248340003192",1,5,0,2,0
"250029","img/neutralC/CFD-WF-221-005-N.jpg","0","s","1.34226339997258",1,5,0,2,0
"250029","img/neutralC/CFD-IM-638-250-1-N.jpg","0","s","1.74183839990292",1,5,0,2,0
"250029","img/neutralC/CFD-IM-684-008-N.jpg","0","k","1.46353309997357",1,5,0,2,0
"250029","img/neutralC/CFD-BM-029-024-N.jpg","1","s","2.42351959994994",1,5,0,2,0
"250029","img/neutralC/CFD-AF-240-206-N.jpg","0","k","1.04990069998894",1,5,0,2,0
"250029","img/neutralC/CFD-LF-211-003-N.jpg","0","k","2.64896299992688",1,5,0,2,0
"250029","img/neutralC/CFD-AM-220-134-N.jpg","1","s","1.70837379992008",1,5,0,2,0
"250029","img/neutralC/CFD-WF-228-196-N.jpg","0","s","1.89991639996879",1,5,0,2,0
"250029","img/neutralC/CFD-AM-236-090-N.jpg","0","k","1.61147300002631",1,5,0,2,0
"250029","img/neutralC/CFD-WF-005-010-N.jpg","0","s","2.58691279997583",1,5,0,2,0
"250029","img/neutralC/CFD-AF-233-190-N.jpg","0","s","2.68974319996778",1,5,0,2,0
"250029","img/neutralC/CFD-IM-635-010-N.jpg","1","s","1.91255080001429",1,5,0,2,0
"250029","img/neutralC/CFD-BF-202-109-N.jpg","1","s","2.23828689998481",1,5,0,2,0
"250029","img/neutralC/CFD-WM-249-239-N.jpg","0","s","1.22706810000818",1,5,0,2,0
"250029","img/neutralC/CFD-BF-201-080-N.jpg","1","k","1.97330429998692",1,5,0,2,0
"250029","img/neutralC/CFD-MF-328-020-N.jpg","0","k","3.00554829998873",1,5,0,2,0
"250029","img/neutralC/CFD-IM-697-015-N.jpg","1","s","2.99959980009589",1,6,0,2,0
"250029","img/neutralC/CFD-IF-676-017-N.jpg","1","k","1.04098100005649",1,6,0,2,0
"250029","img/neutralC/CFD-LF-218-072-N.jpg","0","s","1.13388389989268",1,6,0,2,0
"250029","img/neutralC/CFD-LF-236-221-N.jpg","1","s","1.00543819996528",1,6,0,2,0
"250029","img/neutralC/CFD-WM-237-052-N.jpg","1","k","1.09486349998042",1,6,0,2,0
"250029","img/neutralC/CFD-LM-214-165-N.jpg","1","k","2.1266270999331",1,6,0,2,0
"250029","img/neutralC/CFD-WF-222-092-N.jpg","0","s","1.86233620007988",1,6,0,2,0
"250029","img/neutralC/CFD-AF-206-079-N.jpg","0","k","2.02868450002279",1,6,0,2,0
"250029","img/neutralC/CFD-LM-215-247-N.jpg","0","k","2.60398220003117",1,6,0,2,0
"250029","img/neutralC/CFD-WM-002-009-N.jpg","0","k","2.33906819997355",1,6,0,2,0
"250029","img/neutralC/CFD-BM-021-021-N.jpg","1","k","2.82688159996178",1,6,0,2,0
"250029","img/neutralC/CFD-LF-230-203-N.jpg","0","s","1.05695350002497",1,6,0,2,0
"250029","img/neutralC/CFD-BF-214-308-N.jpg","0","s","1.28676550008822",1,6,0,2,0
"250029","img/neutralC/CFD-BF-222-240-N.jpg","1","s","2.47739759995602",1,6,0,2,0
"250029","img/neutralC/CFD-IM-637-007-N.jpg","0","s","1.88955419999547",1,6,0,2,0
"250029","img/neutralC/CFD-WF-018-017-N.jpg","1","k","1.48355280002579",1,6,0,2,0
"250029","img/neutralC/CFD-BF-254-201-N.jpg","0","s","1.48771449993365",1,6,0,2,0
"250029","img/neutralC/CFD-BM-225-154-N.jpg","1","k","2.27200190001167",1,6,0,2,0
"250029","img/neutralC/CFD-LF-238-154-N.jpg","1","s","4.27216300007422",1,6,0,2,0
"250029","img/neutralC/CFD-BM-241-235-N.jpg","1","k","1.88443760003429",1,6,0,2,0
"250029","img/neutralC/CFD-BM-215-155-N.jpg","0","k","1.38165440002922",1,6,0,2,0
"250029","img/neutralC/CFD-LM-233-171-N.jpg","1","s","1.88275909994263",1,6,0,2,0
"250029","img/neutralC/CFD-BF-042-026-N.jpg","0","k","1.51831079996191",1,6,0,2,0
"250029","img/neutralC/CFD-IM-702-101-N.jpg","1","s","0.821436000056565",1,6,0,2,0
"250029","img/neutralC/CFD-BF-006-017-N.jpg","0","s","3.10810409998521",1,6,0,2,0
"250029","img/neutralC/CFD-LF-247-051-N.jpg","1","s","2.96212000004016",1,6,0,2,0
"250029","img/neutralC/CFD-BM-243-218-N.jpg","1","k","1.71029189997353",1,6,0,2,0
"250029","img/neutralC/CFD-IM-719-221-N.jpg","1","s","0.692064100061543",1,6,0,2,0
"250029","img/neutralC/CFD-IF-608-390-N.jpg","0","s","1.24898569996003",1,6,0,2,0
"250029","img/neutralC/CFD-BM-019-002-N.jpg","1","s","2.08546380000189",1,6,0,2,0
"250029","img/neutralC/CFD-IM-616-214-N.jpg","0","s","2.81344469997566",1,6,0,2,0
"250029","img/neutralC/CFD-BF-253-202-N.jpg","0","k","2.13526140002068",1,6,0,2,0
"250029","img/neutralC/CFD-IM-604-014-N.jpg","0","s","2.81353859999217",1,6,0,2,0
"250029","img/neutralC/CFD-WF-223-133-N.jpg","0","s","1.24498050007969",1,6,0,2,0
"250029","img/neutralC/CFD-IF-629-234-N.jpg","1","k","1.70655759994406",1,6,0,2,0
"250029","img/neutralC/CFD-MF-343-001-N.jpg","1","s","1.37426660000347",1,6,0,2,0
"250029","img/neutralC/CFD-MF-302-027-N.jpg","1","k","3.27795120002702",1,6,0,2,0
"250029","img/neutralC/CFD-IF-620-218-N.jpg","1","s","1.54278030002024",1,6,0,2,0
"250029","img/neutralC/CFD-WF-241-210-N.jpg","0","k","1.78022610000335",1,6,0,2,0
"250029","img/neutralC/CFD-LF-250-169-N.jpg","1","k","2.67899909999687",1,6,0,2,0
"250029","img/neutralC/CFD-WM-041-021-N.jpg","0","s","1.51484930003062",1,6,0,2,0
"250029","img/neutralC/CFD-IM-615-167-N.jpg","0","k","1.20453560003079",1,6,0,2,0
"250029","img/neutralC/CFD-AF-202-122-N.jpg","0","k","1.6256476000417",1,6,0,2,0
"250029","img/neutralC/CFD-LM-253-075-N.jpg","0","s","3.37614830001257",1,6,0,2,0
"250029","img/neutralC/CFD-MF-337-026-N.jpg","1","k","1.40572819998488",1,6,0,2,0
"250029","img/neutralC/CFD-AM-244-222-N.jpg","1","s","0.853519299998879",1,6,0,2,0
"250029","img/neutralC/CFD-IM-646-023-N.jpg","1","s","1.22397619998083",1,6,0,2,0
"250029","img/neutralC/CFD-LF-210-220-N.jpg","1","k","1.97721659997478",1,6,0,2,0
"250029","img/neutralC/CFD-MF-303-013-N.jpg","1","s","1.72461389994714",1,7,0,2,0
"250029","img/neutralC/CFD-MF-342-022-N.jpg","0","s","1.09913260000758",1,7,0,2,0
"250029","img/neutralC/CFD-IM-685-004-N.jpg","1","s","1.40729210001882",1,7,0,2,0
"250029","img/neutralC/CFD-AM-249-163-N.jpg","1","k","0.906757799908519",1,7,0,2,0
"250029","img/neutralC/CFD-MF-312-002-N.jpg","0","s","1.30575129995123",1,7,0,2,0
"250029","img/neutralC/CFD-BM-033-003-N.jpg","1","k","1.60400250006933",1,7,0,2,0
"250029","img/neutralC/CFD-WF-210-086-N.jpg","0","s","2.13817709998693",1,7,0,2,0
"250029","img/neutralC/CFD-WM-040-022-N.jpg","0","k","2.82773690007161",1,7,0,2,0
"250029","img/neutralC/CFD-LM-225-130-N.jpg","0","s","2.36874830001034",1,7,0,2,0
"250029","img/neutralC/CFD-BM-204-003-N.jpg","1","k","2.9907548999181",1,7,0,2,0
"250029","img/neutralC/CFD-BF-206-143-N.jpg","0","k","1.35014280001633",1,7,0,2,0
"250029","img/neutralC/CFD-BF-224-002-N.jpg","1","k","2.24563989997841",1,7,0,2,0
"250029","img/neutralC/CFD-BM-200-046-N.jpg","0","s","1.66003469994757",1,7,0,2,0
"250029","img/neutralC/CFD-MF-329-001-N.jpg","1","s","1.87359520001337",1,7,0,2,0
"250029","img/neutralC/CFD-WF-248-129-N.jpg","0","s","1.12409379996825",1,7,0,2,0
"250029","img/neutralC/CFD-AM-205-153-N.jpg","1","s","1.60382730001584",1,7,0,2,0
"250029","img/neutralC/CFD-BM-212-117-N.jpg","1","k","2.93834240001161",1,7,0,2,0
"250029","img/neutralC/CFD-IF-650-315-N.jpg","0","k","1.15121719997842",1,7,0,2,0
"250029","img/neutralC/CFD-MF-316-001-N.jpg","0","s","2.31037990003824",1,7,0,2,0
"250029","img/neutralC/CFD-BF-029-031-N.jpg","1","k","1.94127089995891",1,7,0,2,0
"250029","img/neutralC/CFD-MF-327-002-N.jpg","0","s","2.31062969996128",1,7,0,2,0
"250029","img/neutralC/CFD-IF-729-393-N.jpg","0","s","2.06255879998207",1,7,0,2,0
"250029","img/neutralC/CFD-LF-205-100-N.jpg","0","s","2.56466120004188",1,7,0,2,0
"250029","img/neutralC/CFD-AM-201-076-N.jpg","1","k","1.31416519999038",1,7,0,2,0
"250029","img/neutralC/CFD-AM-243-212-N.jpg","1","k","1.20868989999872",1,7,0,2,0
"250029","img/neutralC/CFD-IM-727-195-N.jpg","1","k","1.78138589998707",1,7,0,2,0
"250029","img/neutralC/CFD-IM-653-008-N.jpg","1","k","1.77819099999033",1,7,0,2,0
"250029","img/neutralC/CFD-WM-026-001-N.jpg","0","k","2.80849690001924",1,7,0,2,0
"250029","img/neutralC/CFD-IF-742-103-N.jpg","0","s","1.66832689999137",1,7,0,2,0
"250029","img/neutralC/CFD-IF-732-260-N.jpg","1","s","2.2344600999495",1,7,0,2,0
"250029","img/neutralC/CFD-BF-213-188-N.jpg","1","k","1.22293819999322",1,7,0,2,0
"250029","img/neutralC/CFD-IM-706-002-N.jpg","1","k","1.03265389997978",1,7,0,2,0
"250029","img/neutralC/CFD-WM-232-070-N.jpg","0","s","1.78759730001912",1,7,0,2,0
"250029","img/neutralC/CFD-WF-214-122-N.jpg","0","s","2.23821219999809",1,7,0,2,0
"250029","img/neutralC/CFD-WM-257-161-N.jpg","0","k","3.0426460999297",1,7,0,2,0
"250029","img/neutralC/CFD-MF-357-002-N.jpg","1","k","5.58351080003195",1,7,0,2,0
"250029","img/neutralC/CFD-IM-721-341-N.jpg","1","k","0.869593699928373",1,7,0,2,0
"250029","img/neutralC/CFD-WM-025-002-N.jpg","1","k","1.21420739998575",1,7,0,2,0
"250029","img/neutralC/CFD-BM-211-174-N.jpg","0","s","1.21088519995101",1,7,0,2,0
"250029","img/neutralC/CFD-LF-226-174-N.jpg","1","s","1.33050729997922",1,7,0,2,0
"250029","img/neutralC/CFD-AF-210-050-N.jpg","1","s","1.96571650006808",1,7,0,2,0
"250029","img/neutralC/CFD-IM-709-103-N.jpg","0","k","2.1572672999464",1,7,0,2,0
"250029","img/neutralC/CFD-BM-248-128-N.jpg","0","k","1.18410279997624",1,7,0,2,0
"250029","img/neutralC/CFD-AF-241-141-N.jpg","1","k","1.40144310006872",1,7,0,2,0
"250029","img/neutralC/CFD-IM-648-337-N.jpg","1","s","0.776512900018133",1,7,0,2,0
"250029","img/neutralC/CFD-WF-012-002-N.jpg","0","s","1.56016670004465",1,7,0,2,0
"250029","img/neutralC/CFD-LF-220-120-N.jpg","0","s","1.86629219993483",1,7,0,2,0
"250029","img/neutralC/CFD-WF-009-001-N.jpg","1","k","1.48621490004007",1,7,0,2,0
"250029","img/neutralC/CFD-BF-040-003-N.jpg","1","k","2.80520269996487",1,8,0,2,0
"250029","img/neutralC/CFD-WM-201-063-N.jpg","0","k","1.71101960004307",1,8,0,2,0
"250029","img/neutralC/CFD-WF-022-017-N.jpg","1","s","1.27794519998133",1,8,0,2,0
"250029","img/neutralC/CFD-IM-645-001-N.jpg","1","k","1.43982560001314",1,8,0,2,0
"250029","img/neutralC/CFD-WF-017-003-N.jpg","1","k","1.23969469999429",1,8,0,2,0
"250029","img/neutralC/CFD-AF-234-208-N.jpg","1","s","1.2839431000175",1,8,0,2,0
"250029","img/neutralC/CFD-BF-036-027-N.jpg","1","k","1.12226010009181",1,8,0,2,0
"250029","img/neutralC/CFD-IF-636-011-N.jpg","0","k","2.34900829999242",1,8,0,2,0
"250029","img/neutralC/CFD-WM-013-001-N.jpg","1","s","1.24937039997894",1,8,0,2,0
"250029","img/neutralC/CFD-WM-218-074-N.jpg","1","k","1.95281539997086",1,8,0,2,0
"250029","img/neutralC/CFD-MF-352-054-N.jpg","0","s","3.02061260002665",1,8,0,2,0
"250029","img/neutralC/CFD-LF-216-121-N.jpg","1","k","1.29154609993566",1,8,0,2,0
"250029","img/neutralC/CFD-BF-235-168-N.jpg","1","s","1.39923839992844",1,8,0,2,0
"250029","img/neutralC/CFD-MM-317-061-N.jpg","1","k","2.41050850006286",1,8,0,2,0
"250029","img/neutralC/CFD-LM-201-057-N.jpg","1","s","1.11328609997872",1,8,0,2,0
"250029","img/neutralC/CFD-BM-231-155-N.jpg","0","k","1.55857609992381",1,8,0,2,0
"250029","img/neutralC/CFD-WM-011-002-N.jpg","1","s","1.39259029994719",1,8,0,2,0
"250029","img/neutralC/CFD-BM-041-035-N.jpg","1","s","3.15897729992867",1,8,0,2,0
"250029","img/neutralC/CFD-BF-229-179-N.jpg","1","k","0.98980159999337",1,8,0,2,0
"250029","img/neutralC/CFD-AM-217-085-N.jpg","1","k","1.84874929999933",1,8,0,2,0
"250029","img/neutralC/CFD-BM-205-001-N.jpg","0","s","1.95327709999401",1,8,0,2,0
"250029","img/neutralC/CFD-LF-215-157-N.jpg","0","s","4.82569299999159",1,8,0,2,0
"250029","img/neutralC/CFD-IM-728-041-N.jpg","1","k","1.52446500002407",1,8,0,2,0
"250029","img/neutralC/CFD-MF-333-012-N.jpg","0","k","1.77899010002147",1,8,0,2,0
"250029","img/neutralC/CFD-BM-043-071-N.jpg","1","s","1.57423500006553",1,8,0,2,0
"250029","img/neutralC/CFD-IF-626-375-N.jpg","0","s","1.94255969999358",1,8,0,2,0
"250029","img/neutralC/CFD-AM-215-120-N.jpg","0","s","2.34898209990934",1,8,0,2,0
"250029","img/neutralC/CFD-BF-244-231-N.jpg","1","s","2.06309630000032",1,8,0,2,0
"250029","img/neutralC/CFD-WF-212-050-N.jpg","0","k","2.99629720009398",1,8,0,2,0
"250029","img/neutralC/CFD-LM-228-188-N.jpg","0","s","1.54922450007871",1,8,0,2,0
"250029","img/neutralC/CFD-MF-359-019-N.jpg","1","s","1.36294520006049",1,8,0,2,0
"250029","img/neutralC/CFD-LF-201-035-N.jpg","0","k","1.41137710004114",1,8,0,2,0
"250029","img/neutralC/CFD-BF-011-002-N.jpg","1","s","1.13212580000982",1,8,0,2,0
"250029","img/neutralC/CFD-BF-247-179-N.jpg","0","k","2.06542999995872",1,8,0,2,0
"250029","img/neutralC/CFD-IM-678-482-N.jpg","1","k","2.66455370001495",1,8,0,2,0
"250029","img/neutralC/CFD-IF-619-197-N.jpg","0","s","2.1369115000125",1,8,0,2,0
"250029","img/neutralC/CFD-BM-028-002-N.jpg","1","s","1.46729140006937",1,8,0,2,0
"250029","img/neutralC/CFD-BF-228-212-N.jpg","1","k","4.323348899954",1,8,0,2,0
"250029","img/neutralC/CFD-WM-235-147-N.jpg","1","s","2.24956389993895",1,8,0,2,0
"250029","img/neutralC/CFD-IM-686-097-N.jpg","1","s","4.39119430002756",1,8,0,2,0
"250029","img/neutralC/CFD-LM-240-013-N.jpg","0","k","1.45682069996838",1,8,0,2,0
"250029","img/neutralC/CFD-WF-217-085-N.jpg","0","k","2.01569329993799",1,8,0,2,0
"250029","img/neutralC/CFD-BF-023-010-N.jpg","0","k","1.09401579992846",1,8,0,2,0
"250029","img/neutralC/CFD-IF-623-129-N.jpg","1","s","2.24988420004956",1,8,0,2,0
"250029","img/neutralC/CFD-BF-204-189-N.jpg","1","s","1.34541459998582",1,8,0,2,0
"250029","img/neutralC/CFD-MM-324-069-N.jpg","1","s","1.47779939998873",1,8,0,2,0
"250029","img/neutralC/CFD-AF-231-357-N.jpg","1","s","2.5790545999771",1,8,0,2,0
"250029","img/neutralC/CFD-IM-726-248-N.jpg","1","k","0.861840400029905",1,8,0,2,0
