"participant_id","current_trial_face","pre_trial_face","post_trial_face","current_trial_accuracy","pre_trial_accuracy","post_trial_accuracy","current_trial_congruency","pre_trial_congruency","post_trial_congruency","current_trial_rt","pre_trial_rt","post_trial_rt","current_trial_responded","pre_trial_responded","post_trial_responded","current_trial_legitResponse","pre_trial_legitResponse","post_trial_legitResponse","current_trial_resp_nums","pre_trial_resp_nums","post_trial_resp_nums"
"250060","img/neutralC/CFD-WF-250-167-N.jpg",NA,"img/neutralC/CFD-BF-253-202-N.jpg","1",NA,"1","1",NA,"0","0.531859899987467",NA,"0.59030719997827","1",NA,"1","1",NA,"1","1",NA,"1"
"250060","img/neutralC/CFD-BF-253-202-N.jpg","img/neutralC/CFD-WF-250-167-N.jpg","img/neutralC/CFD-BM-033-003-N.jpg","1","1","1","0","1","0","0.59030719997827","0.531859899987467","0.554232399968896","1","1","1","1","1","1","1","1","1"
"250060","img/neutralC/CFD-BM-033-003-N.jpg","img/neutralC/CFD-BF-253-202-N.jpg","img/neutralC/CFD-LM-218-183-N.jpg","1","1","1","0","0","1","0.554232399968896","0.59030719997827","0.413051200041082","1","1","1","1","1","1","1","1","1"
"250060","img/neutralC/CFD-LM-218-183-N.jpg","img/neutralC/CFD-BM-033-003-N.jpg","img/neutralC/CFD-BF-029-031-N.jpg","1","1","1","1","0","1","0.413051200041082","0.554232399968896","0.45531089999713","1","1","1","1","1","1","1","1","1"
"250060","img/neutralC/CFD-BF-029-031-N.jpg","img/neutralC/CFD-LM-218-183-N.jpg","img/neutralC/CFD-BF-205-141-N.jpg","1","1","1","1","1","0","0.45531089999713","0.413051200041082","0.568918699980713","1","1","1","1","1","1","1","1","1"
"250060","img/neutralC/CFD-BF-205-141-N.jpg","img/neutralC/CFD-BF-029-031-N.jpg","img/neutralC/CFD-IF-693-172-N.jpg","1","1","1","0","1","0","0.568918699980713","0.45531089999713","0.506648900045548","1","1","1","1","1","1","1","1","1"
"250060","img/neutralC/CFD-IF-693-172-N.jpg","img/neutralC/CFD-BF-205-141-N.jpg","img/neutralC/CFD-WF-213-031-N.jpg","1","1","1","0","0","1","0.506648900045548","0.568918699980713","0.444684099988081","1","1","1","1","1","1","1","1","1"
"250060","img/neutralC/CFD-WF-213-031-N.jpg","img/neutralC/CFD-IF-693-172-N.jpg","img/neutralC/CFD-BF-039-031-N.jpg","1","1","1","1","0","1","0.444684099988081","0.506648900045548","0.413143799989484","1","1","1","1","1","1","1","1","1"
"250060","img/neutralC/CFD-BF-039-031-N.jpg","img/neutralC/CFD-WF-213-031-N.jpg","img/neutralC/CFD-MF-337-026-N.jpg","1","1","1","1","1","1","0.413143799989484","0.444684099988081","0.457864600000903","1","1","1","1","1","1","1","1","1"
"250060","img/neutralC/CFD-MF-337-026-N.jpg","img/neutralC/CFD-BF-039-031-N.jpg","img/neutralC/CFD-WM-011-002-N.jpg","1","1","0","1","1","0","0.457864600000903","0.413143799989484","0.385417699988466","1","1","1","1","1","1","1","1","1"
"250060","img/neutralC/CFD-WM-011-002-N.jpg","img/neutralC/CFD-MF-337-026-N.jpg","img/neutralC/CFD-MM-316-156-N.jpg","0","1","1","0","1","1","0.385417699988466","0.457864600000903","0.565999299986288","1","1","1","1","1","1","1","1","1"
"250060","img/neutralC/CFD-MM-316-156-N.jpg","img/neutralC/CFD-WM-011-002-N.jpg","img/neutralC/CFD-BM-041-035-N.jpg","1","0","1","1","0","0","0.565999299986288","0.385417699988466","0.538032900018152","1","1","1","1","1","1","1","1","1"
"250060","img/neutralC/CFD-BM-041-035-N.jpg","img/neutralC/CFD-MM-316-156-N.jpg","img/neutralC/CFD-IF-634-382-N.jpg","1","1","1","0","1","1","0.538032900018152","0.565999299986288","0.462362399965059","1","1","1","1","1","1","1","1","1"
"250060","img/neutralC/CFD-IF-634-382-N.jpg","img/neutralC/CFD-BM-041-035-N.jpg","img/neutralC/CFD-WM-021-001-N.jpg","1","1","1","1","0","1","0.462362399965059","0.538032900018152","0.450147399969865","1","1","1","1","1","1","1","1","1"
"250060","img/neutralC/CFD-WM-021-001-N.jpg","img/neutralC/CFD-IF-634-382-N.jpg","img/neutralC/CFD-IF-710-016-N.jpg","1","1","1","1","1","0","0.450147399969865","0.462362399965059","0.587879099999554","1","1","1","1","1","1","1","1","1"
"250060","img/neutralC/CFD-IF-710-016-N.jpg","img/neutralC/CFD-WM-021-001-N.jpg","img/neutralC/CFD-IM-651-308-N.jpg","1","1","1","0","1","0","0.587879099999554","0.450147399969865","0.457706400018651","1","1","1","1","1","1","1","1","1"
"250060","img/neutralC/CFD-IM-651-308-N.jpg","img/neutralC/CFD-IF-710-016-N.jpg","img/neutralC/CFD-BM-239-136-N.jpg","1","1","1","0","0","1","0.457706400018651","0.587879099999554","0.470053199969698","1","1","1","1","1","1","1","1","1"
"250060","img/neutralC/CFD-BM-239-136-N.jpg","img/neutralC/CFD-IM-651-308-N.jpg","img/neutralC/CFD-AF-231-357-N.jpg","1","1","1","1","0","1","0.470053199969698","0.457706400018651","0.505478799983393","1","1","1","1","1","1","1","1","1"
"250060","img/neutralC/CFD-AF-231-357-N.jpg","img/neutralC/CFD-BM-239-136-N.jpg","img/neutralC/CFD-LF-230-203-N.jpg","1","1","1","1","1","0","0.505478799983393","0.470053199969698","0.569715999998152","1","1","1","1","1","1","1","1","1"
"250060","img/neutralC/CFD-LF-230-203-N.jpg","img/neutralC/CFD-AF-231-357-N.jpg","img/neutralC/CFD-AM-212-050-N.jpg","1","1","1","0","1","1","0.569715999998152","0.505478799983393","0.512240100011695","1","1","1","1","1","1","1","1","1"
"250060","img/neutralC/CFD-AM-212-050-N.jpg","img/neutralC/CFD-LF-230-203-N.jpg","img/neutralC/CFD-IM-684-008-N.jpg","1","1","1","1","0","1","0.512240100011695","0.569715999998152","0.519276399980299","1","1","1","1","1","1","1","1","1"
"250060","img/neutralC/CFD-IM-684-008-N.jpg","img/neutralC/CFD-AM-212-050-N.jpg","img/neutralC/CFD-AM-201-076-N.jpg","1","1","1","1","1","1","0.519276399980299","0.512240100011695","0.516455799981486","1","1","1","1","1","1","1","1","1"
"250060","img/neutralC/CFD-AM-201-076-N.jpg","img/neutralC/CFD-IM-684-008-N.jpg","img/neutralC/CFD-BF-213-188-N.jpg","1","1","1","1","1","1","0.516455799981486","0.519276399980299","0.538954099989496","1","1","1","1","1","1","1","1","1"
"250060","img/neutralC/CFD-BF-213-188-N.jpg","img/neutralC/CFD-AM-201-076-N.jpg","img/neutralC/CFD-WF-224-099-N.jpg","1","1","1","1","1","0","0.538954099989496","0.516455799981486","0.594782400003169","1","1","1","1","1","1","1","1","1"
"250060","img/neutralC/CFD-WF-224-099-N.jpg","img/neutralC/CFD-BF-213-188-N.jpg","img/neutralC/CFD-LF-224-176-N.jpg","1","1","1","0","1","0","0.594782400003169","0.538954099989496","0.498262400040403","1","1","1","1","1","1","1","1","1"
"250060","img/neutralC/CFD-LF-224-176-N.jpg","img/neutralC/CFD-WF-224-099-N.jpg","img/neutralC/CFD-LF-205-100-N.jpg","1","1","1","0","0","1","0.498262400040403","0.594782400003169","0.512065499962773","1","1","1","1","1","1","1","1","1"
"250060","img/neutralC/CFD-LF-205-100-N.jpg","img/neutralC/CFD-LF-224-176-N.jpg","img/neutralC/CFD-LF-203-066-N.jpg","1","1","1","1","0","0","0.512065499962773","0.498262400040403","0.519216499989852","1","1","1","1","1","1","1","1","1"
"250060","img/neutralC/CFD-LF-203-066-N.jpg","img/neutralC/CFD-LF-205-100-N.jpg","img/neutralC/CFD-LF-214-090-N.jpg","1","1","1","0","1","0","0.519216499989852","0.512065499962773","0.490350499982014","1","1","1","1","1","1","1","1","1"
"250060","img/neutralC/CFD-LF-214-090-N.jpg","img/neutralC/CFD-LF-203-066-N.jpg","img/neutralC/CFD-WM-041-021-N.jpg","1","1","1","0","0","0","0.490350499982014","0.519216499989852","0.463290699990466","1","1","1","1","1","1","1","1","1"
"250060","img/neutralC/CFD-WM-041-021-N.jpg","img/neutralC/CFD-LF-214-090-N.jpg","img/neutralC/CFD-LM-215-247-N.jpg","1","1","1","0","0","0","0.463290699990466","0.490350499982014","0.656021300004795","1","1","1","1","1","1","1","1","1"
"250060","img/neutralC/CFD-LM-215-247-N.jpg","img/neutralC/CFD-WM-041-021-N.jpg","img/neutralC/CFD-BM-019-002-N.jpg","1","1","1","0","0","0","0.656021300004795","0.463290699990466","1.17526799999177","1","1","1","1","1","1","1","1","1"
"250060","img/neutralC/CFD-BM-019-002-N.jpg","img/neutralC/CFD-LM-215-247-N.jpg",NA,"1","1",NA,"0","0",NA,"1.17526799999177","0.656021300004795",NA,"1","1",NA,"1","1",NA,"1","1",NA
"250060","img/neutralC/CFD-LF-211-003-N.jpg",NA,"img/neutralC/CFD-IM-719-221-N.jpg","1",NA,"1","0",NA,"0","0.54140849999385",NA,"0.491775700007565","1",NA,"1","1",NA,"1","1",NA,"1"
"250060","img/neutralC/CFD-IM-719-221-N.jpg","img/neutralC/CFD-LF-211-003-N.jpg","img/neutralC/CFD-BF-218-207-N.jpg","1","1","1","0","0","1","0.491775700007565","0.54140849999385","0.371714299952146","1","1","1","1","1","1","1","1","1"
"250060","img/neutralC/CFD-BF-218-207-N.jpg","img/neutralC/CFD-IM-719-221-N.jpg","img/neutralC/CFD-WF-238-023-N.jpg","1","1","1","1","0","0","0.371714299952146","0.491775700007565","0.455119399994146","1","1","1","1","1","1","1","1","1"
"250060","img/neutralC/CFD-WF-238-023-N.jpg","img/neutralC/CFD-BF-218-207-N.jpg","img/neutralC/CFD-IM-627-178-N.jpg","1","1","1","0","1","1","0.455119399994146","0.371714299952146","0.394662300008349","1","1","1","1","1","1","1","1","1"
"250060","img/neutralC/CFD-IM-627-178-N.jpg","img/neutralC/CFD-WF-238-023-N.jpg","img/neutralC/CFD-WF-226-095-N.jpg","1","1","1","1","0","1","0.394662300008349","0.455119399994146","0.394416600000113","1","1","1","1","1","1","1","1","1"
"250060","img/neutralC/CFD-WF-226-095-N.jpg","img/neutralC/CFD-IM-627-178-N.jpg","img/neutralC/CFD-BF-018-039-N.jpg","1","1","1","1","1","1","0.394416600000113","0.394662300008349","0.413666200009175","1","1","1","1","1","1","1","1","1"
"250060","img/neutralC/CFD-BF-018-039-N.jpg","img/neutralC/CFD-WF-226-095-N.jpg","img/neutralC/CFD-LF-215-157-N.jpg","1","1","1","1","1","0","0.413666200009175","0.394416600000113","0.450718199950643","1","1","1","1","1","1","1","1","1"
"250060","img/neutralC/CFD-LF-215-157-N.jpg","img/neutralC/CFD-BF-018-039-N.jpg","img/neutralC/CFD-WM-013-001-N.jpg","1","1","1","0","1","1","0.450718199950643","0.413666200009175","0.371467199991457","1","1","1","1","1","1","1","1","1"
"250060","img/neutralC/CFD-WM-013-001-N.jpg","img/neutralC/CFD-LF-215-157-N.jpg","img/neutralC/CFD-IM-700-009-N.jpg","1","1","1","1","0","1","0.371467199991457","0.450718199950643","0.389094199985266","1","1","1","1","1","1","1","1","1"
"250060","img/neutralC/CFD-IM-700-009-N.jpg","img/neutralC/CFD-WM-013-001-N.jpg","img/neutralC/CFD-BM-204-003-N.jpg","1","1","0","1","1","0","0.389094199985266","0.371467199991457","0.478139300015755","1","1","1","1","1","1","1","1","1"
"250060","img/neutralC/CFD-BM-204-003-N.jpg","img/neutralC/CFD-IM-700-009-N.jpg","img/neutralC/CFD-AM-244-222-N.jpg","0","1","1","0","1","0","0.478139300015755","0.389094199985266","0.558729599986691","1","1","1","1","1","1","1","1","1"
"250060","img/neutralC/CFD-AM-244-222-N.jpg","img/neutralC/CFD-BM-204-003-N.jpg","img/neutralC/CFD-WM-221-091-N.jpg","1","0","1","0","0","0","0.558729599986691","0.478139300015755","0.402452100010123","1","1","1","1","1","1","1","1","1"
"250060","img/neutralC/CFD-WM-221-091-N.jpg","img/neutralC/CFD-AM-244-222-N.jpg","img/neutralC/CFD-WM-009-002-N.jpg","1","1","1","0","0","0","0.402452100010123","0.558729599986691","0.457287000026554","1","1","1","1","1","1","1","1","1"
"250060","img/neutralC/CFD-WM-009-002-N.jpg","img/neutralC/CFD-WM-221-091-N.jpg","img/neutralC/CFD-MF-321-003-N.jpg","1","1","1","0","0","0","0.457287000026554","0.402452100010123","0.630044599995017","1","1","1","1","1","1","1","1","1"
"250060","img/neutralC/CFD-MF-321-003-N.jpg","img/neutralC/CFD-WM-009-002-N.jpg","img/neutralC/CFD-MF-342-022-N.jpg","1","1","1","0","0","1","0.630044599995017","0.457287000026554","0.38755859999219","1","1","1","1","1","1","1","1","1"
"250060","img/neutralC/CFD-MF-342-022-N.jpg","img/neutralC/CFD-MF-321-003-N.jpg","img/neutralC/CFD-WF-245-084-N.jpg","1","1","1","1","0","1","0.38755859999219","0.630044599995017","0.385184100014158","1","1","1","1","1","1","1","1","1"
"250060","img/neutralC/CFD-WF-245-084-N.jpg","img/neutralC/CFD-MF-342-022-N.jpg","img/neutralC/CFD-BF-254-201-N.jpg","1","1","1","1","1","0","0.385184100014158","0.38755859999219","0.542579700006172","1","1","1","1","1","1","1","1","1"
"250060","img/neutralC/CFD-BF-254-201-N.jpg","img/neutralC/CFD-WF-245-084-N.jpg","img/neutralC/CFD-WM-237-052-N.jpg","1","1","1","0","1","1","0.542579700006172","0.385184100014158","0.399034600006416","1","1","1","1","1","1","1","1","1"
"250060","img/neutralC/CFD-WM-237-052-N.jpg","img/neutralC/CFD-BF-254-201-N.jpg","img/neutralC/CFD-BM-023-029-N.jpg","1","1","1","1","0","1","0.399034600006416","0.542579700006172","0.41554980003275","1","1","1","1","1","1","1","1","1"
"250060","img/neutralC/CFD-BM-023-029-N.jpg","img/neutralC/CFD-WM-237-052-N.jpg","img/neutralC/CFD-AF-221-147-N.jpg","1","1","1","1","1","0","0.41554980003275","0.399034600006416","0.445377399970312","1","1","1","1","1","1","1","1","1"
"250060","img/neutralC/CFD-AF-221-147-N.jpg","img/neutralC/CFD-BM-023-029-N.jpg","img/neutralC/CFD-MF-318-022-N.jpg","1","1","1","0","1","1","0.445377399970312","0.41554980003275","0.36889230000088","1","1","1","1","1","1","1","1","1"
"250060","img/neutralC/CFD-MF-318-022-N.jpg","img/neutralC/CFD-AF-221-147-N.jpg","img/neutralC/CFD-BM-200-046-N.jpg","1","1","1","1","0","0","0.36889230000088","0.445377399970312","0.354490900004748","1","1","1","1","1","1","1","1","1"
"250060","img/neutralC/CFD-BM-200-046-N.jpg","img/neutralC/CFD-MF-318-022-N.jpg","img/neutralC/CFD-WF-018-017-N.jpg","1","1","1","0","1","1","0.354490900004748","0.36889230000088","0.483662299986463","1","1","1","1","1","1","1","1","1"
"250060","img/neutralC/CFD-WF-018-017-N.jpg","img/neutralC/CFD-BM-200-046-N.jpg","img/neutralC/CFD-AF-232-078-N.jpg","1","1","1","1","0","1","0.483662299986463","0.354490900004748","0.400670500006527","1","1","1","1","1","1","1","1","1"
"250060","img/neutralC/CFD-AF-232-078-N.jpg","img/neutralC/CFD-WF-018-017-N.jpg","img/neutralC/CFD-LM-253-075-N.jpg","1","1","1","1","1","0","0.400670500006527","0.483662299986463","0.423117100028321","1","1","1","1","1","1","1","1","1"
"250060","img/neutralC/CFD-LM-253-075-N.jpg","img/neutralC/CFD-AF-232-078-N.jpg","img/neutralC/CFD-MM-321-021-N.jpg","1","1","1","0","1","0","0.423117100028321","0.400670500006527","0.371405499987304","1","1","1","1","1","1","1","1","1"
"250060","img/neutralC/CFD-MM-321-021-N.jpg","img/neutralC/CFD-LM-253-075-N.jpg","img/neutralC/CFD-IF-629-234-N.jpg","1","1","0","0","0","0","0.371405499987304","0.423117100028321","0.425700400024652","1","1","1","1","1","1","1","1","1"
"250060","img/neutralC/CFD-IF-629-234-N.jpg","img/neutralC/CFD-MM-321-021-N.jpg","img/neutralC/CFD-WF-023-003-N.jpg","0","1","1","0","0","1","0.425700400024652","0.371405499987304","0.520283800025936","1","1","1","1","1","1","1","1","1"
"250060","img/neutralC/CFD-WF-023-003-N.jpg","img/neutralC/CFD-IF-629-234-N.jpg","img/neutralC/CFD-WM-255-219-N.jpg","1","0","1","1","0","0","0.520283800025936","0.425700400024652","0.404483399994206","1","1","1","1","1","1","1","1","1"
"250060","img/neutralC/CFD-WM-255-219-N.jpg","img/neutralC/CFD-WF-023-003-N.jpg","img/neutralC/CFD-WF-027-003-N.jpg","1","1","1","0","1","1","0.404483399994206","0.520283800025936","0.353973700024653","1","1","1","1","1","1","1","1","1"
"250060","img/neutralC/CFD-WF-027-003-N.jpg","img/neutralC/CFD-WM-255-219-N.jpg","img/neutralC/CFD-WM-201-063-N.jpg","1","1","1","1","0","1","0.353973700024653","0.404483399994206","0.439047499967273","1","1","1","1","1","1","1","1","1"
"250060","img/neutralC/CFD-WM-201-063-N.jpg","img/neutralC/CFD-WF-027-003-N.jpg",NA,"1","1",NA,"1","1",NA,"0.439047499967273","0.353973700024653",NA,"1","1",NA,"1","1",NA,"1","1",NA
"250060","img/neutralC/CFD-LM-244-068-N.jpg",NA,"img/neutralC/CFD-MF-309-002-N.jpg","1",NA,"0","1",NA,"0","0.406201099976897",NA,"0.3443055000389","1",NA,"1","1",NA,"1","1",NA,"2"
"250060","img/neutralC/CFD-MF-309-002-N.jpg","img/neutralC/CFD-LM-244-068-N.jpg","img/neutralC/CFD-WF-240-083-N.jpg","0","1","1","0","1","0","0.3443055000389","0.406201099976897","0.432312400022056","1","1","1","1","1","1","2","1","1"
"250060","img/neutralC/CFD-WF-240-083-N.jpg","img/neutralC/CFD-MF-309-002-N.jpg","img/neutralC/CFD-LM-214-165-N.jpg","1","0","1","0","0","1","0.432312400022056","0.3443055000389","0.37832309998339","1","1","1","1","1","1","1","2","1"
"250060","img/neutralC/CFD-LM-214-165-N.jpg","img/neutralC/CFD-WF-240-083-N.jpg","img/neutralC/CFD-AF-240-206-N.jpg","1","1","1","1","0","0","0.37832309998339","0.432312400022056","0.393043000018224","1","1","1","1","1","1","1","1","1"
"250060","img/neutralC/CFD-AF-240-206-N.jpg","img/neutralC/CFD-LM-214-165-N.jpg","img/neutralC/CFD-LM-216-082-N.jpg","1","1","1","0","1","0","0.393043000018224","0.37832309998339","0.382089200022165","1","1","1","1","1","1","1","1","1"
"250060","img/neutralC/CFD-LM-216-082-N.jpg","img/neutralC/CFD-AF-240-206-N.jpg","img/neutralC/CFD-WM-012-001-N.jpg","1","1","1","0","0","1","0.382089200022165","0.393043000018224","0.345093799987808","1","1","1","1","1","1","1","1","1"
"250060","img/neutralC/CFD-WM-012-001-N.jpg","img/neutralC/CFD-LM-216-082-N.jpg","img/neutralC/CFD-AM-247-165-N.jpg","1","1","1","1","0","1","0.345093799987808","0.382089200022165","0.371840100036934","1","1","1","1","1","1","1","1","1"
"250060","img/neutralC/CFD-AM-247-165-N.jpg","img/neutralC/CFD-WM-012-001-N.jpg","img/neutralC/CFD-WF-228-196-N.jpg","1","1","1","1","1","0","0.371840100036934","0.345093799987808","0.461706899979618","1","1","1","1","1","1","1","1","1"
"250060","img/neutralC/CFD-WF-228-196-N.jpg","img/neutralC/CFD-AM-247-165-N.jpg","img/neutralC/CFD-IM-646-023-N.jpg","1","1","1","0","1","1","0.461706899979618","0.371840100036934","0.520277199975681","1","1","1","1","1","1","1","1","1"
"250060","img/neutralC/CFD-IM-646-023-N.jpg","img/neutralC/CFD-WF-228-196-N.jpg","img/neutralC/CFD-BF-202-109-N.jpg","1","1","1","1","0","1","0.520277199975681","0.461706899979618","0.448524600011297","1","1","1","1","1","1","1","1","1"
"250060","img/neutralC/CFD-BF-202-109-N.jpg","img/neutralC/CFD-IM-646-023-N.jpg","img/neutralC/CFD-BF-212-315-N.jpg","1","1","1","1","1","1","0.448524600011297","0.520277199975681","0.482720499974675","1","1","1","1","1","1","1","1","1"
"250060","img/neutralC/CFD-BF-212-315-N.jpg","img/neutralC/CFD-BF-202-109-N.jpg","img/neutralC/CFD-WM-006-002-N.jpg","1","1","1","1","1","0","0.482720499974675","0.448524600011297","0.705325499991886","1","1","1","1","1","1","1","1","1"
"250060","img/neutralC/CFD-WM-006-002-N.jpg","img/neutralC/CFD-BF-212-315-N.jpg","img/neutralC/CFD-WF-005-010-N.jpg","1","1","1","0","1","0","0.705325499991886","0.482720499974675","0.566429500002414","1","1","1","1","1","1","1","1","1"
"250060","img/neutralC/CFD-WF-005-010-N.jpg","img/neutralC/CFD-WM-006-002-N.jpg","img/neutralC/CFD-WM-249-239-N.jpg","1","1","1","0","0","1","0.566429500002414","0.705325499991886","0.383039399981499","1","1","1","1","1","1","1","1","1"
"250060","img/neutralC/CFD-WM-249-239-N.jpg","img/neutralC/CFD-WF-005-010-N.jpg","img/neutralC/CFD-MF-335-002-N.jpg","1","1","1","1","0","0","0.383039399981499","0.566429500002414","0.348659200011753","1","1","1","1","1","1","1","1","1"
"250060","img/neutralC/CFD-MF-335-002-N.jpg","img/neutralC/CFD-WM-249-239-N.jpg","img/neutralC/CFD-LM-201-057-N.jpg","1","1","1","0","1","1","0.348659200011753","0.383039399981499","0.390695699956268","1","1","1","1","1","1","1","1","1"
"250060","img/neutralC/CFD-LM-201-057-N.jpg","img/neutralC/CFD-MF-335-002-N.jpg","img/neutralC/CFD-LM-243-075-N.jpg","1","1","0","1","0","0","0.390695699956268","0.348659200011753","0.409020400024019","1","1","1","1","1","1","1","1","1"
"250060","img/neutralC/CFD-LM-243-075-N.jpg","img/neutralC/CFD-LM-201-057-N.jpg","img/neutralC/CFD-WM-019-003-N.jpg","0","1","1","0","1","1","0.409020400024019","0.390695699956268","0.402837099973112","1","1","1","1","1","1","1","1","1"
"250060","img/neutralC/CFD-WM-019-003-N.jpg","img/neutralC/CFD-LM-243-075-N.jpg","img/neutralC/CFD-BM-205-001-N.jpg","1","0","1","1","0","0","0.402837099973112","0.409020400024019","0.53923210001085","1","1","1","1","1","1","1","1","1"
"250060","img/neutralC/CFD-BM-205-001-N.jpg","img/neutralC/CFD-WM-019-003-N.jpg","img/neutralC/CFD-BM-251-013-N.jpg","1","1","1","0","1","1","0.53923210001085","0.402837099973112","0.417005499999504","1","1","1","1","1","1","1","1","1"
"250060","img/neutralC/CFD-BM-251-013-N.jpg","img/neutralC/CFD-BM-205-001-N.jpg","img/neutralC/CFD-BF-025-002-N.jpg","1","1","1","1","0","0","0.417005499999504","0.53923210001085","0.423337500018533","1","1","1","1","1","1","1","1","1"
"250060","img/neutralC/CFD-BF-025-002-N.jpg","img/neutralC/CFD-BM-251-013-N.jpg","img/neutralC/CFD-IF-642-295-N.jpg","1","1","1","0","1","1","0.423337500018533","0.417005499999504","0.371670400025323","1","1","1","1","1","1","1","1","1"
"250060","img/neutralC/CFD-IF-642-295-N.jpg","img/neutralC/CFD-BF-025-002-N.jpg","img/neutralC/CFD-WM-212-097-N.jpg","1","1","0","1","0","0","0.371670400025323","0.423337500018533","0.422589699970558","1","1","1","1","1","1","1","1","1"
"250060","img/neutralC/CFD-WM-212-097-N.jpg","img/neutralC/CFD-IF-642-295-N.jpg","img/neutralC/CFD-WM-215-041-N.jpg","0","1","1","0","1","0","0.422589699970558","0.371670400025323","0.455338099971414","1","1","1","1","1","1","1","1","1"
"250060","img/neutralC/CFD-WM-215-041-N.jpg","img/neutralC/CFD-WM-212-097-N.jpg","img/neutralC/CFD-WF-017-003-N.jpg","1","0","1","0","0","1","0.455338099971414","0.422589699970558","0.46761630004039","1","1","1","1","1","1","1","1","1"
"250060","img/neutralC/CFD-WF-017-003-N.jpg","img/neutralC/CFD-WM-215-041-N.jpg","img/neutralC/CFD-IM-648-337-N.jpg","1","1","1","1","0","0","0.46761630004039","0.455338099971414","0.73052679997636","1","1","1","1","1","1","1","1","1"
"250060","img/neutralC/CFD-IM-648-337-N.jpg","img/neutralC/CFD-WF-017-003-N.jpg","img/neutralC/CFD-BF-228-212-N.jpg","1","1","1","0","1","0","0.73052679997636","0.46761630004039","0.442005400022026","1","1","1","1","1","1","1","1","1"
"250060","img/neutralC/CFD-BF-228-212-N.jpg","img/neutralC/CFD-IM-648-337-N.jpg","img/neutralC/CFD-BM-248-128-N.jpg","1","1","0","0","0","0","0.442005400022026","0.73052679997636","0.402155500021763","1","1","1","1","1","1","1","1","1"
"250060","img/neutralC/CFD-BM-248-128-N.jpg","img/neutralC/CFD-BF-228-212-N.jpg","img/neutralC/CFD-WM-026-001-N.jpg","0","1","1","0","0","1","0.402155500021763","0.442005400022026","0.475248100003228","1","1","1","1","1","1","1","1","1"
"250060","img/neutralC/CFD-WM-026-001-N.jpg","img/neutralC/CFD-BM-248-128-N.jpg","img/neutralC/CFD-BF-041-001-N.jpg","1","0","1","1","0","1","0.475248100003228","0.402155500021763","0.462661899975501","1","1","1","1","1","1","1","1","1"
"250060","img/neutralC/CFD-BF-041-001-N.jpg","img/neutralC/CFD-WM-026-001-N.jpg","img/neutralC/CFD-MM-317-061-N.jpg","1","1","1","1","1","1","0.462661899975501","0.475248100003228","0.399089200014714","1","1","1","1","1","1","1","1","1"
"250060","img/neutralC/CFD-MM-317-061-N.jpg","img/neutralC/CFD-BF-041-001-N.jpg",NA,"1","1",NA,"1","1",NA,"0.399089200014714","0.462661899975501",NA,"1","1",NA,"1","1",NA,"1","1",NA
"250060","img/neutralC/CFD-AF-234-208-N.jpg",NA,"img/neutralC/CFD-MF-302-027-N.jpg","1",NA,"1","1",NA,"0","0.492376399983186",NA,"0.548504799953662","1",NA,"1","1",NA,"1","1",NA,"1"
"250060","img/neutralC/CFD-MF-302-027-N.jpg","img/neutralC/CFD-AF-234-208-N.jpg","img/neutralC/CFD-BF-020-002-N.jpg","1","1","1","0","1","1","0.548504799953662","0.492376399983186","0.454927399987355","1","1","1","1","1","1","1","1","1"
"250060","img/neutralC/CFD-BF-020-002-N.jpg","img/neutralC/CFD-MF-302-027-N.jpg","img/neutralC/CFD-WF-210-086-N.jpg","1","1","1","1","0","0","0.454927399987355","0.548504799953662","0.443697999988217","1","1","1","1","1","1","1","1","1"
"250060","img/neutralC/CFD-WF-210-086-N.jpg","img/neutralC/CFD-BF-020-002-N.jpg","img/neutralC/CFD-WM-018-002-N.jpg","1","1","1","0","1","0","0.443697999988217","0.454927399987355","0.406891599996015","1","1","1","1","1","1","1","1","1"
"250060","img/neutralC/CFD-WM-018-002-N.jpg","img/neutralC/CFD-WF-210-086-N.jpg","img/neutralC/CFD-WM-253-119-N.jpg","1","1","1","0","0","1","0.406891599996015","0.443697999988217","0.399555900017731","1","1","1","1","1","1","1","1","1"
"250060","img/neutralC/CFD-WM-253-119-N.jpg","img/neutralC/CFD-WM-018-002-N.jpg","img/neutralC/CFD-IF-636-011-N.jpg","1","1","1","1","0","1","0.399555900017731","0.406891599996015","0.357113800011575","1","1","1","1","1","1","1","1","1"
"250060","img/neutralC/CFD-IF-636-011-N.jpg","img/neutralC/CFD-WM-253-119-N.jpg","img/neutralC/CFD-BF-217-189-N.jpg","1","1","1","1","1","0","0.357113800011575","0.399555900017731","0.401957000023685","1","1","1","1","1","1","1","1","1"
"250060","img/neutralC/CFD-BF-217-189-N.jpg","img/neutralC/CFD-IF-636-011-N.jpg","img/neutralC/CFD-BF-235-168-N.jpg","1","1","1","0","1","1","0.401957000023685","0.357113800011575","0.42830570001388","1","1","1","1","1","1","1","1","1"
"250060","img/neutralC/CFD-BF-235-168-N.jpg","img/neutralC/CFD-BF-217-189-N.jpg","img/neutralC/CFD-BM-215-155-N.jpg","1","1","1","1","0","0","0.42830570001388","0.401957000023685","0.634057299990673","1","1","1","1","1","1","1","1","1"
"250060","img/neutralC/CFD-BM-215-155-N.jpg","img/neutralC/CFD-BF-235-168-N.jpg","img/neutralC/CFD-AF-205-155-N.jpg","1","1","1","0","1","0","0.634057299990673","0.42830570001388","0.48531090002507","1","1","1","1","1","1","1","1","1"
"250060","img/neutralC/CFD-AF-205-155-N.jpg","img/neutralC/CFD-BM-215-155-N.jpg","img/neutralC/CFD-BM-004-002-N.jpg","1","1","0","0","0","0","0.48531090002507","0.634057299990673","0.378291399974842","1","1","1","1","1","1","1","1","1"
"250060","img/neutralC/CFD-BM-004-002-N.jpg","img/neutralC/CFD-AF-205-155-N.jpg","img/neutralC/CFD-MF-307-002-N.jpg","0","1","1","0","0","1","0.378291399974842","0.48531090002507","0.52747609996004","1","1","1","1","1","1","1","1","1"
"250060","img/neutralC/CFD-MF-307-002-N.jpg","img/neutralC/CFD-BM-004-002-N.jpg","img/neutralC/CFD-LM-241-125-N.jpg","1","0","1","1","0","1","0.52747609996004","0.378291399974842","0.416880699980538","1","1","1","1","1","1","1","1","1"
"250060","img/neutralC/CFD-LM-241-125-N.jpg","img/neutralC/CFD-MF-307-002-N.jpg","img/neutralC/CFD-AF-244-168-N.jpg","1","1","1","1","1","0","0.416880699980538","0.52747609996004","0.469195200013928","1","1","1","1","1","1","1","1","1"
"250060","img/neutralC/CFD-AF-244-168-N.jpg","img/neutralC/CFD-LM-241-125-N.jpg","img/neutralC/CFD-LM-204-001-N.jpg","1","1","1","0","1","0","0.469195200013928","0.416880699980538","0.579100999981165","1","1","1","1","1","1","1","1","1"
"250060","img/neutralC/CFD-LM-204-001-N.jpg","img/neutralC/CFD-AF-244-168-N.jpg","img/neutralC/CFD-IM-635-010-N.jpg","1","1","1","0","0","1","0.579100999981165","0.469195200013928","0.426930199959315","1","1","1","1","1","1","1","1","1"
"250060","img/neutralC/CFD-IM-635-010-N.jpg","img/neutralC/CFD-LM-204-001-N.jpg","img/neutralC/CFD-AF-213-126-N.jpg","1","1","1","1","0","1","0.426930199959315","0.579100999981165","0.559006800001953","1","1","1","1","1","1","1","1","1"
"250060","img/neutralC/CFD-AF-213-126-N.jpg","img/neutralC/CFD-IM-635-010-N.jpg","img/neutralC/CFD-IM-678-482-N.jpg","1","1","1","1","1","0","0.559006800001953","0.426930199959315","0.559637200029101","1","1","1","1","1","1","1","1","1"
"250060","img/neutralC/CFD-IM-678-482-N.jpg","img/neutralC/CFD-AF-213-126-N.jpg","img/neutralC/CFD-AF-250-200-N.jpg","1","1","1","0","1","1","0.559637200029101","0.559006800001953","0.441620900004636","1","1","1","1","1","1","1","1","1"
"250060","img/neutralC/CFD-AF-250-200-N.jpg","img/neutralC/CFD-IM-678-482-N.jpg","img/neutralC/CFD-AM-245-111-N.jpg","1","1","1","1","0","1","0.441620900004636","0.559637200029101","0.444959599990398","1","1","1","1","1","1","1","1","1"
"250060","img/neutralC/CFD-AM-245-111-N.jpg","img/neutralC/CFD-AF-250-200-N.jpg","img/neutralC/CFD-IM-669-111-N.jpg","1","1","1","1","1","1","0.444959599990398","0.441620900004636","0.427428400027566","1","1","1","1","1","1","1","1","1"
"250060","img/neutralC/CFD-IM-669-111-N.jpg","img/neutralC/CFD-AM-245-111-N.jpg","img/neutralC/CFD-IF-732-260-N.jpg","1","1","1","1","1","0","0.427428400027566","0.444959599990398","0.576951000024565","1","1","1","1","1","1","1","1","1"
"250060","img/neutralC/CFD-IF-732-260-N.jpg","img/neutralC/CFD-IM-669-111-N.jpg","img/neutralC/CFD-AM-233-236-N.jpg","1","1","1","0","1","1","0.576951000024565","0.427428400027566","0.399186099995859","1","1","1","1","1","1","1","1","1"
"250060","img/neutralC/CFD-AM-233-236-N.jpg","img/neutralC/CFD-IF-732-260-N.jpg","img/neutralC/CFD-IM-632-097-N.jpg","1","1","1","1","0","0","0.399186099995859","0.576951000024565","0.386476299958304","1","1","1","1","1","1","1","1","1"
"250060","img/neutralC/CFD-IM-632-097-N.jpg","img/neutralC/CFD-AM-233-236-N.jpg","img/neutralC/CFD-LF-239-148-N.jpg","1","1","1","0","1","0","0.386476299958304","0.399186099995859","0.453423500002827","1","1","1","1","1","1","1","1","1"
"250060","img/neutralC/CFD-LF-239-148-N.jpg","img/neutralC/CFD-IM-632-097-N.jpg","img/neutralC/CFD-WF-235-121-N.jpg","1","1","1","0","0","0","0.453423500002827","0.386476299958304","0.735313999990467","1","1","1","1","1","1","1","1","2"
"250060","img/neutralC/CFD-WF-235-121-N.jpg","img/neutralC/CFD-LF-239-148-N.jpg","img/neutralC/CFD-BF-206-143-N.jpg","1","1","1","0","0","1","0.735313999990467","0.453423500002827","0.555030399991665","1","1","1","1","1","1","2","1","1"
"250060","img/neutralC/CFD-BF-206-143-N.jpg","img/neutralC/CFD-WF-235-121-N.jpg","img/neutralC/CFD-AF-246-242-N.jpg","1","1","0","1","0","0","0.555030399991665","0.735313999990467","0.718035799975041","1","1","1","1","1","1","1","2","1"
"250060","img/neutralC/CFD-AF-246-242-N.jpg","img/neutralC/CFD-BF-206-143-N.jpg","img/neutralC/CFD-BF-040-003-N.jpg","0","1","1","0","1","1","0.718035799975041","0.555030399991665","0.606844399997499","1","1","1","1","1","1","1","1","1"
"250060","img/neutralC/CFD-BF-040-003-N.jpg","img/neutralC/CFD-AF-246-242-N.jpg","img/neutralC/CFD-BF-042-026-N.jpg","1","0","1","1","0","1","0.606844399997499","0.718035799975041","0.495627399999648","1","1","1","1","1","1","1","1","1"
"250060","img/neutralC/CFD-BF-042-026-N.jpg","img/neutralC/CFD-BF-040-003-N.jpg","img/neutralC/CFD-AM-225-102-N.jpg","1","1","1","1","1","0","0.495627399999648","0.606844399997499","0.474336000042967","1","1","1","1","1","1","1","1","1"
"250060","img/neutralC/CFD-AM-225-102-N.jpg","img/neutralC/CFD-BF-042-026-N.jpg",NA,"1","1",NA,"0","1",NA,"0.474336000042967","0.495627399999648",NA,"1","1",NA,"1","1",NA,"1","1",NA
"250060","img/neutralC/CFD-LF-241-188-N.jpg",NA,"img/neutralC/CFD-LM-238-129-N.jpg","1",NA,"1","0",NA,"1","0.726166300009936",NA,"0.4694958999753","1",NA,"1","1",NA,"1","1",NA,"1"
"250060","img/neutralC/CFD-LM-238-129-N.jpg","img/neutralC/CFD-LF-241-188-N.jpg","img/neutralC/CFD-WM-202-107-N.jpg","1","1","1","1","0","1","0.4694958999753","0.726166300009936","0.391163700027391","1","1","1","1","1","1","1","1","1"
"250060","img/neutralC/CFD-WM-202-107-N.jpg","img/neutralC/CFD-LM-238-129-N.jpg","img/neutralC/CFD-WF-223-133-N.jpg","1","1","1","1","1","0","0.391163700027391","0.4694958999753","0.419860599969979","1","1","1","1","1","1","1","1","1"
"250060","img/neutralC/CFD-WF-223-133-N.jpg","img/neutralC/CFD-WM-202-107-N.jpg","img/neutralC/CFD-LF-208-127-N.jpg","1","1","1","0","1","0","0.419860599969979","0.391163700027391","0.458130099985283","1","1","1","1","1","1","1","1","1"
"250060","img/neutralC/CFD-LF-208-127-N.jpg","img/neutralC/CFD-WF-223-133-N.jpg","img/neutralC/CFD-AF-227-207-N.jpg","1","1","1","0","0","1","0.458130099985283","0.419860599969979","0.353691999975126","1","1","1","1","1","1","1","1","1"
"250060","img/neutralC/CFD-AF-227-207-N.jpg","img/neutralC/CFD-LF-208-127-N.jpg","img/neutralC/CFD-IM-659-359-N.jpg","1","1","1","1","0","0","0.353691999975126","0.458130099985283","0.454120600013994","1","1","1","1","1","1","1","1","1"
"250060","img/neutralC/CFD-IM-659-359-N.jpg","img/neutralC/CFD-AF-227-207-N.jpg","img/neutralC/CFD-BF-004-014-N.jpg","1","1","1","0","1","1","0.454120600013994","0.353691999975126","0.482769299997017","1","1","1","1","1","1","1","1","1"
"250060","img/neutralC/CFD-BF-004-014-N.jpg","img/neutralC/CFD-IM-659-359-N.jpg","img/neutralC/CFD-WM-254-152-N.jpg","1","1","1","1","0","1","0.482769299997017","0.454120600013994","0.439025599975139","1","1","1","1","1","1","1","1","1"
"250060","img/neutralC/CFD-WM-254-152-N.jpg","img/neutralC/CFD-BF-004-014-N.jpg","img/neutralC/CFD-BM-013-002-N.jpg","1","1","1","1","1","1","0.439025599975139","0.482769299997017","0.398949599999469","1","1","1","1","1","1","1","1","1"
"250060","img/neutralC/CFD-BM-013-002-N.jpg","img/neutralC/CFD-WM-254-152-N.jpg","img/neutralC/CFD-BM-213-134-N.jpg","1","1","1","1","1","1","0.398949599999469","0.439025599975139","0.426754700019956","1","1","1","1","1","1","1","1","1"
"250060","img/neutralC/CFD-BM-213-134-N.jpg","img/neutralC/CFD-BM-013-002-N.jpg","img/neutralC/CFD-WM-228-065-N.jpg","1","1","1","1","1","0","0.426754700019956","0.398949599999469","0.487517200002912","1","1","1","1","1","1","1","1","1"
"250060","img/neutralC/CFD-WM-228-065-N.jpg","img/neutralC/CFD-BM-213-134-N.jpg","img/neutralC/CFD-BF-045-003-N.jpg","1","1","1","0","1","0","0.487517200002912","0.426754700019956","0.509990899998229","1","1","1","1","1","1","1","1","1"
"250060","img/neutralC/CFD-BF-045-003-N.jpg","img/neutralC/CFD-WM-228-065-N.jpg","img/neutralC/CFD-MF-312-002-N.jpg","1","1","1","0","0","1","0.509990899998229","0.487517200002912","0.485910299990792","1","1","1","1","1","1","1","1","1"
"250060","img/neutralC/CFD-MF-312-002-N.jpg","img/neutralC/CFD-BF-045-003-N.jpg","img/neutralC/CFD-IF-625-225-N.jpg","1","1","0","1","0","0","0.485910299990792","0.509990899998229","0.358835999970324","1","1","1","1","1","1","1","1","1"
"250060","img/neutralC/CFD-IF-625-225-N.jpg","img/neutralC/CFD-MF-312-002-N.jpg","img/neutralC/CFD-WF-006-002-N.jpg","0","1","1","0","1","0","0.358835999970324","0.485910299990792","0.790089000016451","1","1","1","1","1","1","1","1","1"
"250060","img/neutralC/CFD-WF-006-002-N.jpg","img/neutralC/CFD-IF-625-225-N.jpg","img/neutralC/CFD-BM-003-003-N.jpg","1","0","1","0","0","0","0.790089000016451","0.358835999970324","0.549268700007815","1","1","1","1","1","1","1","1","1"
"250060","img/neutralC/CFD-BM-003-003-N.jpg","img/neutralC/CFD-WF-006-002-N.jpg","img/neutralC/CFD-AF-210-050-N.jpg","1","1","1","0","0","1","0.549268700007815","0.790089000016451","0.4744812999852","1","1","1","1","1","1","1","1","1"
"250060","img/neutralC/CFD-AF-210-050-N.jpg","img/neutralC/CFD-BM-003-003-N.jpg","img/neutralC/CFD-IF-673-389-N.jpg","1","1","1","1","0","0","0.4744812999852","0.549268700007815","0.434110999980476","1","1","1","1","1","1","1","1","1"
"250060","img/neutralC/CFD-IF-673-389-N.jpg","img/neutralC/CFD-AF-210-050-N.jpg","img/neutralC/CFD-AF-239-171-N.jpg","1","1","1","0","1","1","0.434110999980476","0.4744812999852","0.466665000014473","1","1","1","1","1","1","1","1","1"
"250060","img/neutralC/CFD-AF-239-171-N.jpg","img/neutralC/CFD-IF-673-389-N.jpg","img/neutralC/CFD-LF-210-220-N.jpg","1","1","1","1","0","1","0.466665000014473","0.434110999980476","0.422870600013994","1","1","1","1","1","1","1","1","1"
"250060","img/neutralC/CFD-LF-210-220-N.jpg","img/neutralC/CFD-AF-239-171-N.jpg","img/neutralC/CFD-LF-225-164-N.jpg","1","1","1","1","1","1","0.422870600013994","0.466665000014473","0.344808899972122","1","1","1","1","1","1","1","1","1"
"250060","img/neutralC/CFD-LF-225-164-N.jpg","img/neutralC/CFD-LF-210-220-N.jpg","img/neutralC/CFD-IM-701-312-N.jpg","1","1","1","1","1","0","0.344808899972122","0.422870600013994","0.390445699973498","1","1","1","1","1","1","1","1","1"
"250060","img/neutralC/CFD-IM-701-312-N.jpg","img/neutralC/CFD-LF-225-164-N.jpg","img/neutralC/CFD-MF-336-016-N.jpg","1","1","1","0","1","1","0.390445699973498","0.344808899972122","0.369846899993718","1","1","1","1","1","1","1","1","1"
"250060","img/neutralC/CFD-MF-336-016-N.jpg","img/neutralC/CFD-IM-701-312-N.jpg","img/neutralC/CFD-IF-744-114-N.jpg","1","1","0","1","0","0","0.369846899993718","0.390445699973498","0.47884769999655","1","1","1","1","1","1","1","1","2"
"250060","img/neutralC/CFD-IF-744-114-N.jpg","img/neutralC/CFD-MF-336-016-N.jpg","img/neutralC/CFD-IM-738-191-N.jpg","0","1","1","0","1","0","0.47884769999655","0.369846899993718","0.49224160000449","1","1","1","1","1","1","2","1","1"
"250060","img/neutralC/CFD-IM-738-191-N.jpg","img/neutralC/CFD-IF-744-114-N.jpg","img/neutralC/CFD-LM-247-095-N.jpg","1","0","1","0","0","0","0.49224160000449","0.47884769999655","0.41110149997985","1","1","1","1","1","1","1","2","1"
"250060","img/neutralC/CFD-LM-247-095-N.jpg","img/neutralC/CFD-IM-738-191-N.jpg","img/neutralC/CFD-BM-028-002-N.jpg","1","1","1","0","0","1","0.41110149997985","0.49224160000449","0.357630099984817","1","1","1","1","1","1","1","1","1"
"250060","img/neutralC/CFD-BM-028-002-N.jpg","img/neutralC/CFD-LM-247-095-N.jpg","img/neutralC/CFD-BF-222-240-N.jpg","1","1","1","1","0","0","0.357630099984817","0.41110149997985","0.478036099986639","1","1","1","1","1","1","1","1","1"
"250060","img/neutralC/CFD-BF-222-240-N.jpg","img/neutralC/CFD-BM-028-002-N.jpg","img/neutralC/CFD-BM-010-003-N.jpg","1","1","1","0","1","0","0.478036099986639","0.357630099984817","0.529967600014061","1","1","1","1","1","1","1","1","1"
"250060","img/neutralC/CFD-BM-010-003-N.jpg","img/neutralC/CFD-BF-222-240-N.jpg","img/neutralC/CFD-AM-221-184-N.jpg","1","1","1","0","0","1","0.529967600014061","0.478036099986639","0.407228199997917","1","1","1","1","1","1","1","1","1"
"250060","img/neutralC/CFD-AM-221-184-N.jpg","img/neutralC/CFD-BM-010-003-N.jpg","img/neutralC/CFD-WF-033-002-N.jpg","1","1","1","1","0","1","0.407228199997917","0.529967600014061","0.457831300038379","1","1","1","1","1","1","1","1","1"
"250060","img/neutralC/CFD-WF-033-002-N.jpg","img/neutralC/CFD-AM-221-184-N.jpg",NA,"1","1",NA,"1","1",NA,"0.457831300038379","0.407228199997917",NA,"1","1",NA,"1","1",NA,"1","1",NA
"250060","img/neutralC/CFD-LM-233-171-N.jpg",NA,"img/neutralC/CFD-IM-657-308-N.jpg","1",NA,"1","0",NA,"0","0.436826200049836",NA,"0.395909299957566","1",NA,"1","1",NA,"1","1",NA,"1"
"250060","img/neutralC/CFD-IM-657-308-N.jpg","img/neutralC/CFD-LM-233-171-N.jpg","img/neutralC/CFD-LM-226-175-N.jpg","1","1","1","0","0","0","0.395909299957566","0.436826200049836","0.404671399970539","1","1","1","1","1","1","1","1","1"
"250060","img/neutralC/CFD-LM-226-175-N.jpg","img/neutralC/CFD-IM-657-308-N.jpg","img/neutralC/CFD-BM-026-002-N.jpg","1","1","1","0","0","0","0.404671399970539","0.395909299957566","0.408946300041862","1","1","1","1","1","1","1","1","1"
"250060","img/neutralC/CFD-BM-026-002-N.jpg","img/neutralC/CFD-LM-226-175-N.jpg","img/neutralC/CFD-BF-033-028-N.jpg","1","1","1","0","0","0","0.408946300041862","0.404671399970539","0.422147600038443","1","1","1","1","1","1","1","1","1"
"250060","img/neutralC/CFD-BF-033-028-N.jpg","img/neutralC/CFD-BM-026-002-N.jpg","img/neutralC/CFD-LF-245-166-N.jpg","1","1","1","0","0","1","0.422147600038443","0.408946300041862","0.39678799995454","1","1","1","1","1","1","1","1","1"
"250060","img/neutralC/CFD-LF-245-166-N.jpg","img/neutralC/CFD-BF-033-028-N.jpg","img/neutralC/CFD-LF-250-169-N.jpg","1","1","1","1","0","1","0.39678799995454","0.422147600038443","0.32509990001563","1","1","1","1","1","1","1","1","1"
"250060","img/neutralC/CFD-LF-250-169-N.jpg","img/neutralC/CFD-LF-245-166-N.jpg","img/neutralC/CFD-LM-219-295-N.jpg","1","1","1","1","1","1","0.32509990001563","0.39678799995454","0.332550699997228","1","1","1","1","1","1","1","1","1"
"250060","img/neutralC/CFD-LM-219-295-N.jpg","img/neutralC/CFD-LF-250-169-N.jpg","img/neutralC/CFD-BM-231-155-N.jpg","1","1","1","1","1","1","0.332550699997228","0.32509990001563","0.429517799988389","1","1","1","1","1","1","1","1","1"
"250060","img/neutralC/CFD-BM-231-155-N.jpg","img/neutralC/CFD-LM-219-295-N.jpg","img/neutralC/CFD-BF-238-190-N.jpg","1","1","1","1","1","1","0.429517799988389","0.332550699997228","0.321491799957585","1","1","1","1","1","1","1","1","1"
"250060","img/neutralC/CFD-BF-238-190-N.jpg","img/neutralC/CFD-BM-231-155-N.jpg","img/neutralC/CFD-BM-018-001-N.jpg","1","1","1","1","1","1","0.321491799957585","0.429517799988389","0.312071799999103","1","1","1","1","1","1","1","1","1"
"250060","img/neutralC/CFD-BM-018-001-N.jpg","img/neutralC/CFD-BF-238-190-N.jpg","img/neutralC/CFD-IM-653-008-N.jpg","1","1","0","1","1","0","0.312071799999103","0.321491799957585","0.381042899971362","1","1","1","1","1","1","1","1","1"
"250060","img/neutralC/CFD-IM-653-008-N.jpg","img/neutralC/CFD-BM-018-001-N.jpg","img/neutralC/CFD-BM-005-003-N.jpg","0","1","1","0","1","1","0.381042899971362","0.312071799999103","0.374659000022803","1","1","1","1","1","1","1","1","1"
"250060","img/neutralC/CFD-BM-005-003-N.jpg","img/neutralC/CFD-IM-653-008-N.jpg","img/neutralC/CFD-AF-241-141-N.jpg","1","0","1","1","0","1","0.374659000022803","0.381042899971362","0.352282500010915","1","1","1","1","1","1","1","1","1"
"250060","img/neutralC/CFD-AF-241-141-N.jpg","img/neutralC/CFD-BM-005-003-N.jpg","img/neutralC/CFD-IM-638-250-1-N.jpg","1","1","1","1","1","1","0.352282500010915","0.374659000022803","0.330379699997138","1","1","1","1","1","1","1","1","1"
"250060","img/neutralC/CFD-IM-638-250-1-N.jpg","img/neutralC/CFD-AF-241-141-N.jpg","img/neutralC/CFD-WM-258-125-N.jpg","1","1","1","1","1","0","0.330379699997138","0.352282500010915","0.392802199989092","1","1","1","1","1","1","1","1","1"
"250060","img/neutralC/CFD-WM-258-125-N.jpg","img/neutralC/CFD-IM-638-250-1-N.jpg","img/neutralC/CFD-MF-313-002-N.jpg","1","1","1","0","1","0","0.392802199989092","0.330379699997138","0.455251400009729","1","1","1","1","1","1","1","1","1"
"250060","img/neutralC/CFD-MF-313-002-N.jpg","img/neutralC/CFD-WM-258-125-N.jpg","img/neutralC/CFD-WM-242-011-N.jpg","1","1","0","0","0","0","0.455251400009729","0.392802199989092","0.384005200001411","1","1","1","1","1","1","1","1","1"
"250060","img/neutralC/CFD-WM-242-011-N.jpg","img/neutralC/CFD-MF-313-002-N.jpg","img/neutralC/CFD-IM-727-195-N.jpg","0","1","1","0","0","1","0.384005200001411","0.455251400009729","0.314540999999736","1","1","1","1","1","1","1","1","1"
"250060","img/neutralC/CFD-IM-727-195-N.jpg","img/neutralC/CFD-WM-242-011-N.jpg","img/neutralC/CFD-WM-227-099-N.jpg","1","0","1","1","0","1","0.314540999999736","0.384005200001411","0.32125239999732","1","1","1","1","1","1","1","1","1"
"250060","img/neutralC/CFD-WM-227-099-N.jpg","img/neutralC/CFD-IM-727-195-N.jpg","img/neutralC/CFD-LF-247-051-N.jpg","1","1","1","1","1","1","0.32125239999732","0.314540999999736","0.342625899997074","1","1","1","1","1","1","1","1","1"
"250060","img/neutralC/CFD-LF-247-051-N.jpg","img/neutralC/CFD-WM-227-099-N.jpg","img/neutralC/CFD-WM-017-002-N.jpg","1","1","1","1","1","0","0.342625899997074","0.32125239999732","0.39288120000856","1","1","1","1","1","1","1","1","1"
"250060","img/neutralC/CFD-WM-017-002-N.jpg","img/neutralC/CFD-LF-247-051-N.jpg","img/neutralC/CFD-IM-617-174-N.jpg","1","1","1","0","1","0","0.39288120000856","0.342625899997074","0.611484900000505","1","1","1","1","1","1","1","1","1"
"250060","img/neutralC/CFD-IM-617-174-N.jpg","img/neutralC/CFD-WM-017-002-N.jpg","img/neutralC/CFD-BF-010-001-N.jpg","1","1","1","0","0","1","0.611484900000505","0.39288120000856","0.360039799998049","1","1","1","1","1","1","1","1","1"
"250060","img/neutralC/CFD-BF-010-001-N.jpg","img/neutralC/CFD-IM-617-174-N.jpg","img/neutralC/CFD-IM-686-097-N.jpg","1","1","1","1","0","0","0.360039799998049","0.611484900000505","0.365275699994527","1","1","1","1","1","1","1","1","1"
"250060","img/neutralC/CFD-IM-686-097-N.jpg","img/neutralC/CFD-BF-010-001-N.jpg","img/neutralC/CFD-LF-242-121-N.jpg","1","1","1","0","1","0","0.365275699994527","0.360039799998049","0.371833399985917","1","1","1","1","1","1","1","1","1"
"250060","img/neutralC/CFD-LF-242-121-N.jpg","img/neutralC/CFD-IM-686-097-N.jpg","img/neutralC/CFD-IF-620-218-N.jpg","1","1","1","0","0","0","0.371833399985917","0.365275699994527","0.495812599954661","1","1","1","1","1","1","1","1","1"
"250060","img/neutralC/CFD-IF-620-218-N.jpg","img/neutralC/CFD-LF-242-121-N.jpg","img/neutralC/CFD-WF-209-052-N.jpg","1","1","1","0","0","1","0.495812599954661","0.371833399985917","0.369171399972402","1","1","1","1","1","1","1","1","1"
"250060","img/neutralC/CFD-WF-209-052-N.jpg","img/neutralC/CFD-IF-620-218-N.jpg","img/neutralC/CFD-BM-212-117-N.jpg","1","1","1","1","0","0","0.369171399972402","0.495812599954661","0.526909899956081","1","1","1","1","1","1","1","1","1"
"250060","img/neutralC/CFD-BM-212-117-N.jpg","img/neutralC/CFD-WF-209-052-N.jpg","img/neutralC/CFD-IF-665-015-N.jpg","1","1","1","0","1","0","0.526909899956081","0.369171399972402","0.479143000033218","1","1","1","1","1","1","1","1","1"
"250060","img/neutralC/CFD-IF-665-015-N.jpg","img/neutralC/CFD-BM-212-117-N.jpg","img/neutralC/CFD-AF-202-122-N.jpg","1","1","1","0","0","1","0.479143000033218","0.526909899956081","0.389025199983735","1","1","1","1","1","1","1","1","1"
"250060","img/neutralC/CFD-AF-202-122-N.jpg","img/neutralC/CFD-IF-665-015-N.jpg","img/neutralC/CFD-AF-206-079-N.jpg","1","1","1","1","0","1","0.389025199983735","0.479143000033218","0.356605000037234","1","1","1","1","1","1","1","1","1"
"250060","img/neutralC/CFD-AF-206-079-N.jpg","img/neutralC/CFD-AF-202-122-N.jpg",NA,"1","1",NA,"1","1",NA,"0.356605000037234","0.389025199983735",NA,"1","1",NA,"1","1",NA,"1","1",NA
"250060","img/neutralC/CFD-BF-255-140-N.jpg",NA,"img/neutralC/CFD-BM-211-174-N.jpg","1",NA,"1","1",NA,"0","0.52936020004563",NA,"0.41094410000369","1",NA,"1","1",NA,"1","1",NA,"1"
"250060","img/neutralC/CFD-BM-211-174-N.jpg","img/neutralC/CFD-BF-255-140-N.jpg","img/neutralC/CFD-AM-235-241-N.jpg","1","1","1","0","1","0","0.41094410000369","0.52936020004563","0.450352900021244","1","1","1","1","1","1","1","1","1"
"250060","img/neutralC/CFD-AM-235-241-N.jpg","img/neutralC/CFD-BM-211-174-N.jpg","img/neutralC/CFD-LF-236-221-N.jpg","1","1","1","0","0","1","0.450352900021244","0.41094410000369","0.370128999988083","1","1","1","1","1","1","1","1","1"
"250060","img/neutralC/CFD-LF-236-221-N.jpg","img/neutralC/CFD-AM-235-241-N.jpg","img/neutralC/CFD-WF-022-017-N.jpg","1","1","0","1","0","0","0.370128999988083","0.450352900021244","0.373196100001223","1","1","1","1","1","1","1","1","1"
"250060","img/neutralC/CFD-WF-022-017-N.jpg","img/neutralC/CFD-LF-236-221-N.jpg","img/neutralC/CFD-WM-038-003-N.jpg","0","1","0","0","1","0","0.373196100001223","0.370128999988083","0.377003300003707","1","1","1","1","1","1","1","1","1"
"250060","img/neutralC/CFD-WM-038-003-N.jpg","img/neutralC/CFD-WF-022-017-N.jpg","img/neutralC/CFD-MM-319-052-N.jpg","0","0","1","0","0","1","0.377003300003707","0.373196100001223","0.47161629999755","1","1","1","1","1","1","1","1","1"
"250060","img/neutralC/CFD-MM-319-052-N.jpg","img/neutralC/CFD-WM-038-003-N.jpg","img/neutralC/CFD-BF-023-010-N.jpg","1","0","1","1","0","1","0.47161629999755","0.377003300003707","0.357869300001767","1","1","1","1","1","1","1","1","1"
"250060","img/neutralC/CFD-BF-023-010-N.jpg","img/neutralC/CFD-MM-319-052-N.jpg","img/neutralC/CFD-BF-201-080-N.jpg","1","1","1","1","1","1","0.357869300001767","0.47161629999755","0.361484900000505","1","1","1","1","1","1","1","1","1"
"250060","img/neutralC/CFD-BF-201-080-N.jpg","img/neutralC/CFD-BF-023-010-N.jpg","img/neutralC/CFD-WF-026-002-N.jpg","1","1","1","1","1","1","0.361484900000505","0.357869300001767","0.367506799986586","1","1","1","1","1","1","1","1","1"
"250060","img/neutralC/CFD-WF-026-002-N.jpg","img/neutralC/CFD-BF-201-080-N.jpg","img/neutralC/CFD-BF-003-003-N.jpg","1","1","0","1","1","0","0.367506799986586","0.361484900000505","0.367459400033113","1","1","1","1","1","1","1","1","1"
"250060","img/neutralC/CFD-BF-003-003-N.jpg","img/neutralC/CFD-WF-026-002-N.jpg","img/neutralC/CFD-LM-252-076-N.jpg","0","1","1","0","1","1","0.367459400033113","0.367506799986586","0.419151799986139","1","1","1","1","1","1","1","1","1"
"250060","img/neutralC/CFD-LM-252-076-N.jpg","img/neutralC/CFD-BF-003-003-N.jpg","img/neutralC/CFD-LF-216-121-N.jpg","1","0","1","1","0","1","0.419151799986139","0.367459400033113","0.429087799973786","1","1","1","1","1","1","1","1","1"
"250060","img/neutralC/CFD-LF-216-121-N.jpg","img/neutralC/CFD-LM-252-076-N.jpg","img/neutralC/CFD-IM-674-281-N.jpg","1","1","1","1","1","1","0.429087799973786","0.419151799986139","0.33944229996996","1","1","1","1","1","1","1","1","1"
"250060","img/neutralC/CFD-IM-674-281-N.jpg","img/neutralC/CFD-LF-216-121-N.jpg","img/neutralC/CFD-WM-002-009-N.jpg","1","1","1","1","1","0","0.33944229996996","0.429087799973786","0.524459499982186","1","1","1","1","1","1","1","1","1"
"250060","img/neutralC/CFD-WM-002-009-N.jpg","img/neutralC/CFD-IM-674-281-N.jpg","img/neutralC/CFD-AM-217-085-N.jpg","1","1","0","0","1","0","0.524459499982186","0.33944229996996","0.418692800041754","1","1","1","1","1","1","1","1","1"
"250060","img/neutralC/CFD-AM-217-085-N.jpg","img/neutralC/CFD-WM-002-009-N.jpg","img/neutralC/CFD-IF-672-305-N.jpg","0","1","1","0","0","0","0.418692800041754","0.524459499982186","0.483930799993686","1","1","1","1","1","1","1","1","1"
"250060","img/neutralC/CFD-IF-672-305-N.jpg","img/neutralC/CFD-AM-217-085-N.jpg","img/neutralC/CFD-WM-040-022-N.jpg","1","0","1","0","0","0","0.483930799993686","0.418692800041754","0.57129559997702","1","1","1","1","1","1","1","1","1"
"250060","img/neutralC/CFD-WM-040-022-N.jpg","img/neutralC/CFD-IF-672-305-N.jpg","img/neutralC/CFD-IM-639-263-N.jpg","1","1","1","0","0","1","0.57129559997702","0.483930799993686","0.370860600029118","1","1","1","1","1","1","1","1","1"
"250060","img/neutralC/CFD-IM-639-263-N.jpg","img/neutralC/CFD-WM-040-022-N.jpg","img/neutralC/CFD-BM-029-024-N.jpg","1","1","1","1","0","1","0.370860600029118","0.57129559997702","0.38474980002502","1","1","1","1","1","1","1","1","1"
"250060","img/neutralC/CFD-BM-029-024-N.jpg","img/neutralC/CFD-IM-639-263-N.jpg","img/neutralC/CFD-BM-247-240-N.jpg","1","1","1","1","1","0","0.38474980002502","0.370860600029118","0.410635499982163","1","1","1","1","1","1","1","1","1"
"250060","img/neutralC/CFD-BM-247-240-N.jpg","img/neutralC/CFD-BM-029-024-N.jpg","img/neutralC/CFD-IM-728-041-N.jpg","1","1","0","0","1","0","0.410635499982163","0.38474980002502","0.360488100035582","1","1","1","1","1","1","1","1","1"
"250060","img/neutralC/CFD-IM-728-041-N.jpg","img/neutralC/CFD-BM-247-240-N.jpg","img/neutralC/CFD-BM-015-015-N.jpg","0","1","1","0","0","0","0.360488100035582","0.410635499982163","0.388344199978746","1","1","1","1","1","1","1","1","1"
"250060","img/neutralC/CFD-BM-015-015-N.jpg","img/neutralC/CFD-IM-728-041-N.jpg","img/neutralC/CFD-WM-257-161-N.jpg","1","0","1","0","0","1","0.388344199978746","0.360488100035582","0.35584450000897","1","1","1","1","1","1","1","1","1"
"250060","img/neutralC/CFD-WM-257-161-N.jpg","img/neutralC/CFD-BM-015-015-N.jpg","img/neutralC/CFD-IF-718-001-N.jpg","1","1","1","1","0","1","0.35584450000897","0.388344199978746","0.326605700014625","1","1","1","1","1","1","1","1","1"
"250060","img/neutralC/CFD-IF-718-001-N.jpg","img/neutralC/CFD-WM-257-161-N.jpg","img/neutralC/CFD-BF-204-189-N.jpg","1","1","1","1","1","1","0.326605700014625","0.35584450000897","0.387631600024179","1","1","1","1","1","1","1","1","1"
"250060","img/neutralC/CFD-BF-204-189-N.jpg","img/neutralC/CFD-IF-718-001-N.jpg","img/neutralC/CFD-WF-002-004-N.jpg","1","1","1","1","1","0","0.387631600024179","0.326605700014625","0.525216400041245","1","1","1","1","1","1","1","1","1"
"250060","img/neutralC/CFD-WF-002-004-N.jpg","img/neutralC/CFD-BF-204-189-N.jpg","img/neutralC/CFD-WM-225-127-N.jpg","1","1","0","0","1","0","0.525216400041245","0.387631600024179","0.397729500022251","1","1","1","1","1","1","1","1","1"
"250060","img/neutralC/CFD-WM-225-127-N.jpg","img/neutralC/CFD-WF-002-004-N.jpg","img/neutralC/CFD-BM-027-001-N.jpg","0","1","0","0","0","0","0.397729500022251","0.525216400041245","0.34277089999523","1","1","1","1","1","1","1","1","1"
"250060","img/neutralC/CFD-BM-027-001-N.jpg","img/neutralC/CFD-WM-225-127-N.jpg","img/neutralC/CFD-BF-208-266-N.jpg","0","0","1","0","0","0","0.34277089999523","0.397729500022251","0.554343800002243","1","1","1","1","1","1","1","1","1"
"250060","img/neutralC/CFD-BF-208-266-N.jpg","img/neutralC/CFD-BM-027-001-N.jpg","img/neutralC/CFD-BF-028-001-N.jpg","1","0","1","0","0","1","0.554343800002243","0.34277089999523","0.372417400008999","1","1","1","1","1","1","1","1","1"
"250060","img/neutralC/CFD-BF-028-001-N.jpg","img/neutralC/CFD-BF-208-266-N.jpg","img/neutralC/CFD-AM-215-120-N.jpg","1","1","1","1","0","1","0.372417400008999","0.554343800002243","0.35167740000179","1","1","1","1","1","1","1","1","1"
"250060","img/neutralC/CFD-AM-215-120-N.jpg","img/neutralC/CFD-BF-028-001-N.jpg",NA,"1","1",NA,"1","1",NA,"0.35167740000179","0.372417400008999",NA,"1","1",NA,"1","1",NA,"1","1",NA
"250060","img/neutralC/CFD-IF-660-464-N.jpg",NA,"img/neutralC/CFD-WF-244-163-N.jpg","1",NA,"1","0",NA,"1","0.536851299984846",NA,"0.365513699944131","1",NA,"1","1",NA,"1","1",NA,"1"
"250060","img/neutralC/CFD-WF-244-163-N.jpg","img/neutralC/CFD-IF-660-464-N.jpg","img/neutralC/CFD-MF-316-001-N.jpg","1","1","0","1","0","0","0.365513699944131","0.536851299984846","0.365196200029459","1","1","1","1","1","1","1","1","1"
"250060","img/neutralC/CFD-MF-316-001-N.jpg","img/neutralC/CFD-WF-244-163-N.jpg","img/neutralC/CFD-WF-222-092-N.jpg","0","1","1","0","1","1","0.365196200029459","0.365513699944131","0.33773959998507","1","1","1","1","1","1","1","1","1"
"250060","img/neutralC/CFD-WF-222-092-N.jpg","img/neutralC/CFD-MF-316-001-N.jpg","img/neutralC/CFD-WM-015-002-N.jpg","1","0","1","1","0","0","0.33773959998507","0.365196200029459","0.388167300028726","1","1","1","1","1","1","1","1","1"
"250060","img/neutralC/CFD-WM-015-002-N.jpg","img/neutralC/CFD-WF-222-092-N.jpg","img/neutralC/CFD-MF-357-002-N.jpg","1","1","1","0","1","0","0.388167300028726","0.33773959998507","0.428386899991892","1","1","1","1","1","1","1","1","1"
"250060","img/neutralC/CFD-MF-357-002-N.jpg","img/neutralC/CFD-WM-015-002-N.jpg","img/neutralC/CFD-IF-626-375-N.jpg","1","1","1","0","0","0","0.428386899991892","0.388167300028726","0.596376899979077","1","1","1","1","1","1","1","1","1"
"250060","img/neutralC/CFD-IF-626-375-N.jpg","img/neutralC/CFD-MF-357-002-N.jpg","img/neutralC/CFD-IM-706-002-N.jpg","1","1","1","0","0","0","0.596376899979077","0.428386899991892","0.487978500023019","1","1","1","1","1","1","1","1","1"
"250060","img/neutralC/CFD-IM-706-002-N.jpg","img/neutralC/CFD-IF-626-375-N.jpg","img/neutralC/CFD-IM-667-369-N.jpg","1","1","1","0","0","0","0.487978500023019","0.596376899979077","0.924576200020965","1","1","1","1","1","1","1","1","1"
"250060","img/neutralC/CFD-IM-667-369-N.jpg","img/neutralC/CFD-IM-706-002-N.jpg","img/neutralC/CFD-LF-206-078-N.jpg","1","1","1","0","0","1","0.924576200020965","0.487978500023019","0.44303399999626","1","1","1","1","1","1","1","1","1"
"250060","img/neutralC/CFD-LF-206-078-N.jpg","img/neutralC/CFD-IM-667-369-N.jpg","img/neutralC/CFD-LM-225-130-N.jpg","1","1","1","1","0","0","0.44303399999626","0.924576200020965","0.460355099989101","1","1","1","1","1","1","1","1","1"
"250060","img/neutralC/CFD-LM-225-130-N.jpg","img/neutralC/CFD-LF-206-078-N.jpg","img/neutralC/CFD-IM-680-369-N.jpg","1","1","1","0","1","1","0.460355099989101","0.44303399999626","0.381905799964443","1","1","1","1","1","1","1","1","1"
"250060","img/neutralC/CFD-IM-680-369-N.jpg","img/neutralC/CFD-LM-225-130-N.jpg","img/neutralC/CFD-AF-253-130-N.jpg","1","1","1","1","0","1","0.381905799964443","0.460355099989101","0.459185100044124","1","1","1","1","1","1","1","1","1"
"250060","img/neutralC/CFD-AF-253-130-N.jpg","img/neutralC/CFD-IM-680-369-N.jpg","img/neutralC/CFD-MM-324-069-N.jpg","1","1","1","1","1","1","0.459185100044124","0.381905799964443","0.403787400049623","1","1","1","1","1","1","1","1","1"
"250060","img/neutralC/CFD-MM-324-069-N.jpg","img/neutralC/CFD-AF-253-130-N.jpg","img/neutralC/CFD-BM-217-082-N.jpg","1","1","1","1","1","0","0.403787400049623","0.459185100044124","0.528407899953891","1","1","1","1","1","1","1","1","1"
"250060","img/neutralC/CFD-BM-217-082-N.jpg","img/neutralC/CFD-MM-324-069-N.jpg","img/neutralC/CFD-MF-305-014-N.jpg","1","1","1","0","1","1","0.528407899953891","0.403787400049623","0.697793400031514","1","1","1","1","1","1","1","1","1"
"250060","img/neutralC/CFD-MF-305-014-N.jpg","img/neutralC/CFD-BM-217-082-N.jpg","img/neutralC/CFD-BM-250-170-N.jpg","1","1","1","1","0","1","0.697793400031514","0.528407899953891","0.487947100016754","1","1","1","1","1","1","1","1","1"
"250060","img/neutralC/CFD-BM-250-170-N.jpg","img/neutralC/CFD-MF-305-014-N.jpg","img/neutralC/CFD-AM-220-134-N.jpg","1","1","1","1","1","0","0.487947100016754","0.697793400031514","0.392959699966013","1","1","1","1","1","1","1","1","1"
"250060","img/neutralC/CFD-AM-220-134-N.jpg","img/neutralC/CFD-BM-250-170-N.jpg","img/neutralC/CFD-BF-014-002-N.jpg","1","1","1","0","1","1","0.392959699966013","0.487947100016754","0.334531000000425","1","1","1","1","1","1","1","1","1"
"250060","img/neutralC/CFD-BF-014-002-N.jpg","img/neutralC/CFD-AM-220-134-N.jpg","img/neutralC/CFD-IM-702-101-N.jpg","1","1","1","1","0","1","0.334531000000425","0.392959699966013","0.372850099985953","1","1","1","1","1","1","1","1","1"
"250060","img/neutralC/CFD-IM-702-101-N.jpg","img/neutralC/CFD-BF-014-002-N.jpg","img/neutralC/CFD-BF-237-172-N.jpg","1","1","1","1","1","1","0.372850099985953","0.334531000000425","0.372474299976602","1","1","1","1","1","1","1","1","1"
"250060","img/neutralC/CFD-BF-237-172-N.jpg","img/neutralC/CFD-IM-702-101-N.jpg","img/neutralC/CFD-WM-209-038-N.jpg","1","1","1","1","1","0","0.372474299976602","0.372850099985953","0.405722499999683","1","1","1","1","1","1","1","1","1"
"250060","img/neutralC/CFD-WM-209-038-N.jpg","img/neutralC/CFD-BF-237-172-N.jpg","img/neutralC/CFD-BM-001-014-N.jpg","1","1","1","0","1","0","0.405722499999683","0.372474299976602","0.429651800019201","1","1","1","1","1","1","1","1","1"
"250060","img/neutralC/CFD-BM-001-014-N.jpg","img/neutralC/CFD-WM-209-038-N.jpg","img/neutralC/CFD-LF-255-088-N.jpg","1","1","1","0","0","0","0.429651800019201","0.405722499999683","0.549385100021027","1","1","1","1","1","1","1","1","1"
"250060","img/neutralC/CFD-LF-255-088-N.jpg","img/neutralC/CFD-BM-001-014-N.jpg","img/neutralC/CFD-WF-030-002-N.jpg","1","1","1","0","0","0","0.549385100021027","0.429651800019201","0.648312100034673","1","1","1","1","1","1","1","1","1"
"250060","img/neutralC/CFD-WF-030-002-N.jpg","img/neutralC/CFD-LF-255-088-N.jpg","img/neutralC/CFD-AF-233-190-N.jpg","1","1","1","0","0","0","0.648312100034673","0.549385100021027","0.399248100002296","1","1","1","1","1","1","1","1","1"
"250060","img/neutralC/CFD-AF-233-190-N.jpg","img/neutralC/CFD-WF-030-002-N.jpg","img/neutralC/CFD-LM-200-045-N.jpg","1","1","1","0","0","1","0.399248100002296","0.648312100034673","0.380494600045495","1","1","1","1","1","1","1","1","1"
"250060","img/neutralC/CFD-LM-200-045-N.jpg","img/neutralC/CFD-AF-233-190-N.jpg","img/neutralC/CFD-IM-664-651-N.jpg","1","1","1","1","0","1","0.380494600045495","0.399248100002296","0.353252800006885","1","1","1","1","1","1","1","1","1"
"250060","img/neutralC/CFD-IM-664-651-N.jpg","img/neutralC/CFD-LM-200-045-N.jpg","img/neutralC/CFD-WF-007-001-N.jpg","1","1","1","1","1","1","0.353252800006885","0.380494600045495","0.371398899995256","1","1","1","1","1","1","1","1","1"
"250060","img/neutralC/CFD-WF-007-001-N.jpg","img/neutralC/CFD-IM-664-651-N.jpg","img/neutralC/CFD-MF-303-013-N.jpg","1","1","1","1","1","0","0.371398899995256","0.353252800006885","0.431255500006955","1","1","1","1","1","1","1","1","1"
"250060","img/neutralC/CFD-MF-303-013-N.jpg","img/neutralC/CFD-WF-007-001-N.jpg","img/neutralC/CFD-MF-343-001-N.jpg","1","1","1","0","1","1","0.431255500006955","0.371398899995256","0.347752999980003","1","1","1","1","1","1","1","1","1"
"250060","img/neutralC/CFD-MF-343-001-N.jpg","img/neutralC/CFD-MF-303-013-N.jpg","img/neutralC/CFD-WM-218-074-N.jpg","1","1","1","1","0","1","0.347752999980003","0.431255500006955","0.402600499975961","1","1","1","1","1","1","1","1","1"
"250060","img/neutralC/CFD-WM-218-074-N.jpg","img/neutralC/CFD-MF-343-001-N.jpg",NA,"1","1",NA,"1","1",NA,"0.402600499975961","0.347752999980003",NA,"1","1",NA,"1","1",NA,"1","1",NA
"250060","img/neutralC/CFD-IM-696-001-N.jpg",NA,"img/neutralC/CFD-BM-238-242-N.jpg","0",NA,"1","0",NA,"0","1.03845019999426",NA,"0.467568599968217","1",NA,"1","1",NA,"1","1",NA,"1"
"250060","img/neutralC/CFD-BM-238-242-N.jpg","img/neutralC/CFD-IM-696-001-N.jpg","img/neutralC/CFD-WF-233-112-N.jpg","1","0","1","0","0","1","0.467568599968217","1.03845019999426","0.317092999990564","1","1","1","1","1","1","1","1","1"
"250060","img/neutralC/CFD-WF-233-112-N.jpg","img/neutralC/CFD-BM-238-242-N.jpg","img/neutralC/CFD-BF-044-034-N.jpg","1","1","1","1","0","0","0.317092999990564","0.467568599968217","0.4183377000154","1","1","1","1","1","1","1","1","1"
"250060","img/neutralC/CFD-BF-044-034-N.jpg","img/neutralC/CFD-WF-233-112-N.jpg","img/neutralC/CFD-BF-011-002-N.jpg","1","1","1","0","1","1","0.4183377000154","0.317092999990564","0.346765400026925","1","1","1","1","1","1","1","1","1"
"250060","img/neutralC/CFD-BF-011-002-N.jpg","img/neutralC/CFD-BF-044-034-N.jpg","img/neutralC/CFD-WF-029-002-N.jpg","1","1","1","1","0","0","0.346765400026925","0.4183377000154","0.423983699991368","1","1","1","1","1","1","1","1","1"
"250060","img/neutralC/CFD-WF-029-002-N.jpg","img/neutralC/CFD-BF-011-002-N.jpg","img/neutralC/CFD-IF-677-452-1-N.jpg","1","1","1","0","1","1","0.423983699991368","0.346765400026925","0.379894400015473","1","1","1","1","1","1","1","1","1"
"250060","img/neutralC/CFD-IF-677-452-1-N.jpg","img/neutralC/CFD-WF-029-002-N.jpg","img/neutralC/CFD-IF-742-103-N.jpg","1","1","1","1","0","1","0.379894400015473","0.423983699991368","0.333174400031567","1","1","1","1","1","1","1","1","1"
"250060","img/neutralC/CFD-IF-742-103-N.jpg","img/neutralC/CFD-IF-677-452-1-N.jpg","img/neutralC/CFD-BM-207-024-N.jpg","1","1","1","1","1","1","0.333174400031567","0.379894400015473","0.309947500005364","1","1","1","1","1","1","1","1","1"
"250060","img/neutralC/CFD-BM-207-024-N.jpg","img/neutralC/CFD-IF-742-103-N.jpg","img/neutralC/CFD-LM-213-061-N.jpg","1","1","1","1","1","0","0.309947500005364","0.333174400031567","0.35757500003092","1","1","1","1","1","1","1","1","1"
"250060","img/neutralC/CFD-LM-213-061-N.jpg","img/neutralC/CFD-BM-207-024-N.jpg","img/neutralC/CFD-IF-729-393-N.jpg","1","1","1","0","1","0","0.35757500003092","0.309947500005364","0.427185399981681","1","1","1","1","1","1","1","1","1"
"250060","img/neutralC/CFD-IF-729-393-N.jpg","img/neutralC/CFD-LM-213-061-N.jpg","img/neutralC/CFD-LF-204-133-N.jpg","1","1","1","0","0","1","0.427185399981681","0.35757500003092","0.371717200032435","1","1","1","1","1","1","1","1","1"
"250060","img/neutralC/CFD-LF-204-133-N.jpg","img/neutralC/CFD-IF-729-393-N.jpg","img/neutralC/CFD-MF-301-024-N.jpg","1","1","1","1","0","0","0.371717200032435","0.427185399981681","0.418748800002504","1","1","1","1","1","1","1","1","1"
"250060","img/neutralC/CFD-MF-301-024-N.jpg","img/neutralC/CFD-LF-204-133-N.jpg","img/neutralC/CFD-BM-241-235-N.jpg","1","1","1","0","1","0","0.418748800002504","0.371717200032435","0.385358100000303","1","1","1","1","1","1","1","1","1"
"250060","img/neutralC/CFD-BM-241-235-N.jpg","img/neutralC/CFD-MF-301-024-N.jpg","img/neutralC/CFD-WM-248-036-N.jpg","1","1","1","0","0","1","0.385358100000303","0.418748800002504","0.373655300005339","1","1","1","1","1","1","1","1","1"
"250060","img/neutralC/CFD-WM-248-036-N.jpg","img/neutralC/CFD-BM-241-235-N.jpg","img/neutralC/CFD-IM-707-105-N.jpg","1","1","1","1","0","1","0.373655300005339","0.385358100000303","0.333927100000437","1","1","1","1","1","1","1","1","1"
"250060","img/neutralC/CFD-IM-707-105-N.jpg","img/neutralC/CFD-WM-248-036-N.jpg","img/neutralC/CFD-WM-034-030-N.jpg","1","1","1","1","1","1","0.333927100000437","0.373655300005339","0.349269800004549","1","1","1","1","1","1","1","1","1"
"250060","img/neutralC/CFD-WM-034-030-N.jpg","img/neutralC/CFD-IM-707-105-N.jpg","img/neutralC/CFD-BF-027-002-N.jpg","1","1","1","1","1","1","0.349269800004549","0.333927100000437","0.363928100035992","1","1","1","1","1","1","1","1","1"
"250060","img/neutralC/CFD-BF-027-002-N.jpg","img/neutralC/CFD-WM-034-030-N.jpg","img/neutralC/CFD-BF-236-177-N.jpg","1","1","0","1","1","0","0.363928100035992","0.349269800004549","0.824697400035802","1","1","1","1","1","1","1","1","1"
"250060","img/neutralC/CFD-BF-236-177-N.jpg","img/neutralC/CFD-BF-027-002-N.jpg","img/neutralC/CFD-WF-208-068-N.jpg","0","1","1","0","1","1","0.824697400035802","0.363928100035992","0.373324699990917","1","1","1","1","1","1","1","1","1"
"250060","img/neutralC/CFD-WF-208-068-N.jpg","img/neutralC/CFD-BF-236-177-N.jpg","img/neutralC/CFD-BF-214-308-N.jpg","1","0","1","1","0","1","0.373324699990917","0.824697400035802","0.356391799985431","1","1","1","1","1","1","1","1","1"
"250060","img/neutralC/CFD-BF-214-308-N.jpg","img/neutralC/CFD-WF-208-068-N.jpg","img/neutralC/CFD-BM-036-003-N.jpg","1","1","1","1","1","1","0.356391799985431","0.373324699990917","0.38448479998624","1","1","1","1","1","1","1","1","1"
"250060","img/neutralC/CFD-BM-036-003-N.jpg","img/neutralC/CFD-BF-214-308-N.jpg","img/neutralC/CFD-BF-036-027-N.jpg","1","1","1","1","1","0","0.38448479998624","0.356391799985431","0.491929100011475","1","1","1","1","1","1","1","1","1"
"250060","img/neutralC/CFD-BF-036-027-N.jpg","img/neutralC/CFD-BM-036-003-N.jpg","img/neutralC/CFD-WF-234-086-N.jpg","1","1","1","0","1","1","0.491929100011475","0.38448479998624","0.3673002999858","1","1","1","1","1","1","1","1","1"
"250060","img/neutralC/CFD-WF-234-086-N.jpg","img/neutralC/CFD-BF-036-027-N.jpg","img/neutralC/CFD-BF-006-017-N.jpg","1","1","1","1","0","0","0.3673002999858","0.491929100011475","0.462597199948505","1","1","1","1","1","1","1","1","1"
"250060","img/neutralC/CFD-BF-006-017-N.jpg","img/neutralC/CFD-WF-234-086-N.jpg","img/neutralC/CFD-BF-247-179-N.jpg","1","1","1","0","1","0","0.462597199948505","0.3673002999858","0.508847699966282","1","1","1","1","1","1","1","1","1"
"250060","img/neutralC/CFD-BF-247-179-N.jpg","img/neutralC/CFD-BF-006-017-N.jpg","img/neutralC/CFD-AM-230-150-N.jpg","1","1","1","0","0","0","0.508847699966282","0.462597199948505","0.344195700017735","1","1","1","1","1","1","1","1","1"
"250060","img/neutralC/CFD-AM-230-150-N.jpg","img/neutralC/CFD-BF-247-179-N.jpg","img/neutralC/CFD-WM-014-002-N.jpg","1","1","1","0","0","0","0.344195700017735","0.508847699966282","0.383473900030367","1","1","1","1","1","1","1","1","1"
"250060","img/neutralC/CFD-WM-014-002-N.jpg","img/neutralC/CFD-AM-230-150-N.jpg","img/neutralC/CFD-BF-207-004-N.jpg","1","1","1","0","0","1","0.383473900030367","0.344195700017735","0.355875600012951","1","1","1","1","1","1","1","1","1"
"250060","img/neutralC/CFD-BF-207-004-N.jpg","img/neutralC/CFD-WM-014-002-N.jpg","img/neutralC/CFD-IM-721-341-N.jpg","1","1","1","1","0","1","0.355875600012951","0.383473900030367","0.328778499970213","1","1","1","1","1","1","1","1","1"
"250060","img/neutralC/CFD-IM-721-341-N.jpg","img/neutralC/CFD-BF-207-004-N.jpg","img/neutralC/CFD-IM-726-248-N.jpg","1","1","0","1","1","0","0.328778499970213","0.355875600012951","1.55544919997919","1","1","1","1","1","1","1","1","1"
"250060","img/neutralC/CFD-IM-726-248-N.jpg","img/neutralC/CFD-IM-721-341-N.jpg","img/neutralC/CFD-BF-002-001-N.jpg","0","1","0","0","1","0","1.55544919997919","0.328778499970213","0.365321599994786","1","1","1","1","1","1","1","1","1"
"250060","img/neutralC/CFD-BF-002-001-N.jpg","img/neutralC/CFD-IM-726-248-N.jpg",NA,"0","0",NA,"0","0",NA,"0.365321599994786","1.55544919997919",NA,"1","1",NA,"1","1",NA,"1","1",NA
"250060","img/neutralC/CFD-WM-219-008-N.jpg",NA,"img/neutralC/CFD-LM-228-188-N.jpg","0",NA,"1","0",NA,"1","1.15059669996845",NA,"0.68979129998479","1",NA,"1","1",NA,"1","1",NA,"1"
"250060","img/neutralC/CFD-LM-228-188-N.jpg","img/neutralC/CFD-WM-219-008-N.jpg","img/neutralC/CFD-LM-237-264-N.jpg","1","0","1","1","0","0","0.68979129998479","1.15059669996845","0.409311300027184","1","1","1","1","1","1","1","1","1"
"250060","img/neutralC/CFD-LM-237-264-N.jpg","img/neutralC/CFD-LM-228-188-N.jpg","img/neutralC/CFD-MF-359-019-N.jpg","1","1","0","0","1","0","0.409311300027184","0.68979129998479","0.388535200036131","1","1","1","1","1","1","1","1","1"
"250060","img/neutralC/CFD-MF-359-019-N.jpg","img/neutralC/CFD-LM-237-264-N.jpg","img/neutralC/CFD-IM-743-006-N.jpg","0","1","1","0","0","1","0.388535200036131","0.409311300027184","0.394591199990828","1","1","1","1","1","1","1","1","1"
"250060","img/neutralC/CFD-IM-743-006-N.jpg","img/neutralC/CFD-MF-359-019-N.jpg","img/neutralC/CFD-BM-225-154-N.jpg","1","0","1","1","0","1","0.394591199990828","0.388535200036131","0.473293599963654","1","1","1","1","1","1","1","1","1"
"250060","img/neutralC/CFD-BM-225-154-N.jpg","img/neutralC/CFD-IM-743-006-N.jpg","img/neutralC/CFD-IM-616-214-N.jpg","1","1","1","1","1","0","0.473293599963654","0.394591199990828","0.514752599992789","1","1","1","1","1","1","1","1","1"
"250060","img/neutralC/CFD-IM-616-214-N.jpg","img/neutralC/CFD-BM-225-154-N.jpg","img/neutralC/CFD-IM-645-001-N.jpg","1","1","1","0","1","0","0.514752599992789","0.473293599963654","0.452050299965777","1","1","1","1","1","1","1","1","1"
"250060","img/neutralC/CFD-IM-645-001-N.jpg","img/neutralC/CFD-IM-616-214-N.jpg","img/neutralC/CFD-IM-671-601-N.jpg","1","1","1","0","0","0","0.452050299965777","0.514752599992789","0.414763899985701","1","1","1","1","1","1","1","1","1"
"250060","img/neutralC/CFD-IM-671-601-N.jpg","img/neutralC/CFD-IM-645-001-N.jpg","img/neutralC/CFD-BF-232-187-N.jpg","1","1","1","0","0","1","0.414763899985701","0.452050299965777","0.323286099999677","1","1","1","1","1","1","1","1","1"
"250060","img/neutralC/CFD-BF-232-187-N.jpg","img/neutralC/CFD-IM-671-601-N.jpg","img/neutralC/CFD-MF-352-054-N.jpg","1","1","1","1","0","0","0.323286099999677","0.414763899985701","0.43713979999302","1","1","1","1","1","1","1","1","1"
"250060","img/neutralC/CFD-MF-352-054-N.jpg","img/neutralC/CFD-BF-232-187-N.jpg","img/neutralC/CFD-MF-333-012-N.jpg","1","1","1","0","1","0","0.43713979999302","0.323286099999677","0.487479000003077","1","1","1","1","1","1","1","1","1"
"250060","img/neutralC/CFD-MF-333-012-N.jpg","img/neutralC/CFD-MF-352-054-N.jpg","img/neutralC/CFD-IF-623-129-N.jpg","1","1","1","0","0","1","0.487479000003077","0.43713979999302","0.321720400010236","1","1","1","1","1","1","1","1","1"
"250060","img/neutralC/CFD-IF-623-129-N.jpg","img/neutralC/CFD-MF-333-012-N.jpg","img/neutralC/CFD-WF-214-122-N.jpg","1","1","1","1","0","1","0.321720400010236","0.487479000003077","0.358491499966476","1","1","1","1","1","1","1","1","1"
"250060","img/neutralC/CFD-WF-214-122-N.jpg","img/neutralC/CFD-IF-623-129-N.jpg","img/neutralC/CFD-WM-033-025-N.jpg","1","1","1","1","1","1","0.358491499966476","0.321720400010236","0.304066699987743","1","1","1","1","1","1","1","1","1"
"250060","img/neutralC/CFD-WM-033-025-N.jpg","img/neutralC/CFD-WF-214-122-N.jpg","img/neutralC/CFD-IF-650-315-N.jpg","1","1","1","1","1","0","0.304066699987743","0.358491499966476","0.337863299995661","1","1","1","1","1","1","1","1","1"
"250060","img/neutralC/CFD-IF-650-315-N.jpg","img/neutralC/CFD-WM-033-025-N.jpg","img/neutralC/CFD-LF-218-072-N.jpg","1","1","1","0","1","0","0.337863299995661","0.304066699987743","0.406470999994781","1","1","1","1","1","1","1","1","1"
"250060","img/neutralC/CFD-LF-218-072-N.jpg","img/neutralC/CFD-IF-650-315-N.jpg","img/neutralC/CFD-BM-253-004-N.jpg","1","1","1","0","0","1","0.406470999994781","0.337863299995661","0.392934300005436","1","1","1","1","1","1","1","1","1"
"250060","img/neutralC/CFD-BM-253-004-N.jpg","img/neutralC/CFD-LF-218-072-N.jpg","img/neutralC/CFD-WM-235-147-N.jpg","1","1","1","1","0","0","0.392934300005436","0.406470999994781","0.333035900024697","1","1","1","1","1","1","1","1","1"
"250060","img/neutralC/CFD-WM-235-147-N.jpg","img/neutralC/CFD-BM-253-004-N.jpg","img/neutralC/CFD-AM-251-124-N.jpg","1","1","0","0","1","0","0.333035900024697","0.392934300005436","0.461316999979317","1","1","1","1","1","1","1","1","1"
"250060","img/neutralC/CFD-AM-251-124-N.jpg","img/neutralC/CFD-WM-235-147-N.jpg","img/neutralC/CFD-LF-220-120-N.jpg","0","1","1","0","0","1","0.461316999979317","0.333035900024697","0.324444199970458","1","1","1","1","1","1","1","1","1"
"250060","img/neutralC/CFD-LF-220-120-N.jpg","img/neutralC/CFD-AM-251-124-N.jpg","img/neutralC/CFD-BF-229-179-N.jpg","1","0","0","1","0","0","0.324444199970458","0.461316999979317","0.400157700001728","1","1","1","1","1","1","1","1","1"
"250060","img/neutralC/CFD-BF-229-179-N.jpg","img/neutralC/CFD-LF-220-120-N.jpg","img/neutralC/CFD-WF-001-003-N.jpg","0","1","1","0","1","1","0.400157700001728","0.324444199970458","0.331839099992067","1","1","1","1","1","1","1","1","1"
"250060","img/neutralC/CFD-WF-001-003-N.jpg","img/neutralC/CFD-BF-229-179-N.jpg","img/neutralC/CFD-WF-200-099-N.jpg","1","0","1","1","0","0","0.331839099992067","0.400157700001728","0.508941499982029","1","1","1","1","1","1","1","1","1"
"250060","img/neutralC/CFD-WF-200-099-N.jpg","img/neutralC/CFD-WF-001-003-N.jpg","img/neutralC/CFD-AM-211-052-N.jpg","1","1","1","0","1","1","0.508941499982029","0.331839099992067","0.429653599974699","1","1","1","1","1","1","1","1","1"
"250060","img/neutralC/CFD-AM-211-052-N.jpg","img/neutralC/CFD-WF-200-099-N.jpg","img/neutralC/CFD-WM-020-001-N.jpg","1","1","1","1","0","1","0.429653599974699","0.508941499982029","0.295679999981076","1","1","1","1","1","1","1","1","1"
"250060","img/neutralC/CFD-WM-020-001-N.jpg","img/neutralC/CFD-AM-211-052-N.jpg","img/neutralC/CFD-WF-036-023-N.jpg","1","1","1","1","1","0","0.295679999981076","0.429653599974699","0.361172600009013","1","1","1","1","1","1","1","1","1"
"250060","img/neutralC/CFD-WF-036-023-N.jpg","img/neutralC/CFD-WM-020-001-N.jpg","img/neutralC/CFD-BF-038-037-N.jpg","1","1","1","0","1","1","0.361172600009013","0.295679999981076","0.334484899998643","1","1","1","1","1","1","1","1","1"
"250060","img/neutralC/CFD-BF-038-037-N.jpg","img/neutralC/CFD-WF-036-023-N.jpg","img/neutralC/CFD-BF-226-119-N.jpg","1","1","1","1","0","1","0.334484899998643","0.361172600009013","0.390273800003342","1","1","1","1","1","1","1","1","1"
"250060","img/neutralC/CFD-BF-226-119-N.jpg","img/neutralC/CFD-BF-038-037-N.jpg","img/neutralC/CFD-AM-242-176-N.jpg","1","1","1","1","1","1","0.390273800003342","0.334484899998643","0.419209200015757","1","1","1","1","1","1","1","1","1"
"250060","img/neutralC/CFD-AM-242-176-N.jpg","img/neutralC/CFD-BF-226-119-N.jpg","img/neutralC/CFD-IM-703-182-N.jpg","1","1","1","1","1","1","0.419209200015757","0.390273800003342","0.383593500009738","1","1","1","1","1","1","1","1","1"
"250060","img/neutralC/CFD-IM-703-182-N.jpg","img/neutralC/CFD-AM-242-176-N.jpg","img/neutralC/CFD-WM-004-010-N.jpg","1","1","1","1","1","0","0.383593500009738","0.419209200015757","0.568559099978302","1","1","1","1","1","1","1","1","1"
"250060","img/neutralC/CFD-WM-004-010-N.jpg","img/neutralC/CFD-IM-703-182-N.jpg",NA,"1","1",NA,"0","1",NA,"0.568559099978302","0.383593500009738",NA,"1","1",NA,"1","1",NA,"1","1",NA
"250060","img/neutralC/CFD-AF-254-167-N.jpg",NA,"img/neutralC/CFD-WF-008-002-N.jpg","1",NA,"1","1",NA,"1","0.607404900016263",NA,"0.357639699999709","1",NA,"1","1",NA,"1","1",NA,"1"
"250060","img/neutralC/CFD-WF-008-002-N.jpg","img/neutralC/CFD-AF-254-167-N.jpg","img/neutralC/CFD-LM-217-162-N.jpg","1","1","1","1","1","0","0.357639699999709","0.607404900016263","0.323094099992886","1","1","1","1","1","1","1","1","1"
"250060","img/neutralC/CFD-LM-217-162-N.jpg","img/neutralC/CFD-WF-008-002-N.jpg","img/neutralC/CFD-LF-226-174-N.jpg","1","1","1","0","1","0","0.323094099992886","0.357639699999709","0.434673499956261","1","1","1","1","1","1","1","1","1"
"250060","img/neutralC/CFD-LF-226-174-N.jpg","img/neutralC/CFD-LM-217-162-N.jpg","img/neutralC/CFD-WF-012-002-N.jpg","1","1","1","0","0","1","0.434673499956261","0.323094099992886","0.394622499996331","1","1","1","1","1","1","1","1","1"
"250060","img/neutralC/CFD-WF-012-002-N.jpg","img/neutralC/CFD-LF-226-174-N.jpg","img/neutralC/CFD-MF-327-002-N.jpg","1","1","1","1","0","0","0.394622499996331","0.434673499956261","0.432007700030226","1","1","1","1","1","1","1","1","1"
"250060","img/neutralC/CFD-MF-327-002-N.jpg","img/neutralC/CFD-WF-012-002-N.jpg","img/neutralC/CFD-AF-215-70-N.jpg","1","1","1","0","1","0","0.432007700030226","0.394622499996331","0.437310200009961","1","1","1","1","1","1","1","1","1"
"250060","img/neutralC/CFD-AF-215-70-N.jpg","img/neutralC/CFD-MF-327-002-N.jpg","img/neutralC/CFD-MM-304-002-N.jpg","1","1","1","0","0","1","0.437310200009961","0.432007700030226","0.358501199982129","1","1","1","1","1","1","1","1","1"
"250060","img/neutralC/CFD-MM-304-002-N.jpg","img/neutralC/CFD-AF-215-70-N.jpg","img/neutralC/CFD-BF-224-002-N.jpg","1","1","1","1","0","1","0.358501199982129","0.437310200009961","0.355209100001957","1","1","1","1","1","1","1","1","1"
"250060","img/neutralC/CFD-BF-224-002-N.jpg","img/neutralC/CFD-MM-304-002-N.jpg","img/neutralC/CFD-WM-232-070-N.jpg","1","1","1","1","1","0","0.355209100001957","0.358501199982129","0.450183200009633","1","1","1","1","1","1","1","1","1"
"250060","img/neutralC/CFD-WM-232-070-N.jpg","img/neutralC/CFD-BF-224-002-N.jpg","img/neutralC/CFD-BM-039-029-N.jpg","1","1","1","0","1","1","0.450183200009633","0.355209100001957","0.367663499957416","1","1","1","1","1","1","1","1","1"
"250060","img/neutralC/CFD-BM-039-029-N.jpg","img/neutralC/CFD-WM-232-070-N.jpg","img/neutralC/CFD-WM-024-015-N.jpg","1","1","1","1","0","1","0.367663499957416","0.450183200009633","0.520749399962369","1","1","1","1","1","1","1","1","1"
"250060","img/neutralC/CFD-WM-024-015-N.jpg","img/neutralC/CFD-BM-039-029-N.jpg","img/neutralC/CFD-BF-043-003-N.jpg","1","1","1","1","1","0","0.520749399962369","0.367663499957416","0.440185100014787","1","1","1","1","1","1","1","1","1"
"250060","img/neutralC/CFD-BF-043-003-N.jpg","img/neutralC/CFD-WM-024-015-N.jpg","img/neutralC/CFD-IM-675-015-N.jpg","1","1","1","0","1","1","0.440185100014787","0.520749399962369","0.325767300033476","1","1","1","1","1","1","1","1","1"
"250060","img/neutralC/CFD-IM-675-015-N.jpg","img/neutralC/CFD-BF-043-003-N.jpg","img/neutralC/CFD-BM-243-218-N.jpg","1","1","1","1","0","1","0.325767300033476","0.440185100014787","0.339843499998096","1","1","1","1","1","1","1","1","1"
"250060","img/neutralC/CFD-BM-243-218-N.jpg","img/neutralC/CFD-IM-675-015-N.jpg","img/neutralC/CFD-WF-212-050-N.jpg","1","1","1","1","1","0","0.339843499998096","0.325767300033476","0.481359900033567","1","1","1","1","1","1","1","1","1"
"250060","img/neutralC/CFD-WF-212-050-N.jpg","img/neutralC/CFD-BM-243-218-N.jpg","img/neutralC/CFD-IM-685-004-N.jpg","1","1","1","0","1","1","0.481359900033567","0.339843499998096","0.34726289997343","1","1","1","1","1","1","1","1","1"
"250060","img/neutralC/CFD-IM-685-004-N.jpg","img/neutralC/CFD-WF-212-050-N.jpg","img/neutralC/CFD-MF-329-001-N.jpg","1","1","1","1","0","0","0.34726289997343","0.481359900033567","0.431870099972002","1","1","1","1","1","1","1","1","1"
"250060","img/neutralC/CFD-MF-329-001-N.jpg","img/neutralC/CFD-IM-685-004-N.jpg","img/neutralC/CFD-BF-051-035-N.jpg","1","1","1","0","1","0","0.431870099972002","0.34726289997343","0.51724859996466","1","1","1","1","1","1","1","1","1"
"250060","img/neutralC/CFD-BF-051-035-N.jpg","img/neutralC/CFD-MF-329-001-N.jpg","img/neutralC/CFD-AM-236-090-N.jpg","1","1","1","0","0","1","0.51724859996466","0.431870099972002","0.352952300047036","1","1","1","1","1","1","1","1","1"
"250060","img/neutralC/CFD-AM-236-090-N.jpg","img/neutralC/CFD-BF-051-035-N.jpg","img/neutralC/CFD-WM-213-076-N.jpg","1","1","1","1","0","1","0.352952300047036","0.51724859996466","0.367517899954692","1","1","1","1","1","1","1","1","1"
"250060","img/neutralC/CFD-WM-213-076-N.jpg","img/neutralC/CFD-AM-236-090-N.jpg","img/neutralC/CFD-IM-709-103-N.jpg","1","1","1","1","1","0","0.367517899954692","0.352952300047036","0.396140400029253","1","1","1","1","1","1","1","1","1"
"250060","img/neutralC/CFD-IM-709-103-N.jpg","img/neutralC/CFD-WM-213-076-N.jpg","img/neutralC/CFD-LF-201-035-N.jpg","1","1","1","0","1","1","0.396140400029253","0.367517899954692","0.31786040001316","1","1","1","1","1","1","1","1","1"
"250060","img/neutralC/CFD-LF-201-035-N.jpg","img/neutralC/CFD-IM-709-103-N.jpg","img/neutralC/CFD-WF-217-085-N.jpg","1","1","1","1","0","1","0.31786040001316","0.396140400029253","0.281604700023308","1","1","1","1","1","1","1","1","1"
"250060","img/neutralC/CFD-WF-217-085-N.jpg","img/neutralC/CFD-LF-201-035-N.jpg","img/neutralC/CFD-MF-340-026-N.jpg","1","1","1","1","1","1","0.281604700023308","0.31786040001316","0.366602599970065","1","1","1","1","1","1","1","1","1"
"250060","img/neutralC/CFD-MF-340-026-N.jpg","img/neutralC/CFD-WF-217-085-N.jpg","img/neutralC/CFD-IF-608-390-N.jpg","1","1","1","1","1","1","0.366602599970065","0.281604700023308","0.350371499953326","1","1","1","1","1","1","1","1","1"
"250060","img/neutralC/CFD-IF-608-390-N.jpg","img/neutralC/CFD-MF-340-026-N.jpg","img/neutralC/CFD-IM-604-014-N.jpg","1","1","1","1","1","0","0.350371499953326","0.366602599970065","0.382934199995361","1","1","1","1","1","1","1","1","1"
"250060","img/neutralC/CFD-IM-604-014-N.jpg","img/neutralC/CFD-IF-608-390-N.jpg","img/neutralC/CFD-MF-300-002-N.jpg","1","1","1","0","1","0","0.382934199995361","0.350371499953326","0.431639999966137","1","1","1","1","1","1","1","1","1"
"250060","img/neutralC/CFD-MF-300-002-N.jpg","img/neutralC/CFD-IM-604-014-N.jpg","img/neutralC/CFD-IF-619-197-N.jpg","1","1","0","0","0","0","0.431639999966137","0.382934199995361","0.401449500001036","1","1","1","1","1","1","1","1","1"
"250060","img/neutralC/CFD-IF-619-197-N.jpg","img/neutralC/CFD-MF-300-002-N.jpg","img/neutralC/CFD-AF-229-160-N.jpg","0","1","1","0","0","0","0.401449500001036","0.431639999966137","0.516294300032314","1","1","1","1","1","1","1","1","1"
"250060","img/neutralC/CFD-AF-229-160-N.jpg","img/neutralC/CFD-IF-619-197-N.jpg","img/neutralC/CFD-WF-248-129-N.jpg","1","0","1","0","0","0","0.516294300032314","0.401449500001036","0.416612599976361","1","1","1","1","1","1","1","1","1"
"250060","img/neutralC/CFD-WF-248-129-N.jpg","img/neutralC/CFD-AF-229-160-N.jpg","img/neutralC/CFD-IM-637-007-N.jpg","1","1","1","0","0","0","0.416612599976361","0.516294300032314","0.384534899960272","1","1","1","1","1","1","1","1","1"
"250060","img/neutralC/CFD-IM-637-007-N.jpg","img/neutralC/CFD-WF-248-129-N.jpg",NA,"1","1",NA,"0","0",NA,"0.384534899960272","0.416612599976361",NA,"1","1",NA,"1","1",NA,"1","1",NA
"250060","img/neutralC/CFD-IM-606-008-N.jpg",NA,"img/neutralC/CFD-AF-237-223-N.jpg","1",NA,"0","0",NA,"0","0.417629999981727",NA,"0.332662499975413","1",NA,"1","1",NA,"1","1",NA,"1"
"250060","img/neutralC/CFD-AF-237-223-N.jpg","img/neutralC/CFD-IM-606-008-N.jpg","img/neutralC/CFD-AM-249-163-N.jpg","0","1","1","0","0","1","0.332662499975413","0.417629999981727","0.353207799955271","1","1","1","1","1","1","1","1","1"
"250060","img/neutralC/CFD-AM-249-163-N.jpg","img/neutralC/CFD-AF-237-223-N.jpg","img/neutralC/CFD-BM-030-003-N.jpg","1","0","1","1","0","0","0.353207799955271","0.332662499975413","0.388541499967687","1","1","1","1","1","1","1","1","1"
"250060","img/neutralC/CFD-BM-030-003-N.jpg","img/neutralC/CFD-AM-249-163-N.jpg","img/neutralC/CFD-WF-221-005-N.jpg","1","1","1","0","1","0","0.388541499967687","0.353207799955271","0.586676999984775","1","1","1","1","1","1","1","1","1"
"250060","img/neutralC/CFD-WF-221-005-N.jpg","img/neutralC/CFD-BM-030-003-N.jpg","img/neutralC/CFD-BM-021-021-N.jpg","1","1","1","0","0","1","0.586676999984775","0.388541499967687","0.326332699973136","1","1","1","1","1","1","1","1","1"
"250060","img/neutralC/CFD-BM-021-021-N.jpg","img/neutralC/CFD-WF-221-005-N.jpg","img/neutralC/CFD-AM-219-101-N.jpg","1","1","1","1","0","0","0.326332699973136","0.586676999984775","0.38747090002289","1","1","1","1","1","1","1","1","1"
"250060","img/neutralC/CFD-AM-219-101-N.jpg","img/neutralC/CFD-BM-021-021-N.jpg","img/neutralC/CFD-IF-676-017-N.jpg","1","1","1","0","1","1","0.38747090002289","0.326332699973136","0.289284700003918","1","1","1","1","1","1","1","1","1"
"250060","img/neutralC/CFD-IF-676-017-N.jpg","img/neutralC/CFD-AM-219-101-N.jpg","img/neutralC/CFD-BM-009-002-N.jpg","1","1","0","1","0","1","0.289284700003918","0.38747090002289","0.261633199988864","1","1","1","1","1","1","1","1","1"
"250060","img/neutralC/CFD-BM-009-002-N.jpg","img/neutralC/CFD-IF-676-017-N.jpg","img/neutralC/CFD-LM-240-013-N.jpg","0","1","1","1","1","1","0.261633199988864","0.289284700003918","0.404938999970909","1","1","1","1","1","1","1","1","1"
"250060","img/neutralC/CFD-LM-240-013-N.jpg","img/neutralC/CFD-BM-009-002-N.jpg","img/neutralC/CFD-IM-689-263-N.jpg","1","0","1","1","1","1","0.404938999970909","0.261633199988864","0.425982200016733","1","1","1","1","1","1","1","1","1"
"250060","img/neutralC/CFD-IM-689-263-N.jpg","img/neutralC/CFD-LM-240-013-N.jpg","img/neutralC/CFD-LF-222-147-N.jpg","1","1","1","1","1","0","0.425982200016733","0.404938999970909","0.458079499949235","1","1","1","1","1","1","1","1","1"
"250060","img/neutralC/CFD-LF-222-147-N.jpg","img/neutralC/CFD-IM-689-263-N.jpg","img/neutralC/CFD-WM-028-003-N.jpg","1","1","1","0","1","1","0.458079499949235","0.425982200016733","0.338510899979156","1","1","1","1","1","1","1","1","1"
"250060","img/neutralC/CFD-WM-028-003-N.jpg","img/neutralC/CFD-LF-222-147-N.jpg","img/neutralC/CFD-BM-020-001-N.jpg","1","1","1","1","0","0","0.338510899979156","0.458079499949235","0.447775400010869","1","1","1","1","1","1","1","1","1"
"250060","img/neutralC/CFD-BM-020-001-N.jpg","img/neutralC/CFD-WM-028-003-N.jpg","img/neutralC/CFD-WF-241-210-N.jpg","1","1","1","0","1","0","0.447775400010869","0.338510899979156","0.477786699950229","1","1","1","1","1","1","1","1","1"
"250060","img/neutralC/CFD-WF-241-210-N.jpg","img/neutralC/CFD-BM-020-001-N.jpg","img/neutralC/CFD-LF-238-154-N.jpg","1","1","1","0","0","1","0.477786699950229","0.447775400010869","0.35900620004395","1","1","1","1","1","1","1","1","1"
"250060","img/neutralC/CFD-LF-238-154-N.jpg","img/neutralC/CFD-WF-241-210-N.jpg","img/neutralC/CFD-LF-212-066-N.jpg","1","1","1","1","0","1","0.35900620004395","0.477786699950229","0.379137800016906","1","1","1","1","1","1","1","1","1"
"250060","img/neutralC/CFD-LF-212-066-N.jpg","img/neutralC/CFD-LF-238-154-N.jpg","img/neutralC/CFD-BF-012-001-N.jpg","1","1","1","1","1","0","0.379137800016906","0.35900620004395","0.454629599989858","1","1","1","1","1","1","1","1","1"
"250060","img/neutralC/CFD-BF-012-001-N.jpg","img/neutralC/CFD-LF-212-066-N.jpg","img/neutralC/CFD-MF-328-020-N.jpg","1","1","0","0","1","0","0.454629599989858","0.379137800016906","0.39401580003323","1","1","1","1","1","1","1","1","1"
"250060","img/neutralC/CFD-MF-328-020-N.jpg","img/neutralC/CFD-BF-012-001-N.jpg","img/neutralC/CFD-WF-207-014-N.jpg","0","1","1","0","0","1","0.39401580003323","0.454629599989858","0.39120680000633","1","1","1","1","1","1","1","1","1"
"250060","img/neutralC/CFD-WF-207-014-N.jpg","img/neutralC/CFD-MF-328-020-N.jpg","img/neutralC/CFD-BM-043-071-N.jpg","1","0","0","1","0","0","0.39120680000633","0.39401580003323","0.401030800014269","1","1","1","1","1","1","1","1","1"
"250060","img/neutralC/CFD-BM-043-071-N.jpg","img/neutralC/CFD-WF-207-014-N.jpg","img/neutralC/CFD-AM-243-212-N.jpg","0","1","1","0","1","1","0.401030800014269","0.39120680000633","0.358957100019325","1","1","1","1","1","1","1","1","1"
"250060","img/neutralC/CFD-AM-243-212-N.jpg","img/neutralC/CFD-BM-043-071-N.jpg","img/neutralC/CFD-BF-244-231-N.jpg","1","0","1","1","0","1","0.358957100019325","0.401030800014269","0.432174900022801","1","1","1","1","1","1","1","1","1"
"250060","img/neutralC/CFD-BF-244-231-N.jpg","img/neutralC/CFD-AM-243-212-N.jpg","img/neutralC/CFD-WF-243-148-N.jpg","1","1","1","1","1","0","0.432174900022801","0.358957100019325","0.366426099964883","1","1","1","1","1","1","1","1","1"
"250060","img/neutralC/CFD-WF-243-148-N.jpg","img/neutralC/CFD-BF-244-231-N.jpg","img/neutralC/CFD-AM-205-153-N.jpg","1","1","1","0","1","1","0.366426099964883","0.432174900022801","0.35614779999014","1","1","1","1","1","1","1","1","1"
"250060","img/neutralC/CFD-AM-205-153-N.jpg","img/neutralC/CFD-WF-243-148-N.jpg","img/neutralC/CFD-MM-306-010-N.jpg","1","1","1","1","0","0","0.35614779999014","0.366426099964883","0.384687900019344","1","1","1","1","1","1","1","1","1"
"250060","img/neutralC/CFD-MM-306-010-N.jpg","img/neutralC/CFD-AM-205-153-N.jpg","img/neutralC/CFD-IM-615-167-N.jpg","1","1","1","0","1","0","0.384687900019344","0.35614779999014","0.471190300013404","1","1","1","1","1","1","1","1","1"
"250060","img/neutralC/CFD-IM-615-167-N.jpg","img/neutralC/CFD-MM-306-010-N.jpg","img/neutralC/CFD-WM-025-002-N.jpg","1","1","0","0","0","0","0.471190300013404","0.384687900019344","0.365034700022079","1","1","1","1","1","1","1","1","1"
"250060","img/neutralC/CFD-WM-025-002-N.jpg","img/neutralC/CFD-IM-615-167-N.jpg","img/neutralC/CFD-BM-227-191-N.jpg","0","1","1","0","0","1","0.365034700022079","0.471190300013404","0.341315800033044","1","1","1","1","1","1","1","1","1"
"250060","img/neutralC/CFD-BM-227-191-N.jpg","img/neutralC/CFD-WM-025-002-N.jpg","img/neutralC/CFD-WM-023-001-N.jpg","1","0","1","1","0","0","0.341315800033044","0.365034700022079","0.363749800017104","1","1","1","1","1","1","1","1","1"
"250060","img/neutralC/CFD-WM-023-001-N.jpg","img/neutralC/CFD-BM-227-191-N.jpg","img/neutralC/CFD-WF-009-001-N.jpg","1","1","1","0","1","1","0.363749800017104","0.341315800033044","0.34093569999095","1","1","1","1","1","1","1","1","1"
"250060","img/neutralC/CFD-WF-009-001-N.jpg","img/neutralC/CFD-WM-023-001-N.jpg","img/neutralC/CFD-IM-697-015-N.jpg","1","1","1","1","0","1","0.34093569999095","0.363749800017104","0.367303600010928","1","1","1","1","1","1","1","1","1"
"250060","img/neutralC/CFD-IM-697-015-N.jpg","img/neutralC/CFD-WF-009-001-N.jpg",NA,"1","1",NA,"1","1",NA,"0.367303600010928","0.34093569999095",NA,"1","1",NA,"1","1",NA,"1","1",NA
