"participant_id","current_trial_face","pre_trial_face","post_trial_face","current_trial_accuracy","pre_trial_accuracy","post_trial_accuracy","current_trial_congruency","pre_trial_congruency","post_trial_congruency","current_trial_rt","pre_trial_rt","post_trial_rt","current_trial_responded","pre_trial_responded","post_trial_responded","current_trial_legitResponse","pre_trial_legitResponse","post_trial_legitResponse","current_trial_resp_nums","pre_trial_resp_nums","post_trial_resp_nums"
"250046","img/neutralC/CFD-WM-019-003-N.jpg",NA,"img/neutralC/CFD-IM-646-023-N.jpg","1",NA,"1","1",NA,"1","0.851661499822512",NA,"0.74186829989776","1",NA,"1","1",NA,"1","1",NA,"1"
"250046","img/neutralC/CFD-IM-646-023-N.jpg","img/neutralC/CFD-WM-019-003-N.jpg","img/neutralC/CFD-WF-240-083-N.jpg","1","1","1","1","1","0","0.74186829989776","0.851661499822512","0.923457199940458","1","1","1","1","1","1","1","1","1"
"250046","img/neutralC/CFD-WF-240-083-N.jpg","img/neutralC/CFD-IM-646-023-N.jpg","img/neutralC/CFD-WM-215-041-N.jpg","1","1","1","0","1","0","0.923457199940458","0.74186829989776","0.79448250005953","1","1","1","1","1","1","1","1","1"
"250046","img/neutralC/CFD-WM-215-041-N.jpg","img/neutralC/CFD-WF-240-083-N.jpg","img/neutralC/CFD-LM-243-075-N.jpg","1","1","1","0","0","0","0.79448250005953","0.923457199940458","0.907811499899253","1","1","1","1","1","1","1","1","1"
"250046","img/neutralC/CFD-LM-243-075-N.jpg","img/neutralC/CFD-WM-215-041-N.jpg","img/neutralC/CFD-BF-025-002-N.jpg","1","1","1","0","0","0","0.907811499899253","0.79448250005953","0.924066199921072","1","1","1","1","1","1","1","1","1"
"250046","img/neutralC/CFD-BF-025-002-N.jpg","img/neutralC/CFD-LM-243-075-N.jpg","img/neutralC/CFD-BF-041-001-N.jpg","1","1","1","0","0","1","0.924066199921072","0.907811499899253","0.777555899927393","1","1","1","1","1","1","1","1","1"
"250046","img/neutralC/CFD-BF-041-001-N.jpg","img/neutralC/CFD-BF-025-002-N.jpg","img/neutralC/CFD-MF-335-002-N.jpg","1","1","1","1","0","0","0.777555899927393","0.924066199921072","0.946291000116616","1","1","1","1","1","1","1","1","1"
"250046","img/neutralC/CFD-MF-335-002-N.jpg","img/neutralC/CFD-BF-041-001-N.jpg","img/neutralC/CFD-LM-216-082-N.jpg","1","1","1","0","1","0","0.946291000116616","0.777555899927393","0.839843800058588","1","1","1","1","1","1","1","1","1"
"250046","img/neutralC/CFD-LM-216-082-N.jpg","img/neutralC/CFD-MF-335-002-N.jpg","img/neutralC/CFD-WM-012-001-N.jpg","1","1","1","0","0","1","0.839843800058588","0.946291000116616","0.937603399856016","1","1","1","1","1","1","1","1","1"
"250046","img/neutralC/CFD-WM-012-001-N.jpg","img/neutralC/CFD-LM-216-082-N.jpg","img/neutralC/CFD-WM-249-239-N.jpg","1","1","1","1","0","1","0.937603399856016","0.839843800058588","1.3058712000493","1","1","1","1","1","1","1","1","1"
"250046","img/neutralC/CFD-WM-249-239-N.jpg","img/neutralC/CFD-WM-012-001-N.jpg","img/neutralC/CFD-IM-648-337-N.jpg","1","1","1","1","1","0","1.3058712000493","0.937603399856016","0.895680800080299","1","1","1","1","1","1","1","1","1"
"250046","img/neutralC/CFD-IM-648-337-N.jpg","img/neutralC/CFD-WM-249-239-N.jpg","img/neutralC/CFD-WF-228-196-N.jpg","1","1","1","0","1","0","0.895680800080299","1.3058712000493","0.756621200125664","1","1","1","1","1","1","1","1","1"
"250046","img/neutralC/CFD-WF-228-196-N.jpg","img/neutralC/CFD-IM-648-337-N.jpg","img/neutralC/CFD-MM-317-061-N.jpg","1","1","1","0","0","1","0.756621200125664","0.895680800080299","0.942905900068581","1","1","1","1","1","1","1","1","1"
"250046","img/neutralC/CFD-MM-317-061-N.jpg","img/neutralC/CFD-WF-228-196-N.jpg","img/neutralC/CFD-WF-017-003-N.jpg","1","1","1","1","0","1","0.942905900068581","0.756621200125664","0.794557800050825","1","1","1","1","1","1","1","1","1"
"250046","img/neutralC/CFD-WF-017-003-N.jpg","img/neutralC/CFD-MM-317-061-N.jpg","img/neutralC/CFD-BM-248-128-N.jpg","1","1","1","1","1","0","0.794557800050825","0.942905900068581","0.740007000043988","1","1","1","1","1","1","1","1","1"
"250046","img/neutralC/CFD-BM-248-128-N.jpg","img/neutralC/CFD-WF-017-003-N.jpg","img/neutralC/CFD-BM-205-001-N.jpg","1","1","1","0","1","0","0.740007000043988","0.794557800050825","1.25155330006965","1","1","1","1","1","1","1","1","1"
"250046","img/neutralC/CFD-BM-205-001-N.jpg","img/neutralC/CFD-BM-248-128-N.jpg","img/neutralC/CFD-AF-240-206-N.jpg","1","1","1","0","0","0","1.25155330006965","0.740007000043988","0.733230200130492","1","1","1","1","1","1","1","1","1"
"250046","img/neutralC/CFD-AF-240-206-N.jpg","img/neutralC/CFD-BM-205-001-N.jpg","img/neutralC/CFD-WF-005-010-N.jpg","1","1","1","0","0","0","0.733230200130492","1.25155330006965","0.929685600101948","1","1","1","1","1","1","1","1","1"
"250046","img/neutralC/CFD-WF-005-010-N.jpg","img/neutralC/CFD-AF-240-206-N.jpg","img/neutralC/CFD-BM-251-013-N.jpg","1","1","1","0","0","1","0.929685600101948","0.733230200130492","0.918640499934554","1","1","1","1","1","1","1","1","1"
"250046","img/neutralC/CFD-BM-251-013-N.jpg","img/neutralC/CFD-WF-005-010-N.jpg","img/neutralC/CFD-WM-026-001-N.jpg","1","1","1","1","0","1","0.918640499934554","0.929685600101948","0.935179700143635","1","1","1","1","1","1","1","1","1"
"250046","img/neutralC/CFD-WM-026-001-N.jpg","img/neutralC/CFD-BM-251-013-N.jpg","img/neutralC/CFD-AM-247-165-N.jpg","1","1","1","1","1","1","0.935179700143635","0.918640499934554","0.742433700012043","1","1","1","1","1","1","1","1","1"
"250046","img/neutralC/CFD-AM-247-165-N.jpg","img/neutralC/CFD-WM-026-001-N.jpg","img/neutralC/CFD-LM-214-165-N.jpg","1","1","1","1","1","1","0.742433700012043","0.935179700143635","0.804997200146317","1","1","1","1","1","1","1","1","1"
"250046","img/neutralC/CFD-LM-214-165-N.jpg","img/neutralC/CFD-AM-247-165-N.jpg","img/neutralC/CFD-LM-201-057-N.jpg","1","1","1","1","1","1","0.804997200146317","0.742433700012043","0.670681500108913","1","1","1","1","1","1","1","1","1"
"250046","img/neutralC/CFD-LM-201-057-N.jpg","img/neutralC/CFD-LM-214-165-N.jpg","img/neutralC/CFD-BF-212-315-N.jpg","1","1","1","1","1","1","0.670681500108913","0.804997200146317","0.609754400094971","1","1","1","1","1","1","1","1","1"
"250046","img/neutralC/CFD-BF-212-315-N.jpg","img/neutralC/CFD-LM-201-057-N.jpg","img/neutralC/CFD-BF-228-212-N.jpg","1","1","1","1","1","0","0.609754400094971","0.670681500108913","0.641513800015673","1","1","1","1","1","1","1","1","1"
"250046","img/neutralC/CFD-BF-228-212-N.jpg","img/neutralC/CFD-BF-212-315-N.jpg","img/neutralC/CFD-LM-244-068-N.jpg","1","1","1","0","1","1","0.641513800015673","0.609754400094971","0.673684899928048","1","1","1","1","1","1","1","1","1"
"250046","img/neutralC/CFD-LM-244-068-N.jpg","img/neutralC/CFD-BF-228-212-N.jpg","img/neutralC/CFD-WM-006-002-N.jpg","1","1","1","1","0","0","0.673684899928048","0.641513800015673","0.668458400061354","1","1","1","1","1","1","1","1","1"
"250046","img/neutralC/CFD-WM-006-002-N.jpg","img/neutralC/CFD-LM-244-068-N.jpg","img/neutralC/CFD-MF-309-002-N.jpg","1","1","1","0","1","0","0.668458400061354","0.673684899928048","0.691125399898738","1","1","1","1","1","1","1","1","1"
"250046","img/neutralC/CFD-MF-309-002-N.jpg","img/neutralC/CFD-WM-006-002-N.jpg","img/neutralC/CFD-BF-202-109-N.jpg","1","1","1","0","0","1","0.691125399898738","0.668458400061354","0.706555400043726","1","1","1","1","1","1","1","1","1"
"250046","img/neutralC/CFD-BF-202-109-N.jpg","img/neutralC/CFD-MF-309-002-N.jpg","img/neutralC/CFD-IF-642-295-N.jpg","1","1","1","1","0","1","0.706555400043726","0.691125399898738","0.637799100019038","1","1","1","1","1","1","1","1","1"
"250046","img/neutralC/CFD-IF-642-295-N.jpg","img/neutralC/CFD-BF-202-109-N.jpg","img/neutralC/CFD-WM-212-097-N.jpg","1","1","1","1","1","0","0.637799100019038","0.706555400043726","0.550050799967721","1","1","1","1","1","1","1","1","1"
"250046","img/neutralC/CFD-WM-212-097-N.jpg","img/neutralC/CFD-IF-642-295-N.jpg",NA,"1","1",NA,"0","1",NA,"0.550050799967721","0.637799100019038",NA,"1","1",NA,"1","1",NA,"1","1",NA
"250046","img/neutralC/CFD-IM-706-002-N.jpg",NA,"img/neutralC/CFD-IF-660-464-N.jpg","1",NA,"1","0",NA,"0","0.560082099866122",NA,"0.712584299966693","1",NA,"1","1",NA,"1","1",NA,"1"
"250046","img/neutralC/CFD-IF-660-464-N.jpg","img/neutralC/CFD-IM-706-002-N.jpg","img/neutralC/CFD-BM-217-082-N.jpg","1","1","1","0","0","0","0.712584299966693","0.560082099866122","0.5855218002107","1","1","1","1","1","1","1","1","1"
"250046","img/neutralC/CFD-BM-217-082-N.jpg","img/neutralC/CFD-IF-660-464-N.jpg","img/neutralC/CFD-MF-343-001-N.jpg","1","1","1","0","0","1","0.5855218002107","0.712584299966693","0.498662899946794","1","1","1","1","1","1","1","1","1"
"250046","img/neutralC/CFD-MF-343-001-N.jpg","img/neutralC/CFD-BM-217-082-N.jpg","img/neutralC/CFD-IM-664-651-N.jpg","1","1","1","1","0","1","0.498662899946794","0.5855218002107","0.502904900116846","1","1","1","1","1","1","1","1","1"
"250046","img/neutralC/CFD-IM-664-651-N.jpg","img/neutralC/CFD-MF-343-001-N.jpg","img/neutralC/CFD-AF-233-190-N.jpg","1","1","1","1","1","0","0.502904900116846","0.498662899946794","0.513067800085992","1","1","1","1","1","1","1","1","1"
"250046","img/neutralC/CFD-AF-233-190-N.jpg","img/neutralC/CFD-IM-664-651-N.jpg","img/neutralC/CFD-LM-225-130-N.jpg","1","1","1","0","1","0","0.513067800085992","0.502904900116846","0.559031000128016","1","1","1","1","1","1","1","1","1"
"250046","img/neutralC/CFD-LM-225-130-N.jpg","img/neutralC/CFD-AF-233-190-N.jpg","img/neutralC/CFD-WM-218-074-N.jpg","1","1","1","0","0","1","0.559031000128016","0.513067800085992","0.517242399975657","1","1","1","1","1","1","1","1","1"
"250046","img/neutralC/CFD-WM-218-074-N.jpg","img/neutralC/CFD-LM-225-130-N.jpg","img/neutralC/CFD-BM-250-170-N.jpg","1","1","1","1","0","1","0.517242399975657","0.559031000128016","0.494667500024661","1","1","1","1","1","1","1","1","1"
"250046","img/neutralC/CFD-BM-250-170-N.jpg","img/neutralC/CFD-WM-218-074-N.jpg","img/neutralC/CFD-AM-220-134-N.jpg","1","1","1","1","1","0","0.494667500024661","0.517242399975657","0.455351399956271","1","1","1","1","1","1","1","1","1"
"250046","img/neutralC/CFD-AM-220-134-N.jpg","img/neutralC/CFD-BM-250-170-N.jpg","img/neutralC/CFD-WF-007-001-N.jpg","1","1","1","0","1","1","0.455351399956271","0.494667500024661","0.420939399860799","1","1","1","1","1","1","1","1","1"
"250046","img/neutralC/CFD-WF-007-001-N.jpg","img/neutralC/CFD-AM-220-134-N.jpg","img/neutralC/CFD-IM-680-369-N.jpg","1","1","1","1","0","1","0.420939399860799","0.455351399956271","0.44038340006955","1","1","1","1","1","1","1","1","1"
"250046","img/neutralC/CFD-IM-680-369-N.jpg","img/neutralC/CFD-WF-007-001-N.jpg","img/neutralC/CFD-WF-030-002-N.jpg","1","1","1","1","1","0","0.44038340006955","0.420939399860799","0.546305899973959","1","1","1","1","1","1","1","1","1"
"250046","img/neutralC/CFD-WF-030-002-N.jpg","img/neutralC/CFD-IM-680-369-N.jpg","img/neutralC/CFD-BF-014-002-N.jpg","1","1","1","0","1","1","0.546305899973959","0.44038340006955","0.475091499974951","1","1","1","1","1","1","1","1","1"
"250046","img/neutralC/CFD-BF-014-002-N.jpg","img/neutralC/CFD-WF-030-002-N.jpg","img/neutralC/CFD-BM-001-014-N.jpg","1","1","1","1","0","0","0.475091499974951","0.546305899973959","0.503925800090656","1","1","1","1","1","1","1","1","1"
"250046","img/neutralC/CFD-BM-001-014-N.jpg","img/neutralC/CFD-BF-014-002-N.jpg","img/neutralC/CFD-LM-200-045-N.jpg","1","1","1","0","1","1","0.503925800090656","0.475091499974951","0.566765200113878","1","1","1","1","1","1","1","1","1"
"250046","img/neutralC/CFD-LM-200-045-N.jpg","img/neutralC/CFD-BM-001-014-N.jpg","img/neutralC/CFD-AF-253-130-N.jpg","1","1","1","1","0","1","0.566765200113878","0.503925800090656","0.47260700003244","1","1","1","1","1","1","1","1","1"
"250046","img/neutralC/CFD-AF-253-130-N.jpg","img/neutralC/CFD-LM-200-045-N.jpg","img/neutralC/CFD-IM-702-101-N.jpg","1","1","1","1","1","1","0.47260700003244","0.566765200113878","0.41207559988834","1","1","1","1","1","1","1","1","1"
"250046","img/neutralC/CFD-IM-702-101-N.jpg","img/neutralC/CFD-AF-253-130-N.jpg","img/neutralC/CFD-MF-305-014-N.jpg","1","1","1","1","1","1","0.41207559988834","0.47260700003244","0.476051999954507","1","1","1","1","1","1","1","1","1"
"250046","img/neutralC/CFD-MF-305-014-N.jpg","img/neutralC/CFD-IM-702-101-N.jpg","img/neutralC/CFD-WM-209-038-N.jpg","1","1","1","1","1","0","0.476051999954507","0.41207559988834","0.515909299952909","1","1","1","1","1","1","1","1","1"
"250046","img/neutralC/CFD-WM-209-038-N.jpg","img/neutralC/CFD-MF-305-014-N.jpg","img/neutralC/CFD-LF-206-078-N.jpg","1","1","1","0","1","1","0.515909299952909","0.476051999954507","0.485923200147226","1","1","1","1","1","1","1","1","1"
"250046","img/neutralC/CFD-LF-206-078-N.jpg","img/neutralC/CFD-WM-209-038-N.jpg","img/neutralC/CFD-WF-222-092-N.jpg","1","1","1","1","0","1","0.485923200147226","0.515909299952909","0.49225139990449","1","1","1","1","1","1","1","1","1"
"250046","img/neutralC/CFD-WF-222-092-N.jpg","img/neutralC/CFD-LF-206-078-N.jpg","img/neutralC/CFD-MF-357-002-N.jpg","1","1","1","1","1","0","0.49225139990449","0.485923200147226","0.469505900051445","1","1","1","1","1","1","1","1","1"
"250046","img/neutralC/CFD-MF-357-002-N.jpg","img/neutralC/CFD-WF-222-092-N.jpg","img/neutralC/CFD-LF-255-088-N.jpg","1","1","1","0","1","0","0.469505900051445","0.49225139990449","0.455150800058618","1","1","1","1","1","1","1","1","1"
"250046","img/neutralC/CFD-LF-255-088-N.jpg","img/neutralC/CFD-MF-357-002-N.jpg","img/neutralC/CFD-WM-015-002-N.jpg","1","1","1","0","0","0","0.455150800058618","0.469505900051445","0.56064679985866","1","1","1","1","1","1","1","1","1"
"250046","img/neutralC/CFD-WM-015-002-N.jpg","img/neutralC/CFD-LF-255-088-N.jpg","img/neutralC/CFD-MF-316-001-N.jpg","1","1","1","0","0","0","0.56064679985866","0.455150800058618","0.588508199900389","1","1","1","1","1","1","1","1","1"
"250046","img/neutralC/CFD-MF-316-001-N.jpg","img/neutralC/CFD-WM-015-002-N.jpg","img/neutralC/CFD-IF-626-375-N.jpg","1","1","1","0","0","0","0.588508199900389","0.56064679985866","0.606462500058115","1","1","1","1","1","1","1","1","1"
"250046","img/neutralC/CFD-IF-626-375-N.jpg","img/neutralC/CFD-MF-316-001-N.jpg","img/neutralC/CFD-IM-667-369-N.jpg","1","1","1","0","0","0","0.606462500058115","0.588508199900389","0.542819999856874","1","1","1","1","1","1","1","1","1"
"250046","img/neutralC/CFD-IM-667-369-N.jpg","img/neutralC/CFD-IF-626-375-N.jpg","img/neutralC/CFD-MF-303-013-N.jpg","1","1","1","0","0","0","0.542819999856874","0.606462500058115","0.497495699906722","1","1","1","1","1","1","1","1","1"
"250046","img/neutralC/CFD-MF-303-013-N.jpg","img/neutralC/CFD-IM-667-369-N.jpg","img/neutralC/CFD-MM-324-069-N.jpg","1","1","1","0","0","1","0.497495699906722","0.542819999856874","0.465455800062046","1","1","1","1","1","1","1","1","1"
"250046","img/neutralC/CFD-MM-324-069-N.jpg","img/neutralC/CFD-MF-303-013-N.jpg","img/neutralC/CFD-BF-237-172-N.jpg","1","1","1","1","0","1","0.465455800062046","0.497495699906722","0.507866299943998","1","1","1","1","1","1","1","1","1"
"250046","img/neutralC/CFD-BF-237-172-N.jpg","img/neutralC/CFD-MM-324-069-N.jpg","img/neutralC/CFD-WF-244-163-N.jpg","1","1","1","1","1","1","0.507866299943998","0.465455800062046","0.44364450010471","1","1","1","1","1","1","1","1","1"
"250046","img/neutralC/CFD-WF-244-163-N.jpg","img/neutralC/CFD-BF-237-172-N.jpg",NA,"1","1",NA,"1","1",NA,"0.44364450010471","0.507866299943998",NA,"1","1",NA,"1","1",NA,"1","1",NA
"250046","img/neutralC/CFD-BM-239-136-N.jpg",NA,"img/neutralC/CFD-IF-710-016-N.jpg","1",NA,"1","1",NA,"0","0.643236299976707",NA,"0.513016700046137","1",NA,"1","1",NA,"1","1",NA,"1"
"250046","img/neutralC/CFD-IF-710-016-N.jpg","img/neutralC/CFD-BM-239-136-N.jpg","img/neutralC/CFD-IF-634-382-N.jpg","1","1","1","0","1","1","0.513016700046137","0.643236299976707","0.426368500106037","1","1","1","1","1","1","1","1","1"
"250046","img/neutralC/CFD-IF-634-382-N.jpg","img/neutralC/CFD-IF-710-016-N.jpg","img/neutralC/CFD-BF-253-202-N.jpg","1","1","0","1","0","0","0.426368500106037","0.513016700046137","0.563447100110352","1","1","1","1","1","1","1","1","2"
"250046","img/neutralC/CFD-BF-253-202-N.jpg","img/neutralC/CFD-IF-634-382-N.jpg","img/neutralC/CFD-AM-201-076-N.jpg","0","1","1","0","1","1","0.563447100110352","0.426368500106037","0.466365800006315","1","1","1","1","1","1","2","1","1"
"250046","img/neutralC/CFD-AM-201-076-N.jpg","img/neutralC/CFD-BF-253-202-N.jpg","img/neutralC/CFD-BF-039-031-N.jpg","1","0","1","1","0","1","0.466365800006315","0.563447100110352","0.471362799871713","1","1","1","1","1","1","1","2","1"
"250046","img/neutralC/CFD-BF-039-031-N.jpg","img/neutralC/CFD-AM-201-076-N.jpg","img/neutralC/CFD-LF-214-090-N.jpg","1","1","1","1","1","0","0.471362799871713","0.466365800006315","0.617496800143272","1","1","1","1","1","1","1","1","1"
"250046","img/neutralC/CFD-LF-214-090-N.jpg","img/neutralC/CFD-BF-039-031-N.jpg","img/neutralC/CFD-AF-231-357-N.jpg","1","1","1","0","1","1","0.617496800143272","0.471362799871713","0.496304699918255","1","1","1","1","1","1","1","1","1"
"250046","img/neutralC/CFD-AF-231-357-N.jpg","img/neutralC/CFD-LF-214-090-N.jpg","img/neutralC/CFD-IF-693-172-N.jpg","1","1","1","1","0","0","0.496304699918255","0.617496800143272","0.501824700040743","1","1","1","1","1","1","1","1","1"
"250046","img/neutralC/CFD-IF-693-172-N.jpg","img/neutralC/CFD-AF-231-357-N.jpg","img/neutralC/CFD-MM-316-156-N.jpg","1","1","1","0","1","1","0.501824700040743","0.496304699918255","0.382949199993163","1","1","1","1","1","1","1","1","1"
"250046","img/neutralC/CFD-MM-316-156-N.jpg","img/neutralC/CFD-IF-693-172-N.jpg","img/neutralC/CFD-LF-224-176-N.jpg","1","1","1","1","0","0","0.382949199993163","0.501824700040743","0.508684099884704","1","1","1","1","1","1","1","1","1"
"250046","img/neutralC/CFD-LF-224-176-N.jpg","img/neutralC/CFD-MM-316-156-N.jpg","img/neutralC/CFD-MF-337-026-N.jpg","1","1","1","0","1","1","0.508684099884704","0.382949199993163","0.406692399876192","1","1","1","1","1","1","1","1","1"
"250046","img/neutralC/CFD-MF-337-026-N.jpg","img/neutralC/CFD-LF-224-176-N.jpg","img/neutralC/CFD-LF-230-203-N.jpg","1","1","1","1","0","0","0.406692399876192","0.508684099884704","0.50259910011664","1","1","1","1","1","1","1","1","1"
"250046","img/neutralC/CFD-LF-230-203-N.jpg","img/neutralC/CFD-MF-337-026-N.jpg","img/neutralC/CFD-LM-218-183-N.jpg","1","1","1","0","1","1","0.50259910011664","0.406692399876192","0.436521299881861","1","1","1","1","1","1","1","1","1"
"250046","img/neutralC/CFD-LM-218-183-N.jpg","img/neutralC/CFD-LF-230-203-N.jpg","img/neutralC/CFD-LF-205-100-N.jpg","1","1","1","1","0","1","0.436521299881861","0.50259910011664","0.445610600057989","1","1","1","1","1","1","1","1","1"
"250046","img/neutralC/CFD-LF-205-100-N.jpg","img/neutralC/CFD-LM-218-183-N.jpg","img/neutralC/CFD-BM-033-003-N.jpg","1","1","1","1","1","0","0.445610600057989","0.436521299881861","0.570103200152516","1","1","1","1","1","1","1","1","1"
"250046","img/neutralC/CFD-BM-033-003-N.jpg","img/neutralC/CFD-LF-205-100-N.jpg","img/neutralC/CFD-BF-029-031-N.jpg","1","1","1","0","1","1","0.570103200152516","0.445610600057989","0.447956799995154","1","1","1","1","1","1","1","1","1"
"250046","img/neutralC/CFD-BF-029-031-N.jpg","img/neutralC/CFD-BM-033-003-N.jpg","img/neutralC/CFD-WF-224-099-N.jpg","1","1","1","1","0","0","0.447956799995154","0.570103200152516","0.399923399789259","1","1","1","1","1","1","1","1","1"
"250046","img/neutralC/CFD-WF-224-099-N.jpg","img/neutralC/CFD-BF-029-031-N.jpg","img/neutralC/CFD-IM-651-308-N.jpg","1","1","1","0","1","0","0.399923399789259","0.447956799995154","0.500169400125742","1","1","1","1","1","1","1","1","1"
"250046","img/neutralC/CFD-IM-651-308-N.jpg","img/neutralC/CFD-WF-224-099-N.jpg","img/neutralC/CFD-BF-205-141-N.jpg","1","1","1","0","0","0","0.500169400125742","0.399923399789259","0.551115499809384","1","1","1","1","1","1","1","1","1"
"250046","img/neutralC/CFD-BF-205-141-N.jpg","img/neutralC/CFD-IM-651-308-N.jpg","img/neutralC/CFD-WM-011-002-N.jpg","1","1","1","0","0","0","0.551115499809384","0.500169400125742","0.426751999882981","1","1","1","1","1","1","1","1","1"
"250046","img/neutralC/CFD-WM-011-002-N.jpg","img/neutralC/CFD-BF-205-141-N.jpg","img/neutralC/CFD-BM-019-002-N.jpg","1","1","1","0","0","0","0.426751999882981","0.551115499809384","0.445708699990064","1","1","1","1","1","1","1","1","1"
"250046","img/neutralC/CFD-BM-019-002-N.jpg","img/neutralC/CFD-WM-011-002-N.jpg","img/neutralC/CFD-WM-041-021-N.jpg","1","1","1","0","0","0","0.445708699990064","0.426751999882981","0.444787400076166","1","1","1","1","1","1","1","1","1"
"250046","img/neutralC/CFD-WM-041-021-N.jpg","img/neutralC/CFD-BM-019-002-N.jpg","img/neutralC/CFD-BM-041-035-N.jpg","1","1","1","0","0","0","0.444787400076166","0.445708699990064","0.491384600056335","1","1","1","1","1","1","1","1","1"
"250046","img/neutralC/CFD-BM-041-035-N.jpg","img/neutralC/CFD-WM-041-021-N.jpg","img/neutralC/CFD-WF-250-167-N.jpg","1","1","1","0","0","1","0.491384600056335","0.444787400076166","0.473805000074208","1","1","1","1","1","1","1","1","1"
"250046","img/neutralC/CFD-WF-250-167-N.jpg","img/neutralC/CFD-BM-041-035-N.jpg","img/neutralC/CFD-WF-213-031-N.jpg","1","1","1","1","0","1","0.473805000074208","0.491384600056335","0.682737199822441","1","1","1","1","1","1","1","1","1"
"250046","img/neutralC/CFD-WF-213-031-N.jpg","img/neutralC/CFD-WF-250-167-N.jpg","img/neutralC/CFD-LF-203-066-N.jpg","1","1","1","1","1","0","0.682737199822441","0.473805000074208","0.556562999961898","1","1","1","1","1","1","1","1","1"
"250046","img/neutralC/CFD-LF-203-066-N.jpg","img/neutralC/CFD-WF-213-031-N.jpg","img/neutralC/CFD-AM-212-050-N.jpg","1","1","1","0","1","1","0.556562999961898","0.682737199822441","0.520959799876437","1","1","1","1","1","1","1","1","1"
"250046","img/neutralC/CFD-AM-212-050-N.jpg","img/neutralC/CFD-LF-203-066-N.jpg","img/neutralC/CFD-LM-215-247-N.jpg","1","1","1","1","0","0","0.520959799876437","0.556562999961898","0.553524499991909","1","1","1","1","1","1","1","1","1"
"250046","img/neutralC/CFD-LM-215-247-N.jpg","img/neutralC/CFD-AM-212-050-N.jpg","img/neutralC/CFD-IM-684-008-N.jpg","1","1","1","0","1","1","0.553524499991909","0.520959799876437","0.433652000036091","1","1","1","1","1","1","1","1","1"
"250046","img/neutralC/CFD-IM-684-008-N.jpg","img/neutralC/CFD-LM-215-247-N.jpg","img/neutralC/CFD-BF-213-188-N.jpg","1","1","1","1","0","1","0.433652000036091","0.553524499991909","0.507128499913961","1","1","1","1","1","1","1","1","1"
"250046","img/neutralC/CFD-BF-213-188-N.jpg","img/neutralC/CFD-IM-684-008-N.jpg","img/neutralC/CFD-WM-021-001-N.jpg","1","1","1","1","1","1","0.507128499913961","0.433652000036091","0.534776599844918","1","1","1","1","1","1","1","1","1"
"250046","img/neutralC/CFD-WM-021-001-N.jpg","img/neutralC/CFD-BF-213-188-N.jpg",NA,"1","1",NA,"1","1",NA,"0.534776599844918","0.507128499913961",NA,"1","1",NA,"1","1",NA,"1","1",NA
"250046","img/neutralC/CFD-WM-040-022-N.jpg",NA,"img/neutralC/CFD-WF-026-002-N.jpg","1",NA,"1","0",NA,"1","0.556445800000802",NA,"0.405996500048786","1",NA,"1","1",NA,"1","1",NA,"1"
"250046","img/neutralC/CFD-WF-026-002-N.jpg","img/neutralC/CFD-WM-040-022-N.jpg","img/neutralC/CFD-BM-211-174-N.jpg","1","1","1","1","0","0","0.405996500048786","0.556445800000802","0.860636499943212","1","1","1","1","1","1","1","1","1"
"250046","img/neutralC/CFD-BM-211-174-N.jpg","img/neutralC/CFD-WF-026-002-N.jpg","img/neutralC/CFD-BF-028-001-N.jpg","1","1","1","0","1","1","0.860636499943212","0.405996500048786","0.519928599940613","1","1","1","1","1","1","1","1","1"
"250046","img/neutralC/CFD-BF-028-001-N.jpg","img/neutralC/CFD-BM-211-174-N.jpg","img/neutralC/CFD-LF-236-221-N.jpg","1","1","1","1","0","1","0.519928599940613","0.860636499943212","0.432108400156721","1","1","1","1","1","1","1","1","1"
"250046","img/neutralC/CFD-LF-236-221-N.jpg","img/neutralC/CFD-BF-028-001-N.jpg","img/neutralC/CFD-WM-257-161-N.jpg","1","1","1","1","1","1","0.432108400156721","0.519928599940613","0.540919000050053","1","1","1","1","1","1","1","1","1"
"250046","img/neutralC/CFD-WM-257-161-N.jpg","img/neutralC/CFD-LF-236-221-N.jpg","img/neutralC/CFD-BF-204-189-N.jpg","1","1","1","1","1","1","0.540919000050053","0.432108400156721","0.510294700041413","1","1","1","1","1","1","1","1","1"
"250046","img/neutralC/CFD-BF-204-189-N.jpg","img/neutralC/CFD-WM-257-161-N.jpg","img/neutralC/CFD-BM-027-001-N.jpg","1","1","1","1","1","0","0.510294700041413","0.540919000050053","0.419647499918938","1","1","1","1","1","1","1","1","1"
"250046","img/neutralC/CFD-BM-027-001-N.jpg","img/neutralC/CFD-BF-204-189-N.jpg","img/neutralC/CFD-IM-674-281-N.jpg","1","1","1","0","1","1","0.419647499918938","0.510294700041413","0.356484899995849","1","1","1","1","1","1","1","1","1"
"250046","img/neutralC/CFD-IM-674-281-N.jpg","img/neutralC/CFD-BM-027-001-N.jpg","img/neutralC/CFD-LM-252-076-N.jpg","1","1","1","1","0","1","0.356484899995849","0.419647499918938","0.395934299798682","1","1","1","1","1","1","1","1","1"
"250046","img/neutralC/CFD-LM-252-076-N.jpg","img/neutralC/CFD-IM-674-281-N.jpg","img/neutralC/CFD-IM-639-263-N.jpg","1","1","1","1","1","1","0.395934299798682","0.356484899995849","0.378584099933505","1","1","1","1","1","1","1","1","1"
"250046","img/neutralC/CFD-IM-639-263-N.jpg","img/neutralC/CFD-LM-252-076-N.jpg","img/neutralC/CFD-AM-215-120-N.jpg","1","1","1","1","1","1","0.378584099933505","0.395934299798682","0.408551099942997","1","1","1","1","1","1","1","1","1"
"250046","img/neutralC/CFD-AM-215-120-N.jpg","img/neutralC/CFD-IM-639-263-N.jpg","img/neutralC/CFD-BF-255-140-N.jpg","1","1","1","1","1","1","0.408551099942997","0.378584099933505","0.395484899869189","1","1","1","1","1","1","1","1","1"
"250046","img/neutralC/CFD-BF-255-140-N.jpg","img/neutralC/CFD-AM-215-120-N.jpg","img/neutralC/CFD-WF-002-004-N.jpg","1","1","1","1","1","0","0.395484899869189","0.408551099942997","0.396768199978396","1","1","1","1","1","1","1","1","1"
"250046","img/neutralC/CFD-WF-002-004-N.jpg","img/neutralC/CFD-BF-255-140-N.jpg","img/neutralC/CFD-LF-216-121-N.jpg","1","1","1","0","1","1","0.396768199978396","0.395484899869189","0.300854800036177","1","1","1","1","1","1","1","1","1"
"250046","img/neutralC/CFD-LF-216-121-N.jpg","img/neutralC/CFD-WF-002-004-N.jpg","img/neutralC/CFD-BF-208-266-N.jpg","1","1","1","1","0","0","0.300854800036177","0.396768199978396","0.376268699998036","1","1","1","1","1","1","1","1","1"
"250046","img/neutralC/CFD-BF-208-266-N.jpg","img/neutralC/CFD-LF-216-121-N.jpg","img/neutralC/CFD-BM-247-240-N.jpg","1","1","1","0","1","0","0.376268699998036","0.300854800036177","0.53107380005531","1","1","1","1","1","1","1","1","1"
"250046","img/neutralC/CFD-BM-247-240-N.jpg","img/neutralC/CFD-BF-208-266-N.jpg","img/neutralC/CFD-WM-002-009-N.jpg","1","1","1","0","0","0","0.53107380005531","0.376268699998036","0.472286899806932","1","1","1","1","1","1","1","1","1"
"250046","img/neutralC/CFD-WM-002-009-N.jpg","img/neutralC/CFD-BM-247-240-N.jpg","img/neutralC/CFD-WM-038-003-N.jpg","1","1","1","0","0","0","0.472286899806932","0.53107380005531","0.656960899941623","1","1","1","1","1","1","1","1","1"
"250046","img/neutralC/CFD-WM-038-003-N.jpg","img/neutralC/CFD-WM-002-009-N.jpg","img/neutralC/CFD-IF-718-001-N.jpg","1","1","1","0","0","1","0.656960899941623","0.472286899806932","0.363969499943778","1","1","1","1","1","1","1","1","1"
"250046","img/neutralC/CFD-IF-718-001-N.jpg","img/neutralC/CFD-WM-038-003-N.jpg","img/neutralC/CFD-AM-217-085-N.jpg","1","1","1","1","0","0","0.363969499943778","0.656960899941623","0.49840240017511","1","1","1","1","1","1","1","1","1"
"250046","img/neutralC/CFD-AM-217-085-N.jpg","img/neutralC/CFD-IF-718-001-N.jpg","img/neutralC/CFD-WM-225-127-N.jpg","1","1","1","0","1","0","0.49840240017511","0.363969499943778","0.533009700011462","1","1","1","1","1","1","1","1","1"
"250046","img/neutralC/CFD-WM-225-127-N.jpg","img/neutralC/CFD-AM-217-085-N.jpg","img/neutralC/CFD-IF-672-305-N.jpg","1","1","1","0","0","0","0.533009700011462","0.49840240017511","0.566348199965432","1","1","1","1","1","1","1","1","1"
"250046","img/neutralC/CFD-IF-672-305-N.jpg","img/neutralC/CFD-WM-225-127-N.jpg","img/neutralC/CFD-BF-023-010-N.jpg","1","1","1","0","0","1","0.566348199965432","0.533009700011462","0.486581600038335","1","1","1","1","1","1","1","1","1"
"250046","img/neutralC/CFD-BF-023-010-N.jpg","img/neutralC/CFD-IF-672-305-N.jpg","img/neutralC/CFD-WF-022-017-N.jpg","1","1","1","1","0","0","0.486581600038335","0.566348199965432","0.539350699866191","1","1","1","1","1","1","1","1","1"
"250046","img/neutralC/CFD-WF-022-017-N.jpg","img/neutralC/CFD-BF-023-010-N.jpg","img/neutralC/CFD-BM-015-015-N.jpg","1","1","1","0","1","0","0.539350699866191","0.486581600038335","0.423393199918792","1","1","1","1","1","1","1","1","1"
"250046","img/neutralC/CFD-BM-015-015-N.jpg","img/neutralC/CFD-WF-022-017-N.jpg","img/neutralC/CFD-AM-235-241-N.jpg","1","1","1","0","0","0","0.423393199918792","0.539350699866191","0.384966499870643","1","1","1","1","1","1","1","1","1"
"250046","img/neutralC/CFD-AM-235-241-N.jpg","img/neutralC/CFD-BM-015-015-N.jpg","img/neutralC/CFD-BF-003-003-N.jpg","1","1","1","0","0","0","0.384966499870643","0.423393199918792","0.380032799905166","1","1","1","1","1","1","1","1","1"
"250046","img/neutralC/CFD-BF-003-003-N.jpg","img/neutralC/CFD-AM-235-241-N.jpg","img/neutralC/CFD-BF-201-080-N.jpg","1","1","1","0","0","1","0.380032799905166","0.384966499870643","0.378415099810809","1","1","1","1","1","1","1","1","1"
"250046","img/neutralC/CFD-BF-201-080-N.jpg","img/neutralC/CFD-BF-003-003-N.jpg","img/neutralC/CFD-MM-319-052-N.jpg","1","1","1","1","0","1","0.378415099810809","0.380032799905166","0.419616900151595","1","1","1","1","1","1","1","1","1"
"250046","img/neutralC/CFD-MM-319-052-N.jpg","img/neutralC/CFD-BF-201-080-N.jpg","img/neutralC/CFD-IM-728-041-N.jpg","1","1","0","1","1","0","0.419616900151595","0.378415099810809","0.453643099870533","1","1","1","1","1","1","1","1","1"
"250046","img/neutralC/CFD-IM-728-041-N.jpg","img/neutralC/CFD-MM-319-052-N.jpg","img/neutralC/CFD-BM-029-024-N.jpg","0","1","1","0","1","1","0.453643099870533","0.419616900151595","0.426083799917251","1","1","1","1","1","1","1","1","1"
"250046","img/neutralC/CFD-BM-029-024-N.jpg","img/neutralC/CFD-IM-728-041-N.jpg",NA,"1","0",NA,"1","0",NA,"0.426083799917251","0.453643099870533",NA,"1","1",NA,"1","1",NA,"1","1",NA
"250046","img/neutralC/CFD-BM-200-046-N.jpg",NA,"img/neutralC/CFD-WM-201-063-N.jpg","1",NA,"1","0",NA,"1","0.753794400021434",NA,"0.628876100061461","1",NA,"1","1",NA,"1","1",NA,"1"
"250046","img/neutralC/CFD-WM-201-063-N.jpg","img/neutralC/CFD-BM-200-046-N.jpg","img/neutralC/CFD-AM-244-222-N.jpg","1","1","1","1","0","0","0.628876100061461","0.753794400021434","0.522532599978149","1","1","1","1","1","1","1","1","1"
"250046","img/neutralC/CFD-AM-244-222-N.jpg","img/neutralC/CFD-WM-201-063-N.jpg","img/neutralC/CFD-MF-342-022-N.jpg","1","1","1","0","1","1","0.522532599978149","0.628876100061461","0.373281700070947","1","1","1","1","1","1","1","1","1"
"250046","img/neutralC/CFD-MF-342-022-N.jpg","img/neutralC/CFD-AM-244-222-N.jpg","img/neutralC/CFD-BF-018-039-N.jpg","1","1","1","1","0","1","0.373281700070947","0.522532599978149","0.430097399977967","1","1","1","1","1","1","1","1","1"
"250046","img/neutralC/CFD-BF-018-039-N.jpg","img/neutralC/CFD-MF-342-022-N.jpg","img/neutralC/CFD-MM-321-021-N.jpg","1","1","1","1","1","0","0.430097399977967","0.373281700070947","0.4724353000056","1","1","1","1","1","1","1","1","1"
"250046","img/neutralC/CFD-MM-321-021-N.jpg","img/neutralC/CFD-BF-018-039-N.jpg","img/neutralC/CFD-WF-027-003-N.jpg","1","1","1","0","1","1","0.4724353000056","0.430097399977967","0.443855500081554","1","1","1","1","1","1","1","1","1"
"250046","img/neutralC/CFD-WF-027-003-N.jpg","img/neutralC/CFD-MM-321-021-N.jpg","img/neutralC/CFD-WF-226-095-N.jpg","1","1","1","1","0","1","0.443855500081554","0.4724353000056","0.416005800012499","1","1","1","1","1","1","1","1","1"
"250046","img/neutralC/CFD-WF-226-095-N.jpg","img/neutralC/CFD-WF-027-003-N.jpg","img/neutralC/CFD-WF-018-017-N.jpg","1","1","1","1","1","1","0.416005800012499","0.443855500081554","0.406101200031117","1","1","1","1","1","1","1","1","1"
"250046","img/neutralC/CFD-WF-018-017-N.jpg","img/neutralC/CFD-WF-226-095-N.jpg","img/neutralC/CFD-WF-023-003-N.jpg","1","1","1","1","1","1","0.406101200031117","0.416005800012499","0.448413699865341","1","1","1","1","1","1","1","1","1"
"250046","img/neutralC/CFD-WF-023-003-N.jpg","img/neutralC/CFD-WF-018-017-N.jpg","img/neutralC/CFD-IM-719-221-N.jpg","1","1","1","1","1","0","0.448413699865341","0.406101200031117","0.530229900032282","1","1","1","1","1","1","1","1","1"
"250046","img/neutralC/CFD-IM-719-221-N.jpg","img/neutralC/CFD-WF-023-003-N.jpg","img/neutralC/CFD-WM-237-052-N.jpg","1","1","1","0","1","1","0.530229900032282","0.448413699865341","0.612343700136989","1","1","1","1","1","1","1","1","1"
"250046","img/neutralC/CFD-WM-237-052-N.jpg","img/neutralC/CFD-IM-719-221-N.jpg","img/neutralC/CFD-BF-254-201-N.jpg","1","1","1","1","0","0","0.612343700136989","0.530229900032282","0.577757100109011","1","1","1","1","1","1","1","1","1"
"250046","img/neutralC/CFD-BF-254-201-N.jpg","img/neutralC/CFD-WM-237-052-N.jpg","img/neutralC/CFD-BM-204-003-N.jpg","1","1","1","0","1","0","0.577757100109011","0.612343700136989","0.525043800007552","1","1","1","1","1","1","1","1","1"
"250046","img/neutralC/CFD-BM-204-003-N.jpg","img/neutralC/CFD-BF-254-201-N.jpg","img/neutralC/CFD-WF-245-084-N.jpg","1","1","1","0","0","1","0.525043800007552","0.577757100109011","0.477643900085241","1","1","1","1","1","1","1","1","1"
"250046","img/neutralC/CFD-WF-245-084-N.jpg","img/neutralC/CFD-BM-204-003-N.jpg","img/neutralC/CFD-MF-321-003-N.jpg","1","1","1","1","0","0","0.477643900085241","0.525043800007552","0.443367199972272","1","1","1","1","1","1","1","1","1"
"250046","img/neutralC/CFD-MF-321-003-N.jpg","img/neutralC/CFD-WF-245-084-N.jpg","img/neutralC/CFD-MF-318-022-N.jpg","1","1","1","0","1","1","0.443367199972272","0.477643900085241","0.385700500104576","1","1","1","1","1","1","1","1","1"
"250046","img/neutralC/CFD-MF-318-022-N.jpg","img/neutralC/CFD-MF-321-003-N.jpg","img/neutralC/CFD-WF-238-023-N.jpg","1","1","1","1","0","0","0.385700500104576","0.443367199972272","0.567556699970737","1","1","1","1","1","1","1","1","1"
"250046","img/neutralC/CFD-WF-238-023-N.jpg","img/neutralC/CFD-MF-318-022-N.jpg","img/neutralC/CFD-IF-629-234-N.jpg","1","1","1","0","1","0","0.567556699970737","0.385700500104576","0.603635400068015","1","1","1","1","1","1","1","1","1"
"250046","img/neutralC/CFD-IF-629-234-N.jpg","img/neutralC/CFD-WF-238-023-N.jpg","img/neutralC/CFD-LF-215-157-N.jpg","1","1","1","0","0","0","0.603635400068015","0.567556699970737","0.48603400005959","1","1","1","1","1","1","1","1","1"
"250046","img/neutralC/CFD-LF-215-157-N.jpg","img/neutralC/CFD-IF-629-234-N.jpg","img/neutralC/CFD-LM-253-075-N.jpg","1","1","1","0","0","0","0.48603400005959","0.603635400068015","0.41250570002012","1","1","1","1","1","1","1","1","1"
"250046","img/neutralC/CFD-LM-253-075-N.jpg","img/neutralC/CFD-LF-215-157-N.jpg","img/neutralC/CFD-WM-009-002-N.jpg","1","1","1","0","0","0","0.41250570002012","0.48603400005959","0.540336800040677","1","1","1","1","1","1","1","1","1"
"250046","img/neutralC/CFD-WM-009-002-N.jpg","img/neutralC/CFD-LM-253-075-N.jpg","img/neutralC/CFD-BF-218-207-N.jpg","1","1","1","0","0","1","0.540336800040677","0.41250570002012","0.483337099896744","1","1","1","1","1","1","1","1","1"
"250046","img/neutralC/CFD-BF-218-207-N.jpg","img/neutralC/CFD-WM-009-002-N.jpg","img/neutralC/CFD-IM-627-178-N.jpg","1","1","1","1","0","1","0.483337099896744","0.540336800040677","0.440022599883378","1","1","1","1","1","1","1","1","1"
"250046","img/neutralC/CFD-IM-627-178-N.jpg","img/neutralC/CFD-BF-218-207-N.jpg","img/neutralC/CFD-AF-232-078-N.jpg","1","1","1","1","1","1","0.440022599883378","0.483337099896744","0.524775000056252","1","1","1","1","1","1","1","1","1"
"250046","img/neutralC/CFD-AF-232-078-N.jpg","img/neutralC/CFD-IM-627-178-N.jpg","img/neutralC/CFD-WM-013-001-N.jpg","1","1","1","1","1","1","0.524775000056252","0.440022599883378","0.425685800146312","1","1","1","1","1","1","1","1","1"
"250046","img/neutralC/CFD-WM-013-001-N.jpg","img/neutralC/CFD-AF-232-078-N.jpg","img/neutralC/CFD-WM-255-219-N.jpg","1","1","1","1","1","0","0.425685800146312","0.524775000056252","0.599066100083292","1","1","1","1","1","1","1","1","1"
"250046","img/neutralC/CFD-WM-255-219-N.jpg","img/neutralC/CFD-WM-013-001-N.jpg","img/neutralC/CFD-WM-221-091-N.jpg","1","1","1","0","1","0","0.599066100083292","0.425685800146312","0.528568099951372","1","1","1","1","1","1","1","1","1"
"250046","img/neutralC/CFD-WM-221-091-N.jpg","img/neutralC/CFD-WM-255-219-N.jpg","img/neutralC/CFD-IM-700-009-N.jpg","1","1","1","0","0","1","0.528568099951372","0.599066100083292","0.441095199901611","1","1","1","1","1","1","1","1","1"
"250046","img/neutralC/CFD-IM-700-009-N.jpg","img/neutralC/CFD-WM-221-091-N.jpg","img/neutralC/CFD-AF-221-147-N.jpg","1","1","1","1","0","0","0.441095199901611","0.528568099951372","0.52987250010483","1","1","1","1","1","1","1","1","1"
"250046","img/neutralC/CFD-AF-221-147-N.jpg","img/neutralC/CFD-IM-700-009-N.jpg","img/neutralC/CFD-BM-023-029-N.jpg","1","1","1","0","1","1","0.52987250010483","0.441095199901611","0.487726600142196","1","1","1","1","1","1","1","1","1"
"250046","img/neutralC/CFD-BM-023-029-N.jpg","img/neutralC/CFD-AF-221-147-N.jpg","img/neutralC/CFD-LF-211-003-N.jpg","1","1","0","1","0","0","0.487726600142196","0.52987250010483","0.486800499958917","1","1","1","1","1","1","1","1","1"
"250046","img/neutralC/CFD-LF-211-003-N.jpg","img/neutralC/CFD-BM-023-029-N.jpg",NA,"0","1",NA,"0","1",NA,"0.486800499958917","0.487726600142196",NA,"1","1",NA,"1","1",NA,"1","1",NA
"250046","img/neutralC/CFD-IM-738-191-N.jpg",NA,"img/neutralC/CFD-IM-701-312-N.jpg","1",NA,"1","0",NA,"0","0.521629399852827",NA,"0.706784999929368","1",NA,"1","1",NA,"1","1",NA,"1"
"250046","img/neutralC/CFD-IM-701-312-N.jpg","img/neutralC/CFD-IM-738-191-N.jpg","img/neutralC/CFD-MF-336-016-N.jpg","1","1","1","0","0","1","0.706784999929368","0.521629399852827","0.456092800013721","1","1","1","1","1","1","1","1","1"
"250046","img/neutralC/CFD-MF-336-016-N.jpg","img/neutralC/CFD-IM-701-312-N.jpg","img/neutralC/CFD-BF-004-014-N.jpg","1","1","1","1","0","1","0.456092800013721","0.706784999929368","0.46067350008525","1","1","1","1","1","1","1","1","1"
"250046","img/neutralC/CFD-BF-004-014-N.jpg","img/neutralC/CFD-MF-336-016-N.jpg","img/neutralC/CFD-IF-673-389-N.jpg","1","1","1","1","1","0","0.46067350008525","0.456092800013721","0.541373300133273","1","1","1","1","1","1","1","1","1"
"250046","img/neutralC/CFD-IF-673-389-N.jpg","img/neutralC/CFD-BF-004-014-N.jpg","img/neutralC/CFD-WM-202-107-N.jpg","1","1","1","0","1","1","0.541373300133273","0.46067350008525","0.438891599886119","1","1","1","1","1","1","1","1","1"
"250046","img/neutralC/CFD-WM-202-107-N.jpg","img/neutralC/CFD-IF-673-389-N.jpg","img/neutralC/CFD-BF-222-240-N.jpg","1","1","1","1","0","0","0.438891599886119","0.541373300133273","0.533599799964577","1","1","1","1","1","1","1","1","1"
"250046","img/neutralC/CFD-BF-222-240-N.jpg","img/neutralC/CFD-WM-202-107-N.jpg","img/neutralC/CFD-BF-045-003-N.jpg","1","1","1","0","1","0","0.533599799964577","0.438891599886119","0.542996000032872","1","1","1","1","1","1","1","1","1"
"250046","img/neutralC/CFD-BF-045-003-N.jpg","img/neutralC/CFD-BF-222-240-N.jpg","img/neutralC/CFD-AF-239-171-N.jpg","1","1","1","0","0","1","0.542996000032872","0.533599799964577","0.461965100141242","1","1","1","1","1","1","1","1","1"
"250046","img/neutralC/CFD-AF-239-171-N.jpg","img/neutralC/CFD-BF-045-003-N.jpg","img/neutralC/CFD-AM-221-184-N.jpg","1","1","1","1","0","1","0.461965100141242","0.542996000032872","0.435107100056484","1","1","1","1","1","1","1","1","1"
"250046","img/neutralC/CFD-AM-221-184-N.jpg","img/neutralC/CFD-AF-239-171-N.jpg","img/neutralC/CFD-LF-208-127-N.jpg","1","1","1","1","1","0","0.435107100056484","0.461965100141242","0.544310400029644","1","1","1","1","1","1","1","1","1"
"250046","img/neutralC/CFD-LF-208-127-N.jpg","img/neutralC/CFD-AM-221-184-N.jpg","img/neutralC/CFD-BM-213-134-N.jpg","1","1","1","0","1","1","0.544310400029644","0.435107100056484","0.447324000066146","1","1","1","1","1","1","1","1","1"
"250046","img/neutralC/CFD-BM-213-134-N.jpg","img/neutralC/CFD-LF-208-127-N.jpg","img/neutralC/CFD-BM-003-003-N.jpg","1","1","1","1","0","0","0.447324000066146","0.544310400029644","0.485418499913067","1","1","1","1","1","1","1","1","1"
"250046","img/neutralC/CFD-BM-003-003-N.jpg","img/neutralC/CFD-BM-213-134-N.jpg","img/neutralC/CFD-IF-625-225-N.jpg","1","1","1","0","1","0","0.485418499913067","0.447324000066146","0.555749699939042","1","1","1","1","1","1","1","1","1"
"250046","img/neutralC/CFD-IF-625-225-N.jpg","img/neutralC/CFD-BM-003-003-N.jpg","img/neutralC/CFD-WF-033-002-N.jpg","1","1","1","0","0","1","0.555749699939042","0.485418499913067","0.459484899882227","1","1","1","1","1","1","1","1","1"
"250046","img/neutralC/CFD-WF-033-002-N.jpg","img/neutralC/CFD-IF-625-225-N.jpg","img/neutralC/CFD-LF-210-220-N.jpg","1","1","1","1","0","1","0.459484899882227","0.555749699939042","0.487559099914506","1","1","1","1","1","1","1","1","1"
"250046","img/neutralC/CFD-LF-210-220-N.jpg","img/neutralC/CFD-WF-033-002-N.jpg","img/neutralC/CFD-LM-247-095-N.jpg","1","1","1","1","1","0","0.487559099914506","0.459484899882227","0.530494800070301","1","1","1","1","1","1","1","1","1"
"250046","img/neutralC/CFD-LM-247-095-N.jpg","img/neutralC/CFD-LF-210-220-N.jpg","img/neutralC/CFD-MF-312-002-N.jpg","1","1","1","0","1","1","0.530494800070301","0.487559099914506","0.43453159998171","1","1","1","1","1","1","1","1","1"
"250046","img/neutralC/CFD-MF-312-002-N.jpg","img/neutralC/CFD-LM-247-095-N.jpg","img/neutralC/CFD-AF-210-050-N.jpg","1","1","1","1","0","1","0.43453159998171","0.530494800070301","0.388501999899745","1","1","1","1","1","1","1","1","1"
"250046","img/neutralC/CFD-AF-210-050-N.jpg","img/neutralC/CFD-MF-312-002-N.jpg","img/neutralC/CFD-LF-241-188-N.jpg","1","1","1","1","1","0","0.388501999899745","0.43453159998171","0.515946199884638","1","1","1","1","1","1","1","1","1"
"250046","img/neutralC/CFD-LF-241-188-N.jpg","img/neutralC/CFD-AF-210-050-N.jpg","img/neutralC/CFD-WF-006-002-N.jpg","1","1","1","0","1","0","0.515946199884638","0.388501999899745","0.444000600138679","1","1","1","1","1","1","1","1","1"
"250046","img/neutralC/CFD-WF-006-002-N.jpg","img/neutralC/CFD-LF-241-188-N.jpg","img/neutralC/CFD-WM-228-065-N.jpg","1","1","1","0","0","0","0.444000600138679","0.515946199884638","0.550827200058848","1","1","1","1","1","1","1","1","1"
"250046","img/neutralC/CFD-WM-228-065-N.jpg","img/neutralC/CFD-WF-006-002-N.jpg","img/neutralC/CFD-LM-238-129-N.jpg","1","1","1","0","0","1","0.550827200058848","0.444000600138679","0.421366800088435","1","1","1","1","1","1","1","1","1"
"250046","img/neutralC/CFD-LM-238-129-N.jpg","img/neutralC/CFD-WM-228-065-N.jpg","img/neutralC/CFD-LF-225-164-N.jpg","1","1","1","1","0","1","0.421366800088435","0.550827200058848","0.469322299817577","1","1","1","1","1","1","1","1","1"
"250046","img/neutralC/CFD-LF-225-164-N.jpg","img/neutralC/CFD-LM-238-129-N.jpg","img/neutralC/CFD-AF-227-207-N.jpg","1","1","1","1","1","1","0.469322299817577","0.421366800088435","0.522417200030759","1","1","1","1","1","1","1","1","1"
"250046","img/neutralC/CFD-AF-227-207-N.jpg","img/neutralC/CFD-LF-225-164-N.jpg","img/neutralC/CFD-BM-028-002-N.jpg","1","1","1","1","1","1","0.522417200030759","0.469322299817577","0.496209400007501","1","1","1","1","1","1","1","1","1"
"250046","img/neutralC/CFD-BM-028-002-N.jpg","img/neutralC/CFD-AF-227-207-N.jpg","img/neutralC/CFD-BM-013-002-N.jpg","1","1","1","1","1","1","0.496209400007501","0.522417200030759","0.506543199997395","1","1","1","1","1","1","1","1","1"
"250046","img/neutralC/CFD-BM-013-002-N.jpg","img/neutralC/CFD-BM-028-002-N.jpg","img/neutralC/CFD-IF-744-114-N.jpg","1","1","1","1","1","0","0.506543199997395","0.496209400007501","0.662057999987155","1","1","1","1","1","1","1","1","1"
"250046","img/neutralC/CFD-IF-744-114-N.jpg","img/neutralC/CFD-BM-013-002-N.jpg","img/neutralC/CFD-WM-254-152-N.jpg","1","1","1","0","1","1","0.662057999987155","0.506543199997395","0.447286700131372","1","1","1","1","1","1","1","1","1"
"250046","img/neutralC/CFD-WM-254-152-N.jpg","img/neutralC/CFD-IF-744-114-N.jpg","img/neutralC/CFD-BM-010-003-N.jpg","1","1","1","1","0","0","0.447286700131372","0.662057999987155","0.517501899972558","1","1","1","1","1","1","1","1","1"
"250046","img/neutralC/CFD-BM-010-003-N.jpg","img/neutralC/CFD-WM-254-152-N.jpg","img/neutralC/CFD-IM-659-359-N.jpg","1","1","1","0","1","0","0.517501899972558","0.447286700131372","0.5429557999596","1","1","1","1","1","1","1","1","1"
"250046","img/neutralC/CFD-IM-659-359-N.jpg","img/neutralC/CFD-BM-010-003-N.jpg","img/neutralC/CFD-WF-223-133-N.jpg","1","1","1","0","0","0","0.5429557999596","0.517501899972558","0.542011999990791","1","1","1","1","1","1","1","1","1"
"250046","img/neutralC/CFD-WF-223-133-N.jpg","img/neutralC/CFD-IM-659-359-N.jpg",NA,"1","1",NA,"0","0",NA,"0.542011999990791","0.5429557999596",NA,"1","1",NA,"1","1",NA,"1","1",NA
"250046","img/neutralC/CFD-BF-236-177-N.jpg",NA,"img/neutralC/CFD-BF-247-179-N.jpg","1",NA,"1","0",NA,"0","1.10256240004674",NA,"0.5488342999015","1",NA,"1","1",NA,"1","1",NA,"1"
"250046","img/neutralC/CFD-BF-247-179-N.jpg","img/neutralC/CFD-BF-236-177-N.jpg","img/neutralC/CFD-BF-002-001-N.jpg","1","1","1","0","0","0","0.5488342999015","1.10256240004674","0.442546299891546","1","1","1","1","1","1","1","1","1"
"250046","img/neutralC/CFD-BF-002-001-N.jpg","img/neutralC/CFD-BF-247-179-N.jpg","img/neutralC/CFD-WM-248-036-N.jpg","1","1","1","0","0","1","0.442546299891546","0.5488342999015","0.376337500056252","1","1","1","1","1","1","1","1","1"
"250046","img/neutralC/CFD-WM-248-036-N.jpg","img/neutralC/CFD-BF-002-001-N.jpg","img/neutralC/CFD-BM-238-242-N.jpg","1","1","1","1","0","0","0.376337500056252","0.442546299891546","0.610129100037739","1","1","1","1","1","1","1","1","1"
"250046","img/neutralC/CFD-BM-238-242-N.jpg","img/neutralC/CFD-WM-248-036-N.jpg","img/neutralC/CFD-IM-726-248-N.jpg","1","1","1","0","1","0","0.610129100037739","0.376337500056252","0.446744099957868","1","1","1","1","1","1","1","1","1"
"250046","img/neutralC/CFD-IM-726-248-N.jpg","img/neutralC/CFD-BM-238-242-N.jpg","img/neutralC/CFD-IF-677-452-1-N.jpg","1","1","1","0","0","1","0.446744099957868","0.610129100037739","0.382090999977663","1","1","1","1","1","1","1","1","1"
"250046","img/neutralC/CFD-IF-677-452-1-N.jpg","img/neutralC/CFD-IM-726-248-N.jpg","img/neutralC/CFD-IF-742-103-N.jpg","1","1","1","1","0","1","0.382090999977663","0.446744099957868","0.412822399986908","1","1","1","1","1","1","1","1","1"
"250046","img/neutralC/CFD-IF-742-103-N.jpg","img/neutralC/CFD-IF-677-452-1-N.jpg","img/neutralC/CFD-BF-036-027-N.jpg","1","1","1","1","1","0","0.412822399986908","0.382090999977663","0.525978899793699","1","1","1","1","1","1","1","1","1"
"250046","img/neutralC/CFD-BF-036-027-N.jpg","img/neutralC/CFD-IF-742-103-N.jpg","img/neutralC/CFD-IM-721-341-N.jpg","1","1","1","0","1","1","0.525978899793699","0.412822399986908","0.387985199922696","1","1","1","1","1","1","1","1","1"
"250046","img/neutralC/CFD-IM-721-341-N.jpg","img/neutralC/CFD-BF-036-027-N.jpg","img/neutralC/CFD-BM-207-024-N.jpg","1","1","1","1","0","1","0.387985199922696","0.525978899793699","0.436736200004816","1","1","1","1","1","1","1","1","1"
"250046","img/neutralC/CFD-BM-207-024-N.jpg","img/neutralC/CFD-IM-721-341-N.jpg","img/neutralC/CFD-LF-204-133-N.jpg","1","1","1","1","1","1","0.436736200004816","0.387985199922696","0.445252199890092","1","1","1","1","1","1","1","1","1"
"250046","img/neutralC/CFD-LF-204-133-N.jpg","img/neutralC/CFD-BM-207-024-N.jpg","img/neutralC/CFD-WF-029-002-N.jpg","1","1","1","1","1","0","0.445252199890092","0.436736200004816","0.515184299787506","1","1","1","1","1","1","1","1","1"
"250046","img/neutralC/CFD-WF-029-002-N.jpg","img/neutralC/CFD-LF-204-133-N.jpg","img/neutralC/CFD-WM-034-030-N.jpg","1","1","1","0","1","1","0.515184299787506","0.445252199890092","0.504304599948227","1","1","1","1","1","1","1","1","1"
"250046","img/neutralC/CFD-WM-034-030-N.jpg","img/neutralC/CFD-WF-029-002-N.jpg","img/neutralC/CFD-BF-214-308-N.jpg","1","1","1","1","0","1","0.504304599948227","0.515184299787506","0.677020600065589","1","1","1","1","1","1","1","1","1"
"250046","img/neutralC/CFD-BF-214-308-N.jpg","img/neutralC/CFD-WM-034-030-N.jpg","img/neutralC/CFD-IF-729-393-N.jpg","1","1","1","1","1","0","0.677020600065589","0.504304599948227","0.484946600161493","1","1","1","1","1","1","1","1","1"
"250046","img/neutralC/CFD-IF-729-393-N.jpg","img/neutralC/CFD-BF-214-308-N.jpg","img/neutralC/CFD-BF-011-002-N.jpg","1","1","1","0","1","1","0.484946600161493","0.677020600065589","0.457654299912974","1","1","1","1","1","1","1","1","1"
"250046","img/neutralC/CFD-BF-011-002-N.jpg","img/neutralC/CFD-IF-729-393-N.jpg","img/neutralC/CFD-AM-230-150-N.jpg","1","1","1","1","0","0","0.457654299912974","0.484946600161493","0.505551700014621","1","1","1","1","1","1","1","1","1"
"250046","img/neutralC/CFD-AM-230-150-N.jpg","img/neutralC/CFD-BF-011-002-N.jpg","img/neutralC/CFD-BF-207-004-N.jpg","1","1","1","0","1","1","0.505551700014621","0.457654299912974","0.452857299940661","1","1","1","1","1","1","1","1","1"
"250046","img/neutralC/CFD-BF-207-004-N.jpg","img/neutralC/CFD-AM-230-150-N.jpg","img/neutralC/CFD-WF-234-086-N.jpg","1","1","1","1","0","1","0.452857299940661","0.505551700014621","0.456027699867263","1","1","1","1","1","1","1","1","1"
"250046","img/neutralC/CFD-WF-234-086-N.jpg","img/neutralC/CFD-BF-207-004-N.jpg","img/neutralC/CFD-IM-696-001-N.jpg","1","1","1","1","1","0","0.456027699867263","0.452857299940661","0.562870600027964","1","1","1","1","1","1","1","1","1"
"250046","img/neutralC/CFD-IM-696-001-N.jpg","img/neutralC/CFD-WF-234-086-N.jpg","img/neutralC/CFD-WF-233-112-N.jpg","1","1","1","0","1","1","0.562870600027964","0.456027699867263","0.436392299830914","1","1","1","1","1","1","1","1","1"
"250046","img/neutralC/CFD-WF-233-112-N.jpg","img/neutralC/CFD-IM-696-001-N.jpg","img/neutralC/CFD-BF-027-002-N.jpg","1","1","1","1","0","1","0.436392299830914","0.562870600027964","0.43446659995243","1","1","1","1","1","1","1","1","1"
"250046","img/neutralC/CFD-BF-027-002-N.jpg","img/neutralC/CFD-WF-233-112-N.jpg","img/neutralC/CFD-BF-006-017-N.jpg","1","1","1","1","1","0","0.43446659995243","0.436392299830914","0.413578700041398","1","1","1","1","1","1","1","1","1"
"250046","img/neutralC/CFD-BF-006-017-N.jpg","img/neutralC/CFD-BF-027-002-N.jpg","img/neutralC/CFD-IM-707-105-N.jpg","1","1","1","0","1","1","0.413578700041398","0.43446659995243","0.397007499821484","1","1","1","1","1","1","1","1","1"
"250046","img/neutralC/CFD-IM-707-105-N.jpg","img/neutralC/CFD-BF-006-017-N.jpg","img/neutralC/CFD-WF-208-068-N.jpg","1","1","1","1","0","1","0.397007499821484","0.413578700041398","0.435395099921152","1","1","1","1","1","1","1","1","1"
"250046","img/neutralC/CFD-WF-208-068-N.jpg","img/neutralC/CFD-IM-707-105-N.jpg","img/neutralC/CFD-WM-014-002-N.jpg","1","1","1","1","1","0","0.435395099921152","0.397007499821484","0.466384399915114","1","1","1","1","1","1","1","1","1"
"250046","img/neutralC/CFD-WM-014-002-N.jpg","img/neutralC/CFD-WF-208-068-N.jpg","img/neutralC/CFD-BM-036-003-N.jpg","1","1","1","0","1","1","0.466384399915114","0.435395099921152","0.340800100006163","1","1","1","1","1","1","1","1","1"
"250046","img/neutralC/CFD-BM-036-003-N.jpg","img/neutralC/CFD-WM-014-002-N.jpg","img/neutralC/CFD-BM-241-235-N.jpg","1","1","1","1","0","0","0.340800100006163","0.466384399915114","0.51760089979507","1","1","1","1","1","1","1","1","1"
"250046","img/neutralC/CFD-BM-241-235-N.jpg","img/neutralC/CFD-BM-036-003-N.jpg","img/neutralC/CFD-MF-301-024-N.jpg","1","1","1","0","1","0","0.51760089979507","0.340800100006163","0.447856299811974","1","1","1","1","1","1","1","1","1"
"250046","img/neutralC/CFD-MF-301-024-N.jpg","img/neutralC/CFD-BM-241-235-N.jpg","img/neutralC/CFD-LM-213-061-N.jpg","1","1","1","0","0","0","0.447856299811974","0.51760089979507","0.478707799920812","1","1","1","1","1","1","1","1","1"
"250046","img/neutralC/CFD-LM-213-061-N.jpg","img/neutralC/CFD-MF-301-024-N.jpg","img/neutralC/CFD-BF-044-034-N.jpg","1","1","1","0","0","0","0.478707799920812","0.447856299811974","0.459455299889669","1","1","1","1","1","1","1","1","1"
"250046","img/neutralC/CFD-BF-044-034-N.jpg","img/neutralC/CFD-LM-213-061-N.jpg",NA,"1","1",NA,"0","0",NA,"0.459455299889669","0.478707799920812",NA,"1","1",NA,"1","1",NA,"1","1",NA
"250046","img/neutralC/CFD-IM-689-263-N.jpg",NA,"img/neutralC/CFD-BM-227-191-N.jpg","1",NA,"1","1",NA,"1","0.758689700160176",NA,"0.43140250002034","1",NA,"1","1",NA,"1","1",NA,"1"
"250046","img/neutralC/CFD-BM-227-191-N.jpg","img/neutralC/CFD-IM-689-263-N.jpg","img/neutralC/CFD-IF-676-017-N.jpg","1","1","1","1","1","1","0.43140250002034","0.758689700160176","0.347449099877849","1","1","1","1","1","1","1","1","1"
"250046","img/neutralC/CFD-IF-676-017-N.jpg","img/neutralC/CFD-BM-227-191-N.jpg","img/neutralC/CFD-AM-249-163-N.jpg","1","1","0","1","1","1","0.347449099877849","0.43140250002034","0.346441099885851","1","1","1","1","1","1","1","1","1"
"250046","img/neutralC/CFD-AM-249-163-N.jpg","img/neutralC/CFD-IF-676-017-N.jpg","img/neutralC/CFD-BM-021-021-N.jpg","0","1","1","1","1","1","0.346441099885851","0.347449099877849","0.466610500123352","1","1","1","1","1","1","1","1","1"
"250046","img/neutralC/CFD-BM-021-021-N.jpg","img/neutralC/CFD-AM-249-163-N.jpg","img/neutralC/CFD-WF-221-005-N.jpg","1","0","0","1","1","0","0.466610500123352","0.346441099885851","0.517226199852303","1","1","1","1","1","1","1","1","1"
"250046","img/neutralC/CFD-WF-221-005-N.jpg","img/neutralC/CFD-BM-021-021-N.jpg","img/neutralC/CFD-BM-020-001-N.jpg","0","1","1","0","1","0","0.517226199852303","0.466610500123352","0.518330099992454","1","1","1","1","1","1","1","1","1"
"250046","img/neutralC/CFD-BM-020-001-N.jpg","img/neutralC/CFD-WF-221-005-N.jpg","img/neutralC/CFD-LF-212-066-N.jpg","1","0","1","0","0","1","0.518330099992454","0.517226199852303","0.505812600022182","1","1","1","1","1","1","1","1","1"
"250046","img/neutralC/CFD-LF-212-066-N.jpg","img/neutralC/CFD-BM-020-001-N.jpg","img/neutralC/CFD-WF-241-210-N.jpg","1","1","1","1","0","0","0.505812600022182","0.518330099992454","0.446872999891639","1","1","1","1","1","1","1","1","1"
"250046","img/neutralC/CFD-WF-241-210-N.jpg","img/neutralC/CFD-LF-212-066-N.jpg","img/neutralC/CFD-WF-009-001-N.jpg","1","1","1","0","1","1","0.446872999891639","0.505812600022182","0.534457999980077","1","1","1","1","1","1","1","1","1"
"250046","img/neutralC/CFD-WF-009-001-N.jpg","img/neutralC/CFD-WF-241-210-N.jpg","img/neutralC/CFD-IM-697-015-N.jpg","1","1","1","1","0","1","0.534457999980077","0.446872999891639","0.407398900017142","1","1","1","1","1","1","1","1","1"
"250046","img/neutralC/CFD-IM-697-015-N.jpg","img/neutralC/CFD-WF-009-001-N.jpg","img/neutralC/CFD-LF-238-154-N.jpg","1","1","1","1","1","1","0.407398900017142","0.534457999980077","0.394031699979678","1","1","1","1","1","1","1","1","1"
"250046","img/neutralC/CFD-LF-238-154-N.jpg","img/neutralC/CFD-IM-697-015-N.jpg","img/neutralC/CFD-BM-043-071-N.jpg","1","1","1","1","1","0","0.394031699979678","0.407398900017142","0.547057100106031","1","1","1","1","1","1","1","1","1"
"250046","img/neutralC/CFD-BM-043-071-N.jpg","img/neutralC/CFD-LF-238-154-N.jpg","img/neutralC/CFD-WM-023-001-N.jpg","1","1","1","0","1","0","0.547057100106031","0.394031699979678","0.408004200085998","1","1","1","1","1","1","1","1","1"
"250046","img/neutralC/CFD-WM-023-001-N.jpg","img/neutralC/CFD-BM-043-071-N.jpg","img/neutralC/CFD-LF-222-147-N.jpg","1","1","1","0","0","0","0.408004200085998","0.547057100106031","0.326841400004923","1","1","1","1","1","1","1","1","1"
"250046","img/neutralC/CFD-LF-222-147-N.jpg","img/neutralC/CFD-WM-023-001-N.jpg","img/neutralC/CFD-BM-030-003-N.jpg","1","1","0","0","0","0","0.326841400004923","0.408004200085998","0.370274299988523","1","1","1","1","1","1","1","1","1"
"250046","img/neutralC/CFD-BM-030-003-N.jpg","img/neutralC/CFD-LF-222-147-N.jpg","img/neutralC/CFD-AM-205-153-N.jpg","0","1","1","0","0","1","0.370274299988523","0.326841400004923","0.492633499903604","1","1","1","1","1","1","1","1","1"
"250046","img/neutralC/CFD-AM-205-153-N.jpg","img/neutralC/CFD-BM-030-003-N.jpg","img/neutralC/CFD-IM-606-008-N.jpg","1","0","1","1","0","0","0.492633499903604","0.370274299988523","0.460804499918595","1","1","1","1","1","1","1","1","1"
"250046","img/neutralC/CFD-IM-606-008-N.jpg","img/neutralC/CFD-AM-205-153-N.jpg","img/neutralC/CFD-BM-009-002-N.jpg","1","1","1","0","1","1","0.460804499918595","0.492633499903604","0.445385799976066","1","1","1","1","1","1","1","1","1"
"250046","img/neutralC/CFD-BM-009-002-N.jpg","img/neutralC/CFD-IM-606-008-N.jpg","img/neutralC/CFD-MF-328-020-N.jpg","1","1","1","1","0","0","0.445385799976066","0.460804499918595","1.01040069991723","1","1","1","1","1","1","1","1","1"
"250046","img/neutralC/CFD-MF-328-020-N.jpg","img/neutralC/CFD-BM-009-002-N.jpg","img/neutralC/CFD-LM-240-013-N.jpg","1","1","1","0","1","1","1.01040069991723","0.445385799976066","0.43148269993253","1","1","1","1","1","1","1","1","1"
"250046","img/neutralC/CFD-LM-240-013-N.jpg","img/neutralC/CFD-MF-328-020-N.jpg","img/neutralC/CFD-AM-219-101-N.jpg","1","1","1","1","0","0","0.43148269993253","1.01040069991723","0.443230499979109","1","1","1","1","1","1","1","1","1"
"250046","img/neutralC/CFD-AM-219-101-N.jpg","img/neutralC/CFD-LM-240-013-N.jpg","img/neutralC/CFD-BF-012-001-N.jpg","1","1","1","0","1","0","0.443230499979109","0.43148269993253","0.521866399794817","1","1","1","1","1","1","1","1","1"
"250046","img/neutralC/CFD-BF-012-001-N.jpg","img/neutralC/CFD-AM-219-101-N.jpg","img/neutralC/CFD-WF-243-148-N.jpg","1","1","1","0","0","0","0.521866399794817","0.443230499979109","0.476072800112888","1","1","1","1","1","1","1","1","1"
"250046","img/neutralC/CFD-WF-243-148-N.jpg","img/neutralC/CFD-BF-012-001-N.jpg","img/neutralC/CFD-WF-207-014-N.jpg","1","1","1","0","0","1","0.476072800112888","0.521866399794817","0.460904600098729","1","1","1","1","1","1","1","1","1"
"250046","img/neutralC/CFD-WF-207-014-N.jpg","img/neutralC/CFD-WF-243-148-N.jpg","img/neutralC/CFD-MM-306-010-N.jpg","1","1","1","1","0","0","0.460904600098729","0.476072800112888","0.453106499975547","1","1","1","1","1","1","1","1","1"
"250046","img/neutralC/CFD-MM-306-010-N.jpg","img/neutralC/CFD-WF-207-014-N.jpg","img/neutralC/CFD-WM-028-003-N.jpg","1","1","1","0","1","1","0.453106499975547","0.460904600098729","0.466670100111514","1","1","1","1","1","1","1","1","1"
"250046","img/neutralC/CFD-WM-028-003-N.jpg","img/neutralC/CFD-MM-306-010-N.jpg","img/neutralC/CFD-WM-025-002-N.jpg","1","1","1","1","0","0","0.466670100111514","0.453106499975547","0.507411200087517","1","1","1","1","1","1","1","1","1"
"250046","img/neutralC/CFD-WM-025-002-N.jpg","img/neutralC/CFD-WM-028-003-N.jpg","img/neutralC/CFD-IM-615-167-N.jpg","1","1","1","0","1","0","0.507411200087517","0.466670100111514","0.41122919996269","1","1","1","1","1","1","1","1","1"
"250046","img/neutralC/CFD-IM-615-167-N.jpg","img/neutralC/CFD-WM-025-002-N.jpg","img/neutralC/CFD-AF-237-223-N.jpg","1","1","1","0","0","0","0.41122919996269","0.507411200087517","0.391118500148878","1","1","1","1","1","1","1","1","1"
"250046","img/neutralC/CFD-AF-237-223-N.jpg","img/neutralC/CFD-IM-615-167-N.jpg","img/neutralC/CFD-BF-244-231-N.jpg","1","1","1","0","0","1","0.391118500148878","0.41122919996269","0.564817100064829","1","1","1","1","1","1","1","1","1"
"250046","img/neutralC/CFD-BF-244-231-N.jpg","img/neutralC/CFD-AF-237-223-N.jpg","img/neutralC/CFD-AM-243-212-N.jpg","1","1","1","1","0","1","0.564817100064829","0.391118500148878","0.430590400006622","1","1","1","1","1","1","1","1","1"
"250046","img/neutralC/CFD-AM-243-212-N.jpg","img/neutralC/CFD-BF-244-231-N.jpg",NA,"1","1",NA,"1","1",NA,"0.430590400006622","0.564817100064829",NA,"1","1",NA,"1","1",NA,"1","1",NA
"250046","img/neutralC/CFD-AF-250-200-N.jpg",NA,"img/neutralC/CFD-AF-213-126-N.jpg","1",NA,"1","1",NA,"1","0.486444700043648",NA,"0.455621999921277","1",NA,"1","1",NA,"1","1",NA,"1"
"250046","img/neutralC/CFD-AF-213-126-N.jpg","img/neutralC/CFD-AF-250-200-N.jpg","img/neutralC/CFD-AM-233-236-N.jpg","1","1","1","1","1","1","0.455621999921277","0.486444700043648","0.431831599911675","1","1","1","1","1","1","1","1","1"
"250046","img/neutralC/CFD-AM-233-236-N.jpg","img/neutralC/CFD-AF-213-126-N.jpg","img/neutralC/CFD-AM-225-102-N.jpg","1","1","1","1","1","0","0.431831599911675","0.455621999921277","0.469681600108743","1","1","1","1","1","1","1","1","1"
"250046","img/neutralC/CFD-AM-225-102-N.jpg","img/neutralC/CFD-AM-233-236-N.jpg","img/neutralC/CFD-WF-210-086-N.jpg","1","1","0","0","1","0","0.469681600108743","0.431831599911675","0.364245599834248","1","1","1","1","1","1","1","1","1"
"250046","img/neutralC/CFD-WF-210-086-N.jpg","img/neutralC/CFD-AM-225-102-N.jpg","img/neutralC/CFD-BM-004-002-N.jpg","0","1","1","0","0","0","0.364245599834248","0.469681600108743","0.493395400000736","1","1","1","1","1","1","1","1","1"
"250046","img/neutralC/CFD-BM-004-002-N.jpg","img/neutralC/CFD-WF-210-086-N.jpg","img/neutralC/CFD-LM-204-001-N.jpg","1","0","1","0","0","0","0.493395400000736","0.364245599834248","0.428647599881515","1","1","1","1","1","1","1","1","1"
"250046","img/neutralC/CFD-LM-204-001-N.jpg","img/neutralC/CFD-BM-004-002-N.jpg","img/neutralC/CFD-BF-217-189-N.jpg","1","1","1","0","0","0","0.428647599881515","0.493395400000736","0.457715299911797","1","1","1","1","1","1","1","1","1"
"250046","img/neutralC/CFD-BF-217-189-N.jpg","img/neutralC/CFD-LM-204-001-N.jpg","img/neutralC/CFD-WM-018-002-N.jpg","1","1","1","0","0","0","0.457715299911797","0.428647599881515","0.664303400088102","1","1","1","1","1","1","1","1","1"
"250046","img/neutralC/CFD-WM-018-002-N.jpg","img/neutralC/CFD-BF-217-189-N.jpg","img/neutralC/CFD-BF-206-143-N.jpg","1","1","1","0","0","1","0.664303400088102","0.457715299911797","0.445748200174421","1","1","1","1","1","1","1","1","1"
"250046","img/neutralC/CFD-BF-206-143-N.jpg","img/neutralC/CFD-WM-018-002-N.jpg","img/neutralC/CFD-AF-246-242-N.jpg","1","1","1","1","0","0","0.445748200174421","0.664303400088102","0.421362600056455","1","1","1","1","1","1","1","1","1"
"250046","img/neutralC/CFD-AF-246-242-N.jpg","img/neutralC/CFD-BF-206-143-N.jpg","img/neutralC/CFD-BF-235-168-N.jpg","1","1","1","0","1","1","0.421362600056455","0.445748200174421","0.423893300117925","1","1","1","1","1","1","1","1","1"
"250046","img/neutralC/CFD-BF-235-168-N.jpg","img/neutralC/CFD-AF-246-242-N.jpg","img/neutralC/CFD-MF-307-002-N.jpg","1","1","1","1","0","1","0.423893300117925","0.421362600056455","0.432237199973315","1","1","1","1","1","1","1","1","1"
"250046","img/neutralC/CFD-MF-307-002-N.jpg","img/neutralC/CFD-BF-235-168-N.jpg","img/neutralC/CFD-IM-635-010-N.jpg","1","1","1","1","1","1","0.432237199973315","0.423893300117925","0.398021399974823","1","1","1","1","1","1","1","1","1"
"250046","img/neutralC/CFD-IM-635-010-N.jpg","img/neutralC/CFD-MF-307-002-N.jpg","img/neutralC/CFD-IF-636-011-N.jpg","1","1","1","1","1","1","0.398021399974823","0.432237199973315","0.418103099800646","1","1","1","1","1","1","1","1","1"
"250046","img/neutralC/CFD-IF-636-011-N.jpg","img/neutralC/CFD-IM-635-010-N.jpg","img/neutralC/CFD-LM-241-125-N.jpg","1","1","1","1","1","1","0.418103099800646","0.398021399974823","0.394217099994421","1","1","1","1","1","1","1","1","1"
"250046","img/neutralC/CFD-LM-241-125-N.jpg","img/neutralC/CFD-IF-636-011-N.jpg","img/neutralC/CFD-MF-302-027-N.jpg","1","1","1","1","1","0","0.394217099994421","0.418103099800646","0.696210599970073","1","1","1","1","1","1","1","1","1"
"250046","img/neutralC/CFD-MF-302-027-N.jpg","img/neutralC/CFD-LM-241-125-N.jpg","img/neutralC/CFD-BM-215-155-N.jpg","1","1","1","0","1","0","0.696210599970073","0.394217099994421","0.463370299898088","1","1","1","1","1","1","1","1","1"
"250046","img/neutralC/CFD-BM-215-155-N.jpg","img/neutralC/CFD-MF-302-027-N.jpg","img/neutralC/CFD-LF-239-148-N.jpg","1","1","1","0","0","0","0.463370299898088","0.696210599970073","0.465094800107181","1","1","1","1","1","1","1","1","1"
"250046","img/neutralC/CFD-LF-239-148-N.jpg","img/neutralC/CFD-BM-215-155-N.jpg","img/neutralC/CFD-IF-732-260-N.jpg","1","1","1","0","0","0","0.465094800107181","0.463370299898088","0.527949400013313","1","1","1","1","1","1","1","1","1"
"250046","img/neutralC/CFD-IF-732-260-N.jpg","img/neutralC/CFD-LF-239-148-N.jpg","img/neutralC/CFD-BF-040-003-N.jpg","1","1","1","0","0","1","0.527949400013313","0.465094800107181","0.431212099967524","1","1","1","1","1","1","1","1","1"
"250046","img/neutralC/CFD-BF-040-003-N.jpg","img/neutralC/CFD-IF-732-260-N.jpg","img/neutralC/CFD-WF-235-121-N.jpg","1","1","1","1","0","0","0.431212099967524","0.527949400013313","0.566151499981061","1","1","1","1","1","1","1","1","1"
"250046","img/neutralC/CFD-WF-235-121-N.jpg","img/neutralC/CFD-BF-040-003-N.jpg","img/neutralC/CFD-AF-205-155-N.jpg","1","1","1","0","1","0","0.566151499981061","0.431212099967524","0.486497699981555","1","1","1","1","1","1","1","1","1"
"250046","img/neutralC/CFD-AF-205-155-N.jpg","img/neutralC/CFD-WF-235-121-N.jpg","img/neutralC/CFD-AF-244-168-N.jpg","1","1","1","0","0","0","0.486497699981555","0.566151499981061","0.521433100104332","1","1","1","1","1","1","1","1","1"
"250046","img/neutralC/CFD-AF-244-168-N.jpg","img/neutralC/CFD-AF-205-155-N.jpg","img/neutralC/CFD-IM-632-097-N.jpg","1","1","1","0","0","0","0.521433100104332","0.486497699981555","0.482314200140536","1","1","1","1","1","1","1","1","1"
"250046","img/neutralC/CFD-IM-632-097-N.jpg","img/neutralC/CFD-AF-244-168-N.jpg","img/neutralC/CFD-IM-669-111-N.jpg","1","1","1","0","0","1","0.482314200140536","0.521433100104332","0.427871200023219","1","1","1","1","1","1","1","1","1"
"250046","img/neutralC/CFD-IM-669-111-N.jpg","img/neutralC/CFD-IM-632-097-N.jpg","img/neutralC/CFD-BF-042-026-N.jpg","1","1","1","1","0","1","0.427871200023219","0.482314200140536","0.37159899994731","1","1","1","1","1","1","1","1","1"
"250046","img/neutralC/CFD-BF-042-026-N.jpg","img/neutralC/CFD-IM-669-111-N.jpg","img/neutralC/CFD-WM-253-119-N.jpg","1","1","1","1","1","1","0.37159899994731","0.427871200023219","0.397862900048494","1","1","1","1","1","1","1","1","1"
"250046","img/neutralC/CFD-WM-253-119-N.jpg","img/neutralC/CFD-BF-042-026-N.jpg","img/neutralC/CFD-IM-678-482-N.jpg","1","1","1","1","1","0","0.397862900048494","0.37159899994731","0.41612539999187","1","1","1","1","1","1","1","1","1"
"250046","img/neutralC/CFD-IM-678-482-N.jpg","img/neutralC/CFD-WM-253-119-N.jpg","img/neutralC/CFD-AM-245-111-N.jpg","1","1","1","0","1","1","0.41612539999187","0.397862900048494","0.395468499977142","1","1","1","1","1","1","1","1","1"
"250046","img/neutralC/CFD-AM-245-111-N.jpg","img/neutralC/CFD-IM-678-482-N.jpg","img/neutralC/CFD-AF-234-208-N.jpg","1","1","1","1","0","1","0.395468499977142","0.41612539999187","0.418280800106004","1","1","1","1","1","1","1","1","1"
"250046","img/neutralC/CFD-AF-234-208-N.jpg","img/neutralC/CFD-AM-245-111-N.jpg","img/neutralC/CFD-BF-020-002-N.jpg","1","1","1","1","1","1","0.418280800106004","0.395468499977142","0.41836000001058","1","1","1","1","1","1","1","1","1"
"250046","img/neutralC/CFD-BF-020-002-N.jpg","img/neutralC/CFD-AF-234-208-N.jpg",NA,"1","1",NA,"1","1",NA,"0.41836000001058","0.418280800106004",NA,"1","1",NA,"1","1",NA,"1","1",NA
"250046","img/neutralC/CFD-BF-038-037-N.jpg",NA,"img/neutralC/CFD-LF-220-120-N.jpg","1",NA,"1","1",NA,"1","0.629883199930191",NA,"0.425345400115475","1",NA,"1","1",NA,"1","1",NA,"1"
"250046","img/neutralC/CFD-LF-220-120-N.jpg","img/neutralC/CFD-BF-038-037-N.jpg","img/neutralC/CFD-LM-228-188-N.jpg","1","1","1","1","1","1","0.425345400115475","0.629883199930191","0.433916699839756","1","1","1","1","1","1","1","1","1"
"250046","img/neutralC/CFD-LM-228-188-N.jpg","img/neutralC/CFD-LF-220-120-N.jpg","img/neutralC/CFD-IM-645-001-N.jpg","1","1","1","1","1","0","0.433916699839756","0.425345400115475","0.453620899934322","1","1","1","1","1","1","1","1","1"
"250046","img/neutralC/CFD-IM-645-001-N.jpg","img/neutralC/CFD-LM-228-188-N.jpg","img/neutralC/CFD-WM-004-010-N.jpg","1","1","1","0","1","0","0.453620899934322","0.433916699839756","0.384286500047892","1","1","1","1","1","1","1","1","1"
"250046","img/neutralC/CFD-WM-004-010-N.jpg","img/neutralC/CFD-IM-645-001-N.jpg","img/neutralC/CFD-AM-211-052-N.jpg","1","1","1","0","0","1","0.384286500047892","0.453620899934322","0.413755999878049","1","1","1","1","1","1","1","1","1"
"250046","img/neutralC/CFD-AM-211-052-N.jpg","img/neutralC/CFD-WM-004-010-N.jpg","img/neutralC/CFD-WM-235-147-N.jpg","1","1","1","1","0","0","0.413755999878049","0.384286500047892","0.468332199845463","1","1","1","1","1","1","1","1","1"
"250046","img/neutralC/CFD-WM-235-147-N.jpg","img/neutralC/CFD-AM-211-052-N.jpg","img/neutralC/CFD-BM-253-004-N.jpg","1","1","1","0","1","1","0.468332199845463","0.413755999878049","0.427150999894366","1","1","1","1","1","1","1","1","1"
"250046","img/neutralC/CFD-BM-253-004-N.jpg","img/neutralC/CFD-WM-235-147-N.jpg","img/neutralC/CFD-IM-671-601-N.jpg","1","1","1","1","0","0","0.427150999894366","0.468332199845463","0.443234300008044","1","1","1","1","1","1","1","1","1"
"250046","img/neutralC/CFD-IM-671-601-N.jpg","img/neutralC/CFD-BM-253-004-N.jpg","img/neutralC/CFD-WF-001-003-N.jpg","1","1","1","0","1","1","0.443234300008044","0.427150999894366","0.408222999889404","1","1","1","1","1","1","1","1","1"
"250046","img/neutralC/CFD-WF-001-003-N.jpg","img/neutralC/CFD-IM-671-601-N.jpg","img/neutralC/CFD-LF-218-072-N.jpg","1","1","1","1","0","0","0.408222999889404","0.443234300008044","0.533865799894556","1","1","1","1","1","1","1","1","1"
"250046","img/neutralC/CFD-LF-218-072-N.jpg","img/neutralC/CFD-WF-001-003-N.jpg","img/neutralC/CFD-WF-214-122-N.jpg","1","1","1","0","1","1","0.533865799894556","0.408222999889404","0.360310199903324","1","1","1","1","1","1","1","1","1"
"250046","img/neutralC/CFD-WF-214-122-N.jpg","img/neutralC/CFD-LF-218-072-N.jpg","img/neutralC/CFD-WF-036-023-N.jpg","1","1","1","1","0","0","0.360310199903324","0.533865799894556","0.395192899974063","1","1","1","1","1","1","1","1","1"
"250046","img/neutralC/CFD-WF-036-023-N.jpg","img/neutralC/CFD-WF-214-122-N.jpg","img/neutralC/CFD-WF-200-099-N.jpg","1","1","0","0","1","0","0.395192899974063","0.360310199903324","0.434881000081077","1","1","1","1","1","1","1","1","2"
"250046","img/neutralC/CFD-WF-200-099-N.jpg","img/neutralC/CFD-WF-036-023-N.jpg","img/neutralC/CFD-MF-333-012-N.jpg","0","1","1","0","0","0","0.434881000081077","0.395192899974063","0.429338699905202","1","1","1","1","1","1","2","1","1"
"250046","img/neutralC/CFD-MF-333-012-N.jpg","img/neutralC/CFD-WF-200-099-N.jpg","img/neutralC/CFD-IM-743-006-N.jpg","1","0","1","0","0","1","0.429338699905202","0.434881000081077","0.406977099832147","1","1","1","1","1","1","1","2","1"
"250046","img/neutralC/CFD-IM-743-006-N.jpg","img/neutralC/CFD-MF-333-012-N.jpg","img/neutralC/CFD-BF-229-179-N.jpg","1","1","1","1","0","0","0.406977099832147","0.429338699905202","0.404620199929923","1","1","1","1","1","1","1","1","1"
"250046","img/neutralC/CFD-BF-229-179-N.jpg","img/neutralC/CFD-IM-743-006-N.jpg","img/neutralC/CFD-WM-020-001-N.jpg","1","1","1","0","1","1","0.404620199929923","0.406977099832147","0.406827199971303","1","1","1","1","1","1","1","1","1"
"250046","img/neutralC/CFD-WM-020-001-N.jpg","img/neutralC/CFD-BF-229-179-N.jpg","img/neutralC/CFD-MF-352-054-N.jpg","1","1","1","1","0","0","0.406827199971303","0.404620199929923","0.430550899822265","1","1","1","1","1","1","1","1","1"
"250046","img/neutralC/CFD-MF-352-054-N.jpg","img/neutralC/CFD-WM-020-001-N.jpg","img/neutralC/CFD-IF-623-129-N.jpg","1","1","1","0","1","1","0.430550899822265","0.406827199971303","0.366814699955285","1","1","1","1","1","1","1","1","1"
"250046","img/neutralC/CFD-IF-623-129-N.jpg","img/neutralC/CFD-MF-352-054-N.jpg","img/neutralC/CFD-IF-650-315-N.jpg","1","1","1","1","0","0","0.366814699955285","0.430550899822265","0.41049430007115","1","1","1","1","1","1","1","1","1"
"250046","img/neutralC/CFD-IF-650-315-N.jpg","img/neutralC/CFD-IF-623-129-N.jpg","img/neutralC/CFD-LM-237-264-N.jpg","1","1","1","0","1","0","0.41049430007115","0.366814699955285","0.503733000019565","1","1","1","1","1","1","1","1","1"
"250046","img/neutralC/CFD-LM-237-264-N.jpg","img/neutralC/CFD-IF-650-315-N.jpg","img/neutralC/CFD-AM-251-124-N.jpg","1","1","0","0","0","0","0.503733000019565","0.41049430007115","0.41003549983725","1","1","1","1","1","1","1","1","1"
"250046","img/neutralC/CFD-AM-251-124-N.jpg","img/neutralC/CFD-LM-237-264-N.jpg","img/neutralC/CFD-BF-226-119-N.jpg","0","1","1","0","0","1","0.41003549983725","0.503733000019565","0.467241199919954","1","1","1","1","1","1","1","1","1"
"250046","img/neutralC/CFD-BF-226-119-N.jpg","img/neutralC/CFD-AM-251-124-N.jpg","img/neutralC/CFD-BM-225-154-N.jpg","1","0","1","1","0","1","0.467241199919954","0.41003549983725","0.322133400011808","1","1","1","1","1","1","1","1","1"
"250046","img/neutralC/CFD-BM-225-154-N.jpg","img/neutralC/CFD-BF-226-119-N.jpg","img/neutralC/CFD-AM-242-176-N.jpg","1","1","1","1","1","1","0.322133400011808","0.467241199919954","0.543500599917024","1","1","1","1","1","1","1","1","1"
"250046","img/neutralC/CFD-AM-242-176-N.jpg","img/neutralC/CFD-BM-225-154-N.jpg","img/neutralC/CFD-BF-232-187-N.jpg","1","1","1","1","1","1","0.543500599917024","0.322133400011808","0.434478299925104","1","1","1","1","1","1","1","1","1"
"250046","img/neutralC/CFD-BF-232-187-N.jpg","img/neutralC/CFD-AM-242-176-N.jpg","img/neutralC/CFD-IM-703-182-N.jpg","1","1","1","1","1","1","0.434478299925104","0.543500599917024","0.398411200148985","1","1","1","1","1","1","1","1","1"
"250046","img/neutralC/CFD-IM-703-182-N.jpg","img/neutralC/CFD-BF-232-187-N.jpg","img/neutralC/CFD-IM-616-214-N.jpg","1","1","0","1","1","0","0.398411200148985","0.434478299925104","0.435194999910891","1","1","1","1","1","1","1","1","1"
"250046","img/neutralC/CFD-IM-616-214-N.jpg","img/neutralC/CFD-IM-703-182-N.jpg","img/neutralC/CFD-WM-033-025-N.jpg","0","1","1","0","1","1","0.435194999910891","0.398411200148985","0.488442100118846","1","1","1","1","1","1","1","1","1"
"250046","img/neutralC/CFD-WM-033-025-N.jpg","img/neutralC/CFD-IM-616-214-N.jpg","img/neutralC/CFD-WM-219-008-N.jpg","1","0","1","1","0","0","0.488442100118846","0.435194999910891","0.567889899946749","1","1","1","1","1","1","1","1","1"
"250046","img/neutralC/CFD-WM-219-008-N.jpg","img/neutralC/CFD-WM-033-025-N.jpg","img/neutralC/CFD-MF-359-019-N.jpg","1","1","1","0","1","0","0.567889899946749","0.488442100118846","0.453880000161007","1","1","1","1","1","1","1","1","1"
"250046","img/neutralC/CFD-MF-359-019-N.jpg","img/neutralC/CFD-WM-219-008-N.jpg",NA,"1","1",NA,"0","0",NA,"0.453880000161007","0.567889899946749",NA,"1","1",NA,"1","1",NA,"1","1",NA
"250046","img/neutralC/CFD-IF-665-015-N.jpg",NA,"img/neutralC/CFD-BM-005-003-N.jpg","1",NA,"1","0",NA,"1","0.670358099974692",NA,"0.460711800027639","1",NA,"1","1",NA,"1","1",NA,"1"
"250046","img/neutralC/CFD-BM-005-003-N.jpg","img/neutralC/CFD-IF-665-015-N.jpg","img/neutralC/CFD-WF-209-052-N.jpg","1","1","1","1","0","1","0.460711800027639","0.670358099974692","0.345278900116682","1","1","1","1","1","1","1","1","1"
"250046","img/neutralC/CFD-WF-209-052-N.jpg","img/neutralC/CFD-BM-005-003-N.jpg","img/neutralC/CFD-MF-313-002-N.jpg","1","1","1","1","1","0","0.345278900116682","0.460711800027639","0.342111699981615","1","1","1","1","1","1","1","1","1"
"250046","img/neutralC/CFD-MF-313-002-N.jpg","img/neutralC/CFD-WF-209-052-N.jpg","img/neutralC/CFD-BM-231-155-N.jpg","1","1","1","0","1","1","0.342111699981615","0.345278900116682","0.422252800082788","1","1","1","1","1","1","1","1","1"
"250046","img/neutralC/CFD-BM-231-155-N.jpg","img/neutralC/CFD-MF-313-002-N.jpg","img/neutralC/CFD-BM-026-002-N.jpg","1","1","1","1","0","0","0.422252800082788","0.342111699981615","0.41164859989658","1","1","1","1","1","1","1","1","1"
"250046","img/neutralC/CFD-BM-026-002-N.jpg","img/neutralC/CFD-BM-231-155-N.jpg","img/neutralC/CFD-LF-242-121-N.jpg","1","1","1","0","1","0","0.41164859989658","0.422252800082788","0.461887899786234","1","1","1","1","1","1","1","1","1"
"250046","img/neutralC/CFD-LF-242-121-N.jpg","img/neutralC/CFD-BM-026-002-N.jpg","img/neutralC/CFD-LF-245-166-N.jpg","1","1","1","0","0","1","0.461887899786234","0.41164859989658","0.487921199994162","1","1","1","1","1","1","1","1","1"
"250046","img/neutralC/CFD-LF-245-166-N.jpg","img/neutralC/CFD-LF-242-121-N.jpg","img/neutralC/CFD-WM-227-099-N.jpg","1","1","1","1","0","1","0.487921199994162","0.461887899786234","0.395440999884158","1","1","1","1","1","1","1","1","1"
"250046","img/neutralC/CFD-WM-227-099-N.jpg","img/neutralC/CFD-LF-245-166-N.jpg","img/neutralC/CFD-IM-617-174-N.jpg","1","1","1","1","1","0","0.395440999884158","0.487921199994162","0.403267099987715","1","1","1","1","1","1","1","1","1"
"250046","img/neutralC/CFD-IM-617-174-N.jpg","img/neutralC/CFD-WM-227-099-N.jpg","img/neutralC/CFD-BM-212-117-N.jpg","1","1","1","0","1","0","0.403267099987715","0.395440999884158","0.368620699970052","1","1","1","1","1","1","1","1","1"
"250046","img/neutralC/CFD-BM-212-117-N.jpg","img/neutralC/CFD-IM-617-174-N.jpg","img/neutralC/CFD-AF-241-141-N.jpg","1","1","1","0","0","1","0.368620699970052","0.403267099987715","0.479844099842012","1","1","1","1","1","1","1","1","1"
"250046","img/neutralC/CFD-AF-241-141-N.jpg","img/neutralC/CFD-BM-212-117-N.jpg","img/neutralC/CFD-IM-657-308-N.jpg","1","1","1","1","0","0","0.479844099842012","0.368620699970052","0.562338900053874","1","1","1","1","1","1","1","1","1"
"250046","img/neutralC/CFD-IM-657-308-N.jpg","img/neutralC/CFD-AF-241-141-N.jpg","img/neutralC/CFD-AF-202-122-N.jpg","1","1","1","0","1","1","0.562338900053874","0.479844099842012","0.422548700124025","1","1","1","1","1","1","1","1","1"
"250046","img/neutralC/CFD-AF-202-122-N.jpg","img/neutralC/CFD-IM-657-308-N.jpg","img/neutralC/CFD-LM-226-175-N.jpg","1","1","1","1","0","0","0.422548700124025","0.562338900053874","0.473449700046331","1","1","1","1","1","1","1","1","1"
"250046","img/neutralC/CFD-LM-226-175-N.jpg","img/neutralC/CFD-AF-202-122-N.jpg","img/neutralC/CFD-BF-010-001-N.jpg","1","1","1","0","1","1","0.473449700046331","0.422548700124025","0.340583000099286","1","1","1","1","1","1","1","1","1"
"250046","img/neutralC/CFD-BF-010-001-N.jpg","img/neutralC/CFD-LM-226-175-N.jpg","img/neutralC/CFD-LF-247-051-N.jpg","1","1","1","1","0","1","0.340583000099286","0.473449700046331","0.380086899967864","1","1","1","1","1","1","1","1","1"
"250046","img/neutralC/CFD-LF-247-051-N.jpg","img/neutralC/CFD-BF-010-001-N.jpg","img/neutralC/CFD-IF-620-218-N.jpg","1","1","1","1","1","0","0.380086899967864","0.340583000099286","0.561904200119898","1","1","1","1","1","1","1","1","1"
"250046","img/neutralC/CFD-IF-620-218-N.jpg","img/neutralC/CFD-LF-247-051-N.jpg","img/neutralC/CFD-WM-242-011-N.jpg","1","1","1","0","1","0","0.561904200119898","0.380086899967864","0.532461799914017","1","1","1","1","1","1","1","1","1"
"250046","img/neutralC/CFD-WM-242-011-N.jpg","img/neutralC/CFD-IF-620-218-N.jpg","img/neutralC/CFD-IM-638-250-1-N.jpg","1","1","1","0","0","1","0.532461799914017","0.561904200119898","0.49179989984259","1","1","1","1","1","1","1","1","1"
"250046","img/neutralC/CFD-IM-638-250-1-N.jpg","img/neutralC/CFD-WM-242-011-N.jpg","img/neutralC/CFD-LM-219-295-N.jpg","1","1","1","1","0","1","0.49179989984259","0.532461799914017","0.387171200010926","1","1","1","1","1","1","1","1","1"
"250046","img/neutralC/CFD-LM-219-295-N.jpg","img/neutralC/CFD-IM-638-250-1-N.jpg","img/neutralC/CFD-AF-206-079-N.jpg","1","1","1","1","1","1","0.387171200010926","0.49179989984259","0.48948370013386","1","1","1","1","1","1","1","1","1"
"250046","img/neutralC/CFD-AF-206-079-N.jpg","img/neutralC/CFD-LM-219-295-N.jpg","img/neutralC/CFD-IM-686-097-N.jpg","1","1","1","1","1","0","0.48948370013386","0.387171200010926","0.395566300023347","1","1","1","1","1","1","1","1","1"
"250046","img/neutralC/CFD-IM-686-097-N.jpg","img/neutralC/CFD-AF-206-079-N.jpg","img/neutralC/CFD-LM-233-171-N.jpg","1","1","1","0","1","0","0.395566300023347","0.48948370013386","0.524011200061068","1","1","1","1","1","1","1","1","1"
"250046","img/neutralC/CFD-LM-233-171-N.jpg","img/neutralC/CFD-IM-686-097-N.jpg","img/neutralC/CFD-WM-017-002-N.jpg","1","1","1","0","0","0","0.524011200061068","0.395566300023347","0.504107999848202","1","1","1","1","1","1","1","1","1"
"250046","img/neutralC/CFD-WM-017-002-N.jpg","img/neutralC/CFD-LM-233-171-N.jpg","img/neutralC/CFD-IM-727-195-N.jpg","1","1","1","0","0","1","0.504107999848202","0.524011200061068","0.432644099928439","1","1","1","1","1","1","1","1","1"
"250046","img/neutralC/CFD-IM-727-195-N.jpg","img/neutralC/CFD-WM-017-002-N.jpg","img/neutralC/CFD-BM-018-001-N.jpg","1","1","1","1","0","1","0.432644099928439","0.504107999848202","0.425278600072488","1","1","1","1","1","1","1","1","1"
"250046","img/neutralC/CFD-BM-018-001-N.jpg","img/neutralC/CFD-IM-727-195-N.jpg","img/neutralC/CFD-BF-238-190-N.jpg","1","1","1","1","1","1","0.425278600072488","0.432644099928439","0.550262700067833","1","1","1","1","1","1","1","1","1"
"250046","img/neutralC/CFD-BF-238-190-N.jpg","img/neutralC/CFD-BM-018-001-N.jpg","img/neutralC/CFD-LF-250-169-N.jpg","1","1","1","1","1","1","0.550262700067833","0.425278600072488","0.394619999919087","1","1","1","1","1","1","1","1","1"
"250046","img/neutralC/CFD-LF-250-169-N.jpg","img/neutralC/CFD-BF-238-190-N.jpg","img/neutralC/CFD-WM-258-125-N.jpg","1","1","1","1","1","0","0.394619999919087","0.550262700067833","0.557614899938926","1","1","1","1","1","1","1","1","1"
"250046","img/neutralC/CFD-WM-258-125-N.jpg","img/neutralC/CFD-LF-250-169-N.jpg","img/neutralC/CFD-IM-653-008-N.jpg","1","1","1","0","1","0","0.557614899938926","0.394619999919087","0.499322599964216","1","1","1","1","1","1","1","1","1"
"250046","img/neutralC/CFD-IM-653-008-N.jpg","img/neutralC/CFD-WM-258-125-N.jpg","img/neutralC/CFD-BF-033-028-N.jpg","1","1","1","0","0","0","0.499322599964216","0.557614899938926","0.353493700036779","1","1","1","1","1","1","1","1","1"
"250046","img/neutralC/CFD-BF-033-028-N.jpg","img/neutralC/CFD-IM-653-008-N.jpg",NA,"1","1",NA,"0","0",NA,"0.353493700036779","0.499322599964216",NA,"1","1",NA,"1","1",NA,"1","1",NA
"250046","img/neutralC/CFD-MF-300-002-N.jpg",NA,"img/neutralC/CFD-BF-224-002-N.jpg","1",NA,"1","0",NA,"1","0.456719800131395",NA,"0.440591999795288","1",NA,"1","1",NA,"1","1",NA,"1"
"250046","img/neutralC/CFD-BF-224-002-N.jpg","img/neutralC/CFD-MF-300-002-N.jpg","img/neutralC/CFD-IM-637-007-N.jpg","1","1","1","1","0","0","0.440591999795288","0.456719800131395","0.457433799980208","1","1","1","1","1","1","1","1","1"
"250046","img/neutralC/CFD-IM-637-007-N.jpg","img/neutralC/CFD-BF-224-002-N.jpg","img/neutralC/CFD-IM-604-014-N.jpg","1","1","1","0","1","0","0.457433799980208","0.440591999795288","0.519540700130165","1","1","1","1","1","1","1","1","1"
"250046","img/neutralC/CFD-IM-604-014-N.jpg","img/neutralC/CFD-IM-637-007-N.jpg","img/neutralC/CFD-MM-304-002-N.jpg","1","1","1","0","0","1","0.519540700130165","0.457433799980208","0.396757500013336","1","1","1","1","1","1","1","1","1"
"250046","img/neutralC/CFD-MM-304-002-N.jpg","img/neutralC/CFD-IM-604-014-N.jpg","img/neutralC/CFD-AF-229-160-N.jpg","1","1","1","1","0","0","0.396757500013336","0.519540700130165","0.461746599990874","1","1","1","1","1","1","1","1","1"
"250046","img/neutralC/CFD-AF-229-160-N.jpg","img/neutralC/CFD-MM-304-002-N.jpg","img/neutralC/CFD-IF-619-197-N.jpg","1","1","1","0","1","0","0.461746599990874","0.396757500013336","0.542421800084412","1","1","1","1","1","1","1","1","1"
"250046","img/neutralC/CFD-IF-619-197-N.jpg","img/neutralC/CFD-AF-229-160-N.jpg","img/neutralC/CFD-WM-213-076-N.jpg","1","1","1","0","0","1","0.542421800084412","0.461746599990874","0.651663800003007","1","1","1","1","1","1","1","1","1"
"250046","img/neutralC/CFD-WM-213-076-N.jpg","img/neutralC/CFD-IF-619-197-N.jpg","img/neutralC/CFD-BM-243-218-N.jpg","1","1","1","1","0","1","0.651663800003007","0.542421800084412","0.426535000093281","1","1","1","1","1","1","1","1","1"
"250046","img/neutralC/CFD-BM-243-218-N.jpg","img/neutralC/CFD-WM-213-076-N.jpg","img/neutralC/CFD-LM-217-162-N.jpg","1","1","1","1","1","0","0.426535000093281","0.651663800003007","0.493477500043809","1","1","1","1","1","1","1","1","1"
"250046","img/neutralC/CFD-LM-217-162-N.jpg","img/neutralC/CFD-BM-243-218-N.jpg","img/neutralC/CFD-MF-340-026-N.jpg","1","1","1","0","1","1","0.493477500043809","0.426535000093281","0.470247899880633","1","1","1","1","1","1","1","1","1"
"250046","img/neutralC/CFD-MF-340-026-N.jpg","img/neutralC/CFD-LM-217-162-N.jpg","img/neutralC/CFD-WF-248-129-N.jpg","1","1","1","1","0","0","0.470247899880633","0.493477500043809","0.525274399900809","1","1","1","1","1","1","1","1","1"
"250046","img/neutralC/CFD-WF-248-129-N.jpg","img/neutralC/CFD-MF-340-026-N.jpg","img/neutralC/CFD-WF-012-002-N.jpg","1","1","1","0","1","1","0.525274399900809","0.470247899880633","0.554917600005865","1","1","1","1","1","1","1","1","1"
"250046","img/neutralC/CFD-WF-012-002-N.jpg","img/neutralC/CFD-WF-248-129-N.jpg","img/neutralC/CFD-BM-039-029-N.jpg","1","1","1","1","0","1","0.554917600005865","0.525274399900809","0.467739999992773","1","1","1","1","1","1","1","1","1"
"250046","img/neutralC/CFD-BM-039-029-N.jpg","img/neutralC/CFD-WF-012-002-N.jpg","img/neutralC/CFD-WF-008-002-N.jpg","1","1","1","1","1","1","0.467739999992773","0.554917600005865","0.49104079999961","1","1","1","1","1","1","1","1","1"
"250046","img/neutralC/CFD-WF-008-002-N.jpg","img/neutralC/CFD-BM-039-029-N.jpg","img/neutralC/CFD-WM-232-070-N.jpg","1","1","1","1","1","0","0.49104079999961","0.467739999992773","0.385296700056642","1","1","1","1","1","1","1","1","1"
"250046","img/neutralC/CFD-WM-232-070-N.jpg","img/neutralC/CFD-WF-008-002-N.jpg","img/neutralC/CFD-AM-236-090-N.jpg","1","1","1","0","1","1","0.385296700056642","0.49104079999961","0.429007900180295","1","1","1","1","1","1","1","1","1"
"250046","img/neutralC/CFD-AM-236-090-N.jpg","img/neutralC/CFD-WM-232-070-N.jpg","img/neutralC/CFD-WF-212-050-N.jpg","1","1","0","1","0","0","0.429007900180295","0.385296700056642","0.73178380005993","1","1","1","1","1","1","1","1","1"
"250046","img/neutralC/CFD-WF-212-050-N.jpg","img/neutralC/CFD-AM-236-090-N.jpg","img/neutralC/CFD-MF-327-002-N.jpg","0","1","0","0","1","0","0.73178380005993","0.429007900180295","0.517676399787888","1","1","1","1","1","1","1","1","1"
"250046","img/neutralC/CFD-MF-327-002-N.jpg","img/neutralC/CFD-WF-212-050-N.jpg","img/neutralC/CFD-LF-201-035-N.jpg","0","0","1","0","0","1","0.517676399787888","0.73178380005993","0.423158900113776","1","1","1","1","1","1","1","1","1"
"250046","img/neutralC/CFD-LF-201-035-N.jpg","img/neutralC/CFD-MF-327-002-N.jpg","img/neutralC/CFD-AF-215-70-N.jpg","1","0","1","1","0","0","0.423158900113776","0.517676399787888","0.548392800148576","1","1","1","1","1","1","1","1","1"
"250046","img/neutralC/CFD-AF-215-70-N.jpg","img/neutralC/CFD-LF-201-035-N.jpg","img/neutralC/CFD-IM-709-103-N.jpg","1","1","1","0","1","0","0.548392800148576","0.423158900113776","0.775615399936214","1","1","1","1","1","1","1","1","1"
"250046","img/neutralC/CFD-IM-709-103-N.jpg","img/neutralC/CFD-AF-215-70-N.jpg","img/neutralC/CFD-IM-685-004-N.jpg","1","1","1","0","0","1","0.775615399936214","0.548392800148576","0.444538699928671","1","1","1","1","1","1","1","1","1"
"250046","img/neutralC/CFD-IM-685-004-N.jpg","img/neutralC/CFD-IM-709-103-N.jpg","img/neutralC/CFD-BF-051-035-N.jpg","1","1","1","1","0","0","0.444538699928671","0.775615399936214","0.720277099870145","1","1","1","1","1","1","1","1","1"
"250046","img/neutralC/CFD-BF-051-035-N.jpg","img/neutralC/CFD-IM-685-004-N.jpg","img/neutralC/CFD-IM-675-015-N.jpg","1","1","1","0","1","1","0.720277099870145","0.444538699928671","0.470747400075197","1","1","1","1","1","1","1","1","1"
"250046","img/neutralC/CFD-IM-675-015-N.jpg","img/neutralC/CFD-BF-051-035-N.jpg","img/neutralC/CFD-MF-329-001-N.jpg","1","1","1","1","0","0","0.470747400075197","0.720277099870145","0.539297400042415","1","1","1","1","1","1","1","1","1"
"250046","img/neutralC/CFD-MF-329-001-N.jpg","img/neutralC/CFD-IM-675-015-N.jpg","img/neutralC/CFD-WM-024-015-N.jpg","1","1","1","0","1","1","0.539297400042415","0.470747400075197","0.501936199842021","1","1","1","1","1","1","1","1","1"
"250046","img/neutralC/CFD-WM-024-015-N.jpg","img/neutralC/CFD-MF-329-001-N.jpg","img/neutralC/CFD-LF-226-174-N.jpg","1","1","1","1","0","0","0.501936199842021","0.539297400042415","0.510521200019866","1","1","1","1","1","1","1","1","1"
"250046","img/neutralC/CFD-LF-226-174-N.jpg","img/neutralC/CFD-WM-024-015-N.jpg","img/neutralC/CFD-BF-043-003-N.jpg","1","1","1","0","1","0","0.510521200019866","0.501936199842021","0.556545699946582","1","1","1","1","1","1","1","1","1"
"250046","img/neutralC/CFD-BF-043-003-N.jpg","img/neutralC/CFD-LF-226-174-N.jpg","img/neutralC/CFD-WF-217-085-N.jpg","1","1","1","0","0","1","0.556545699946582","0.510521200019866","0.423976599937305","1","1","1","1","1","1","1","1","1"
"250046","img/neutralC/CFD-WF-217-085-N.jpg","img/neutralC/CFD-BF-043-003-N.jpg","img/neutralC/CFD-AF-254-167-N.jpg","1","1","1","1","0","1","0.423976599937305","0.556545699946582","0.414706600131467","1","1","1","1","1","1","1","1","1"
"250046","img/neutralC/CFD-AF-254-167-N.jpg","img/neutralC/CFD-WF-217-085-N.jpg","img/neutralC/CFD-IF-608-390-N.jpg","1","1","1","1","1","1","0.414706600131467","0.423976599937305","0.415507799945772","1","1","1","1","1","1","1","1","1"
"250046","img/neutralC/CFD-IF-608-390-N.jpg","img/neutralC/CFD-AF-254-167-N.jpg",NA,"1","1",NA,"1","1",NA,"0.415507799945772","0.414706600131467",NA,"1","1",NA,"1","1",NA,"1","1",NA
