"participant_id","current_trial_face","pre_trial_face","post_trial_face","current_trial_accuracy","pre_trial_accuracy","post_trial_accuracy","current_trial_congruency","pre_trial_congruency","post_trial_congruency","current_trial_rt","pre_trial_rt","post_trial_rt","current_trial_responded","pre_trial_responded","post_trial_responded","current_trial_legitResponse","pre_trial_legitResponse","post_trial_legitResponse","current_trial_resp_nums","pre_trial_resp_nums","post_trial_resp_nums"
"250040","img/neutralC/CFD-WF-200-099-N.jpg",NA,"img/neutralC/CFD-AM-251-124-N.jpg","1",NA,"1","0",NA,"0","1.28823779989034",NA,"0.690160400001332","1",NA,"1","1",NA,"1","1",NA,"1"
"250040","img/neutralC/CFD-AM-251-124-N.jpg","img/neutralC/CFD-WF-200-099-N.jpg","img/neutralC/CFD-LM-237-264-N.jpg","1","1","1","0","0","0","0.690160400001332","1.28823779989034","0.700334200169891","1","1","1","1","1","1","1","1","1"
"250040","img/neutralC/CFD-LM-237-264-N.jpg","img/neutralC/CFD-AM-251-124-N.jpg","img/neutralC/CFD-IM-743-006-N.jpg","1","1","1","0","0","1","0.700334200169891","0.690160400001332","0.576842100126669","1","1","1","1","1","1","1","1","1"
"250040","img/neutralC/CFD-IM-743-006-N.jpg","img/neutralC/CFD-LM-237-264-N.jpg","img/neutralC/CFD-WM-004-010-N.jpg","1","1","1","1","0","0","0.576842100126669","0.700334200169891","0.698182799853384","1","1","1","1","1","1","1","1","1"
"250040","img/neutralC/CFD-WM-004-010-N.jpg","img/neutralC/CFD-IM-743-006-N.jpg","img/neutralC/CFD-WM-033-025-N.jpg","1","1","1","0","1","1","0.698182799853384","0.576842100126669","0.634935499867424","1","1","1","1","1","1","1","1","1"
"250040","img/neutralC/CFD-WM-033-025-N.jpg","img/neutralC/CFD-WM-004-010-N.jpg","img/neutralC/CFD-WM-020-001-N.jpg","1","1","1","1","0","1","0.634935499867424","0.698182799853384","0.643360099988058","1","1","1","1","1","1","1","1","1"
"250040","img/neutralC/CFD-WM-020-001-N.jpg","img/neutralC/CFD-WM-033-025-N.jpg","img/neutralC/CFD-LF-218-072-N.jpg","1","1","1","1","1","0","0.643360099988058","0.634935499867424","0.715711500030011","1","1","1","1","1","1","1","1","1"
"250040","img/neutralC/CFD-LF-218-072-N.jpg","img/neutralC/CFD-WM-020-001-N.jpg","img/neutralC/CFD-WM-219-008-N.jpg","1","1","1","0","1","0","0.715711500030011","0.643360099988058","0.65260750008747","1","1","1","1","1","1","1","1","1"
"250040","img/neutralC/CFD-WM-219-008-N.jpg","img/neutralC/CFD-LF-218-072-N.jpg","img/neutralC/CFD-IM-703-182-N.jpg","1","1","1","0","0","1","0.65260750008747","0.715711500030011","0.715255599934608","1","1","1","1","1","1","1","1","1"
"250040","img/neutralC/CFD-IM-703-182-N.jpg","img/neutralC/CFD-WM-219-008-N.jpg","img/neutralC/CFD-WM-235-147-N.jpg","1","1","1","1","0","0","0.715255599934608","0.65260750008747","0.59983399999328","1","1","1","1","1","1","1","1","1"
"250040","img/neutralC/CFD-WM-235-147-N.jpg","img/neutralC/CFD-IM-703-182-N.jpg","img/neutralC/CFD-MF-359-019-N.jpg","1","1","1","0","1","0","0.59983399999328","0.715255599934608","0.77960030012764","1","1","1","1","1","1","1","1","1"
"250040","img/neutralC/CFD-MF-359-019-N.jpg","img/neutralC/CFD-WM-235-147-N.jpg","img/neutralC/CFD-WF-001-003-N.jpg","1","1","1","0","0","1","0.77960030012764","0.59983399999328","0.895839700009674","1","1","1","1","1","1","1","1","1"
"250040","img/neutralC/CFD-WF-001-003-N.jpg","img/neutralC/CFD-MF-359-019-N.jpg","img/neutralC/CFD-BF-226-119-N.jpg","1","1","1","1","0","1","0.895839700009674","0.77960030012764","0.778352699941024","1","1","1","1","1","1","1","1","1"
"250040","img/neutralC/CFD-BF-226-119-N.jpg","img/neutralC/CFD-WF-001-003-N.jpg","img/neutralC/CFD-MF-352-054-N.jpg","1","1","1","1","1","0","0.778352699941024","0.895839700009674","0.838786100037396","1","1","1","1","1","1","1","1","1"
"250040","img/neutralC/CFD-MF-352-054-N.jpg","img/neutralC/CFD-BF-226-119-N.jpg","img/neutralC/CFD-AM-211-052-N.jpg","1","1","1","0","1","1","0.838786100037396","0.778352699941024","0.8000316999387","1","1","1","1","1","1","1","1","1"
"250040","img/neutralC/CFD-AM-211-052-N.jpg","img/neutralC/CFD-MF-352-054-N.jpg","img/neutralC/CFD-MF-333-012-N.jpg","1","1","1","1","0","0","0.8000316999387","0.838786100037396","0.866718400036916","1","1","1","1","1","1","1","1","1"
"250040","img/neutralC/CFD-MF-333-012-N.jpg","img/neutralC/CFD-AM-211-052-N.jpg","img/neutralC/CFD-LF-220-120-N.jpg","1","1","1","0","1","1","0.866718400036916","0.8000316999387","0.624738000100479","1","1","1","1","1","1","1","1","1"
"250040","img/neutralC/CFD-LF-220-120-N.jpg","img/neutralC/CFD-MF-333-012-N.jpg","img/neutralC/CFD-AM-242-176-N.jpg","1","1","1","1","0","1","0.624738000100479","0.866718400036916","0.693775299936533","1","1","1","1","1","1","1","1","1"
"250040","img/neutralC/CFD-AM-242-176-N.jpg","img/neutralC/CFD-LF-220-120-N.jpg","img/neutralC/CFD-WF-036-023-N.jpg","1","1","1","1","1","0","0.693775299936533","0.624738000100479","0.875215300126001","1","1","1","1","1","1","1","1","1"
"250040","img/neutralC/CFD-WF-036-023-N.jpg","img/neutralC/CFD-AM-242-176-N.jpg","img/neutralC/CFD-IM-645-001-N.jpg","1","1","1","0","1","0","0.875215300126001","0.693775299936533","0.592697900021449","1","1","1","1","1","1","1","1","1"
"250040","img/neutralC/CFD-IM-645-001-N.jpg","img/neutralC/CFD-WF-036-023-N.jpg","img/neutralC/CFD-BF-229-179-N.jpg","1","1","1","0","0","0","0.592697900021449","0.875215300126001","0.634077399969101","1","1","1","1","1","1","1","1","1"
"250040","img/neutralC/CFD-BF-229-179-N.jpg","img/neutralC/CFD-IM-645-001-N.jpg","img/neutralC/CFD-WF-214-122-N.jpg","1","1","1","0","0","1","0.634077399969101","0.592697900021449","0.599403100088239","1","1","1","1","1","1","1","1","1"
"250040","img/neutralC/CFD-WF-214-122-N.jpg","img/neutralC/CFD-BF-229-179-N.jpg","img/neutralC/CFD-LM-228-188-N.jpg","1","1","1","1","0","1","0.599403100088239","0.634077399969101","0.525424800114706","1","1","1","1","1","1","1","1","1"
"250040","img/neutralC/CFD-LM-228-188-N.jpg","img/neutralC/CFD-WF-214-122-N.jpg","img/neutralC/CFD-BF-232-187-N.jpg","1","1","1","1","1","1","0.525424800114706","0.599403100088239","0.660150800133124","1","1","1","1","1","1","1","1","1"
"250040","img/neutralC/CFD-BF-232-187-N.jpg","img/neutralC/CFD-LM-228-188-N.jpg","img/neutralC/CFD-IF-650-315-N.jpg","1","1","1","1","1","0","0.660150800133124","0.525424800114706","0.788324499968439","1","1","1","1","1","1","1","1","1"
"250040","img/neutralC/CFD-IF-650-315-N.jpg","img/neutralC/CFD-BF-232-187-N.jpg","img/neutralC/CFD-BM-225-154-N.jpg","1","1","1","0","1","1","0.788324499968439","0.660150800133124","0.592663999879733","1","1","1","1","1","1","1","1","1"
"250040","img/neutralC/CFD-BM-225-154-N.jpg","img/neutralC/CFD-IF-650-315-N.jpg","img/neutralC/CFD-IF-623-129-N.jpg","1","1","1","1","0","1","0.592663999879733","0.788324499968439","0.622033899882808","1","1","1","1","1","1","1","1","1"
"250040","img/neutralC/CFD-IF-623-129-N.jpg","img/neutralC/CFD-BM-225-154-N.jpg","img/neutralC/CFD-BM-253-004-N.jpg","1","1","1","1","1","1","0.622033899882808","0.592663999879733","0.650643300032243","1","1","1","1","1","1","1","1","1"
"250040","img/neutralC/CFD-BM-253-004-N.jpg","img/neutralC/CFD-IF-623-129-N.jpg","img/neutralC/CFD-IM-671-601-N.jpg","1","1","1","1","1","0","0.650643300032243","0.622033899882808","0.676062299869955","1","1","1","1","1","1","1","1","1"
"250040","img/neutralC/CFD-IM-671-601-N.jpg","img/neutralC/CFD-BM-253-004-N.jpg","img/neutralC/CFD-BF-038-037-N.jpg","1","1","1","0","1","1","0.676062299869955","0.650643300032243","0.546561900060624","1","1","1","1","1","1","1","1","1"
"250040","img/neutralC/CFD-BF-038-037-N.jpg","img/neutralC/CFD-IM-671-601-N.jpg","img/neutralC/CFD-IM-616-214-N.jpg","1","1","1","1","0","0","0.546561900060624","0.676062299869955","0.770857300143689","1","1","1","1","1","1","1","1","1"
"250040","img/neutralC/CFD-IM-616-214-N.jpg","img/neutralC/CFD-BF-038-037-N.jpg",NA,"1","1",NA,"0","1",NA,"0.770857300143689","0.546561900060624",NA,"1","1",NA,"1","1",NA,"1","1",NA
"250040","img/neutralC/CFD-IM-632-097-N.jpg",NA,"img/neutralC/CFD-WF-210-086-N.jpg","1",NA,"1","0",NA,"0","0.790731600020081",NA,"0.577349399914965","1",NA,"1","1",NA,"1","1",NA,"1"
"250040","img/neutralC/CFD-WF-210-086-N.jpg","img/neutralC/CFD-IM-632-097-N.jpg","img/neutralC/CFD-BF-042-026-N.jpg","1","1","1","0","0","1","0.577349399914965","0.790731600020081","0.429595699999481","1","1","1","1","1","1","1","1","1"
"250040","img/neutralC/CFD-BF-042-026-N.jpg","img/neutralC/CFD-WF-210-086-N.jpg","img/neutralC/CFD-WF-235-121-N.jpg","1","1","1","1","0","0","0.429595699999481","0.577349399914965","0.560674800071865","1","1","1","1","1","1","1","1","1"
"250040","img/neutralC/CFD-WF-235-121-N.jpg","img/neutralC/CFD-BF-042-026-N.jpg","img/neutralC/CFD-BM-004-002-N.jpg","1","1","1","0","1","0","0.560674800071865","0.429595699999481","0.545068699866533","1","1","1","1","1","1","1","1","1"
"250040","img/neutralC/CFD-BM-004-002-N.jpg","img/neutralC/CFD-WF-235-121-N.jpg","img/neutralC/CFD-IM-678-482-N.jpg","1","1","1","0","0","0","0.545068699866533","0.560674800071865","0.44340019999072","1","1","1","1","1","1","1","1","1"
"250040","img/neutralC/CFD-IM-678-482-N.jpg","img/neutralC/CFD-BM-004-002-N.jpg","img/neutralC/CFD-IM-669-111-N.jpg","1","1","1","0","0","1","0.44340019999072","0.545068699866533","0.423217700095847","1","1","1","1","1","1","1","1","1"
"250040","img/neutralC/CFD-IM-669-111-N.jpg","img/neutralC/CFD-IM-678-482-N.jpg","img/neutralC/CFD-BM-215-155-N.jpg","1","1","1","1","0","0","0.423217700095847","0.44340019999072","0.600016799988225","1","1","1","1","1","1","1","1","1"
"250040","img/neutralC/CFD-BM-215-155-N.jpg","img/neutralC/CFD-IM-669-111-N.jpg","img/neutralC/CFD-AF-205-155-N.jpg","1","1","1","0","1","0","0.600016799988225","0.423217700095847","0.445846299873665","1","1","1","1","1","1","1","1","1"
"250040","img/neutralC/CFD-AF-205-155-N.jpg","img/neutralC/CFD-BM-215-155-N.jpg","img/neutralC/CFD-WM-253-119-N.jpg","1","1","1","0","0","1","0.445846299873665","0.600016799988225","0.515326200053096","1","1","1","1","1","1","1","1","1"
"250040","img/neutralC/CFD-WM-253-119-N.jpg","img/neutralC/CFD-AF-205-155-N.jpg","img/neutralC/CFD-AM-245-111-N.jpg","1","1","1","1","0","1","0.515326200053096","0.445846299873665","0.757188299903646","1","1","1","1","1","1","1","1","1"
"250040","img/neutralC/CFD-AM-245-111-N.jpg","img/neutralC/CFD-WM-253-119-N.jpg","img/neutralC/CFD-BF-020-002-N.jpg","1","1","1","1","1","1","0.757188299903646","0.515326200053096","0.452874599955976","1","1","1","1","1","1","1","1","1"
"250040","img/neutralC/CFD-BF-020-002-N.jpg","img/neutralC/CFD-AM-245-111-N.jpg","img/neutralC/CFD-AF-250-200-N.jpg","1","1","1","1","1","1","0.452874599955976","0.757188299903646","0.496933500049636","1","1","1","1","1","1","1","1","1"
"250040","img/neutralC/CFD-AF-250-200-N.jpg","img/neutralC/CFD-BF-020-002-N.jpg","img/neutralC/CFD-AF-244-168-N.jpg","1","1","1","1","1","0","0.496933500049636","0.452874599955976","0.503551000030711","1","1","1","1","1","1","1","1","1"
"250040","img/neutralC/CFD-AF-244-168-N.jpg","img/neutralC/CFD-AF-250-200-N.jpg","img/neutralC/CFD-MF-302-027-N.jpg","1","1","1","0","1","0","0.503551000030711","0.496933500049636","0.438279900001362","1","1","1","1","1","1","1","1","1"
"250040","img/neutralC/CFD-MF-302-027-N.jpg","img/neutralC/CFD-AF-244-168-N.jpg","img/neutralC/CFD-LM-204-001-N.jpg","1","1","1","0","0","0","0.438279900001362","0.503551000030711","0.658846499864012","1","1","1","1","1","1","1","1","1"
"250040","img/neutralC/CFD-LM-204-001-N.jpg","img/neutralC/CFD-MF-302-027-N.jpg","img/neutralC/CFD-BF-206-143-N.jpg","1","1","1","0","0","1","0.658846499864012","0.438279900001362","0.597230899846181","1","1","1","1","1","1","1","1","1"
"250040","img/neutralC/CFD-BF-206-143-N.jpg","img/neutralC/CFD-LM-204-001-N.jpg","img/neutralC/CFD-BF-040-003-N.jpg","1","1","1","1","0","1","0.597230899846181","0.658846499864012","0.413621899904683","1","1","1","1","1","1","1","1","1"
"250040","img/neutralC/CFD-BF-040-003-N.jpg","img/neutralC/CFD-BF-206-143-N.jpg","img/neutralC/CFD-MF-307-002-N.jpg","1","1","1","1","1","1","0.413621899904683","0.597230899846181","0.420417999848723","1","1","1","1","1","1","1","1","1"
"250040","img/neutralC/CFD-MF-307-002-N.jpg","img/neutralC/CFD-BF-040-003-N.jpg","img/neutralC/CFD-IF-732-260-N.jpg","1","1","0","1","1","0","0.420417999848723","0.413621899904683","0.452399099944159","1","1","1","1","1","1","1","1","1"
"250040","img/neutralC/CFD-IF-732-260-N.jpg","img/neutralC/CFD-MF-307-002-N.jpg","img/neutralC/CFD-LM-241-125-N.jpg","0","1","1","0","1","1","0.452399099944159","0.420417999848723","0.499690699856728","1","1","1","1","1","1","1","1","1"
"250040","img/neutralC/CFD-LM-241-125-N.jpg","img/neutralC/CFD-IF-732-260-N.jpg","img/neutralC/CFD-IM-635-010-N.jpg","1","0","1","1","0","1","0.499690699856728","0.452399099944159","0.644151600077748","1","1","1","1","1","1","1","1","1"
"250040","img/neutralC/CFD-IM-635-010-N.jpg","img/neutralC/CFD-LM-241-125-N.jpg","img/neutralC/CFD-AF-213-126-N.jpg","1","1","1","1","1","1","0.644151600077748","0.499690699856728","0.48769100010395","1","1","1","1","1","1","1","1","1"
"250040","img/neutralC/CFD-AF-213-126-N.jpg","img/neutralC/CFD-IM-635-010-N.jpg","img/neutralC/CFD-IF-636-011-N.jpg","1","1","1","1","1","1","0.48769100010395","0.644151600077748","0.535301200114191","1","1","1","1","1","1","1","1","1"
"250040","img/neutralC/CFD-IF-636-011-N.jpg","img/neutralC/CFD-AF-213-126-N.jpg","img/neutralC/CFD-AF-234-208-N.jpg","1","1","1","1","1","1","0.535301200114191","0.48769100010395","0.679410100216046","1","1","1","1","1","1","1","1","1"
"250040","img/neutralC/CFD-AF-234-208-N.jpg","img/neutralC/CFD-IF-636-011-N.jpg","img/neutralC/CFD-AM-233-236-N.jpg","1","1","1","1","1","1","0.679410100216046","0.535301200114191","0.631424600025639","1","1","1","1","1","1","1","1","1"
"250040","img/neutralC/CFD-AM-233-236-N.jpg","img/neutralC/CFD-AF-234-208-N.jpg","img/neutralC/CFD-BF-217-189-N.jpg","1","1","1","1","1","0","0.631424600025639","0.679410100216046","0.528070000000298","1","1","1","1","1","1","1","1","1"
"250040","img/neutralC/CFD-BF-217-189-N.jpg","img/neutralC/CFD-AM-233-236-N.jpg","img/neutralC/CFD-WM-018-002-N.jpg","1","1","1","0","1","0","0.528070000000298","0.631424600025639","0.556754800025374","1","1","1","1","1","1","1","1","1"
"250040","img/neutralC/CFD-WM-018-002-N.jpg","img/neutralC/CFD-BF-217-189-N.jpg","img/neutralC/CFD-BF-235-168-N.jpg","1","1","1","0","0","1","0.556754800025374","0.528070000000298","0.508740599965677","1","1","1","1","1","1","1","1","1"
"250040","img/neutralC/CFD-BF-235-168-N.jpg","img/neutralC/CFD-WM-018-002-N.jpg","img/neutralC/CFD-AM-225-102-N.jpg","1","1","1","1","0","0","0.508740599965677","0.556754800025374","0.497274199966341","1","1","1","1","1","1","1","1","1"
"250040","img/neutralC/CFD-AM-225-102-N.jpg","img/neutralC/CFD-BF-235-168-N.jpg","img/neutralC/CFD-LF-239-148-N.jpg","1","1","1","0","1","0","0.497274199966341","0.508740599965677","0.48190510016866","1","1","1","1","1","1","1","1","1"
"250040","img/neutralC/CFD-LF-239-148-N.jpg","img/neutralC/CFD-AM-225-102-N.jpg","img/neutralC/CFD-AF-246-242-N.jpg","1","1","1","0","0","0","0.48190510016866","0.497274199966341","0.655864300206304","1","1","1","1","1","1","1","1","1"
"250040","img/neutralC/CFD-AF-246-242-N.jpg","img/neutralC/CFD-LF-239-148-N.jpg",NA,"1","1",NA,"0","0",NA,"0.655864300206304","0.48190510016866",NA,"1","1",NA,"1","1",NA,"1","1",NA
"250040","img/neutralC/CFD-MF-328-020-N.jpg",NA,"img/neutralC/CFD-IM-697-015-N.jpg","0",NA,"1","0",NA,"1","0.93073710007593",NA,"0.475821600062773","1",NA,"1","1",NA,"1","1",NA,"1"
"250040","img/neutralC/CFD-IM-697-015-N.jpg","img/neutralC/CFD-MF-328-020-N.jpg","img/neutralC/CFD-LF-222-147-N.jpg","1","0","1","1","0","0","0.475821600062773","0.93073710007593","0.505826800130308","1","1","1","1","1","1","1","1","1"
"250040","img/neutralC/CFD-LF-222-147-N.jpg","img/neutralC/CFD-IM-697-015-N.jpg","img/neutralC/CFD-WM-025-002-N.jpg","1","1","1","0","1","0","0.505826800130308","0.475821600062773","0.48615560005419","1","1","1","1","1","1","1","1","1"
"250040","img/neutralC/CFD-WM-025-002-N.jpg","img/neutralC/CFD-LF-222-147-N.jpg","img/neutralC/CFD-IF-676-017-N.jpg","1","1","1","0","0","1","0.48615560005419","0.505826800130308","0.558771000010893","1","1","1","1","1","1","1","1","1"
"250040","img/neutralC/CFD-IF-676-017-N.jpg","img/neutralC/CFD-WM-025-002-N.jpg","img/neutralC/CFD-IM-689-263-N.jpg","1","1","1","1","0","1","0.558771000010893","0.48615560005419","0.562651300104335","1","1","1","1","1","1","1","1","1"
"250040","img/neutralC/CFD-IM-689-263-N.jpg","img/neutralC/CFD-IF-676-017-N.jpg","img/neutralC/CFD-WF-009-001-N.jpg","1","1","1","1","1","1","0.562651300104335","0.558771000010893","0.472005299990997","1","1","1","1","1","1","1","1","1"
"250040","img/neutralC/CFD-WF-009-001-N.jpg","img/neutralC/CFD-IM-689-263-N.jpg","img/neutralC/CFD-AM-243-212-N.jpg","1","1","1","1","1","1","0.472005299990997","0.562651300104335","0.501766599947587","1","1","1","1","1","1","1","1","1"
"250040","img/neutralC/CFD-AM-243-212-N.jpg","img/neutralC/CFD-WF-009-001-N.jpg","img/neutralC/CFD-WF-241-210-N.jpg","1","1","1","1","1","0","0.501766599947587","0.472005299990997","0.681511000031605","1","1","1","1","1","1","1","1","1"
"250040","img/neutralC/CFD-WF-241-210-N.jpg","img/neutralC/CFD-AM-243-212-N.jpg","img/neutralC/CFD-AF-237-223-N.jpg","1","1","0","0","1","0","0.681511000031605","0.501766599947587","1.01691589993425","1","1","1","1","1","1","1","1","1"
"250040","img/neutralC/CFD-AF-237-223-N.jpg","img/neutralC/CFD-WF-241-210-N.jpg","img/neutralC/CFD-AM-205-153-N.jpg","0","1","1","0","0","1","1.01691589993425","0.681511000031605","0.761020600097254","1","1","1","1","1","1","1","1","1"
"250040","img/neutralC/CFD-AM-205-153-N.jpg","img/neutralC/CFD-AF-237-223-N.jpg","img/neutralC/CFD-BM-030-003-N.jpg","1","0","1","1","0","0","0.761020600097254","1.01691589993425","0.626343099866062","1","1","1","1","1","1","1","1","1"
"250040","img/neutralC/CFD-BM-030-003-N.jpg","img/neutralC/CFD-AM-205-153-N.jpg","img/neutralC/CFD-BM-020-001-N.jpg","1","1","1","0","1","0","0.626343099866062","0.761020600097254","0.669285800075158","1","1","1","1","1","1","1","1","1"
"250040","img/neutralC/CFD-BM-020-001-N.jpg","img/neutralC/CFD-BM-030-003-N.jpg","img/neutralC/CFD-WM-028-003-N.jpg","1","1","1","0","0","1","0.669285800075158","0.626343099866062","1.16036410001107","1","1","1","1","1","1","1","1","1"
"250040","img/neutralC/CFD-WM-028-003-N.jpg","img/neutralC/CFD-BM-020-001-N.jpg","img/neutralC/CFD-IM-606-008-N.jpg","1","1","1","1","0","0","1.16036410001107","0.669285800075158","0.493958600098267","1","1","1","1","1","1","1","1","1"
"250040","img/neutralC/CFD-IM-606-008-N.jpg","img/neutralC/CFD-WM-028-003-N.jpg","img/neutralC/CFD-LM-240-013-N.jpg","1","1","1","0","1","1","0.493958600098267","1.16036410001107","0.468287799973041","1","1","1","1","1","1","1","1","1"
"250040","img/neutralC/CFD-LM-240-013-N.jpg","img/neutralC/CFD-IM-606-008-N.jpg","img/neutralC/CFD-WM-023-001-N.jpg","1","1","1","1","0","0","0.468287799973041","0.493958600098267","0.587087499909103","1","1","1","1","1","1","1","1","1"
"250040","img/neutralC/CFD-WM-023-001-N.jpg","img/neutralC/CFD-LM-240-013-N.jpg","img/neutralC/CFD-AM-249-163-N.jpg","1","1","1","0","1","1","0.587087499909103","0.468287799973041","0.450023500015959","1","1","1","1","1","1","1","1","1"
"250040","img/neutralC/CFD-AM-249-163-N.jpg","img/neutralC/CFD-WM-023-001-N.jpg","img/neutralC/CFD-BM-021-021-N.jpg","1","1","1","1","0","1","0.450023500015959","0.587087499909103","0.456817199941724","1","1","1","1","1","1","1","1","1"
"250040","img/neutralC/CFD-BM-021-021-N.jpg","img/neutralC/CFD-AM-249-163-N.jpg","img/neutralC/CFD-WF-243-148-N.jpg","1","1","1","1","1","0","0.456817199941724","0.450023500015959","0.885376099962741","1","1","1","1","1","1","1","1","1"
"250040","img/neutralC/CFD-WF-243-148-N.jpg","img/neutralC/CFD-BM-021-021-N.jpg","img/neutralC/CFD-BM-009-002-N.jpg","1","1","1","0","1","1","0.885376099962741","0.456817199941724","0.501345800003037","1","1","1","1","1","1","1","1","1"
"250040","img/neutralC/CFD-BM-009-002-N.jpg","img/neutralC/CFD-WF-243-148-N.jpg","img/neutralC/CFD-WF-207-014-N.jpg","1","1","1","1","0","1","0.501345800003037","0.885376099962741","0.614597199950367","1","1","1","1","1","1","1","1","1"
"250040","img/neutralC/CFD-WF-207-014-N.jpg","img/neutralC/CFD-BM-009-002-N.jpg","img/neutralC/CFD-AM-219-101-N.jpg","1","1","1","1","1","0","0.614597199950367","0.501345800003037","0.654800900025293","1","1","1","1","1","1","1","1","1"
"250040","img/neutralC/CFD-AM-219-101-N.jpg","img/neutralC/CFD-WF-207-014-N.jpg","img/neutralC/CFD-BM-043-071-N.jpg","1","1","1","0","1","0","0.654800900025293","0.614597199950367","0.506391099886969","1","1","1","1","1","1","1","1","1"
"250040","img/neutralC/CFD-BM-043-071-N.jpg","img/neutralC/CFD-AM-219-101-N.jpg","img/neutralC/CFD-IM-615-167-N.jpg","1","1","1","0","0","0","0.506391099886969","0.654800900025293","0.482289599953219","1","1","1","1","1","1","1","1","1"
"250040","img/neutralC/CFD-IM-615-167-N.jpg","img/neutralC/CFD-BM-043-071-N.jpg","img/neutralC/CFD-WF-221-005-N.jpg","1","1","1","0","0","0","0.482289599953219","0.506391099886969","0.636060700053349","1","1","1","1","1","1","1","1","1"
"250040","img/neutralC/CFD-WF-221-005-N.jpg","img/neutralC/CFD-IM-615-167-N.jpg","img/neutralC/CFD-BM-227-191-N.jpg","1","1","1","0","0","1","0.636060700053349","0.482289599953219","0.463831800036132","1","1","1","1","1","1","1","1","1"
"250040","img/neutralC/CFD-BM-227-191-N.jpg","img/neutralC/CFD-WF-221-005-N.jpg","img/neutralC/CFD-LF-238-154-N.jpg","1","1","1","1","0","1","0.463831800036132","0.636060700053349","0.617939400020987","1","1","1","1","1","1","1","1","1"
"250040","img/neutralC/CFD-LF-238-154-N.jpg","img/neutralC/CFD-BM-227-191-N.jpg","img/neutralC/CFD-MM-306-010-N.jpg","1","1","1","1","1","0","0.617939400020987","0.463831800036132","0.595371500123292","1","1","1","1","1","1","1","1","1"
"250040","img/neutralC/CFD-MM-306-010-N.jpg","img/neutralC/CFD-LF-238-154-N.jpg","img/neutralC/CFD-BF-012-001-N.jpg","1","1","1","0","1","0","0.595371500123292","0.617939400020987","0.629251099890098","1","1","1","1","1","1","1","1","1"
"250040","img/neutralC/CFD-BF-012-001-N.jpg","img/neutralC/CFD-MM-306-010-N.jpg","img/neutralC/CFD-BF-244-231-N.jpg","1","1","1","0","0","1","0.629251099890098","0.595371500123292","0.518678500084206","1","1","1","1","1","1","1","1","1"
"250040","img/neutralC/CFD-BF-244-231-N.jpg","img/neutralC/CFD-BF-012-001-N.jpg","img/neutralC/CFD-LF-212-066-N.jpg","1","1","1","1","0","1","0.518678500084206","0.629251099890098","0.526214799843729","1","1","1","1","1","1","1","1","1"
"250040","img/neutralC/CFD-LF-212-066-N.jpg","img/neutralC/CFD-BF-244-231-N.jpg",NA,"1","1",NA,"1","1",NA,"0.526214799843729","0.518678500084206",NA,"1","1",NA,"1","1",NA,"1","1",NA
"250040","img/neutralC/CFD-BF-238-190-N.jpg",NA,"img/neutralC/CFD-IM-638-250-1-N.jpg","1",NA,"1","1",NA,"1","0.569599099922925",NA,"0.530295599950477","1",NA,"1","1",NA,"1","1",NA,"1"
"250040","img/neutralC/CFD-IM-638-250-1-N.jpg","img/neutralC/CFD-BF-238-190-N.jpg","img/neutralC/CFD-BM-231-155-N.jpg","1","1","1","1","1","1","0.530295599950477","0.569599099922925","0.527798500144854","1","1","1","1","1","1","1","1","1"
"250040","img/neutralC/CFD-BM-231-155-N.jpg","img/neutralC/CFD-IM-638-250-1-N.jpg","img/neutralC/CFD-IF-665-015-N.jpg","1","1","1","1","1","0","0.527798500144854","0.530295599950477","0.817856100155041","1","1","1","1","1","1","1","1","1"
"250040","img/neutralC/CFD-IF-665-015-N.jpg","img/neutralC/CFD-BM-231-155-N.jpg","img/neutralC/CFD-AF-241-141-N.jpg","1","1","1","0","1","1","0.817856100155041","0.527798500144854","0.511508600087836","1","1","1","1","1","1","1","1","1"
"250040","img/neutralC/CFD-AF-241-141-N.jpg","img/neutralC/CFD-IF-665-015-N.jpg","img/neutralC/CFD-BF-033-028-N.jpg","1","1","1","1","0","0","0.511508600087836","0.817856100155041","0.573506199987605","1","1","1","1","1","1","1","1","1"
"250040","img/neutralC/CFD-BF-033-028-N.jpg","img/neutralC/CFD-AF-241-141-N.jpg","img/neutralC/CFD-WM-017-002-N.jpg","1","1","1","0","1","0","0.573506199987605","0.511508600087836","0.667934299912304","1","1","1","1","1","1","1","1","1"
"250040","img/neutralC/CFD-WM-017-002-N.jpg","img/neutralC/CFD-BF-033-028-N.jpg","img/neutralC/CFD-BM-005-003-N.jpg","1","1","1","0","0","1","0.667934299912304","0.573506199987605","0.515699499985203","1","1","1","1","1","1","1","1","1"
"250040","img/neutralC/CFD-BM-005-003-N.jpg","img/neutralC/CFD-WM-017-002-N.jpg","img/neutralC/CFD-IM-727-195-N.jpg","1","1","1","1","0","1","0.515699499985203","0.667934299912304","0.508732000133023","1","1","1","1","1","1","1","1","1"
"250040","img/neutralC/CFD-IM-727-195-N.jpg","img/neutralC/CFD-BM-005-003-N.jpg","img/neutralC/CFD-LM-233-171-N.jpg","1","1","0","1","1","0","0.508732000133023","0.515699499985203","0.413064300082624","1","1","1","1","1","1","1","1","1"
"250040","img/neutralC/CFD-LM-233-171-N.jpg","img/neutralC/CFD-IM-727-195-N.jpg","img/neutralC/CFD-IM-653-008-N.jpg","0","1","1","0","1","0","0.413064300082624","0.508732000133023","0.727967299986631","1","1","1","1","1","1","1","1","1"
"250040","img/neutralC/CFD-IM-653-008-N.jpg","img/neutralC/CFD-LM-233-171-N.jpg","img/neutralC/CFD-BM-018-001-N.jpg","1","0","1","0","0","1","0.727967299986631","0.413064300082624","0.587498199893162","1","1","1","1","1","1","1","1","1"
"250040","img/neutralC/CFD-BM-018-001-N.jpg","img/neutralC/CFD-IM-653-008-N.jpg","img/neutralC/CFD-MF-313-002-N.jpg","1","1","1","1","0","0","0.587498199893162","0.727967299986631","0.578104099957272","1","1","1","1","1","1","1","1","1"
"250040","img/neutralC/CFD-MF-313-002-N.jpg","img/neutralC/CFD-BM-018-001-N.jpg","img/neutralC/CFD-IM-657-308-N.jpg","1","1","1","0","1","0","0.578104099957272","0.587498199893162","0.629650000017136","1","1","1","1","1","1","1","1","1"
"250040","img/neutralC/CFD-IM-657-308-N.jpg","img/neutralC/CFD-MF-313-002-N.jpg","img/neutralC/CFD-AF-206-079-N.jpg","1","1","1","0","0","1","0.629650000017136","0.578104099957272","0.587602599989623","1","1","1","1","1","1","1","1","1"
"250040","img/neutralC/CFD-AF-206-079-N.jpg","img/neutralC/CFD-IM-657-308-N.jpg","img/neutralC/CFD-LF-245-166-N.jpg","1","1","1","1","0","1","0.587602599989623","0.629650000017136","0.608017599908635","1","1","1","1","1","1","1","1","1"
"250040","img/neutralC/CFD-LF-245-166-N.jpg","img/neutralC/CFD-AF-206-079-N.jpg","img/neutralC/CFD-LM-219-295-N.jpg","1","1","1","1","1","1","0.608017599908635","0.587602599989623","0.702746300026774","1","1","1","1","1","1","1","1","1"
"250040","img/neutralC/CFD-LM-219-295-N.jpg","img/neutralC/CFD-LF-245-166-N.jpg","img/neutralC/CFD-BF-010-001-N.jpg","1","1","1","1","1","1","0.702746300026774","0.608017599908635","0.56716650002636","1","1","1","1","1","1","1","1","1"
"250040","img/neutralC/CFD-BF-010-001-N.jpg","img/neutralC/CFD-LM-219-295-N.jpg","img/neutralC/CFD-LF-242-121-N.jpg","1","1","1","1","1","0","0.56716650002636","0.702746300026774","0.7378171000164","1","1","1","1","1","1","1","1","1"
"250040","img/neutralC/CFD-LF-242-121-N.jpg","img/neutralC/CFD-BF-010-001-N.jpg","img/neutralC/CFD-LF-250-169-N.jpg","1","1","1","0","1","1","0.7378171000164","0.56716650002636","0.680623699910939","1","1","1","1","1","1","1","1","1"
"250040","img/neutralC/CFD-LF-250-169-N.jpg","img/neutralC/CFD-LF-242-121-N.jpg","img/neutralC/CFD-LM-226-175-N.jpg","1","1","1","1","0","0","0.680623699910939","0.7378171000164","0.810026000021026","1","1","1","1","1","1","1","1","1"
"250040","img/neutralC/CFD-LM-226-175-N.jpg","img/neutralC/CFD-LF-250-169-N.jpg","img/neutralC/CFD-WM-242-011-N.jpg","1","1","1","0","1","0","0.810026000021026","0.680623699910939","0.67395309987478","1","1","1","1","1","1","1","1","1"
"250040","img/neutralC/CFD-WM-242-011-N.jpg","img/neutralC/CFD-LM-226-175-N.jpg","img/neutralC/CFD-BM-212-117-N.jpg","1","1","1","0","0","0","0.67395309987478","0.810026000021026","0.766363600036129","1","1","1","1","1","1","1","1","1"
"250040","img/neutralC/CFD-BM-212-117-N.jpg","img/neutralC/CFD-WM-242-011-N.jpg","img/neutralC/CFD-IF-620-218-N.jpg","1","1","1","0","0","0","0.766363600036129","0.67395309987478","0.71981789986603","1","1","1","1","1","1","1","1","1"
"250040","img/neutralC/CFD-IF-620-218-N.jpg","img/neutralC/CFD-BM-212-117-N.jpg","img/neutralC/CFD-WM-227-099-N.jpg","1","1","1","0","0","1","0.71981789986603","0.766363600036129","0.543031199835241","1","1","1","1","1","1","1","1","1"
"250040","img/neutralC/CFD-WM-227-099-N.jpg","img/neutralC/CFD-IF-620-218-N.jpg","img/neutralC/CFD-IM-617-174-N.jpg","1","1","1","1","0","0","0.543031199835241","0.71981789986603","0.595857999986038","1","1","1","1","1","1","1","1","1"
"250040","img/neutralC/CFD-IM-617-174-N.jpg","img/neutralC/CFD-WM-227-099-N.jpg","img/neutralC/CFD-AF-202-122-N.jpg","1","1","1","0","1","1","0.595857999986038","0.543031199835241","0.484928200021386","1","1","1","1","1","1","1","1","1"
"250040","img/neutralC/CFD-AF-202-122-N.jpg","img/neutralC/CFD-IM-617-174-N.jpg","img/neutralC/CFD-WF-209-052-N.jpg","1","1","1","1","0","1","0.484928200021386","0.595857999986038","0.523005099967122","1","1","1","1","1","1","1","1","1"
"250040","img/neutralC/CFD-WF-209-052-N.jpg","img/neutralC/CFD-AF-202-122-N.jpg","img/neutralC/CFD-BM-026-002-N.jpg","1","1","1","1","1","0","0.523005099967122","0.484928200021386","0.528755800100043","1","1","1","1","1","1","1","1","1"
"250040","img/neutralC/CFD-BM-026-002-N.jpg","img/neutralC/CFD-WF-209-052-N.jpg","img/neutralC/CFD-LF-247-051-N.jpg","1","1","1","0","1","1","0.528755800100043","0.523005099967122","0.705568599980325","1","1","1","1","1","1","1","1","1"
"250040","img/neutralC/CFD-LF-247-051-N.jpg","img/neutralC/CFD-BM-026-002-N.jpg","img/neutralC/CFD-WM-258-125-N.jpg","1","1","0","1","0","0","0.705568599980325","0.528755800100043","1.39800100005232","1","1","1","1","1","1","1","1","1"
"250040","img/neutralC/CFD-WM-258-125-N.jpg","img/neutralC/CFD-LF-247-051-N.jpg","img/neutralC/CFD-IM-686-097-N.jpg","0","1","1","0","1","0","1.39800100005232","0.705568599980325","0.67189330002293","1","1","1","1","1","1","1","1","1"
"250040","img/neutralC/CFD-IM-686-097-N.jpg","img/neutralC/CFD-WM-258-125-N.jpg",NA,"1","0",NA,"0","0",NA,"0.67189330002293","1.39800100005232",NA,"1","1",NA,"1","1",NA,"1","1",NA
"250040","img/neutralC/CFD-MM-316-156-N.jpg",NA,"img/neutralC/CFD-AF-231-357-N.jpg","1",NA,"1","1",NA,"1","0.542073100106791",NA,"0.487443400081247","1",NA,"1","1",NA,"1","1",NA,"1"
"250040","img/neutralC/CFD-AF-231-357-N.jpg","img/neutralC/CFD-MM-316-156-N.jpg","img/neutralC/CFD-LM-215-247-N.jpg","1","1","1","1","1","0","0.487443400081247","0.542073100106791","0.59646869986318","1","1","1","1","1","1","1","1","1"
"250040","img/neutralC/CFD-LM-215-247-N.jpg","img/neutralC/CFD-AF-231-357-N.jpg","img/neutralC/CFD-IF-693-172-N.jpg","1","1","1","0","1","0","0.59646869986318","0.487443400081247","0.498345199972391","1","1","1","1","1","1","1","1","1"
"250040","img/neutralC/CFD-IF-693-172-N.jpg","img/neutralC/CFD-LM-215-247-N.jpg","img/neutralC/CFD-BF-205-141-N.jpg","1","1","1","0","0","0","0.498345199972391","0.59646869986318","0.508076299913228","1","1","1","1","1","1","1","1","1"
"250040","img/neutralC/CFD-BF-205-141-N.jpg","img/neutralC/CFD-IF-693-172-N.jpg","img/neutralC/CFD-LF-203-066-N.jpg","1","1","1","0","0","0","0.508076299913228","0.498345199972391","0.581918000010774","1","1","1","1","1","1","1","1","1"
"250040","img/neutralC/CFD-LF-203-066-N.jpg","img/neutralC/CFD-BF-205-141-N.jpg","img/neutralC/CFD-BM-033-003-N.jpg","1","1","1","0","0","0","0.581918000010774","0.508076299913228","0.594328399980441","1","1","1","1","1","1","1","1","1"
"250040","img/neutralC/CFD-BM-033-003-N.jpg","img/neutralC/CFD-LF-203-066-N.jpg","img/neutralC/CFD-AM-212-050-N.jpg","1","1","1","0","0","1","0.594328399980441","0.581918000010774","0.627326600020751","1","1","1","1","1","1","1","1","1"
"250040","img/neutralC/CFD-AM-212-050-N.jpg","img/neutralC/CFD-BM-033-003-N.jpg","img/neutralC/CFD-BM-239-136-N.jpg","1","1","1","1","0","1","0.627326600020751","0.594328399980441","0.585790900047868","1","1","1","1","1","1","1","1","1"
"250040","img/neutralC/CFD-BM-239-136-N.jpg","img/neutralC/CFD-AM-212-050-N.jpg","img/neutralC/CFD-LF-214-090-N.jpg","1","1","1","1","1","0","0.585790900047868","0.627326600020751","0.595871499972418","1","1","1","1","1","1","1","1","1"
"250040","img/neutralC/CFD-LF-214-090-N.jpg","img/neutralC/CFD-BM-239-136-N.jpg","img/neutralC/CFD-BF-039-031-N.jpg","1","1","1","0","1","1","0.595871499972418","0.585790900047868","0.509296300122514","1","1","1","1","1","1","1","1","1"
"250040","img/neutralC/CFD-BF-039-031-N.jpg","img/neutralC/CFD-LF-214-090-N.jpg","img/neutralC/CFD-LM-218-183-N.jpg","1","1","1","1","0","1","0.509296300122514","0.595871499972418","0.428883400047198","1","1","1","1","1","1","1","1","1"
"250040","img/neutralC/CFD-LM-218-183-N.jpg","img/neutralC/CFD-BF-039-031-N.jpg","img/neutralC/CFD-WF-224-099-N.jpg","1","1","1","1","1","0","0.428883400047198","0.509296300122514","0.580754399998114","1","1","1","1","1","1","1","1","1"
"250040","img/neutralC/CFD-WF-224-099-N.jpg","img/neutralC/CFD-LM-218-183-N.jpg","img/neutralC/CFD-IF-710-016-N.jpg","1","1","1","0","1","0","0.580754399998114","0.428883400047198","0.538100900128484","1","1","1","1","1","1","1","1","1"
"250040","img/neutralC/CFD-IF-710-016-N.jpg","img/neutralC/CFD-WF-224-099-N.jpg","img/neutralC/CFD-BF-213-188-N.jpg","1","1","1","0","0","1","0.538100900128484","0.580754399998114","0.486288700019941","1","1","1","1","1","1","1","1","1"
"250040","img/neutralC/CFD-BF-213-188-N.jpg","img/neutralC/CFD-IF-710-016-N.jpg","img/neutralC/CFD-WM-011-002-N.jpg","1","1","1","1","0","0","0.486288700019941","0.538100900128484","0.543557799886912","1","1","1","1","1","1","1","1","1"
"250040","img/neutralC/CFD-WM-011-002-N.jpg","img/neutralC/CFD-BF-213-188-N.jpg","img/neutralC/CFD-AM-201-076-N.jpg","1","1","1","0","1","1","0.543557799886912","0.486288700019941","0.593181799864396","1","1","1","1","1","1","1","1","1"
"250040","img/neutralC/CFD-AM-201-076-N.jpg","img/neutralC/CFD-WM-011-002-N.jpg","img/neutralC/CFD-BF-029-031-N.jpg","1","1","1","1","0","1","0.593181799864396","0.543557799886912","0.394472799962386","1","1","1","1","1","1","1","1","1"
"250040","img/neutralC/CFD-BF-029-031-N.jpg","img/neutralC/CFD-AM-201-076-N.jpg","img/neutralC/CFD-LF-224-176-N.jpg","1","1","1","1","1","0","0.394472799962386","0.593181799864396","0.586238599848002","1","1","1","1","1","1","1","1","1"
"250040","img/neutralC/CFD-LF-224-176-N.jpg","img/neutralC/CFD-BF-029-031-N.jpg","img/neutralC/CFD-WM-041-021-N.jpg","1","1","1","0","1","0","0.586238599848002","0.394472799962386","0.782632999820635","1","1","1","1","1","1","1","1","1"
"250040","img/neutralC/CFD-WM-041-021-N.jpg","img/neutralC/CFD-LF-224-176-N.jpg","img/neutralC/CFD-WM-021-001-N.jpg","1","1","1","0","0","1","0.782632999820635","0.586238599848002","0.595675999997184","1","1","1","1","1","1","1","1","1"
"250040","img/neutralC/CFD-WM-021-001-N.jpg","img/neutralC/CFD-WM-041-021-N.jpg","img/neutralC/CFD-WF-250-167-N.jpg","1","1","1","1","0","1","0.595675999997184","0.782632999820635","0.547825300134718","1","1","1","1","1","1","1","1","1"
"250040","img/neutralC/CFD-WF-250-167-N.jpg","img/neutralC/CFD-WM-021-001-N.jpg","img/neutralC/CFD-BF-253-202-N.jpg","1","1","1","1","1","0","0.547825300134718","0.595675999997184","0.628767699934542","1","1","1","1","1","1","1","1","1"
"250040","img/neutralC/CFD-BF-253-202-N.jpg","img/neutralC/CFD-WF-250-167-N.jpg","img/neutralC/CFD-MF-337-026-N.jpg","1","1","1","0","1","1","0.628767699934542","0.547825300134718","0.572188399964944","1","1","1","1","1","1","1","1","1"
"250040","img/neutralC/CFD-MF-337-026-N.jpg","img/neutralC/CFD-BF-253-202-N.jpg","img/neutralC/CFD-IM-684-008-N.jpg","1","1","1","1","0","1","0.572188399964944","0.628767699934542","0.544779800111428","1","1","1","1","1","1","1","1","1"
"250040","img/neutralC/CFD-IM-684-008-N.jpg","img/neutralC/CFD-MF-337-026-N.jpg","img/neutralC/CFD-WF-213-031-N.jpg","1","1","1","1","1","1","0.544779800111428","0.572188399964944","0.488303099991754","1","1","1","1","1","1","1","1","1"
"250040","img/neutralC/CFD-WF-213-031-N.jpg","img/neutralC/CFD-IM-684-008-N.jpg","img/neutralC/CFD-LF-205-100-N.jpg","1","1","1","1","1","1","0.488303099991754","0.544779800111428","1.03644659998827","1","1","1","1","1","1","1","1","1"
"250040","img/neutralC/CFD-LF-205-100-N.jpg","img/neutralC/CFD-WF-213-031-N.jpg","img/neutralC/CFD-BM-019-002-N.jpg","1","1","1","1","1","0","1.03644659998827","0.488303099991754","0.51531059993431","1","1","1","1","1","1","1","1","1"
"250040","img/neutralC/CFD-BM-019-002-N.jpg","img/neutralC/CFD-LF-205-100-N.jpg","img/neutralC/CFD-IF-634-382-N.jpg","1","1","1","0","1","1","0.51531059993431","1.03644659998827","0.541827599983662","1","1","1","1","1","1","1","1","1"
"250040","img/neutralC/CFD-IF-634-382-N.jpg","img/neutralC/CFD-BM-019-002-N.jpg","img/neutralC/CFD-BM-041-035-N.jpg","1","1","1","1","0","0","0.541827599983662","0.51531059993431","0.392281700158492","1","1","1","1","1","1","1","1","1"
"250040","img/neutralC/CFD-BM-041-035-N.jpg","img/neutralC/CFD-IF-634-382-N.jpg","img/neutralC/CFD-LF-230-203-N.jpg","1","1","1","0","1","0","0.392281700158492","0.541827599983662","0.546078399987891","1","1","1","1","1","1","1","1","1"
"250040","img/neutralC/CFD-LF-230-203-N.jpg","img/neutralC/CFD-BM-041-035-N.jpg","img/neutralC/CFD-IM-651-308-N.jpg","1","1","1","0","0","0","0.546078399987891","0.392281700158492","0.381317300023511","1","1","1","1","1","1","1","1","1"
"250040","img/neutralC/CFD-IM-651-308-N.jpg","img/neutralC/CFD-LF-230-203-N.jpg",NA,"1","1",NA,"0","0",NA,"0.381317300023511","0.546078399987891",NA,"1","1",NA,"1","1",NA,"1","1",NA
"250040","img/neutralC/CFD-BF-051-035-N.jpg",NA,"img/neutralC/CFD-MF-329-001-N.jpg","1",NA,"1","0",NA,"0","0.699260100023821",NA,"0.791948399972171","1",NA,"1","1",NA,"1","1",NA,"1"
"250040","img/neutralC/CFD-MF-329-001-N.jpg","img/neutralC/CFD-BF-051-035-N.jpg","img/neutralC/CFD-AF-229-160-N.jpg","1","1","1","0","0","0","0.791948399972171","0.699260100023821","0.544680000049993","1","1","1","1","1","1","1","1","1"
"250040","img/neutralC/CFD-AF-229-160-N.jpg","img/neutralC/CFD-MF-329-001-N.jpg","img/neutralC/CFD-IM-675-015-N.jpg","1","1","1","0","0","1","0.544680000049993","0.791948399972171","0.468015999998897","1","1","1","1","1","1","1","1","1"
"250040","img/neutralC/CFD-IM-675-015-N.jpg","img/neutralC/CFD-AF-229-160-N.jpg","img/neutralC/CFD-IM-685-004-N.jpg","1","1","1","1","0","1","0.468015999998897","0.544680000049993","0.498991699889302","1","1","1","1","1","1","1","1","1"
"250040","img/neutralC/CFD-IM-685-004-N.jpg","img/neutralC/CFD-IM-675-015-N.jpg","img/neutralC/CFD-MF-340-026-N.jpg","1","1","1","1","1","1","0.498991699889302","0.468015999998897","0.413430500077084","1","1","1","1","1","1","1","1","1"
"250040","img/neutralC/CFD-MF-340-026-N.jpg","img/neutralC/CFD-IM-685-004-N.jpg","img/neutralC/CFD-IF-608-390-N.jpg","1","1","1","1","1","1","0.413430500077084","0.498991699889302","0.536217899993062","1","1","1","1","1","1","1","1","1"
"250040","img/neutralC/CFD-IF-608-390-N.jpg","img/neutralC/CFD-MF-340-026-N.jpg","img/neutralC/CFD-IM-709-103-N.jpg","1","1","1","1","1","0","0.536217899993062","0.413430500077084","0.497878600144759","1","1","1","1","1","1","1","1","1"
"250040","img/neutralC/CFD-IM-709-103-N.jpg","img/neutralC/CFD-IF-608-390-N.jpg","img/neutralC/CFD-IM-604-014-N.jpg","1","1","1","0","1","0","0.497878600144759","0.536217899993062","0.617129900027066","1","1","1","1","1","1","1","1","1"
"250040","img/neutralC/CFD-IM-604-014-N.jpg","img/neutralC/CFD-IM-709-103-N.jpg","img/neutralC/CFD-BM-243-218-N.jpg","1","1","1","0","0","1","0.617129900027066","0.497878600144759","0.551476499997079","1","1","1","1","1","1","1","1","1"
"250040","img/neutralC/CFD-BM-243-218-N.jpg","img/neutralC/CFD-IM-604-014-N.jpg","img/neutralC/CFD-MM-304-002-N.jpg","1","1","1","1","0","1","0.551476499997079","0.617129900027066","0.62390030012466","1","1","1","1","1","1","1","1","1"
"250040","img/neutralC/CFD-MM-304-002-N.jpg","img/neutralC/CFD-BM-243-218-N.jpg","img/neutralC/CFD-BM-039-029-N.jpg","1","1","1","1","1","1","0.62390030012466","0.551476499997079","0.54141839989461","1","1","1","1","1","1","1","1","1"
"250040","img/neutralC/CFD-BM-039-029-N.jpg","img/neutralC/CFD-MM-304-002-N.jpg","img/neutralC/CFD-IM-637-007-N.jpg","1","1","1","1","1","0","0.54141839989461","0.62390030012466","0.513156400062144","1","1","1","1","1","1","1","1","1"
"250040","img/neutralC/CFD-IM-637-007-N.jpg","img/neutralC/CFD-BM-039-029-N.jpg","img/neutralC/CFD-WM-232-070-N.jpg","1","1","1","0","1","0","0.513156400062144","0.54141839989461","0.642668700078502","1","1","1","1","1","1","1","1","1"
"250040","img/neutralC/CFD-WM-232-070-N.jpg","img/neutralC/CFD-IM-637-007-N.jpg","img/neutralC/CFD-BF-043-003-N.jpg","1","1","1","0","0","0","0.642668700078502","0.513156400062144","0.510658399900422","1","1","1","1","1","1","1","1","1"
"250040","img/neutralC/CFD-BF-043-003-N.jpg","img/neutralC/CFD-WM-232-070-N.jpg","img/neutralC/CFD-LM-217-162-N.jpg","1","1","1","0","0","0","0.510658399900422","0.642668700078502","0.645526800071821","1","1","1","1","1","1","1","1","1"
"250040","img/neutralC/CFD-LM-217-162-N.jpg","img/neutralC/CFD-BF-043-003-N.jpg","img/neutralC/CFD-AM-236-090-N.jpg","1","1","1","0","0","1","0.645526800071821","0.510658399900422","0.494616699870676","1","1","1","1","1","1","1","1","1"
"250040","img/neutralC/CFD-AM-236-090-N.jpg","img/neutralC/CFD-LM-217-162-N.jpg","img/neutralC/CFD-LF-201-035-N.jpg","1","1","1","1","0","1","0.494616699870676","0.645526800071821","0.487589600030333","1","1","1","1","1","1","1","1","1"
"250040","img/neutralC/CFD-LF-201-035-N.jpg","img/neutralC/CFD-AM-236-090-N.jpg","img/neutralC/CFD-WM-213-076-N.jpg","1","1","1","1","1","1","0.487589600030333","0.494616699870676","0.500661300029606","1","1","1","1","1","1","1","1","1"
"250040","img/neutralC/CFD-WM-213-076-N.jpg","img/neutralC/CFD-LF-201-035-N.jpg","img/neutralC/CFD-IF-619-197-N.jpg","1","1","1","1","1","0","0.500661300029606","0.487589600030333","0.587213000049815","1","1","1","1","1","1","1","1","1"
"250040","img/neutralC/CFD-IF-619-197-N.jpg","img/neutralC/CFD-WM-213-076-N.jpg","img/neutralC/CFD-WF-248-129-N.jpg","1","1","1","0","1","0","0.587213000049815","0.500661300029606","0.528290400048718","1","1","1","1","1","1","1","1","1"
"250040","img/neutralC/CFD-WF-248-129-N.jpg","img/neutralC/CFD-IF-619-197-N.jpg","img/neutralC/CFD-WF-008-002-N.jpg","1","1","1","0","0","1","0.528290400048718","0.587213000049815","0.628952799830586","1","1","1","1","1","1","1","1","1"
"250040","img/neutralC/CFD-WF-008-002-N.jpg","img/neutralC/CFD-WF-248-129-N.jpg","img/neutralC/CFD-WM-024-015-N.jpg","1","1","1","1","0","1","0.628952799830586","0.528290400048718","0.552970099961385","1","1","1","1","1","1","1","1","1"
"250040","img/neutralC/CFD-WM-024-015-N.jpg","img/neutralC/CFD-WF-008-002-N.jpg","img/neutralC/CFD-BF-224-002-N.jpg","1","1","1","1","1","1","0.552970099961385","0.628952799830586","0.518009599996731","1","1","1","1","1","1","1","1","1"
"250040","img/neutralC/CFD-BF-224-002-N.jpg","img/neutralC/CFD-WM-024-015-N.jpg","img/neutralC/CFD-AF-215-70-N.jpg","1","1","1","1","1","0","0.518009599996731","0.552970099961385","0.556939900154248","1","1","1","1","1","1","1","1","1"
"250040","img/neutralC/CFD-AF-215-70-N.jpg","img/neutralC/CFD-BF-224-002-N.jpg","img/neutralC/CFD-WF-012-002-N.jpg","1","1","1","0","1","1","0.556939900154248","0.518009599996731","0.561341699911281","1","1","1","1","1","1","1","1","1"
"250040","img/neutralC/CFD-WF-012-002-N.jpg","img/neutralC/CFD-AF-215-70-N.jpg","img/neutralC/CFD-WF-212-050-N.jpg","1","1","1","1","0","0","0.561341699911281","0.556939900154248","0.641776400152594","1","1","1","1","1","1","1","1","1"
"250040","img/neutralC/CFD-WF-212-050-N.jpg","img/neutralC/CFD-WF-012-002-N.jpg","img/neutralC/CFD-LF-226-174-N.jpg","1","1","1","0","1","0","0.641776400152594","0.561341699911281","0.737336499849334","1","1","1","1","1","1","1","1","1"
"250040","img/neutralC/CFD-LF-226-174-N.jpg","img/neutralC/CFD-WF-212-050-N.jpg","img/neutralC/CFD-WF-217-085-N.jpg","1","1","1","0","0","1","0.737336499849334","0.641776400152594","0.499586199875921","1","1","1","1","1","1","1","1","1"
"250040","img/neutralC/CFD-WF-217-085-N.jpg","img/neutralC/CFD-LF-226-174-N.jpg","img/neutralC/CFD-MF-300-002-N.jpg","1","1","1","1","0","0","0.499586199875921","0.737336499849334","0.528672199929133","1","1","1","1","1","1","1","1","1"
"250040","img/neutralC/CFD-MF-300-002-N.jpg","img/neutralC/CFD-WF-217-085-N.jpg","img/neutralC/CFD-AF-254-167-N.jpg","1","1","1","0","1","1","0.528672199929133","0.499586199875921","0.515639699995518","1","1","1","1","1","1","1","1","1"
"250040","img/neutralC/CFD-AF-254-167-N.jpg","img/neutralC/CFD-MF-300-002-N.jpg","img/neutralC/CFD-MF-327-002-N.jpg","1","1","1","1","0","0","0.515639699995518","0.528672199929133","0.568666500039399","1","1","1","1","1","1","1","1","1"
"250040","img/neutralC/CFD-MF-327-002-N.jpg","img/neutralC/CFD-AF-254-167-N.jpg",NA,"1","1",NA,"0","1",NA,"0.568666500039399","0.515639699995518",NA,"1","1",NA,"1","1",NA,"1","1",NA
"250040","img/neutralC/CFD-BM-029-024-N.jpg",NA,"img/neutralC/CFD-IF-718-001-N.jpg","1",NA,"1","1",NA,"1","0.899919700110331",NA,"0.53913059993647","1",NA,"1","1",NA,"1","1",NA,"1"
"250040","img/neutralC/CFD-IF-718-001-N.jpg","img/neutralC/CFD-BM-029-024-N.jpg","img/neutralC/CFD-BF-204-189-N.jpg","1","1","1","1","1","1","0.53913059993647","0.899919700110331","0.530603700084612","1","1","1","1","1","1","1","1","1"
"250040","img/neutralC/CFD-BF-204-189-N.jpg","img/neutralC/CFD-IF-718-001-N.jpg","img/neutralC/CFD-WF-002-004-N.jpg","1","1","1","1","1","0","0.530603700084612","0.53913059993647","0.509501399938017","1","1","1","1","1","1","1","1","1"
"250040","img/neutralC/CFD-WF-002-004-N.jpg","img/neutralC/CFD-BF-204-189-N.jpg","img/neutralC/CFD-BF-028-001-N.jpg","1","1","1","0","1","1","0.509501399938017","0.530603700084612","0.448736499994993","1","1","1","1","1","1","1","1","1"
"250040","img/neutralC/CFD-BF-028-001-N.jpg","img/neutralC/CFD-WF-002-004-N.jpg","img/neutralC/CFD-BF-208-266-N.jpg","1","1","1","1","0","0","0.448736499994993","0.509501399938017","0.439234599936754","1","1","1","1","1","1","1","1","1"
"250040","img/neutralC/CFD-BF-208-266-N.jpg","img/neutralC/CFD-BF-028-001-N.jpg","img/neutralC/CFD-AM-215-120-N.jpg","1","1","1","0","1","1","0.439234599936754","0.448736499994993","0.422300200210884","1","1","1","1","1","1","1","1","1"
"250040","img/neutralC/CFD-AM-215-120-N.jpg","img/neutralC/CFD-BF-208-266-N.jpg","img/neutralC/CFD-WM-038-003-N.jpg","1","1","1","1","0","0","0.422300200210884","0.439234599936754","0.689079500036314","1","1","1","1","1","1","1","1","1"
"250040","img/neutralC/CFD-WM-038-003-N.jpg","img/neutralC/CFD-AM-215-120-N.jpg","img/neutralC/CFD-WM-002-009-N.jpg","1","1","1","0","1","0","0.689079500036314","0.422300200210884","0.465347800171003","1","1","1","1","1","1","1","1","1"
"250040","img/neutralC/CFD-WM-002-009-N.jpg","img/neutralC/CFD-WM-038-003-N.jpg","img/neutralC/CFD-IM-728-041-N.jpg","1","1","1","0","0","0","0.465347800171003","0.689079500036314","0.663856600178406","1","1","1","1","1","1","1","1","1"
"250040","img/neutralC/CFD-IM-728-041-N.jpg","img/neutralC/CFD-WM-002-009-N.jpg","img/neutralC/CFD-BF-003-003-N.jpg","1","1","1","0","0","0","0.663856600178406","0.465347800171003","0.582103000022471","1","1","1","1","1","1","1","1","1"
"250040","img/neutralC/CFD-BF-003-003-N.jpg","img/neutralC/CFD-IM-728-041-N.jpg","img/neutralC/CFD-BF-023-010-N.jpg","1","1","1","0","0","1","0.582103000022471","0.663856600178406","0.518812800059095","1","1","1","1","1","1","1","1","1"
"250040","img/neutralC/CFD-BF-023-010-N.jpg","img/neutralC/CFD-BF-003-003-N.jpg","img/neutralC/CFD-BM-015-015-N.jpg","1","1","1","1","0","0","0.518812800059095","0.582103000022471","0.673768799984828","1","1","1","1","1","1","1","1","1"
"250040","img/neutralC/CFD-BM-015-015-N.jpg","img/neutralC/CFD-BF-023-010-N.jpg","img/neutralC/CFD-WM-040-022-N.jpg","1","1","1","0","1","0","0.673768799984828","0.518812800059095","0.58818109985441","1","1","1","1","1","1","1","1","1"
"250040","img/neutralC/CFD-WM-040-022-N.jpg","img/neutralC/CFD-BM-015-015-N.jpg","img/neutralC/CFD-WF-022-017-N.jpg","1","1","1","0","0","0","0.58818109985441","0.673768799984828","0.527471299981698","1","1","1","1","1","1","1","1","1"
"250040","img/neutralC/CFD-WF-022-017-N.jpg","img/neutralC/CFD-WM-040-022-N.jpg","img/neutralC/CFD-WM-225-127-N.jpg","1","1","1","0","0","0","0.527471299981698","0.58818109985441","0.576696200063452","1","1","1","1","1","1","1","1","1"
"250040","img/neutralC/CFD-WM-225-127-N.jpg","img/neutralC/CFD-WF-022-017-N.jpg","img/neutralC/CFD-WF-026-002-N.jpg","1","1","1","0","0","1","0.576696200063452","0.527471299981698","0.718923000153154","1","1","1","1","1","1","1","1","1"
"250040","img/neutralC/CFD-WF-026-002-N.jpg","img/neutralC/CFD-WM-225-127-N.jpg","img/neutralC/CFD-WM-257-161-N.jpg","1","1","1","1","0","1","0.718923000153154","0.576696200063452","0.6892423001118","1","1","1","1","1","1","1","1","1"
"250040","img/neutralC/CFD-WM-257-161-N.jpg","img/neutralC/CFD-WF-026-002-N.jpg","img/neutralC/CFD-BM-247-240-N.jpg","1","1","1","1","1","0","0.6892423001118","0.718923000153154","0.495102999964729","1","1","1","1","1","1","1","1","1"
"250040","img/neutralC/CFD-BM-247-240-N.jpg","img/neutralC/CFD-WM-257-161-N.jpg","img/neutralC/CFD-BF-201-080-N.jpg","1","1","1","0","1","1","0.495102999964729","0.6892423001118","0.498673999914899","1","1","1","1","1","1","1","1","1"
"250040","img/neutralC/CFD-BF-201-080-N.jpg","img/neutralC/CFD-BM-247-240-N.jpg","img/neutralC/CFD-AM-235-241-N.jpg","1","1","1","1","0","0","0.498673999914899","0.495102999964729","0.488041899865493","1","1","1","1","1","1","1","1","1"
"250040","img/neutralC/CFD-AM-235-241-N.jpg","img/neutralC/CFD-BF-201-080-N.jpg","img/neutralC/CFD-BF-255-140-N.jpg","1","1","1","0","1","1","0.488041899865493","0.498673999914899","0.429545100079849","1","1","1","1","1","1","1","1","1"
"250040","img/neutralC/CFD-BF-255-140-N.jpg","img/neutralC/CFD-AM-235-241-N.jpg","img/neutralC/CFD-BM-211-174-N.jpg","1","1","1","1","0","0","0.429545100079849","0.488041899865493","0.415388399967924","1","1","1","1","1","1","1","1","1"
"250040","img/neutralC/CFD-BM-211-174-N.jpg","img/neutralC/CFD-BF-255-140-N.jpg","img/neutralC/CFD-MM-319-052-N.jpg","1","1","1","0","1","1","0.415388399967924","0.429545100079849","0.444546299986541","1","1","1","1","1","1","1","1","1"
"250040","img/neutralC/CFD-MM-319-052-N.jpg","img/neutralC/CFD-BM-211-174-N.jpg","img/neutralC/CFD-AM-217-085-N.jpg","1","1","1","1","0","0","0.444546299986541","0.415388399967924","1.54607910010964","1","1","1","1","1","1","1","1","1"
"250040","img/neutralC/CFD-AM-217-085-N.jpg","img/neutralC/CFD-MM-319-052-N.jpg","img/neutralC/CFD-BM-027-001-N.jpg","1","1","0","0","1","0","1.54607910010964","0.444546299986541","0.666237200144678","1","1","1","1","1","1","1","1","1"
"250040","img/neutralC/CFD-BM-027-001-N.jpg","img/neutralC/CFD-AM-217-085-N.jpg","img/neutralC/CFD-IF-672-305-N.jpg","0","1","1","0","0","0","0.666237200144678","1.54607910010964","0.595597499981523","1","1","1","1","1","1","1","1","1"
"250040","img/neutralC/CFD-IF-672-305-N.jpg","img/neutralC/CFD-BM-027-001-N.jpg","img/neutralC/CFD-LF-236-221-N.jpg","1","0","1","0","0","1","0.595597499981523","0.666237200144678","0.489294300088659","1","1","1","1","1","1","1","1","1"
"250040","img/neutralC/CFD-LF-236-221-N.jpg","img/neutralC/CFD-IF-672-305-N.jpg","img/neutralC/CFD-LM-252-076-N.jpg","1","1","1","1","0","1","0.489294300088659","0.595597499981523","0.449044000124559","1","1","1","1","1","1","1","1","1"
"250040","img/neutralC/CFD-LM-252-076-N.jpg","img/neutralC/CFD-LF-236-221-N.jpg","img/neutralC/CFD-IM-674-281-N.jpg","1","1","1","1","1","1","0.449044000124559","0.489294300088659","0.527355199912563","1","1","1","1","1","1","1","1","1"
"250040","img/neutralC/CFD-IM-674-281-N.jpg","img/neutralC/CFD-LM-252-076-N.jpg","img/neutralC/CFD-LF-216-121-N.jpg","1","1","1","1","1","1","0.527355199912563","0.449044000124559","0.552239699987695","1","1","1","1","1","1","1","1","1"
"250040","img/neutralC/CFD-LF-216-121-N.jpg","img/neutralC/CFD-IM-674-281-N.jpg","img/neutralC/CFD-IM-639-263-N.jpg","1","1","1","1","1","1","0.552239699987695","0.527355199912563","0.51424300018698","1","1","1","1","1","1","1","1","1"
"250040","img/neutralC/CFD-IM-639-263-N.jpg","img/neutralC/CFD-LF-216-121-N.jpg",NA,"1","1",NA,"1","1",NA,"0.51424300018698","0.552239699987695",NA,"1","1",NA,"1","1",NA,"1","1",NA
"250040","img/neutralC/CFD-WM-019-003-N.jpg",NA,"img/neutralC/CFD-MM-317-061-N.jpg","1",NA,"1","1",NA,"1","1.61223269999027",NA,"0.72593199997209","1",NA,"1","1",NA,"1","1",NA,"1"
"250040","img/neutralC/CFD-MM-317-061-N.jpg","img/neutralC/CFD-WM-019-003-N.jpg","img/neutralC/CFD-WF-228-196-N.jpg","1","1","1","1","1","0","0.72593199997209","1.61223269999027","0.529431999893859","1","1","1","1","1","1","1","1","1"
"250040","img/neutralC/CFD-WF-228-196-N.jpg","img/neutralC/CFD-MM-317-061-N.jpg","img/neutralC/CFD-WM-006-002-N.jpg","1","1","1","0","1","0","0.529431999893859","0.72593199997209","0.524893200024962","1","1","1","1","1","1","1","1","1"
"250040","img/neutralC/CFD-WM-006-002-N.jpg","img/neutralC/CFD-WF-228-196-N.jpg","img/neutralC/CFD-LM-244-068-N.jpg","1","1","1","0","0","1","0.524893200024962","0.529431999893859","0.40643689990975","1","1","1","1","1","1","1","1","1"
"250040","img/neutralC/CFD-LM-244-068-N.jpg","img/neutralC/CFD-WM-006-002-N.jpg","img/neutralC/CFD-AM-247-165-N.jpg","1","1","1","1","0","1","0.40643689990975","0.524893200024962","0.368516799993813","1","1","1","1","1","1","1","1","1"
"250040","img/neutralC/CFD-AM-247-165-N.jpg","img/neutralC/CFD-LM-244-068-N.jpg","img/neutralC/CFD-IM-646-023-N.jpg","1","1","1","1","1","1","0.368516799993813","0.40643689990975","0.389241899829358","1","1","1","1","1","1","1","1","1"
"250040","img/neutralC/CFD-IM-646-023-N.jpg","img/neutralC/CFD-AM-247-165-N.jpg","img/neutralC/CFD-WM-212-097-N.jpg","1","1","1","1","1","0","0.389241899829358","0.368516799993813","0.376043000025675","1","1","1","1","1","1","1","1","1"
"250040","img/neutralC/CFD-WM-212-097-N.jpg","img/neutralC/CFD-IM-646-023-N.jpg","img/neutralC/CFD-WF-005-010-N.jpg","1","1","1","0","1","0","0.376043000025675","0.389241899829358","0.57455400004983","1","1","1","1","1","1","1","1","1"
"250040","img/neutralC/CFD-WF-005-010-N.jpg","img/neutralC/CFD-WM-212-097-N.jpg","img/neutralC/CFD-BF-041-001-N.jpg","1","1","1","0","0","1","0.57455400004983","0.376043000025675","0.556552699999884","1","1","1","1","1","1","1","1","1"
"250040","img/neutralC/CFD-BF-041-001-N.jpg","img/neutralC/CFD-WF-005-010-N.jpg","img/neutralC/CFD-MF-309-002-N.jpg","1","1","1","1","0","0","0.556552699999884","0.57455400004983","0.510881199967116","1","1","1","1","1","1","1","1","1"
"250040","img/neutralC/CFD-MF-309-002-N.jpg","img/neutralC/CFD-BF-041-001-N.jpg","img/neutralC/CFD-BF-228-212-N.jpg","1","1","1","0","1","0","0.510881199967116","0.556552699999884","0.678240200038999","1","1","1","1","1","1","1","1","1"
"250040","img/neutralC/CFD-BF-228-212-N.jpg","img/neutralC/CFD-MF-309-002-N.jpg","img/neutralC/CFD-BM-251-013-N.jpg","1","1","1","0","0","1","0.678240200038999","0.510881199967116","0.426142900018022","1","1","1","1","1","1","1","1","1"
"250040","img/neutralC/CFD-BM-251-013-N.jpg","img/neutralC/CFD-BF-228-212-N.jpg","img/neutralC/CFD-WM-012-001-N.jpg","1","1","1","1","0","1","0.426142900018022","0.678240200038999","0.489719700068235","1","1","1","1","1","1","1","1","1"
"250040","img/neutralC/CFD-WM-012-001-N.jpg","img/neutralC/CFD-BM-251-013-N.jpg","img/neutralC/CFD-WM-215-041-N.jpg","1","1","1","1","1","0","0.489719700068235","0.426142900018022","0.693914799951017","1","1","1","1","1","1","1","1","1"
"250040","img/neutralC/CFD-WM-215-041-N.jpg","img/neutralC/CFD-WM-012-001-N.jpg","img/neutralC/CFD-BF-202-109-N.jpg","1","1","1","0","1","1","0.693914799951017","0.489719700068235","0.630353600019589","1","1","1","1","1","1","1","1","1"
"250040","img/neutralC/CFD-BF-202-109-N.jpg","img/neutralC/CFD-WM-215-041-N.jpg","img/neutralC/CFD-IF-642-295-N.jpg","1","1","1","1","0","1","0.630353600019589","0.693914799951017","0.46085870009847","1","1","1","1","1","1","1","1","1"
"250040","img/neutralC/CFD-IF-642-295-N.jpg","img/neutralC/CFD-BF-202-109-N.jpg","img/neutralC/CFD-BF-212-315-N.jpg","1","1","1","1","1","1","0.46085870009847","0.630353600019589","0.523345299996436","1","1","1","1","1","1","1","1","1"
"250040","img/neutralC/CFD-BF-212-315-N.jpg","img/neutralC/CFD-IF-642-295-N.jpg","img/neutralC/CFD-WF-017-003-N.jpg","1","1","1","1","1","1","0.523345299996436","0.46085870009847","0.615916700102389","1","1","1","1","1","1","1","1","1"
"250040","img/neutralC/CFD-WF-017-003-N.jpg","img/neutralC/CFD-BF-212-315-N.jpg","img/neutralC/CFD-WM-249-239-N.jpg","1","1","1","1","1","1","0.615916700102389","0.523345299996436","0.540896800113842","1","1","1","1","1","1","1","1","1"
"250040","img/neutralC/CFD-WM-249-239-N.jpg","img/neutralC/CFD-WF-017-003-N.jpg","img/neutralC/CFD-BM-248-128-N.jpg","1","1","1","1","1","0","0.540896800113842","0.615916700102389","0.463288499973714","1","1","1","1","1","1","1","1","1"
"250040","img/neutralC/CFD-BM-248-128-N.jpg","img/neutralC/CFD-WM-249-239-N.jpg","img/neutralC/CFD-AF-240-206-N.jpg","1","1","1","0","1","0","0.463288499973714","0.540896800113842","0.584598700050265","1","1","1","1","1","1","1","1","1"
"250040","img/neutralC/CFD-AF-240-206-N.jpg","img/neutralC/CFD-BM-248-128-N.jpg","img/neutralC/CFD-LM-201-057-N.jpg","1","1","1","0","0","1","0.584598700050265","0.463288499973714","0.523666500113904","1","1","1","1","1","1","1","1","1"
"250040","img/neutralC/CFD-LM-201-057-N.jpg","img/neutralC/CFD-AF-240-206-N.jpg","img/neutralC/CFD-LM-243-075-N.jpg","1","1","1","1","0","0","0.523666500113904","0.584598700050265","0.815900299930945","1","1","1","1","1","1","1","1","1"
"250040","img/neutralC/CFD-LM-243-075-N.jpg","img/neutralC/CFD-LM-201-057-N.jpg","img/neutralC/CFD-MF-335-002-N.jpg","1","1","1","0","1","0","0.815900299930945","0.523666500113904","0.497656000079587","1","1","1","1","1","1","1","1","1"
"250040","img/neutralC/CFD-MF-335-002-N.jpg","img/neutralC/CFD-LM-243-075-N.jpg","img/neutralC/CFD-BM-205-001-N.jpg","1","1","1","0","0","0","0.497656000079587","0.815900299930945","0.533212400041521","1","1","1","1","1","1","1","1","1"
"250040","img/neutralC/CFD-BM-205-001-N.jpg","img/neutralC/CFD-MF-335-002-N.jpg","img/neutralC/CFD-LM-214-165-N.jpg","1","1","1","0","0","1","0.533212400041521","0.497656000079587","0.766818599775434","1","1","1","1","1","1","1","1","1"
"250040","img/neutralC/CFD-LM-214-165-N.jpg","img/neutralC/CFD-BM-205-001-N.jpg","img/neutralC/CFD-WF-240-083-N.jpg","1","1","1","1","0","0","0.766818599775434","0.533212400041521","0.616610800148919","1","1","1","1","1","1","1","1","1"
"250040","img/neutralC/CFD-WF-240-083-N.jpg","img/neutralC/CFD-LM-214-165-N.jpg","img/neutralC/CFD-BF-025-002-N.jpg","1","1","1","0","1","0","0.616610800148919","0.766818599775434","0.514118799939752","1","1","1","1","1","1","1","1","1"
"250040","img/neutralC/CFD-BF-025-002-N.jpg","img/neutralC/CFD-WF-240-083-N.jpg","img/neutralC/CFD-WM-026-001-N.jpg","1","1","1","0","0","1","0.514118799939752","0.616610800148919","0.576061800122261","1","1","1","1","1","1","1","1","1"
"250040","img/neutralC/CFD-WM-026-001-N.jpg","img/neutralC/CFD-BF-025-002-N.jpg","img/neutralC/CFD-IM-648-337-N.jpg","1","1","1","1","0","0","0.576061800122261","0.514118799939752","0.614455299917608","1","1","1","1","1","1","1","1","1"
"250040","img/neutralC/CFD-IM-648-337-N.jpg","img/neutralC/CFD-WM-026-001-N.jpg","img/neutralC/CFD-LM-216-082-N.jpg","1","1","1","0","1","0","0.614455299917608","0.576061800122261","0.507009899942204","1","1","1","1","1","1","1","1","1"
"250040","img/neutralC/CFD-LM-216-082-N.jpg","img/neutralC/CFD-IM-648-337-N.jpg",NA,"1","1",NA,"0","0",NA,"0.507009899942204","0.614455299917608",NA,"1","1",NA,"1","1",NA,"1","1",NA
"250040","img/neutralC/CFD-WM-034-030-N.jpg",NA,"img/neutralC/CFD-BF-011-002-N.jpg","1",NA,"1","1",NA,"1","0.533667200012133",NA,"0.580263799987733","1",NA,"1","1",NA,"1","1",NA,"1"
"250040","img/neutralC/CFD-BF-011-002-N.jpg","img/neutralC/CFD-WM-034-030-N.jpg","img/neutralC/CFD-WF-208-068-N.jpg","1","1","1","1","1","1","0.580263799987733","0.533667200012133","0.482623299816623","1","1","1","1","1","1","1","1","1"
"250040","img/neutralC/CFD-WF-208-068-N.jpg","img/neutralC/CFD-BF-011-002-N.jpg","img/neutralC/CFD-AM-230-150-N.jpg","1","1","1","1","1","0","0.482623299816623","0.580263799987733","0.580029800068587","1","1","1","1","1","1","1","1","1"
"250040","img/neutralC/CFD-AM-230-150-N.jpg","img/neutralC/CFD-WF-208-068-N.jpg","img/neutralC/CFD-BF-036-027-N.jpg","1","1","1","0","1","0","0.580029800068587","0.482623299816623","0.701048700138927","1","1","1","1","1","1","1","1","1"
"250040","img/neutralC/CFD-BF-036-027-N.jpg","img/neutralC/CFD-AM-230-150-N.jpg","img/neutralC/CFD-LF-204-133-N.jpg","1","1","1","0","0","1","0.701048700138927","0.580029800068587","0.433534399839118","1","1","1","1","1","1","1","1","1"
"250040","img/neutralC/CFD-LF-204-133-N.jpg","img/neutralC/CFD-BF-036-027-N.jpg","img/neutralC/CFD-BF-044-034-N.jpg","1","1","1","1","0","0","0.433534399839118","0.701048700138927","0.501132299890742","1","1","1","1","1","1","1","1","1"
"250040","img/neutralC/CFD-BF-044-034-N.jpg","img/neutralC/CFD-LF-204-133-N.jpg","img/neutralC/CFD-BM-241-235-N.jpg","1","1","1","0","1","0","0.501132299890742","0.433534399839118","0.646459100069478","1","1","1","1","1","1","1","1","1"
"250040","img/neutralC/CFD-BM-241-235-N.jpg","img/neutralC/CFD-BF-044-034-N.jpg","img/neutralC/CFD-WF-234-086-N.jpg","1","1","1","0","0","1","0.646459100069478","0.501132299890742","0.482301800046116","1","1","1","1","1","1","1","1","1"
"250040","img/neutralC/CFD-WF-234-086-N.jpg","img/neutralC/CFD-BM-241-235-N.jpg","img/neutralC/CFD-BF-247-179-N.jpg","1","1","1","1","0","0","0.482301800046116","0.646459100069478","0.475080900127068","1","1","1","1","1","1","1","1","1"
"250040","img/neutralC/CFD-BF-247-179-N.jpg","img/neutralC/CFD-WF-234-086-N.jpg","img/neutralC/CFD-IM-721-341-N.jpg","1","1","1","0","1","1","0.475080900127068","0.482301800046116","0.477173699997365","1","1","1","1","1","1","1","1","1"
"250040","img/neutralC/CFD-IM-721-341-N.jpg","img/neutralC/CFD-BF-247-179-N.jpg","img/neutralC/CFD-WF-233-112-N.jpg","1","1","1","1","0","1","0.477173699997365","0.475080900127068","0.60191040020436","1","1","1","1","1","1","1","1","1"
"250040","img/neutralC/CFD-WF-233-112-N.jpg","img/neutralC/CFD-IM-721-341-N.jpg","img/neutralC/CFD-IF-677-452-1-N.jpg","1","1","1","1","1","1","0.60191040020436","0.477173699997365","0.561021700035781","1","1","1","1","1","1","1","1","1"
"250040","img/neutralC/CFD-IF-677-452-1-N.jpg","img/neutralC/CFD-WF-233-112-N.jpg","img/neutralC/CFD-IM-707-105-N.jpg","1","1","1","1","1","1","0.561021700035781","0.60191040020436","0.559488500002772","1","1","1","1","1","1","1","1","1"
"250040","img/neutralC/CFD-IM-707-105-N.jpg","img/neutralC/CFD-IF-677-452-1-N.jpg","img/neutralC/CFD-MF-301-024-N.jpg","1","1","1","1","1","0","0.559488500002772","0.561021700035781","0.431268100161105","1","1","1","1","1","1","1","1","1"
"250040","img/neutralC/CFD-MF-301-024-N.jpg","img/neutralC/CFD-IM-707-105-N.jpg","img/neutralC/CFD-BF-006-017-N.jpg","1","1","1","0","1","0","0.431268100161105","0.559488500002772","0.512666499940678","1","1","1","1","1","1","1","1","1"
"250040","img/neutralC/CFD-BF-006-017-N.jpg","img/neutralC/CFD-MF-301-024-N.jpg","img/neutralC/CFD-LM-213-061-N.jpg","1","1","1","0","0","0","0.512666499940678","0.431268100161105","0.720505699981004","1","1","1","1","1","1","1","1","1"
"250040","img/neutralC/CFD-LM-213-061-N.jpg","img/neutralC/CFD-BF-006-017-N.jpg","img/neutralC/CFD-WM-248-036-N.jpg","1","1","1","0","0","1","0.720505699981004","0.512666499940678","0.612316600047052","1","1","1","1","1","1","1","1","1"
"250040","img/neutralC/CFD-WM-248-036-N.jpg","img/neutralC/CFD-LM-213-061-N.jpg","img/neutralC/CFD-WF-029-002-N.jpg","1","1","1","1","0","0","0.612316600047052","0.720505699981004","0.795997499953955","1","1","1","1","1","1","1","1","1"
"250040","img/neutralC/CFD-WF-029-002-N.jpg","img/neutralC/CFD-WM-248-036-N.jpg","img/neutralC/CFD-IF-729-393-N.jpg","1","1","1","0","1","0","0.795997499953955","0.612316600047052","0.619208799907938","1","1","1","1","1","1","1","1","1"
"250040","img/neutralC/CFD-IF-729-393-N.jpg","img/neutralC/CFD-WF-029-002-N.jpg","img/neutralC/CFD-BM-207-024-N.jpg","1","1","1","0","0","1","0.619208799907938","0.795997499953955","0.541089900070801","1","1","1","1","1","1","1","1","1"
"250040","img/neutralC/CFD-BM-207-024-N.jpg","img/neutralC/CFD-IF-729-393-N.jpg","img/neutralC/CFD-BF-214-308-N.jpg","1","1","1","1","0","1","0.541089900070801","0.619208799907938","0.601025199983269","1","1","1","1","1","1","1","1","1"
"250040","img/neutralC/CFD-BF-214-308-N.jpg","img/neutralC/CFD-BM-207-024-N.jpg","img/neutralC/CFD-BM-238-242-N.jpg","1","1","1","1","1","0","0.601025199983269","0.541089900070801","0.572747699916363","1","1","1","1","1","1","1","1","1"
"250040","img/neutralC/CFD-BM-238-242-N.jpg","img/neutralC/CFD-BF-214-308-N.jpg","img/neutralC/CFD-BF-236-177-N.jpg","1","1","1","0","1","0","0.572747699916363","0.601025199983269","0.621765000047162","1","1","1","1","1","1","1","1","1"
"250040","img/neutralC/CFD-BF-236-177-N.jpg","img/neutralC/CFD-BM-238-242-N.jpg","img/neutralC/CFD-BF-027-002-N.jpg","1","1","1","0","0","1","0.621765000047162","0.572747699916363","0.458849400049075","1","1","1","1","1","1","1","1","1"
"250040","img/neutralC/CFD-BF-027-002-N.jpg","img/neutralC/CFD-BF-236-177-N.jpg","img/neutralC/CFD-WM-014-002-N.jpg","1","1","1","1","0","0","0.458849400049075","0.621765000047162","0.461880500195548","1","1","1","1","1","1","1","1","1"
"250040","img/neutralC/CFD-WM-014-002-N.jpg","img/neutralC/CFD-BF-027-002-N.jpg","img/neutralC/CFD-IM-726-248-N.jpg","1","1","1","0","1","0","0.461880500195548","0.458849400049075","0.494954199995846","1","1","1","1","1","1","1","1","1"
"250040","img/neutralC/CFD-IM-726-248-N.jpg","img/neutralC/CFD-WM-014-002-N.jpg","img/neutralC/CFD-BM-036-003-N.jpg","1","1","1","0","0","1","0.494954199995846","0.461880500195548","0.596940900199115","1","1","1","1","1","1","1","1","1"
"250040","img/neutralC/CFD-BM-036-003-N.jpg","img/neutralC/CFD-IM-726-248-N.jpg","img/neutralC/CFD-BF-207-004-N.jpg","1","1","1","1","0","1","0.596940900199115","0.494954199995846","0.477341699879616","1","1","1","1","1","1","1","1","1"
"250040","img/neutralC/CFD-BF-207-004-N.jpg","img/neutralC/CFD-BM-036-003-N.jpg","img/neutralC/CFD-IF-742-103-N.jpg","1","1","1","1","1","1","0.477341699879616","0.596940900199115","0.46246109995991","1","1","1","1","1","1","1","1","1"
"250040","img/neutralC/CFD-IF-742-103-N.jpg","img/neutralC/CFD-BF-207-004-N.jpg","img/neutralC/CFD-IM-696-001-N.jpg","1","1","1","1","1","0","0.46246109995991","0.477341699879616","0.56845790008083","1","1","1","1","1","1","1","1","1"
"250040","img/neutralC/CFD-IM-696-001-N.jpg","img/neutralC/CFD-IF-742-103-N.jpg","img/neutralC/CFD-BF-002-001-N.jpg","1","1","1","0","1","0","0.56845790008083","0.46246109995991","0.515204699942842","1","1","1","1","1","1","1","1","1"
"250040","img/neutralC/CFD-BF-002-001-N.jpg","img/neutralC/CFD-IM-696-001-N.jpg",NA,"1","1",NA,"0","0",NA,"0.515204699942842","0.56845790008083",NA,"1","1",NA,"1","1",NA,"1","1",NA
"250040","img/neutralC/CFD-WF-027-003-N.jpg",NA,"img/neutralC/CFD-BF-018-039-N.jpg","1",NA,"1","1",NA,"1","0.692699800012633",NA,"0.519874599995092","1",NA,"1","1",NA,"1","1",NA,"1"
"250040","img/neutralC/CFD-BF-018-039-N.jpg","img/neutralC/CFD-WF-027-003-N.jpg","img/neutralC/CFD-WM-013-001-N.jpg","1","1","1","1","1","1","0.519874599995092","0.692699800012633","0.589679999975488","1","1","1","1","1","1","1","1","1"
"250040","img/neutralC/CFD-WM-013-001-N.jpg","img/neutralC/CFD-BF-018-039-N.jpg","img/neutralC/CFD-WM-221-091-N.jpg","1","1","1","1","1","0","0.589679999975488","0.519874599995092","0.546101200161502","1","1","1","1","1","1","1","1","1"
"250040","img/neutralC/CFD-WM-221-091-N.jpg","img/neutralC/CFD-WM-013-001-N.jpg","img/neutralC/CFD-BF-254-201-N.jpg","1","1","1","0","1","0","0.546101200161502","0.589679999975488","0.542691600043327","1","1","1","1","1","1","1","1","1"
"250040","img/neutralC/CFD-BF-254-201-N.jpg","img/neutralC/CFD-WM-221-091-N.jpg","img/neutralC/CFD-BM-204-003-N.jpg","1","1","1","0","0","0","0.542691600043327","0.546101200161502","0.457005099859089","1","1","1","1","1","1","1","1","1"
"250040","img/neutralC/CFD-BM-204-003-N.jpg","img/neutralC/CFD-BF-254-201-N.jpg","img/neutralC/CFD-BM-023-029-N.jpg","1","1","1","0","0","1","0.457005099859089","0.542691600043327","0.478510700166225","1","1","1","1","1","1","1","1","1"
"250040","img/neutralC/CFD-BM-023-029-N.jpg","img/neutralC/CFD-BM-204-003-N.jpg","img/neutralC/CFD-BF-218-207-N.jpg","1","1","1","1","0","1","0.478510700166225","0.457005099859089","0.540399100165814","1","1","1","1","1","1","1","1","1"
"250040","img/neutralC/CFD-BF-218-207-N.jpg","img/neutralC/CFD-BM-023-029-N.jpg","img/neutralC/CFD-WM-009-002-N.jpg","1","1","1","1","1","0","0.540399100165814","0.478510700166225","0.647625599987805","1","1","1","1","1","1","1","1","1"
"250040","img/neutralC/CFD-WM-009-002-N.jpg","img/neutralC/CFD-BF-218-207-N.jpg","img/neutralC/CFD-IM-700-009-N.jpg","1","1","1","0","1","1","0.647625599987805","0.540399100165814","0.519585600122809","1","1","1","1","1","1","1","1","1"
"250040","img/neutralC/CFD-IM-700-009-N.jpg","img/neutralC/CFD-WM-009-002-N.jpg","img/neutralC/CFD-AF-232-078-N.jpg","1","1","1","1","0","1","0.519585600122809","0.647625599987805","0.588214899878949","1","1","1","1","1","1","1","1","1"
"250040","img/neutralC/CFD-AF-232-078-N.jpg","img/neutralC/CFD-IM-700-009-N.jpg","img/neutralC/CFD-AF-221-147-N.jpg","1","1","1","1","1","0","0.588214899878949","0.519585600122809","0.523434000089765","1","1","1","1","1","1","1","1","1"
"250040","img/neutralC/CFD-AF-221-147-N.jpg","img/neutralC/CFD-AF-232-078-N.jpg","img/neutralC/CFD-LF-215-157-N.jpg","1","1","1","0","1","0","0.523434000089765","0.588214899878949","0.420114999869838","1","1","1","1","1","1","1","1","1"
"250040","img/neutralC/CFD-LF-215-157-N.jpg","img/neutralC/CFD-AF-221-147-N.jpg","img/neutralC/CFD-IF-629-234-N.jpg","1","1","1","0","0","0","0.420114999869838","0.523434000089765","0.620636400068179","1","1","1","1","1","1","1","1","1"
"250040","img/neutralC/CFD-IF-629-234-N.jpg","img/neutralC/CFD-LF-215-157-N.jpg","img/neutralC/CFD-IM-627-178-N.jpg","1","1","1","0","0","1","0.620636400068179","0.420114999869838","0.437450699973851","1","1","1","1","1","1","1","1","1"
"250040","img/neutralC/CFD-IM-627-178-N.jpg","img/neutralC/CFD-IF-629-234-N.jpg","img/neutralC/CFD-WM-255-219-N.jpg","1","1","1","1","0","0","0.437450699973851","0.620636400068179","0.378241800004616","1","1","1","1","1","1","1","1","1"
"250040","img/neutralC/CFD-WM-255-219-N.jpg","img/neutralC/CFD-IM-627-178-N.jpg","img/neutralC/CFD-WM-237-052-N.jpg","1","1","1","0","1","1","0.378241800004616","0.437450699973851","0.399027999956161","1","1","1","1","1","1","1","1","1"
"250040","img/neutralC/CFD-WM-237-052-N.jpg","img/neutralC/CFD-WM-255-219-N.jpg","img/neutralC/CFD-MF-342-022-N.jpg","1","1","1","1","0","1","0.399027999956161","0.378241800004616","0.388565100030974","1","1","1","1","1","1","1","1","1"
"250040","img/neutralC/CFD-MF-342-022-N.jpg","img/neutralC/CFD-WM-237-052-N.jpg","img/neutralC/CFD-LM-253-075-N.jpg","1","1","1","1","1","0","0.388565100030974","0.399027999956161","0.551886700093746","1","1","1","1","1","1","1","1","1"
"250040","img/neutralC/CFD-LM-253-075-N.jpg","img/neutralC/CFD-MF-342-022-N.jpg","img/neutralC/CFD-WF-226-095-N.jpg","1","1","1","0","1","1","0.551886700093746","0.388565100030974","0.63184170005843","1","1","1","1","1","1","1","1","1"
"250040","img/neutralC/CFD-WF-226-095-N.jpg","img/neutralC/CFD-LM-253-075-N.jpg","img/neutralC/CFD-WF-245-084-N.jpg","1","1","1","1","0","1","0.63184170005843","0.551886700093746","0.506195900030434","1","1","1","1","1","1","1","1","1"
"250040","img/neutralC/CFD-WF-245-084-N.jpg","img/neutralC/CFD-WF-226-095-N.jpg","img/neutralC/CFD-IM-719-221-N.jpg","1","1","1","1","1","0","0.506195900030434","0.63184170005843","0.44574399990961","1","1","1","1","1","1","1","1","1"
"250040","img/neutralC/CFD-IM-719-221-N.jpg","img/neutralC/CFD-WF-245-084-N.jpg","img/neutralC/CFD-BM-200-046-N.jpg","1","1","1","0","1","0","0.44574399990961","0.506195900030434","0.613424299983308","1","1","1","1","1","1","1","1","1"
"250040","img/neutralC/CFD-BM-200-046-N.jpg","img/neutralC/CFD-IM-719-221-N.jpg","img/neutralC/CFD-WF-238-023-N.jpg","1","1","1","0","0","0","0.613424299983308","0.44574399990961","0.626369800185785","1","1","1","1","1","1","1","1","1"
"250040","img/neutralC/CFD-WF-238-023-N.jpg","img/neutralC/CFD-BM-200-046-N.jpg","img/neutralC/CFD-LF-211-003-N.jpg","1","1","1","0","0","0","0.626369800185785","0.613424299983308","0.462615299969912","1","1","1","1","1","1","1","1","1"
"250040","img/neutralC/CFD-LF-211-003-N.jpg","img/neutralC/CFD-WF-238-023-N.jpg","img/neutralC/CFD-WF-023-003-N.jpg","1","1","1","0","0","1","0.462615299969912","0.626369800185785","0.462719599949196","1","1","1","1","1","1","1","1","1"
"250040","img/neutralC/CFD-WF-023-003-N.jpg","img/neutralC/CFD-LF-211-003-N.jpg","img/neutralC/CFD-WM-201-063-N.jpg","1","1","1","1","0","1","0.462719599949196","0.462615299969912","0.443676899885759","1","1","1","1","1","1","1","1","1"
"250040","img/neutralC/CFD-WM-201-063-N.jpg","img/neutralC/CFD-WF-023-003-N.jpg","img/neutralC/CFD-MM-321-021-N.jpg","1","1","1","1","1","0","0.443676899885759","0.462719599949196","0.485663600033149","1","1","1","1","1","1","1","1","1"
"250040","img/neutralC/CFD-MM-321-021-N.jpg","img/neutralC/CFD-WM-201-063-N.jpg","img/neutralC/CFD-MF-318-022-N.jpg","1","1","1","0","1","1","0.485663600033149","0.443676899885759","0.395091800019145","1","1","1","1","1","1","1","1","1"
"250040","img/neutralC/CFD-MF-318-022-N.jpg","img/neutralC/CFD-MM-321-021-N.jpg","img/neutralC/CFD-WF-018-017-N.jpg","1","1","1","1","0","1","0.395091800019145","0.485663600033149","0.428371400106698","1","1","1","1","1","1","1","1","1"
"250040","img/neutralC/CFD-WF-018-017-N.jpg","img/neutralC/CFD-MF-318-022-N.jpg","img/neutralC/CFD-AM-244-222-N.jpg","1","1","1","1","1","0","0.428371400106698","0.395091800019145","0.561898800078779","1","1","1","1","1","1","1","1","1"
"250040","img/neutralC/CFD-AM-244-222-N.jpg","img/neutralC/CFD-WF-018-017-N.jpg","img/neutralC/CFD-MF-321-003-N.jpg","1","1","1","0","1","0","0.561898800078779","0.428371400106698","0.501861999975517","1","1","1","1","1","1","1","1","1"
"250040","img/neutralC/CFD-MF-321-003-N.jpg","img/neutralC/CFD-AM-244-222-N.jpg",NA,"1","1",NA,"0","0",NA,"0.501861999975517","0.561898800078779",NA,"1","1",NA,"1","1",NA,"1","1",NA
"250040","img/neutralC/CFD-WF-244-163-N.jpg",NA,"img/neutralC/CFD-IF-626-375-N.jpg","1",NA,"1","1",NA,"0","1.31285170000046",NA,"0.454163799993694","1",NA,"1","1",NA,"1","1",NA,"1"
"250040","img/neutralC/CFD-IF-626-375-N.jpg","img/neutralC/CFD-WF-244-163-N.jpg","img/neutralC/CFD-MF-357-002-N.jpg","1","1","1","0","1","0","0.454163799993694","1.31285170000046","0.526325700106099","1","1","1","1","1","1","1","1","1"
"250040","img/neutralC/CFD-MF-357-002-N.jpg","img/neutralC/CFD-IF-626-375-N.jpg","img/neutralC/CFD-IM-667-369-N.jpg","1","1","1","0","0","0","0.526325700106099","0.454163799993694","0.452105999924242","1","1","1","1","1","1","1","1","1"
"250040","img/neutralC/CFD-IM-667-369-N.jpg","img/neutralC/CFD-MF-357-002-N.jpg","img/neutralC/CFD-BM-001-014-N.jpg","1","1","1","0","0","0","0.452105999924242","0.526325700106099","0.48819120018743","1","1","1","1","1","1","1","1","1"
"250040","img/neutralC/CFD-BM-001-014-N.jpg","img/neutralC/CFD-IM-667-369-N.jpg","img/neutralC/CFD-WF-030-002-N.jpg","1","1","1","0","0","0","0.48819120018743","0.452105999924242","0.581550800008699","1","1","1","1","1","1","1","1","1"
"250040","img/neutralC/CFD-WF-030-002-N.jpg","img/neutralC/CFD-BM-001-014-N.jpg","img/neutralC/CFD-MF-303-013-N.jpg","1","1","1","0","0","0","0.581550800008699","0.48819120018743","0.58294459991157","1","1","1","1","1","1","1","1","1"
"250040","img/neutralC/CFD-MF-303-013-N.jpg","img/neutralC/CFD-WF-030-002-N.jpg","img/neutralC/CFD-LM-225-130-N.jpg","1","1","1","0","0","0","0.58294459991157","0.581550800008699","0.425248499959707","1","1","1","1","1","1","1","1","1"
"250040","img/neutralC/CFD-LM-225-130-N.jpg","img/neutralC/CFD-MF-303-013-N.jpg","img/neutralC/CFD-WF-007-001-N.jpg","1","1","1","0","0","1","0.425248499959707","0.58294459991157","0.435528700007126","1","1","1","1","1","1","1","1","1"
"250040","img/neutralC/CFD-WF-007-001-N.jpg","img/neutralC/CFD-LM-225-130-N.jpg","img/neutralC/CFD-BM-250-170-N.jpg","1","1","1","1","0","1","0.435528700007126","0.425248499959707","0.542279100045562","1","1","1","1","1","1","1","1","1"
"250040","img/neutralC/CFD-BM-250-170-N.jpg","img/neutralC/CFD-WF-007-001-N.jpg","img/neutralC/CFD-MM-324-069-N.jpg","1","1","1","1","1","1","0.542279100045562","0.435528700007126","0.459337400039658","1","1","1","1","1","1","1","1","1"
"250040","img/neutralC/CFD-MM-324-069-N.jpg","img/neutralC/CFD-BM-250-170-N.jpg","img/neutralC/CFD-IM-706-002-N.jpg","1","1","1","1","1","0","0.459337400039658","0.542279100045562","0.510118499863893","1","1","1","1","1","1","1","1","1"
"250040","img/neutralC/CFD-IM-706-002-N.jpg","img/neutralC/CFD-MM-324-069-N.jpg","img/neutralC/CFD-IM-680-369-N.jpg","1","1","1","0","1","1","0.510118499863893","0.459337400039658","0.577097299974412","1","1","1","1","1","1","1","1","1"
"250040","img/neutralC/CFD-IM-680-369-N.jpg","img/neutralC/CFD-IM-706-002-N.jpg","img/neutralC/CFD-AF-253-130-N.jpg","1","1","1","1","0","1","0.577097299974412","0.510118499863893","0.684503199998289","1","1","1","1","1","1","1","1","1"
"250040","img/neutralC/CFD-AF-253-130-N.jpg","img/neutralC/CFD-IM-680-369-N.jpg","img/neutralC/CFD-BF-014-002-N.jpg","1","1","1","1","1","1","0.684503199998289","0.577097299974412","0.497857399983332","1","1","1","1","1","1","1","1","1"
"250040","img/neutralC/CFD-BF-014-002-N.jpg","img/neutralC/CFD-AF-253-130-N.jpg","img/neutralC/CFD-IM-702-101-N.jpg","1","1","1","1","1","1","0.497857399983332","0.684503199998289","0.510324100032449","1","1","1","1","1","1","1","1","1"
"250040","img/neutralC/CFD-IM-702-101-N.jpg","img/neutralC/CFD-BF-014-002-N.jpg","img/neutralC/CFD-LF-206-078-N.jpg","1","1","1","1","1","1","0.510324100032449","0.497857399983332","0.432292399927974","1","1","1","1","1","1","1","1","1"
"250040","img/neutralC/CFD-LF-206-078-N.jpg","img/neutralC/CFD-IM-702-101-N.jpg","img/neutralC/CFD-WF-222-092-N.jpg","1","1","1","1","1","1","0.432292399927974","0.510324100032449","0.693364499835297","1","1","1","1","1","1","1","1","1"
"250040","img/neutralC/CFD-WF-222-092-N.jpg","img/neutralC/CFD-LF-206-078-N.jpg","img/neutralC/CFD-LF-255-088-N.jpg","1","1","1","1","1","0","0.693364499835297","0.432292399927974","0.623326299944893","1","1","1","1","1","1","1","1","1"
"250040","img/neutralC/CFD-LF-255-088-N.jpg","img/neutralC/CFD-WF-222-092-N.jpg","img/neutralC/CFD-AF-233-190-N.jpg","1","1","1","0","1","0","0.623326299944893","0.693364499835297","0.398140199948102","1","1","1","1","1","1","1","1","1"
"250040","img/neutralC/CFD-AF-233-190-N.jpg","img/neutralC/CFD-LF-255-088-N.jpg","img/neutralC/CFD-BM-217-082-N.jpg","1","1","1","0","0","0","0.398140199948102","0.623326299944893","0.479330000001937","1","1","1","1","1","1","1","1","1"
"250040","img/neutralC/CFD-BM-217-082-N.jpg","img/neutralC/CFD-AF-233-190-N.jpg","img/neutralC/CFD-WM-015-002-N.jpg","1","1","1","0","0","0","0.479330000001937","0.398140199948102","0.589855399914086","1","1","1","1","1","1","1","1","1"
"250040","img/neutralC/CFD-WM-015-002-N.jpg","img/neutralC/CFD-BM-217-082-N.jpg","img/neutralC/CFD-MF-343-001-N.jpg","1","1","1","0","0","1","0.589855399914086","0.479330000001937","0.515081299934536","1","1","1","1","1","1","1","1","1"
"250040","img/neutralC/CFD-MF-343-001-N.jpg","img/neutralC/CFD-WM-015-002-N.jpg","img/neutralC/CFD-MF-305-014-N.jpg","1","1","1","1","0","1","0.515081299934536","0.589855399914086","0.494119000155479","1","1","1","1","1","1","1","1","1"
"250040","img/neutralC/CFD-MF-305-014-N.jpg","img/neutralC/CFD-MF-343-001-N.jpg","img/neutralC/CFD-AM-220-134-N.jpg","1","1","1","1","1","0","0.494119000155479","0.515081299934536","0.543948099948466","1","1","1","1","1","1","1","1","1"
"250040","img/neutralC/CFD-AM-220-134-N.jpg","img/neutralC/CFD-MF-305-014-N.jpg","img/neutralC/CFD-IF-660-464-N.jpg","1","1","1","0","1","0","0.543948099948466","0.494119000155479","0.507435000035912","1","1","1","1","1","1","1","1","1"
"250040","img/neutralC/CFD-IF-660-464-N.jpg","img/neutralC/CFD-AM-220-134-N.jpg","img/neutralC/CFD-WM-218-074-N.jpg","1","1","1","0","0","1","0.507435000035912","0.543948099948466","0.49568590009585","1","1","1","1","1","1","1","1","1"
"250040","img/neutralC/CFD-WM-218-074-N.jpg","img/neutralC/CFD-IF-660-464-N.jpg","img/neutralC/CFD-LM-200-045-N.jpg","1","1","1","1","0","1","0.49568590009585","0.507435000035912","0.474509199848399","1","1","1","1","1","1","1","1","1"
"250040","img/neutralC/CFD-LM-200-045-N.jpg","img/neutralC/CFD-WM-218-074-N.jpg","img/neutralC/CFD-BF-237-172-N.jpg","1","1","1","1","1","1","0.474509199848399","0.49568590009585","0.51494749984704","1","1","1","1","1","1","1","1","1"
"250040","img/neutralC/CFD-BF-237-172-N.jpg","img/neutralC/CFD-LM-200-045-N.jpg","img/neutralC/CFD-MF-316-001-N.jpg","1","1","1","1","1","0","0.51494749984704","0.474509199848399","0.687646700069308","1","1","1","1","1","1","1","1","1"
"250040","img/neutralC/CFD-MF-316-001-N.jpg","img/neutralC/CFD-BF-237-172-N.jpg","img/neutralC/CFD-IM-664-651-N.jpg","1","1","1","0","1","1","0.687646700069308","0.51494749984704","0.487160099903122","1","1","1","1","1","1","1","1","1"
"250040","img/neutralC/CFD-IM-664-651-N.jpg","img/neutralC/CFD-MF-316-001-N.jpg","img/neutralC/CFD-WM-209-038-N.jpg","1","1","1","1","0","0","0.487160099903122","0.687646700069308","0.474286699900404","1","1","1","1","1","1","1","1","1"
"250040","img/neutralC/CFD-WM-209-038-N.jpg","img/neutralC/CFD-IM-664-651-N.jpg",NA,"1","1",NA,"0","1",NA,"0.474286699900404","0.487160099903122",NA,"1","1",NA,"1","1",NA,"1","1",NA
"250040","img/neutralC/CFD-LF-208-127-N.jpg",NA,"img/neutralC/CFD-WM-254-152-N.jpg","1",NA,"1","0",NA,"1","1.83848739997484",NA,"0.508594300132245","1",NA,"1","1",NA,"1","1",NA,"1"
"250040","img/neutralC/CFD-WM-254-152-N.jpg","img/neutralC/CFD-LF-208-127-N.jpg","img/neutralC/CFD-IM-701-312-N.jpg","1","1","1","1","0","0","0.508594300132245","1.83848739997484","0.551427899859846","1","1","1","1","1","1","1","1","1"
"250040","img/neutralC/CFD-IM-701-312-N.jpg","img/neutralC/CFD-WM-254-152-N.jpg","img/neutralC/CFD-WF-223-133-N.jpg","1","1","1","0","1","0","0.551427899859846","0.508594300132245","0.682410199893638","1","1","1","1","1","1","1","1","1"
"250040","img/neutralC/CFD-WF-223-133-N.jpg","img/neutralC/CFD-IM-701-312-N.jpg","img/neutralC/CFD-AF-210-050-N.jpg","1","1","1","0","0","1","0.682410199893638","0.551427899859846","0.421316700056195","1","1","1","1","1","1","1","1","1"
"250040","img/neutralC/CFD-AF-210-050-N.jpg","img/neutralC/CFD-WF-223-133-N.jpg","img/neutralC/CFD-AF-239-171-N.jpg","1","1","1","1","0","1","0.421316700056195","0.682410199893638","0.462459000060335","1","1","1","1","1","1","1","1","1"
"250040","img/neutralC/CFD-AF-239-171-N.jpg","img/neutralC/CFD-AF-210-050-N.jpg","img/neutralC/CFD-WF-033-002-N.jpg","1","1","1","1","1","1","0.462459000060335","0.421316700056195","0.543837199918926","1","1","1","1","1","1","1","1","1"
"250040","img/neutralC/CFD-WF-033-002-N.jpg","img/neutralC/CFD-AF-239-171-N.jpg","img/neutralC/CFD-LF-210-220-N.jpg","1","1","1","1","1","1","0.543837199918926","0.462459000060335","0.55339640006423","1","1","1","1","1","1","1","1","1"
"250040","img/neutralC/CFD-LF-210-220-N.jpg","img/neutralC/CFD-WF-033-002-N.jpg","img/neutralC/CFD-BF-222-240-N.jpg","1","1","1","1","1","0","0.55339640006423","0.543837199918926","0.587987900013104","1","1","1","1","1","1","1","1","1"
"250040","img/neutralC/CFD-BF-222-240-N.jpg","img/neutralC/CFD-LF-210-220-N.jpg","img/neutralC/CFD-IM-659-359-N.jpg","1","1","1","0","1","0","0.587987900013104","0.55339640006423","0.660505099920556","1","1","1","1","1","1","1","1","1"
"250040","img/neutralC/CFD-IM-659-359-N.jpg","img/neutralC/CFD-BF-222-240-N.jpg","img/neutralC/CFD-MF-336-016-N.jpg","1","1","1","0","0","1","0.660505099920556","0.587987900013104","0.656313099898398","1","1","1","1","1","1","1","1","1"
"250040","img/neutralC/CFD-MF-336-016-N.jpg","img/neutralC/CFD-IM-659-359-N.jpg","img/neutralC/CFD-WF-006-002-N.jpg","1","1","1","1","0","0","0.656313099898398","0.660505099920556","0.552469999995083","1","1","1","1","1","1","1","1","1"
"250040","img/neutralC/CFD-WF-006-002-N.jpg","img/neutralC/CFD-MF-336-016-N.jpg","img/neutralC/CFD-BM-028-002-N.jpg","1","1","1","0","1","1","0.552469999995083","0.656313099898398","0.588095600018278","1","1","1","1","1","1","1","1","1"
"250040","img/neutralC/CFD-BM-028-002-N.jpg","img/neutralC/CFD-WF-006-002-N.jpg","img/neutralC/CFD-WM-202-107-N.jpg","1","1","1","1","0","1","0.588095600018278","0.552469999995083","0.637557199923322","1","1","1","1","1","1","1","1","1"
"250040","img/neutralC/CFD-WM-202-107-N.jpg","img/neutralC/CFD-BM-028-002-N.jpg","img/neutralC/CFD-BM-010-003-N.jpg","1","1","1","1","1","0","0.637557199923322","0.588095600018278","0.551484199939296","1","1","1","1","1","1","1","1","1"
"250040","img/neutralC/CFD-BM-010-003-N.jpg","img/neutralC/CFD-WM-202-107-N.jpg","img/neutralC/CFD-BM-003-003-N.jpg","1","1","1","0","1","0","0.551484199939296","0.637557199923322","0.59627450001426","1","1","1","1","1","1","1","1","1"
"250040","img/neutralC/CFD-BM-003-003-N.jpg","img/neutralC/CFD-BM-010-003-N.jpg","img/neutralC/CFD-IM-738-191-N.jpg","1","1","1","0","0","0","0.59627450001426","0.551484199939296","0.475751599995419","1","1","1","1","1","1","1","1","1"
"250040","img/neutralC/CFD-IM-738-191-N.jpg","img/neutralC/CFD-BM-003-003-N.jpg","img/neutralC/CFD-BF-045-003-N.jpg","1","1","1","0","0","0","0.475751599995419","0.59627450001426","0.601591600105166","1","1","1","1","1","1","1","1","1"
"250040","img/neutralC/CFD-BF-045-003-N.jpg","img/neutralC/CFD-IM-738-191-N.jpg","img/neutralC/CFD-BM-213-134-N.jpg","1","1","1","0","0","1","0.601591600105166","0.475751599995419","0.500345600070432","1","1","1","1","1","1","1","1","1"
"250040","img/neutralC/CFD-BM-213-134-N.jpg","img/neutralC/CFD-BF-045-003-N.jpg","img/neutralC/CFD-BF-004-014-N.jpg","1","1","1","1","0","1","0.500345600070432","0.601591600105166","0.43946720007807","1","1","1","1","1","1","1","1","1"
"250040","img/neutralC/CFD-BF-004-014-N.jpg","img/neutralC/CFD-BM-213-134-N.jpg","img/neutralC/CFD-AM-221-184-N.jpg","1","1","1","1","1","1","0.43946720007807","0.500345600070432","0.434958099853247","1","1","1","1","1","1","1","1","1"
"250040","img/neutralC/CFD-AM-221-184-N.jpg","img/neutralC/CFD-BF-004-014-N.jpg","img/neutralC/CFD-AF-227-207-N.jpg","1","1","1","1","1","1","0.434958099853247","0.43946720007807","0.41872869990766","1","1","1","1","1","1","1","1","1"
"250040","img/neutralC/CFD-AF-227-207-N.jpg","img/neutralC/CFD-AM-221-184-N.jpg","img/neutralC/CFD-LM-247-095-N.jpg","1","1","1","1","1","0","0.41872869990766","0.434958099853247","0.583398600108922","1","1","1","1","1","1","1","1","1"
"250040","img/neutralC/CFD-LM-247-095-N.jpg","img/neutralC/CFD-AF-227-207-N.jpg","img/neutralC/CFD-LF-225-164-N.jpg","1","1","1","0","1","1","0.583398600108922","0.41872869990766","0.542454299982637","1","1","1","1","1","1","1","1","1"
"250040","img/neutralC/CFD-LF-225-164-N.jpg","img/neutralC/CFD-LM-247-095-N.jpg","img/neutralC/CFD-LM-238-129-N.jpg","1","1","1","1","0","1","0.542454299982637","0.583398600108922","0.472435100004077","1","1","1","1","1","1","1","1","1"
"250040","img/neutralC/CFD-LM-238-129-N.jpg","img/neutralC/CFD-LF-225-164-N.jpg","img/neutralC/CFD-IF-673-389-N.jpg","1","1","1","1","1","0","0.472435100004077","0.542454299982637","0.482508199987933","1","1","1","1","1","1","1","1","1"
"250040","img/neutralC/CFD-IF-673-389-N.jpg","img/neutralC/CFD-LM-238-129-N.jpg","img/neutralC/CFD-MF-312-002-N.jpg","1","1","1","0","1","1","0.482508199987933","0.472435100004077","0.490998100023717","1","1","1","1","1","1","1","1","1"
"250040","img/neutralC/CFD-MF-312-002-N.jpg","img/neutralC/CFD-IF-673-389-N.jpg","img/neutralC/CFD-BM-013-002-N.jpg","1","1","1","1","0","1","0.490998100023717","0.482508199987933","0.489034899976104","1","1","1","1","1","1","1","1","1"
"250040","img/neutralC/CFD-BM-013-002-N.jpg","img/neutralC/CFD-MF-312-002-N.jpg","img/neutralC/CFD-LF-241-188-N.jpg","1","1","1","1","1","0","0.489034899976104","0.490998100023717","0.558352000080049","1","1","1","1","1","1","1","1","1"
"250040","img/neutralC/CFD-LF-241-188-N.jpg","img/neutralC/CFD-BM-013-002-N.jpg","img/neutralC/CFD-WM-228-065-N.jpg","1","1","1","0","1","0","0.558352000080049","0.489034899976104","0.543118000030518","1","1","1","1","1","1","1","1","1"
"250040","img/neutralC/CFD-WM-228-065-N.jpg","img/neutralC/CFD-LF-241-188-N.jpg","img/neutralC/CFD-IF-744-114-N.jpg","1","1","1","0","0","0","0.543118000030518","0.558352000080049","0.857098000124097","1","1","1","1","1","1","1","1","1"
"250040","img/neutralC/CFD-IF-744-114-N.jpg","img/neutralC/CFD-WM-228-065-N.jpg","img/neutralC/CFD-IF-625-225-N.jpg","1","1","1","0","0","0","0.857098000124097","0.543118000030518","0.550358300097287","1","1","1","1","1","1","1","1","1"
"250040","img/neutralC/CFD-IF-625-225-N.jpg","img/neutralC/CFD-IF-744-114-N.jpg",NA,"1","1",NA,"0","0",NA,"0.550358300097287","0.857098000124097",NA,"1","1",NA,"1","1",NA,"1","1",NA
