"participant_id","current_trial_face","pre_trial_face","post_trial_face","current_trial_accuracy","pre_trial_accuracy","post_trial_accuracy","current_trial_congruency","pre_trial_congruency","post_trial_congruency","current_trial_rt","pre_trial_rt","post_trial_rt","current_trial_responded","pre_trial_responded","post_trial_responded","current_trial_legitResponse","pre_trial_legitResponse","post_trial_legitResponse","current_trial_resp_nums","pre_trial_resp_nums","post_trial_resp_nums"
"250022","img/neutralC/CFD-WM-018-002-N.jpg",NA,"img/neutralC/CFD-BM-004-002-N.jpg","1",NA,"1","0",NA,"0","0.460331899987068",NA,"0.516876899986528","1",NA,"1","1",NA,"1","1",NA,"1"
"250022","img/neutralC/CFD-BM-004-002-N.jpg","img/neutralC/CFD-WM-018-002-N.jpg","img/neutralC/CFD-IM-635-010-N.jpg","1","1","1","0","0","1","0.516876899986528","0.460331899987068","0.455182500008959","1","1","1","1","1","1","1","1","1"
"250022","img/neutralC/CFD-IM-635-010-N.jpg","img/neutralC/CFD-BM-004-002-N.jpg","img/neutralC/CFD-AF-213-126-N.jpg","1","1","1","1","0","1","0.455182500008959","0.516876899986528","0.358933200011961","1","1","1","1","1","1","1","1","1"
"250022","img/neutralC/CFD-AF-213-126-N.jpg","img/neutralC/CFD-IM-635-010-N.jpg","img/neutralC/CFD-WM-253-119-N.jpg","1","1","1","1","1","1","0.358933200011961","0.455182500008959","0.460326100001112","1","1","1","1","1","1","1","1","1"
"250022","img/neutralC/CFD-WM-253-119-N.jpg","img/neutralC/CFD-AF-213-126-N.jpg","img/neutralC/CFD-WF-235-121-N.jpg","1","1","1","1","1","0","0.460326100001112","0.358933200011961","0.526537799974903","1","1","1","1","1","1","1","1","1"
"250022","img/neutralC/CFD-WF-235-121-N.jpg","img/neutralC/CFD-WM-253-119-N.jpg","img/neutralC/CFD-IM-678-482-N.jpg","1","1","1","0","1","0","0.526537799974903","0.460326100001112","0.526517199992668","1","1","1","1","1","1","1","1","1"
"250022","img/neutralC/CFD-IM-678-482-N.jpg","img/neutralC/CFD-WF-235-121-N.jpg","img/neutralC/CFD-LM-204-001-N.jpg","1","1","1","0","0","0","0.526517199992668","0.526537799974903","0.479908299981616","1","1","1","1","1","1","1","1","1"
"250022","img/neutralC/CFD-LM-204-001-N.jpg","img/neutralC/CFD-IM-678-482-N.jpg","img/neutralC/CFD-MF-307-002-N.jpg","1","1","1","0","0","1","0.479908299981616","0.526517199992668","0.453521199990064","1","1","1","1","1","1","1","1","1"
"250022","img/neutralC/CFD-MF-307-002-N.jpg","img/neutralC/CFD-LM-204-001-N.jpg","img/neutralC/CFD-BF-020-002-N.jpg","1","1","1","1","0","1","0.453521199990064","0.479908299981616","0.433461000036914","1","1","1","1","1","1","1","1","1"
"250022","img/neutralC/CFD-BF-020-002-N.jpg","img/neutralC/CFD-MF-307-002-N.jpg","img/neutralC/CFD-AF-234-208-N.jpg","1","1","1","1","1","1","0.433461000036914","0.453521199990064","0.389910099969711","1","1","1","1","1","1","1","1","1"
"250022","img/neutralC/CFD-AF-234-208-N.jpg","img/neutralC/CFD-BF-020-002-N.jpg","img/neutralC/CFD-BF-206-143-N.jpg","1","1","1","1","1","1","0.389910099969711","0.433461000036914","0.385318499989808","1","1","1","1","1","1","1","1","1"
"250022","img/neutralC/CFD-BF-206-143-N.jpg","img/neutralC/CFD-AF-234-208-N.jpg","img/neutralC/CFD-AM-233-236-N.jpg","1","1","1","1","1","1","0.385318499989808","0.389910099969711","0.380560599965975","1","1","1","1","1","1","1","1","1"
"250022","img/neutralC/CFD-AM-233-236-N.jpg","img/neutralC/CFD-BF-206-143-N.jpg","img/neutralC/CFD-AM-245-111-N.jpg","1","1","1","1","1","1","0.380560599965975","0.385318499989808","0.439749800018035","1","1","1","1","1","1","1","1","1"
"250022","img/neutralC/CFD-AM-245-111-N.jpg","img/neutralC/CFD-AM-233-236-N.jpg","img/neutralC/CFD-IF-636-011-N.jpg","1","1","1","1","1","1","0.439749800018035","0.380560599965975","0.542496200010646","1","1","1","1","1","1","1","1","1"
"250022","img/neutralC/CFD-IF-636-011-N.jpg","img/neutralC/CFD-AM-245-111-N.jpg","img/neutralC/CFD-MF-302-027-N.jpg","1","1","1","1","1","0","0.542496200010646","0.439749800018035","0.542903200024739","1","1","1","1","1","1","1","1","1"
"250022","img/neutralC/CFD-MF-302-027-N.jpg","img/neutralC/CFD-IF-636-011-N.jpg","img/neutralC/CFD-BF-235-168-N.jpg","1","1","1","0","1","1","0.542903200024739","0.542496200010646","0.402041199966334","1","1","1","1","1","1","1","1","1"
"250022","img/neutralC/CFD-BF-235-168-N.jpg","img/neutralC/CFD-MF-302-027-N.jpg","img/neutralC/CFD-IM-632-097-N.jpg","1","1","0","1","0","0","0.402041199966334","0.542903200024739","0.449402199999895","1","1","1","1","1","1","1","1","1"
"250022","img/neutralC/CFD-IM-632-097-N.jpg","img/neutralC/CFD-BF-235-168-N.jpg","img/neutralC/CFD-BF-042-026-N.jpg","0","1","1","0","1","1","0.449402199999895","0.402041199966334","0.512994999997318","1","1","1","1","1","1","1","1","1"
"250022","img/neutralC/CFD-BF-042-026-N.jpg","img/neutralC/CFD-IM-632-097-N.jpg","img/neutralC/CFD-AF-250-200-N.jpg","1","0","1","1","0","1","0.512994999997318","0.449402199999895","0.513366099970881","1","1","1","1","1","1","1","1","1"
"250022","img/neutralC/CFD-AF-250-200-N.jpg","img/neutralC/CFD-BF-042-026-N.jpg","img/neutralC/CFD-IM-669-111-N.jpg","1","1","1","1","1","1","0.513366099970881","0.512994999997318","0.486304600024596","1","1","1","1","1","1","1","1","1"
"250022","img/neutralC/CFD-IM-669-111-N.jpg","img/neutralC/CFD-AF-250-200-N.jpg","img/neutralC/CFD-AM-225-102-N.jpg","1","1","1","1","1","0","0.486304600024596","0.513366099970881","0.549283400003333","1","1","1","1","1","1","1","1","1"
"250022","img/neutralC/CFD-AM-225-102-N.jpg","img/neutralC/CFD-IM-669-111-N.jpg","img/neutralC/CFD-AF-205-155-N.jpg","1","1","1","0","1","0","0.549283400003333","0.486304600024596","0.553562799992505","1","1","1","1","1","1","1","1","1"
"250022","img/neutralC/CFD-AF-205-155-N.jpg","img/neutralC/CFD-AM-225-102-N.jpg","img/neutralC/CFD-BF-217-189-N.jpg","1","1","1","0","0","0","0.553562799992505","0.549283400003333","0.51348850002978","1","1","1","1","1","1","1","1","1"
"250022","img/neutralC/CFD-BF-217-189-N.jpg","img/neutralC/CFD-AF-205-155-N.jpg","img/neutralC/CFD-LF-239-148-N.jpg","1","1","1","0","0","0","0.51348850002978","0.553562799992505","0.501312399981543","1","1","1","1","1","1","1","1","1"
"250022","img/neutralC/CFD-LF-239-148-N.jpg","img/neutralC/CFD-BF-217-189-N.jpg","img/neutralC/CFD-IF-732-260-N.jpg","1","1","1","0","0","0","0.501312399981543","0.51348850002978","0.48154720000457","1","1","1","1","1","1","1","1","1"
"250022","img/neutralC/CFD-IF-732-260-N.jpg","img/neutralC/CFD-LF-239-148-N.jpg","img/neutralC/CFD-AF-246-242-N.jpg","1","1","1","0","0","0","0.48154720000457","0.501312399981543","0.509688999969512","1","1","1","1","1","1","1","1","1"
"250022","img/neutralC/CFD-AF-246-242-N.jpg","img/neutralC/CFD-IF-732-260-N.jpg","img/neutralC/CFD-BF-040-003-N.jpg","1","1","1","0","0","1","0.509688999969512","0.48154720000457","0.514532100001816","1","1","1","1","1","1","1","1","1"
"250022","img/neutralC/CFD-BF-040-003-N.jpg","img/neutralC/CFD-AF-246-242-N.jpg","img/neutralC/CFD-LM-241-125-N.jpg","1","1","1","1","0","1","0.514532100001816","0.509688999969512","0.437437499989755","1","1","1","1","1","1","1","1","1"
"250022","img/neutralC/CFD-LM-241-125-N.jpg","img/neutralC/CFD-BF-040-003-N.jpg","img/neutralC/CFD-WF-210-086-N.jpg","1","1","1","1","1","0","0.437437499989755","0.514532100001816","0.506438300013542","1","1","1","1","1","1","1","1","1"
"250022","img/neutralC/CFD-WF-210-086-N.jpg","img/neutralC/CFD-LM-241-125-N.jpg","img/neutralC/CFD-AF-244-168-N.jpg","1","1","1","0","1","0","0.506438300013542","0.437437499989755","0.549993299995549","1","1","1","1","1","1","1","1","1"
"250022","img/neutralC/CFD-AF-244-168-N.jpg","img/neutralC/CFD-WF-210-086-N.jpg","img/neutralC/CFD-BM-215-155-N.jpg","1","1","1","0","0","0","0.549993299995549","0.506438300013542","0.533988300012425","1","1","1","1","1","1","1","1","1"
"250022","img/neutralC/CFD-BM-215-155-N.jpg","img/neutralC/CFD-AF-244-168-N.jpg",NA,"1","1",NA,"0","0",NA,"0.533988300012425","0.549993299995549",NA,"1","1",NA,"1","1",NA,"1","1",NA
"250022","img/neutralC/CFD-WM-017-002-N.jpg",NA,"img/neutralC/CFD-LM-233-171-N.jpg","1",NA,"1","0",NA,"0","0.490868799970485",NA,"0.618187599990051","1",NA,"1","1",NA,"1","1",NA,"1"
"250022","img/neutralC/CFD-LM-233-171-N.jpg","img/neutralC/CFD-WM-017-002-N.jpg","img/neutralC/CFD-IM-657-308-N.jpg","1","1","1","0","0","0","0.618187599990051","0.490868799970485","0.537273599999025","1","1","1","1","1","1","1","1","1"
"250022","img/neutralC/CFD-IM-657-308-N.jpg","img/neutralC/CFD-LM-233-171-N.jpg","img/neutralC/CFD-BF-238-190-N.jpg","1","1","1","0","0","1","0.537273599999025","0.618187599990051","0.39207780000288","1","1","1","1","1","1","1","1","1"
"250022","img/neutralC/CFD-BF-238-190-N.jpg","img/neutralC/CFD-IM-657-308-N.jpg","img/neutralC/CFD-LM-226-175-N.jpg","1","1","1","1","0","0","0.39207780000288","0.537273599999025","0.413137299998198","1","1","1","1","1","1","1","1","1"
"250022","img/neutralC/CFD-LM-226-175-N.jpg","img/neutralC/CFD-BF-238-190-N.jpg","img/neutralC/CFD-BM-231-155-N.jpg","1","1","1","0","1","1","0.413137299998198","0.39207780000288","0.345734199974686","1","1","1","1","1","1","1","1","1"
"250022","img/neutralC/CFD-BM-231-155-N.jpg","img/neutralC/CFD-LM-226-175-N.jpg","img/neutralC/CFD-LF-242-121-N.jpg","1","1","1","1","0","0","0.345734199974686","0.413137299998198","0.50557789998129","1","1","1","1","1","1","1","1","1"
"250022","img/neutralC/CFD-LF-242-121-N.jpg","img/neutralC/CFD-BM-231-155-N.jpg","img/neutralC/CFD-WM-258-125-N.jpg","1","1","1","0","1","0","0.50557789998129","0.345734199974686","0.472324799979106","1","1","1","1","1","1","1","1","1"
"250022","img/neutralC/CFD-WM-258-125-N.jpg","img/neutralC/CFD-LF-242-121-N.jpg","img/neutralC/CFD-LF-247-051-N.jpg","1","1","1","0","0","1","0.472324799979106","0.50557789998129","0.4315951000317","1","1","1","1","1","1","1","1","1"
"250022","img/neutralC/CFD-LF-247-051-N.jpg","img/neutralC/CFD-WM-258-125-N.jpg","img/neutralC/CFD-WM-227-099-N.jpg","1","1","1","1","0","1","0.4315951000317","0.472324799979106","0.351502500008792","1","1","1","1","1","1","1","1","1"
"250022","img/neutralC/CFD-WM-227-099-N.jpg","img/neutralC/CFD-LF-247-051-N.jpg","img/neutralC/CFD-BM-018-001-N.jpg","1","1","1","1","1","1","0.351502500008792","0.4315951000317","0.369306400010828","1","1","1","1","1","1","1","1","1"
"250022","img/neutralC/CFD-BM-018-001-N.jpg","img/neutralC/CFD-WM-227-099-N.jpg","img/neutralC/CFD-IF-620-218-N.jpg","1","1","1","1","1","0","0.369306400010828","0.351502500008792","0.626273199974094","1","1","1","1","1","1","1","1","1"
"250022","img/neutralC/CFD-IF-620-218-N.jpg","img/neutralC/CFD-BM-018-001-N.jpg","img/neutralC/CFD-LF-250-169-N.jpg","1","1","1","0","1","1","0.626273199974094","0.369306400010828","0.430659100005869","1","1","1","1","1","1","1","1","1"
"250022","img/neutralC/CFD-LF-250-169-N.jpg","img/neutralC/CFD-IF-620-218-N.jpg","img/neutralC/CFD-MF-313-002-N.jpg","1","1","1","1","0","0","0.430659100005869","0.626273199974094","0.517262800014578","1","1","1","1","1","1","1","1","1"
"250022","img/neutralC/CFD-MF-313-002-N.jpg","img/neutralC/CFD-LF-250-169-N.jpg","img/neutralC/CFD-IM-638-250-1-N.jpg","1","1","1","0","1","1","0.517262800014578","0.430659100005869","0.420203300018329","1","1","1","1","1","1","1","1","1"
"250022","img/neutralC/CFD-IM-638-250-1-N.jpg","img/neutralC/CFD-MF-313-002-N.jpg","img/neutralC/CFD-AF-241-141-N.jpg","1","1","1","1","0","1","0.420203300018329","0.517262800014578","0.405352400033735","1","1","1","1","1","1","1","1","1"
"250022","img/neutralC/CFD-AF-241-141-N.jpg","img/neutralC/CFD-IM-638-250-1-N.jpg","img/neutralC/CFD-IM-617-174-N.jpg","1","1","1","1","1","0","0.405352400033735","0.420203300018329","0.497626099968329","1","1","1","1","1","1","1","1","1"
"250022","img/neutralC/CFD-IM-617-174-N.jpg","img/neutralC/CFD-AF-241-141-N.jpg","img/neutralC/CFD-AF-202-122-N.jpg","1","1","1","0","1","1","0.497626099968329","0.405352400033735","0.475447100005113","1","1","1","1","1","1","1","1","1"
"250022","img/neutralC/CFD-AF-202-122-N.jpg","img/neutralC/CFD-IM-617-174-N.jpg","img/neutralC/CFD-LM-219-295-N.jpg","1","1","1","1","0","1","0.475447100005113","0.497626099968329","0.427596100023948","1","1","1","1","1","1","1","1","1"
"250022","img/neutralC/CFD-LM-219-295-N.jpg","img/neutralC/CFD-AF-202-122-N.jpg","img/neutralC/CFD-AF-206-079-N.jpg","1","1","1","1","1","1","0.427596100023948","0.475447100005113","0.419750400003977","1","1","1","1","1","1","1","1","1"
"250022","img/neutralC/CFD-AF-206-079-N.jpg","img/neutralC/CFD-LM-219-295-N.jpg","img/neutralC/CFD-WM-242-011-N.jpg","1","1","1","1","1","0","0.419750400003977","0.427596100023948","0.579967900004704","1","1","1","1","1","1","1","1","1"
"250022","img/neutralC/CFD-WM-242-011-N.jpg","img/neutralC/CFD-AF-206-079-N.jpg","img/neutralC/CFD-IM-653-008-N.jpg","1","1","1","0","1","0","0.579967900004704","0.419750400003977","0.486256600008346","1","1","1","1","1","1","1","1","1"
"250022","img/neutralC/CFD-IM-653-008-N.jpg","img/neutralC/CFD-WM-242-011-N.jpg","img/neutralC/CFD-BM-005-003-N.jpg","1","1","1","0","0","1","0.486256600008346","0.579967900004704","0.479305099986959","1","1","1","1","1","1","1","1","1"
"250022","img/neutralC/CFD-BM-005-003-N.jpg","img/neutralC/CFD-IM-653-008-N.jpg","img/neutralC/CFD-WF-209-052-N.jpg","1","1","1","1","0","1","0.479305099986959","0.486256600008346","0.496729400008917","1","1","1","1","1","1","1","1","1"
"250022","img/neutralC/CFD-WF-209-052-N.jpg","img/neutralC/CFD-BM-005-003-N.jpg","img/neutralC/CFD-IF-665-015-N.jpg","1","1","1","1","1","0","0.496729400008917","0.479305099986959","0.504611900018062","1","1","1","1","1","1","1","1","1"
"250022","img/neutralC/CFD-IF-665-015-N.jpg","img/neutralC/CFD-WF-209-052-N.jpg","img/neutralC/CFD-BF-010-001-N.jpg","1","1","1","0","1","1","0.504611900018062","0.496729400008917","0.396399000019301","1","1","1","1","1","1","1","1","1"
"250022","img/neutralC/CFD-BF-010-001-N.jpg","img/neutralC/CFD-IF-665-015-N.jpg","img/neutralC/CFD-IM-686-097-N.jpg","1","1","1","1","0","0","0.396399000019301","0.504611900018062","0.53170880000107","1","1","1","1","1","1","1","1","1"
"250022","img/neutralC/CFD-IM-686-097-N.jpg","img/neutralC/CFD-BF-010-001-N.jpg","img/neutralC/CFD-BF-033-028-N.jpg","1","1","1","0","1","0","0.53170880000107","0.396399000019301","0.599224000005051","1","1","1","1","1","1","1","1","1"
"250022","img/neutralC/CFD-BF-033-028-N.jpg","img/neutralC/CFD-IM-686-097-N.jpg","img/neutralC/CFD-IM-727-195-N.jpg","1","1","1","0","0","1","0.599224000005051","0.53170880000107","0.494577199977357","1","1","1","1","1","1","1","1","1"
"250022","img/neutralC/CFD-IM-727-195-N.jpg","img/neutralC/CFD-BF-033-028-N.jpg","img/neutralC/CFD-BM-212-117-N.jpg","1","1","1","1","0","0","0.494577199977357","0.599224000005051","0.494649600004777","1","1","1","1","1","1","1","1","1"
"250022","img/neutralC/CFD-BM-212-117-N.jpg","img/neutralC/CFD-IM-727-195-N.jpg","img/neutralC/CFD-BM-026-002-N.jpg","1","1","1","0","1","0","0.494649600004777","0.494577199977357","0.537212299997918","1","1","1","1","1","1","1","1","1"
"250022","img/neutralC/CFD-BM-026-002-N.jpg","img/neutralC/CFD-BM-212-117-N.jpg","img/neutralC/CFD-LF-245-166-N.jpg","1","1","1","0","0","1","0.537212299997918","0.494649600004777","0.345194299996365","1","1","1","1","1","1","1","1","1"
"250022","img/neutralC/CFD-LF-245-166-N.jpg","img/neutralC/CFD-BM-026-002-N.jpg",NA,"1","1",NA,"1","0",NA,"0.345194299996365","0.537212299997918",NA,"1","1",NA,"1","1",NA,"1","1",NA
"250022","img/neutralC/CFD-BM-241-235-N.jpg",NA,"img/neutralC/CFD-BF-044-034-N.jpg","1",NA,"1","0",NA,"0","0.479735700006131",NA,"0.495581700000912","1",NA,"1","1",NA,"1","1",NA,"1"
"250022","img/neutralC/CFD-BF-044-034-N.jpg","img/neutralC/CFD-BM-241-235-N.jpg","img/neutralC/CFD-LM-213-061-N.jpg","1","1","0","0","0","0","0.495581700000912","0.479735700006131","0.423125199973583","1","1","1","1","1","1","1","1","1"
"250022","img/neutralC/CFD-LM-213-061-N.jpg","img/neutralC/CFD-BF-044-034-N.jpg","img/neutralC/CFD-WF-233-112-N.jpg","0","1","1","0","0","1","0.423125199973583","0.495581700000912","0.453545900003519","1","1","1","1","1","1","1","1","1"
"250022","img/neutralC/CFD-WF-233-112-N.jpg","img/neutralC/CFD-LM-213-061-N.jpg","img/neutralC/CFD-BF-027-002-N.jpg","1","0","1","1","0","1","0.453545900003519","0.423125199973583","0.513537699996959","1","1","1","1","1","1","1","1","1"
"250022","img/neutralC/CFD-BF-027-002-N.jpg","img/neutralC/CFD-WF-233-112-N.jpg","img/neutralC/CFD-BF-002-001-N.jpg","1","1","0","1","1","0","0.513537699996959","0.453545900003519","0.409190199978184","1","1","1","1","1","1","1","1","1"
"250022","img/neutralC/CFD-BF-002-001-N.jpg","img/neutralC/CFD-BF-027-002-N.jpg","img/neutralC/CFD-IM-707-105-N.jpg","0","1","1","0","1","1","0.409190199978184","0.513537699996959","0.46976209996501","1","1","1","1","1","1","1","1","1"
"250022","img/neutralC/CFD-IM-707-105-N.jpg","img/neutralC/CFD-BF-002-001-N.jpg","img/neutralC/CFD-IF-677-452-1-N.jpg","1","0","1","1","0","1","0.46976209996501","0.409190199978184","0.479078499949537","1","1","1","1","1","1","1","1","1"
"250022","img/neutralC/CFD-IF-677-452-1-N.jpg","img/neutralC/CFD-IM-707-105-N.jpg","img/neutralC/CFD-WF-029-002-N.jpg","1","1","1","1","1","0","0.479078499949537","0.46976209996501","0.527537400019355","1","1","1","1","1","1","1","1","1"
"250022","img/neutralC/CFD-WF-029-002-N.jpg","img/neutralC/CFD-IF-677-452-1-N.jpg","img/neutralC/CFD-AM-230-150-N.jpg","1","1","1","0","1","0","0.527537400019355","0.479078499949537","0.560713600018062","1","1","1","1","1","1","1","1","1"
"250022","img/neutralC/CFD-AM-230-150-N.jpg","img/neutralC/CFD-WF-029-002-N.jpg","img/neutralC/CFD-IF-742-103-N.jpg","1","1","1","0","0","1","0.560713600018062","0.527537400019355","0.414370900020003","1","1","1","1","1","1","1","1","1"
"250022","img/neutralC/CFD-IF-742-103-N.jpg","img/neutralC/CFD-AM-230-150-N.jpg","img/neutralC/CFD-BF-011-002-N.jpg","1","1","1","1","0","1","0.414370900020003","0.560713600018062","0.497104800015222","1","1","1","1","1","1","1","1","1"
"250022","img/neutralC/CFD-BF-011-002-N.jpg","img/neutralC/CFD-IF-742-103-N.jpg","img/neutralC/CFD-IM-696-001-N.jpg","1","1","0","1","1","0","0.497104800015222","0.414370900020003","0.562461199995596","1","1","1","1","1","1","1","1","1"
"250022","img/neutralC/CFD-IM-696-001-N.jpg","img/neutralC/CFD-BF-011-002-N.jpg","img/neutralC/CFD-BM-207-024-N.jpg","0","1","1","0","1","1","0.562461199995596","0.497104800015222","0.470249300007708","1","1","1","1","1","1","1","1","1"
"250022","img/neutralC/CFD-BM-207-024-N.jpg","img/neutralC/CFD-IM-696-001-N.jpg","img/neutralC/CFD-BM-238-242-N.jpg","1","0","1","1","0","0","0.470249300007708","0.562461199995596","0.553794499952346","1","1","1","1","1","1","1","1","1"
"250022","img/neutralC/CFD-BM-238-242-N.jpg","img/neutralC/CFD-BM-207-024-N.jpg","img/neutralC/CFD-BF-207-004-N.jpg","1","1","1","0","1","1","0.553794499952346","0.470249300007708","0.389455900003668","1","1","1","1","1","1","1","1","1"
"250022","img/neutralC/CFD-BF-207-004-N.jpg","img/neutralC/CFD-BM-238-242-N.jpg","img/neutralC/CFD-BF-247-179-N.jpg","1","1","1","1","0","0","0.389455900003668","0.553794499952346","0.528519699990284","1","1","1","1","1","1","1","1","1"
"250022","img/neutralC/CFD-BF-247-179-N.jpg","img/neutralC/CFD-BF-207-004-N.jpg","img/neutralC/CFD-IM-726-248-N.jpg","1","1","1","0","1","0","0.528519699990284","0.389455900003668","0.562784100009594","1","1","1","1","1","1","1","1","1"
"250022","img/neutralC/CFD-IM-726-248-N.jpg","img/neutralC/CFD-BF-247-179-N.jpg","img/neutralC/CFD-IF-729-393-N.jpg","1","1","1","0","0","0","0.562784100009594","0.528519699990284","0.564907899999525","1","1","1","1","1","1","1","1","1"
"250022","img/neutralC/CFD-IF-729-393-N.jpg","img/neutralC/CFD-IM-726-248-N.jpg","img/neutralC/CFD-WF-208-068-N.jpg","1","1","1","0","0","1","0.564907899999525","0.562784100009594","0.452003200014587","1","1","1","1","1","1","1","1","1"
"250022","img/neutralC/CFD-WF-208-068-N.jpg","img/neutralC/CFD-IF-729-393-N.jpg","img/neutralC/CFD-BF-214-308-N.jpg","1","1","1","1","0","1","0.452003200014587","0.564907899999525","0.424346400017384","1","1","1","1","1","1","1","1","1"
"250022","img/neutralC/CFD-BF-214-308-N.jpg","img/neutralC/CFD-WF-208-068-N.jpg","img/neutralC/CFD-BM-036-003-N.jpg","1","1","1","1","1","1","0.424346400017384","0.452003200014587","0.33378480002284","1","1","1","1","1","1","1","1","1"
"250022","img/neutralC/CFD-BM-036-003-N.jpg","img/neutralC/CFD-BF-214-308-N.jpg","img/neutralC/CFD-IM-721-341-N.jpg","1","1","0","1","1","1","0.33378480002284","0.424346400017384","0.477598699973896","1","1","1","1","1","1","1","1","1"
"250022","img/neutralC/CFD-IM-721-341-N.jpg","img/neutralC/CFD-BM-036-003-N.jpg","img/neutralC/CFD-BF-236-177-N.jpg","0","1","1","1","1","0","0.477598699973896","0.33378480002284","0.767240199958906","1","1","1","1","1","1","1","1","1"
"250022","img/neutralC/CFD-BF-236-177-N.jpg","img/neutralC/CFD-IM-721-341-N.jpg","img/neutralC/CFD-WM-034-030-N.jpg","1","0","1","0","1","1","0.767240199958906","0.477598699973896","0.546933500037994","1","1","1","1","1","1","1","1","1"
"250022","img/neutralC/CFD-WM-034-030-N.jpg","img/neutralC/CFD-BF-236-177-N.jpg","img/neutralC/CFD-BF-036-027-N.jpg","1","1","1","1","0","0","0.546933500037994","0.767240199958906","0.571767000015825","1","1","1","1","1","1","1","1","1"
"250022","img/neutralC/CFD-BF-036-027-N.jpg","img/neutralC/CFD-WM-034-030-N.jpg","img/neutralC/CFD-WM-248-036-N.jpg","1","1","1","0","1","1","0.571767000015825","0.546933500037994","0.597358299943153","1","1","1","1","1","1","1","1","1"
"250022","img/neutralC/CFD-WM-248-036-N.jpg","img/neutralC/CFD-BF-036-027-N.jpg","img/neutralC/CFD-BF-006-017-N.jpg","1","1","1","1","0","0","0.597358299943153","0.571767000015825","0.56018920004135","1","1","1","1","1","1","1","1","1"
"250022","img/neutralC/CFD-BF-006-017-N.jpg","img/neutralC/CFD-WM-248-036-N.jpg","img/neutralC/CFD-WF-234-086-N.jpg","1","1","1","0","1","1","0.56018920004135","0.597358299943153","0.456857699959073","1","1","1","1","1","1","1","1","1"
"250022","img/neutralC/CFD-WF-234-086-N.jpg","img/neutralC/CFD-BF-006-017-N.jpg","img/neutralC/CFD-WM-014-002-N.jpg","1","1","1","1","0","0","0.456857699959073","0.56018920004135","0.475266299967188","1","1","1","1","1","1","1","1","1"
"250022","img/neutralC/CFD-WM-014-002-N.jpg","img/neutralC/CFD-WF-234-086-N.jpg","img/neutralC/CFD-LF-204-133-N.jpg","1","1","1","0","1","1","0.475266299967188","0.456857699959073","0.40299099998083","1","1","1","1","1","1","1","1","1"
"250022","img/neutralC/CFD-LF-204-133-N.jpg","img/neutralC/CFD-WM-014-002-N.jpg","img/neutralC/CFD-MF-301-024-N.jpg","1","1","1","1","0","0","0.40299099998083","0.475266299967188","0.619230399955995","1","1","1","1","1","1","1","1","1"
"250022","img/neutralC/CFD-MF-301-024-N.jpg","img/neutralC/CFD-LF-204-133-N.jpg",NA,"1","1",NA,"0","1",NA,"0.619230399955995","0.40299099998083",NA,"1","1",NA,"1","1",NA,"1","1",NA
"250022","img/neutralC/CFD-BF-018-039-N.jpg",NA,"img/neutralC/CFD-BM-200-046-N.jpg","1",NA,"1","1",NA,"0","0.485569600015879",NA,"0.721358200011309","1",NA,"1","1",NA,"1","1",NA,"1"
"250022","img/neutralC/CFD-BM-200-046-N.jpg","img/neutralC/CFD-BF-018-039-N.jpg","img/neutralC/CFD-BM-204-003-N.jpg","1","1","1","0","1","0","0.721358200011309","0.485569600015879","0.584130199975334","1","1","1","1","1","1","1","1","1"
"250022","img/neutralC/CFD-BM-204-003-N.jpg","img/neutralC/CFD-BM-200-046-N.jpg","img/neutralC/CFD-IM-700-009-N.jpg","1","1","1","0","0","1","0.584130199975334","0.721358200011309","0.44487599999411","1","1","1","1","1","1","1","1","1"
"250022","img/neutralC/CFD-IM-700-009-N.jpg","img/neutralC/CFD-BM-204-003-N.jpg","img/neutralC/CFD-IM-719-221-N.jpg","1","1","1","1","0","0","0.44487599999411","0.584130199975334","0.532683000026736","1","1","1","1","1","1","1","1","1"
"250022","img/neutralC/CFD-IM-719-221-N.jpg","img/neutralC/CFD-IM-700-009-N.jpg","img/neutralC/CFD-WF-018-017-N.jpg","1","1","1","0","1","1","0.532683000026736","0.44487599999411","0.382705800002441","1","1","1","1","1","1","1","1","1"
"250022","img/neutralC/CFD-WF-018-017-N.jpg","img/neutralC/CFD-IM-719-221-N.jpg","img/neutralC/CFD-WM-255-219-N.jpg","1","1","1","1","0","0","0.382705800002441","0.532683000026736","0.489566600008402","1","1","1","1","1","1","1","1","1"
"250022","img/neutralC/CFD-WM-255-219-N.jpg","img/neutralC/CFD-WF-018-017-N.jpg","img/neutralC/CFD-MF-318-022-N.jpg","1","1","1","0","1","1","0.489566600008402","0.382705800002441","0.391494399984367","1","1","1","1","1","1","1","1","1"
"250022","img/neutralC/CFD-MF-318-022-N.jpg","img/neutralC/CFD-WM-255-219-N.jpg","img/neutralC/CFD-IM-627-178-N.jpg","1","1","1","1","0","1","0.391494399984367","0.489566600008402","0.421771400026046","1","1","1","1","1","1","1","1","1"
"250022","img/neutralC/CFD-IM-627-178-N.jpg","img/neutralC/CFD-MF-318-022-N.jpg","img/neutralC/CFD-MF-342-022-N.jpg","1","1","1","1","1","1","0.421771400026046","0.391494399984367","0.432223700045142","1","1","1","1","1","1","1","1","1"
"250022","img/neutralC/CFD-MF-342-022-N.jpg","img/neutralC/CFD-IM-627-178-N.jpg","img/neutralC/CFD-WM-013-001-N.jpg","1","1","1","1","1","1","0.432223700045142","0.421771400026046","0.36298379994696","1","1","1","1","1","1","1","1","1"
"250022","img/neutralC/CFD-WM-013-001-N.jpg","img/neutralC/CFD-MF-342-022-N.jpg","img/neutralC/CFD-LM-253-075-N.jpg","1","1","1","1","1","0","0.36298379994696","0.432223700045142","0.53136679995805","1","1","1","1","1","1","1","1","1"
"250022","img/neutralC/CFD-LM-253-075-N.jpg","img/neutralC/CFD-WM-013-001-N.jpg","img/neutralC/CFD-BF-254-201-N.jpg","1","1","0","0","1","0","0.53136679995805","0.36298379994696","0.39148109999951","1","1","1","1","1","1","1","1","1"
"250022","img/neutralC/CFD-BF-254-201-N.jpg","img/neutralC/CFD-LM-253-075-N.jpg","img/neutralC/CFD-WM-009-002-N.jpg","0","1","1","0","0","0","0.39148109999951","0.53136679995805","0.6310172000085","1","1","1","1","1","1","1","1","1"
"250022","img/neutralC/CFD-WM-009-002-N.jpg","img/neutralC/CFD-BF-254-201-N.jpg","img/neutralC/CFD-WF-238-023-N.jpg","1","0","1","0","0","0","0.6310172000085","0.39148109999951","0.504791999992449","1","1","1","1","1","1","1","1","1"
"250022","img/neutralC/CFD-WF-238-023-N.jpg","img/neutralC/CFD-WM-009-002-N.jpg","img/neutralC/CFD-WM-221-091-N.jpg","1","1","1","0","0","0","0.504791999992449","0.6310172000085","0.462918200006243","1","1","1","1","1","1","1","1","1"
"250022","img/neutralC/CFD-WM-221-091-N.jpg","img/neutralC/CFD-WF-238-023-N.jpg","img/neutralC/CFD-MM-321-021-N.jpg","1","1","1","0","0","0","0.462918200006243","0.504791999992449","0.443228500022087","1","1","1","1","1","1","1","1","1"
"250022","img/neutralC/CFD-MM-321-021-N.jpg","img/neutralC/CFD-WM-221-091-N.jpg","img/neutralC/CFD-BM-023-029-N.jpg","1","1","1","0","0","1","0.443228500022087","0.462918200006243","0.506193200009875","1","1","1","1","1","1","1","1","1"
"250022","img/neutralC/CFD-BM-023-029-N.jpg","img/neutralC/CFD-MM-321-021-N.jpg","img/neutralC/CFD-IF-629-234-N.jpg","1","1","0","1","0","0","0.506193200009875","0.443228500022087","0.379829999990761","1","1","1","1","1","1","1","1","1"
"250022","img/neutralC/CFD-IF-629-234-N.jpg","img/neutralC/CFD-BM-023-029-N.jpg","img/neutralC/CFD-LF-211-003-N.jpg","0","1","1","0","1","0","0.379829999990761","0.506193200009875","0.476319000008516","1","1","1","1","1","1","1","1","1"
"250022","img/neutralC/CFD-LF-211-003-N.jpg","img/neutralC/CFD-IF-629-234-N.jpg","img/neutralC/CFD-WF-027-003-N.jpg","1","0","1","0","0","1","0.476319000008516","0.379829999990761","0.464387200016063","1","1","1","1","1","1","1","1","1"
"250022","img/neutralC/CFD-WF-027-003-N.jpg","img/neutralC/CFD-LF-211-003-N.jpg","img/neutralC/CFD-AF-221-147-N.jpg","1","1","1","1","0","0","0.464387200016063","0.476319000008516","0.549942100013141","1","1","1","1","1","1","1","1","1"
"250022","img/neutralC/CFD-AF-221-147-N.jpg","img/neutralC/CFD-WF-027-003-N.jpg","img/neutralC/CFD-MF-321-003-N.jpg","1","1","1","0","1","0","0.549942100013141","0.464387200016063","0.480520099983551","1","1","1","1","1","1","1","1","1"
"250022","img/neutralC/CFD-MF-321-003-N.jpg","img/neutralC/CFD-AF-221-147-N.jpg","img/neutralC/CFD-AF-232-078-N.jpg","1","1","1","0","0","1","0.480520099983551","0.549942100013141","0.460610700014513","1","1","1","1","1","1","1","1","1"
"250022","img/neutralC/CFD-AF-232-078-N.jpg","img/neutralC/CFD-MF-321-003-N.jpg","img/neutralC/CFD-AM-244-222-N.jpg","1","1","1","1","0","0","0.460610700014513","0.480520099983551","0.514224999991711","1","1","1","1","1","1","1","1","1"
"250022","img/neutralC/CFD-AM-244-222-N.jpg","img/neutralC/CFD-AF-232-078-N.jpg","img/neutralC/CFD-BF-218-207-N.jpg","1","1","1","0","1","1","0.514224999991711","0.460610700014513","0.436858999950346","1","1","1","1","1","1","1","1","1"
"250022","img/neutralC/CFD-BF-218-207-N.jpg","img/neutralC/CFD-AM-244-222-N.jpg","img/neutralC/CFD-WF-245-084-N.jpg","1","1","1","1","0","1","0.436858999950346","0.514224999991711","0.413558700005524","1","1","1","1","1","1","1","1","1"
"250022","img/neutralC/CFD-WF-245-084-N.jpg","img/neutralC/CFD-BF-218-207-N.jpg","img/neutralC/CFD-WM-201-063-N.jpg","1","1","1","1","1","1","0.413558700005524","0.436858999950346","0.411942299979273","1","1","1","1","1","1","1","1","1"
"250022","img/neutralC/CFD-WM-201-063-N.jpg","img/neutralC/CFD-WF-245-084-N.jpg","img/neutralC/CFD-WM-237-052-N.jpg","1","1","1","1","1","1","0.411942299979273","0.413558700005524","0.405778299958911","1","1","1","1","1","1","1","1","1"
"250022","img/neutralC/CFD-WM-237-052-N.jpg","img/neutralC/CFD-WM-201-063-N.jpg","img/neutralC/CFD-LF-215-157-N.jpg","1","1","1","1","1","0","0.405778299958911","0.411942299979273","0.516451100003906","1","1","1","1","1","1","1","1","1"
"250022","img/neutralC/CFD-LF-215-157-N.jpg","img/neutralC/CFD-WM-237-052-N.jpg","img/neutralC/CFD-WF-023-003-N.jpg","1","1","1","0","1","1","0.516451100003906","0.405778299958911","0.390148299979046","1","1","1","1","1","1","1","1","1"
"250022","img/neutralC/CFD-WF-023-003-N.jpg","img/neutralC/CFD-LF-215-157-N.jpg","img/neutralC/CFD-WF-226-095-N.jpg","1","1","1","1","0","1","0.390148299979046","0.516451100003906","0.435307699954137","1","1","1","1","1","1","1","1","1"
"250022","img/neutralC/CFD-WF-226-095-N.jpg","img/neutralC/CFD-WF-023-003-N.jpg",NA,"1","1",NA,"1","1",NA,"0.435307699954137","0.390148299979046",NA,"1","1",NA,"1","1",NA,"1","1",NA
"250022","img/neutralC/CFD-BM-028-002-N.jpg",NA,"img/neutralC/CFD-IF-625-225-N.jpg","1",NA,"1","1",NA,"0","0.575470299983863",NA,"0.42205669998657","1",NA,"1","1",NA,"1","1",NA,"1"
"250022","img/neutralC/CFD-IF-625-225-N.jpg","img/neutralC/CFD-BM-028-002-N.jpg","img/neutralC/CFD-MF-312-002-N.jpg","1","1","1","0","1","1","0.42205669998657","0.575470299983863","0.379150099994149","1","1","1","1","1","1","1","1","1"
"250022","img/neutralC/CFD-MF-312-002-N.jpg","img/neutralC/CFD-IF-625-225-N.jpg","img/neutralC/CFD-LM-247-095-N.jpg","1","1","0","1","0","0","0.379150099994149","0.42205669998657","0.34470820002025","1","1","1","1","1","1","1","1","1"
"250022","img/neutralC/CFD-LM-247-095-N.jpg","img/neutralC/CFD-MF-312-002-N.jpg","img/neutralC/CFD-WM-254-152-N.jpg","0","1","1","0","1","1","0.34470820002025","0.379150099994149","0.338061099988408","1","1","1","1","1","1","1","1","1"
"250022","img/neutralC/CFD-WM-254-152-N.jpg","img/neutralC/CFD-LM-247-095-N.jpg","img/neutralC/CFD-BF-045-003-N.jpg","1","0","0","1","0","0","0.338061099988408","0.34470820002025","0.375450399995316","1","1","1","1","1","1","1","1","1"
"250022","img/neutralC/CFD-BF-045-003-N.jpg","img/neutralC/CFD-WM-254-152-N.jpg","img/neutralC/CFD-IM-738-191-N.jpg","0","1","1","0","1","0","0.375450399995316","0.338061099988408","0.469683100003749","1","1","1","1","1","1","1","1","1"
"250022","img/neutralC/CFD-IM-738-191-N.jpg","img/neutralC/CFD-BF-045-003-N.jpg","img/neutralC/CFD-AM-221-184-N.jpg","1","0","1","0","0","1","0.469683100003749","0.375450399995316","0.474669199960772","1","1","1","1","1","1","1","1","1"
"250022","img/neutralC/CFD-AM-221-184-N.jpg","img/neutralC/CFD-IM-738-191-N.jpg","img/neutralC/CFD-WM-202-107-N.jpg","1","1","1","1","0","1","0.474669199960772","0.469683100003749","0.338372599973809","1","1","1","1","1","1","1","1","1"
"250022","img/neutralC/CFD-WM-202-107-N.jpg","img/neutralC/CFD-AM-221-184-N.jpg","img/neutralC/CFD-WF-033-002-N.jpg","1","1","1","1","1","1","0.338372599973809","0.474669199960772","0.395631099992897","1","1","1","1","1","1","1","1","1"
"250022","img/neutralC/CFD-WF-033-002-N.jpg","img/neutralC/CFD-WM-202-107-N.jpg","img/neutralC/CFD-MF-336-016-N.jpg","1","1","1","1","1","1","0.395631099992897","0.338372599973809","0.361700699955691","1","1","1","1","1","1","1","1","1"
"250022","img/neutralC/CFD-MF-336-016-N.jpg","img/neutralC/CFD-WF-033-002-N.jpg","img/neutralC/CFD-BF-222-240-N.jpg","1","1","0","1","1","0","0.361700699955691","0.395631099992897","0.384983600000851","1","1","1","1","1","1","1","1","1"
"250022","img/neutralC/CFD-BF-222-240-N.jpg","img/neutralC/CFD-MF-336-016-N.jpg","img/neutralC/CFD-IF-744-114-N.jpg","0","1","0","0","1","0","0.384983600000851","0.361700699955691","0.428340299986303","1","1","1","1","1","1","1","1","1"
"250022","img/neutralC/CFD-IF-744-114-N.jpg","img/neutralC/CFD-BF-222-240-N.jpg","img/neutralC/CFD-AF-227-207-N.jpg","0","0","1","0","0","1","0.428340299986303","0.384983600000851","0.420065300015267","1","1","1","1","1","1","1","1","1"
"250022","img/neutralC/CFD-AF-227-207-N.jpg","img/neutralC/CFD-IF-744-114-N.jpg","img/neutralC/CFD-BM-013-002-N.jpg","1","0","1","1","0","1","0.420065300015267","0.428340299986303","0.407524899987038","1","1","1","1","1","1","1","1","1"
"250022","img/neutralC/CFD-BM-013-002-N.jpg","img/neutralC/CFD-AF-227-207-N.jpg","img/neutralC/CFD-WM-228-065-N.jpg","1","1","1","1","1","0","0.407524899987038","0.420065300015267","0.568192299979273","1","1","1","1","1","1","1","1","1"
"250022","img/neutralC/CFD-WM-228-065-N.jpg","img/neutralC/CFD-BM-013-002-N.jpg","img/neutralC/CFD-IM-659-359-N.jpg","1","1","1","0","1","0","0.568192299979273","0.407524899987038","0.504497700021602","1","1","1","1","1","1","1","1","1"
"250022","img/neutralC/CFD-IM-659-359-N.jpg","img/neutralC/CFD-WM-228-065-N.jpg","img/neutralC/CFD-LM-238-129-N.jpg","1","1","1","0","0","1","0.504497700021602","0.568192299979273","0.405578700010665","1","1","1","1","1","1","1","1","1"
"250022","img/neutralC/CFD-LM-238-129-N.jpg","img/neutralC/CFD-IM-659-359-N.jpg","img/neutralC/CFD-BM-010-003-N.jpg","1","1","1","1","0","0","0.405578700010665","0.504497700021602","0.488007100007962","1","1","1","1","1","1","1","1","1"
"250022","img/neutralC/CFD-BM-010-003-N.jpg","img/neutralC/CFD-LM-238-129-N.jpg","img/neutralC/CFD-LF-225-164-N.jpg","1","1","1","0","1","1","0.488007100007962","0.405578700010665","0.368464300001506","1","1","1","1","1","1","1","1","1"
"250022","img/neutralC/CFD-LF-225-164-N.jpg","img/neutralC/CFD-BM-010-003-N.jpg","img/neutralC/CFD-WF-223-133-N.jpg","1","1","1","1","0","0","0.368464300001506","0.488007100007962","0.48801969998749","1","1","1","1","1","1","1","1","1"
"250022","img/neutralC/CFD-WF-223-133-N.jpg","img/neutralC/CFD-LF-225-164-N.jpg","img/neutralC/CFD-AF-239-171-N.jpg","1","1","1","0","1","1","0.48801969998749","0.368464300001506","0.353048700024374","1","1","1","1","1","1","1","1","1"
"250022","img/neutralC/CFD-AF-239-171-N.jpg","img/neutralC/CFD-WF-223-133-N.jpg","img/neutralC/CFD-LF-210-220-N.jpg","1","1","1","1","0","1","0.353048700024374","0.48801969998749","0.33043390000239","1","1","1","1","1","1","1","1","1"
"250022","img/neutralC/CFD-LF-210-220-N.jpg","img/neutralC/CFD-AF-239-171-N.jpg","img/neutralC/CFD-LF-241-188-N.jpg","1","1","0","1","1","0","0.33043390000239","0.353048700024374","0.484075299988035","1","1","1","1","1","1","1","1","1"
"250022","img/neutralC/CFD-LF-241-188-N.jpg","img/neutralC/CFD-LF-210-220-N.jpg","img/neutralC/CFD-BM-213-134-N.jpg","0","1","1","0","1","1","0.484075299988035","0.33043390000239","0.381040800013579","1","1","1","1","1","1","1","1","1"
"250022","img/neutralC/CFD-BM-213-134-N.jpg","img/neutralC/CFD-LF-241-188-N.jpg","img/neutralC/CFD-AF-210-050-N.jpg","1","0","1","1","0","1","0.381040800013579","0.484075299988035","0.401655399997253","1","1","1","1","1","1","1","1","1"
"250022","img/neutralC/CFD-AF-210-050-N.jpg","img/neutralC/CFD-BM-213-134-N.jpg","img/neutralC/CFD-IM-701-312-N.jpg","1","1","1","1","1","0","0.401655399997253","0.381040800013579","0.556211800023448","1","1","1","1","1","1","1","1","1"
"250022","img/neutralC/CFD-IM-701-312-N.jpg","img/neutralC/CFD-AF-210-050-N.jpg","img/neutralC/CFD-WF-006-002-N.jpg","1","1","1","0","1","0","0.556211800023448","0.401655399997253","0.545869999972638","1","1","1","1","1","1","1","1","1"
"250022","img/neutralC/CFD-WF-006-002-N.jpg","img/neutralC/CFD-IM-701-312-N.jpg","img/neutralC/CFD-BM-003-003-N.jpg","1","1","1","0","0","0","0.545869999972638","0.556211800023448","0.660356600012165","1","1","1","1","1","1","1","1","1"
"250022","img/neutralC/CFD-BM-003-003-N.jpg","img/neutralC/CFD-WF-006-002-N.jpg","img/neutralC/CFD-BF-004-014-N.jpg","1","1","1","0","0","1","0.660356600012165","0.545869999972638","0.435329700005241","1","1","1","1","1","1","1","1","1"
"250022","img/neutralC/CFD-BF-004-014-N.jpg","img/neutralC/CFD-BM-003-003-N.jpg","img/neutralC/CFD-LF-208-127-N.jpg","1","1","1","1","0","0","0.435329700005241","0.660356600012165","0.451498800015543","1","1","1","1","1","1","1","1","1"
"250022","img/neutralC/CFD-LF-208-127-N.jpg","img/neutralC/CFD-BF-004-014-N.jpg","img/neutralC/CFD-IF-673-389-N.jpg","1","1","1","0","1","0","0.451498800015543","0.435329700005241","0.480005599965807","1","1","1","1","1","1","1","1","1"
"250022","img/neutralC/CFD-IF-673-389-N.jpg","img/neutralC/CFD-LF-208-127-N.jpg",NA,"1","1",NA,"0","0",NA,"0.480005599965807","0.451498800015543",NA,"1","1",NA,"1","1",NA,"1","1",NA
"250022","img/neutralC/CFD-WM-235-147-N.jpg",NA,"img/neutralC/CFD-BF-229-179-N.jpg","1",NA,"0","0",NA,"0","0.791999600012787",NA,"0.406520499964245","1",NA,"1","1",NA,"1","1",NA,"1"
"250022","img/neutralC/CFD-BF-229-179-N.jpg","img/neutralC/CFD-WM-235-147-N.jpg","img/neutralC/CFD-MF-352-054-N.jpg","0","1","1","0","0","0","0.406520499964245","0.791999600012787","0.433629599981941","1","1","1","1","1","1","1","1","1"
"250022","img/neutralC/CFD-MF-352-054-N.jpg","img/neutralC/CFD-BF-229-179-N.jpg","img/neutralC/CFD-WM-004-010-N.jpg","1","0","1","0","0","0","0.433629599981941","0.406520499964245","0.4498992000008","1","1","1","1","1","1","1","1","1"
"250022","img/neutralC/CFD-WM-004-010-N.jpg","img/neutralC/CFD-MF-352-054-N.jpg","img/neutralC/CFD-BF-226-119-N.jpg","1","1","1","0","0","1","0.4498992000008","0.433629599981941","0.330477499985136","1","1","1","1","1","1","1","1","1"
"250022","img/neutralC/CFD-BF-226-119-N.jpg","img/neutralC/CFD-WM-004-010-N.jpg","img/neutralC/CFD-LM-237-264-N.jpg","1","1","1","1","0","0","0.330477499985136","0.4498992000008","0.44354690000182","1","1","1","1","1","1","1","1","1"
"250022","img/neutralC/CFD-LM-237-264-N.jpg","img/neutralC/CFD-BF-226-119-N.jpg","img/neutralC/CFD-WF-200-099-N.jpg","1","1","1","0","1","0","0.44354690000182","0.330477499985136","0.466943599982187","1","1","1","1","1","1","1","1","1"
"250022","img/neutralC/CFD-WF-200-099-N.jpg","img/neutralC/CFD-LM-237-264-N.jpg","img/neutralC/CFD-MF-333-012-N.jpg","1","1","0","0","0","0","0.466943599982187","0.44354690000182","0.387878799985629","1","1","1","1","1","1","1","1","1"
"250022","img/neutralC/CFD-MF-333-012-N.jpg","img/neutralC/CFD-WF-200-099-N.jpg","img/neutralC/CFD-IM-616-214-N.jpg","0","1","1","0","0","0","0.387878799985629","0.466943599982187","0.478967999981251","1","1","1","1","1","1","1","1","1"
"250022","img/neutralC/CFD-IM-616-214-N.jpg","img/neutralC/CFD-MF-333-012-N.jpg","img/neutralC/CFD-IM-743-006-N.jpg","1","0","1","0","0","1","0.478967999981251","0.387878799985629","0.422716899949592","1","1","1","1","1","1","1","1","1"
"250022","img/neutralC/CFD-IM-743-006-N.jpg","img/neutralC/CFD-IM-616-214-N.jpg","img/neutralC/CFD-LF-220-120-N.jpg","1","1","1","1","0","1","0.422716899949592","0.478967999981251","0.356616400007624","1","1","1","1","1","1","1","1","1"
"250022","img/neutralC/CFD-LF-220-120-N.jpg","img/neutralC/CFD-IM-743-006-N.jpg","img/neutralC/CFD-WF-036-023-N.jpg","1","1","1","1","1","0","0.356616400007624","0.422716899949592","0.735970199981239","1","1","1","1","1","1","1","1","1"
"250022","img/neutralC/CFD-WF-036-023-N.jpg","img/neutralC/CFD-LF-220-120-N.jpg","img/neutralC/CFD-WM-219-008-N.jpg","1","1","1","0","1","0","0.735970199981239","0.356616400007624","0.604800000030082","1","1","1","1","1","1","1","1","1"
"250022","img/neutralC/CFD-WM-219-008-N.jpg","img/neutralC/CFD-WF-036-023-N.jpg","img/neutralC/CFD-IM-645-001-N.jpg","1","1","1","0","0","0","0.604800000030082","0.735970199981239","0.447676000010688","1","1","1","1","1","1","1","1","1"
"250022","img/neutralC/CFD-IM-645-001-N.jpg","img/neutralC/CFD-WM-219-008-N.jpg","img/neutralC/CFD-WM-033-025-N.jpg","1","1","1","0","0","1","0.447676000010688","0.604800000030082","0.475213500030804","1","1","1","1","1","1","1","1","1"
"250022","img/neutralC/CFD-WM-033-025-N.jpg","img/neutralC/CFD-IM-645-001-N.jpg","img/neutralC/CFD-AM-211-052-N.jpg","1","1","1","1","0","1","0.475213500030804","0.447676000010688","0.448383899987675","1","1","1","1","1","1","1","1","1"
"250022","img/neutralC/CFD-AM-211-052-N.jpg","img/neutralC/CFD-WM-033-025-N.jpg","img/neutralC/CFD-BF-038-037-N.jpg","1","1","1","1","1","1","0.448383899987675","0.475213500030804","0.409596499986947","1","1","1","1","1","1","1","1","1"
"250022","img/neutralC/CFD-BF-038-037-N.jpg","img/neutralC/CFD-AM-211-052-N.jpg","img/neutralC/CFD-WM-020-001-N.jpg","1","1","1","1","1","1","0.409596499986947","0.448383899987675","0.447572399978526","1","1","1","1","1","1","1","1","1"
"250022","img/neutralC/CFD-WM-020-001-N.jpg","img/neutralC/CFD-BF-038-037-N.jpg","img/neutralC/CFD-LM-228-188-N.jpg","1","1","1","1","1","1","0.447572399978526","0.409596499986947","0.414972500002477","1","1","1","1","1","1","1","1","1"
"250022","img/neutralC/CFD-LM-228-188-N.jpg","img/neutralC/CFD-WM-020-001-N.jpg","img/neutralC/CFD-AM-251-124-N.jpg","1","1","1","1","1","0","0.414972500002477","0.447572399978526","0.485464200028218","1","1","1","1","1","1","1","1","1"
"250022","img/neutralC/CFD-AM-251-124-N.jpg","img/neutralC/CFD-LM-228-188-N.jpg","img/neutralC/CFD-BF-232-187-N.jpg","1","1","1","0","1","1","0.485464200028218","0.414972500002477","0.474150999973062","1","1","1","1","1","1","1","1","1"
"250022","img/neutralC/CFD-BF-232-187-N.jpg","img/neutralC/CFD-AM-251-124-N.jpg","img/neutralC/CFD-IM-671-601-N.jpg","1","1","0","1","0","0","0.474150999973062","0.485464200028218","0.533205899992026","1","1","1","1","1","1","1","1","1"
"250022","img/neutralC/CFD-IM-671-601-N.jpg","img/neutralC/CFD-BF-232-187-N.jpg","img/neutralC/CFD-IF-650-315-N.jpg","0","1","0","0","1","0","0.533205899992026","0.474150999973062","0.655287400004454","1","1","1","1","1","1","1","1","1"
"250022","img/neutralC/CFD-IF-650-315-N.jpg","img/neutralC/CFD-IM-671-601-N.jpg","img/neutralC/CFD-MF-359-019-N.jpg","0","0","1","0","0","0","0.655287400004454","0.533205899992026","0.595602400018834","1","1","1","1","1","1","1","1","1"
"250022","img/neutralC/CFD-MF-359-019-N.jpg","img/neutralC/CFD-IF-650-315-N.jpg","img/neutralC/CFD-WF-001-003-N.jpg","1","0","1","0","0","1","0.595602400018834","0.655287400004454","0.415323199995328","1","1","1","1","1","1","1","1","1"
"250022","img/neutralC/CFD-WF-001-003-N.jpg","img/neutralC/CFD-MF-359-019-N.jpg","img/neutralC/CFD-BM-253-004-N.jpg","1","1","1","1","0","1","0.415323199995328","0.595602400018834","0.371883599960711","1","1","1","1","1","1","1","1","1"
"250022","img/neutralC/CFD-BM-253-004-N.jpg","img/neutralC/CFD-WF-001-003-N.jpg","img/neutralC/CFD-WF-214-122-N.jpg","1","1","1","1","1","1","0.371883599960711","0.415323199995328","0.419921299966518","1","1","1","1","1","1","1","1","1"
"250022","img/neutralC/CFD-WF-214-122-N.jpg","img/neutralC/CFD-BM-253-004-N.jpg","img/neutralC/CFD-BM-225-154-N.jpg","1","1","1","1","1","1","0.419921299966518","0.371883599960711","0.363593200047035","1","1","1","1","1","1","1","1","1"
"250022","img/neutralC/CFD-BM-225-154-N.jpg","img/neutralC/CFD-WF-214-122-N.jpg","img/neutralC/CFD-IM-703-182-N.jpg","1","1","1","1","1","1","0.363593200047035","0.419921299966518","0.330519500013907","1","1","1","1","1","1","1","1","1"
"250022","img/neutralC/CFD-IM-703-182-N.jpg","img/neutralC/CFD-BM-225-154-N.jpg","img/neutralC/CFD-AM-242-176-N.jpg","1","1","1","1","1","1","0.330519500013907","0.363593200047035","0.389326000004075","1","1","1","1","1","1","1","1","1"
"250022","img/neutralC/CFD-AM-242-176-N.jpg","img/neutralC/CFD-IM-703-182-N.jpg","img/neutralC/CFD-IF-623-129-N.jpg","1","1","1","1","1","1","0.389326000004075","0.330519500013907","0.470594100013841","1","1","1","1","1","1","1","1","1"
"250022","img/neutralC/CFD-IF-623-129-N.jpg","img/neutralC/CFD-AM-242-176-N.jpg","img/neutralC/CFD-LF-218-072-N.jpg","1","1","1","1","1","0","0.470594100013841","0.389326000004075","0.563715399999637","1","1","1","1","1","1","1","1","1"
"250022","img/neutralC/CFD-LF-218-072-N.jpg","img/neutralC/CFD-IF-623-129-N.jpg",NA,"1","1",NA,"0","1",NA,"0.563715399999637","0.470594100013841",NA,"1","1",NA,"1","1",NA,"1","1",NA
"250022","img/neutralC/CFD-IM-684-008-N.jpg",NA,"img/neutralC/CFD-WF-213-031-N.jpg","1",NA,"1","1",NA,"1","0.572342099971138",NA,"0.371518100029789","1",NA,"1","1",NA,"1","1",NA,"1"
"250022","img/neutralC/CFD-WF-213-031-N.jpg","img/neutralC/CFD-IM-684-008-N.jpg","img/neutralC/CFD-LF-224-176-N.jpg","1","1","1","1","1","0","0.371518100029789","0.572342099971138","0.467072000028566","1","1","1","1","1","1","1","1","1"
"250022","img/neutralC/CFD-LF-224-176-N.jpg","img/neutralC/CFD-WF-213-031-N.jpg","img/neutralC/CFD-IM-651-308-N.jpg","1","1","1","0","1","0","0.467072000028566","0.371518100029789","0.511154699954204","1","1","1","1","1","1","1","1","1"
"250022","img/neutralC/CFD-IM-651-308-N.jpg","img/neutralC/CFD-LF-224-176-N.jpg","img/neutralC/CFD-IF-710-016-N.jpg","1","1","1","0","0","0","0.511154699954204","0.467072000028566","0.532927799969912","1","1","1","1","1","1","1","1","1"
"250022","img/neutralC/CFD-IF-710-016-N.jpg","img/neutralC/CFD-IM-651-308-N.jpg","img/neutralC/CFD-BF-253-202-N.jpg","1","1","1","0","0","0","0.532927799969912","0.511154699954204","0.441085900005419","1","1","1","1","1","1","1","1","1"
"250022","img/neutralC/CFD-BF-253-202-N.jpg","img/neutralC/CFD-IF-710-016-N.jpg","img/neutralC/CFD-IF-693-172-N.jpg","1","1","0","0","0","0","0.441085900005419","0.532927799969912","0.32083350000903","1","1","1","1","1","1","1","1","1"
"250022","img/neutralC/CFD-IF-693-172-N.jpg","img/neutralC/CFD-BF-253-202-N.jpg","img/neutralC/CFD-BM-239-136-N.jpg","0","1","1","0","0","1","0.32083350000903","0.441085900005419","0.416407699987758","1","1","1","1","1","1","1","1","1"
"250022","img/neutralC/CFD-BM-239-136-N.jpg","img/neutralC/CFD-IF-693-172-N.jpg","img/neutralC/CFD-AF-231-357-N.jpg","1","0","1","1","0","1","0.416407699987758","0.32083350000903","0.355595199973322","1","1","1","1","1","1","1","1","1"
"250022","img/neutralC/CFD-AF-231-357-N.jpg","img/neutralC/CFD-BM-239-136-N.jpg","img/neutralC/CFD-LF-205-100-N.jpg","1","1","1","1","1","1","0.355595199973322","0.416407699987758","0.36773749999702","1","1","1","1","1","1","1","1","1"
"250022","img/neutralC/CFD-LF-205-100-N.jpg","img/neutralC/CFD-AF-231-357-N.jpg","img/neutralC/CFD-AM-212-050-N.jpg","1","1","1","1","1","1","0.36773749999702","0.355595199973322","0.479318400030024","1","1","1","1","1","1","1","1","1"
"250022","img/neutralC/CFD-AM-212-050-N.jpg","img/neutralC/CFD-LF-205-100-N.jpg","img/neutralC/CFD-WF-224-099-N.jpg","1","1","0","1","1","0","0.479318400030024","0.36773749999702","0.406683599983808","1","1","1","1","1","1","1","1","1"
"250022","img/neutralC/CFD-WF-224-099-N.jpg","img/neutralC/CFD-AM-212-050-N.jpg","img/neutralC/CFD-LM-218-183-N.jpg","0","1","1","0","1","1","0.406683599983808","0.479318400030024","0.411799699999392","1","1","1","1","1","1","1","1","1"
"250022","img/neutralC/CFD-LM-218-183-N.jpg","img/neutralC/CFD-WF-224-099-N.jpg","img/neutralC/CFD-BF-029-031-N.jpg","1","0","1","1","0","1","0.411799699999392","0.406683599983808","0.387942200002726","1","1","1","1","1","1","1","1","1"
"250022","img/neutralC/CFD-BF-029-031-N.jpg","img/neutralC/CFD-LM-218-183-N.jpg","img/neutralC/CFD-BF-039-031-N.jpg","1","1","1","1","1","1","0.387942200002726","0.411799699999392","0.350676400004886","1","1","1","1","1","1","1","1","1"
"250022","img/neutralC/CFD-BF-039-031-N.jpg","img/neutralC/CFD-BF-029-031-N.jpg","img/neutralC/CFD-LM-215-247-N.jpg","1","1","1","1","1","0","0.350676400004886","0.387942200002726","0.492331499990541","1","1","1","1","1","1","1","1","1"
"250022","img/neutralC/CFD-LM-215-247-N.jpg","img/neutralC/CFD-BF-039-031-N.jpg","img/neutralC/CFD-BM-033-003-N.jpg","1","1","1","0","1","0","0.492331499990541","0.350676400004886","0.550488699984271","1","1","1","1","1","1","1","1","1"
"250022","img/neutralC/CFD-BM-033-003-N.jpg","img/neutralC/CFD-LM-215-247-N.jpg","img/neutralC/CFD-MF-337-026-N.jpg","1","1","1","0","0","1","0.550488699984271","0.492331499990541","0.435746500035748","1","1","1","1","1","1","1","1","1"
"250022","img/neutralC/CFD-MF-337-026-N.jpg","img/neutralC/CFD-BM-033-003-N.jpg","img/neutralC/CFD-IF-634-382-N.jpg","1","1","1","1","0","1","0.435746500035748","0.550488699984271","0.387000699993223","1","1","1","1","1","1","1","1","1"
"250022","img/neutralC/CFD-IF-634-382-N.jpg","img/neutralC/CFD-MF-337-026-N.jpg","img/neutralC/CFD-WM-011-002-N.jpg","1","1","0","1","1","0","0.387000699993223","0.435746500035748","0.39520700002322","1","1","1","1","1","1","1","1","1"
"250022","img/neutralC/CFD-WM-011-002-N.jpg","img/neutralC/CFD-IF-634-382-N.jpg","img/neutralC/CFD-BF-205-141-N.jpg","0","1","1","0","1","0","0.39520700002322","0.387000699993223","0.547176899970509","1","1","1","1","1","1","1","1","1"
"250022","img/neutralC/CFD-BF-205-141-N.jpg","img/neutralC/CFD-WM-011-002-N.jpg","img/neutralC/CFD-MM-316-156-N.jpg","1","0","1","0","0","1","0.547176899970509","0.39520700002322","0.569333699997514","1","1","1","1","1","1","1","1","1"
"250022","img/neutralC/CFD-MM-316-156-N.jpg","img/neutralC/CFD-BF-205-141-N.jpg","img/neutralC/CFD-BM-041-035-N.jpg","1","1","1","1","0","0","0.569333699997514","0.547176899970509","0.823407499992754","1","1","1","1","1","1","1","1","1"
"250022","img/neutralC/CFD-BM-041-035-N.jpg","img/neutralC/CFD-MM-316-156-N.jpg","img/neutralC/CFD-AM-201-076-N.jpg","1","1","1","0","1","1","0.823407499992754","0.569333699997514","0.465404800022952","1","1","1","1","1","1","1","1","1"
"250022","img/neutralC/CFD-AM-201-076-N.jpg","img/neutralC/CFD-BM-041-035-N.jpg","img/neutralC/CFD-LF-230-203-N.jpg","1","1","1","1","0","0","0.465404800022952","0.823407499992754","0.632454300008249","1","1","1","1","1","1","1","1","1"
"250022","img/neutralC/CFD-LF-230-203-N.jpg","img/neutralC/CFD-AM-201-076-N.jpg","img/neutralC/CFD-WM-041-021-N.jpg","1","1","1","0","1","0","0.632454300008249","0.465404800022952","0.580417199991643","1","1","1","1","1","1","1","1","1"
"250022","img/neutralC/CFD-WM-041-021-N.jpg","img/neutralC/CFD-LF-230-203-N.jpg","img/neutralC/CFD-BM-019-002-N.jpg","1","1","1","0","0","0","0.580417199991643","0.632454300008249","0.554643700015731","1","1","1","1","1","1","1","1","1"
"250022","img/neutralC/CFD-BM-019-002-N.jpg","img/neutralC/CFD-WM-041-021-N.jpg","img/neutralC/CFD-BF-213-188-N.jpg","1","1","1","0","0","1","0.554643700015731","0.580417199991643","0.400897099985741","1","1","1","1","1","1","1","1","1"
"250022","img/neutralC/CFD-BF-213-188-N.jpg","img/neutralC/CFD-BM-019-002-N.jpg","img/neutralC/CFD-LF-203-066-N.jpg","1","1","1","1","0","0","0.400897099985741","0.554643700015731","0.502911899995524","1","1","1","1","1","1","1","1","1"
"250022","img/neutralC/CFD-LF-203-066-N.jpg","img/neutralC/CFD-BF-213-188-N.jpg","img/neutralC/CFD-LF-214-090-N.jpg","1","1","1","0","1","0","0.502911899995524","0.400897099985741","0.518577199953143","1","1","1","1","1","1","1","1","1"
"250022","img/neutralC/CFD-LF-214-090-N.jpg","img/neutralC/CFD-LF-203-066-N.jpg","img/neutralC/CFD-WF-250-167-N.jpg","1","1","1","0","0","1","0.518577199953143","0.502911899995524","0.38801210001111","1","1","1","1","1","1","1","1","1"
"250022","img/neutralC/CFD-WF-250-167-N.jpg","img/neutralC/CFD-LF-214-090-N.jpg","img/neutralC/CFD-WM-021-001-N.jpg","1","1","1","1","0","1","0.38801210001111","0.518577199953143","0.434464199992362","1","1","1","1","1","1","1","1","1"
"250022","img/neutralC/CFD-WM-021-001-N.jpg","img/neutralC/CFD-WF-250-167-N.jpg",NA,"1","1",NA,"1","1",NA,"0.434464199992362","0.38801210001111",NA,"1","1",NA,"1","1",NA,"1","1",NA
"250022","img/neutralC/CFD-IM-646-023-N.jpg",NA,"img/neutralC/CFD-BF-202-109-N.jpg","1",NA,"1","1",NA,"1","0.562899300013669",NA,"0.587899500038475","1",NA,"1","1",NA,"1","1",NA,"1"
"250022","img/neutralC/CFD-BF-202-109-N.jpg","img/neutralC/CFD-IM-646-023-N.jpg","img/neutralC/CFD-WM-212-097-N.jpg","1","1","0","1","1","0","0.587899500038475","0.562899300013669","0.35269759997027","1","1","1","1","1","1","1","1","1"
"250022","img/neutralC/CFD-WM-212-097-N.jpg","img/neutralC/CFD-BF-202-109-N.jpg","img/neutralC/CFD-BF-228-212-N.jpg","0","1","0","0","1","0","0.35269759997027","0.587899500038475","0.448381299967878","1","1","1","1","1","1","1","1","1"
"250022","img/neutralC/CFD-BF-228-212-N.jpg","img/neutralC/CFD-WM-212-097-N.jpg","img/neutralC/CFD-BM-248-128-N.jpg","0","0","1","0","0","0","0.448381299967878","0.35269759997027","0.537791599985212","1","1","1","1","1","1","1","1","1"
"250022","img/neutralC/CFD-BM-248-128-N.jpg","img/neutralC/CFD-BF-228-212-N.jpg","img/neutralC/CFD-MF-335-002-N.jpg","1","0","0","0","0","0","0.537791599985212","0.448381299967878","0.373356299998704","1","1","1","1","1","1","1","1","1"
"250022","img/neutralC/CFD-MF-335-002-N.jpg","img/neutralC/CFD-BM-248-128-N.jpg","img/neutralC/CFD-WF-240-083-N.jpg","0","1","1","0","0","0","0.373356299998704","0.537791599985212","0.459891000005882","1","1","1","1","1","1","1","1","1"
"250022","img/neutralC/CFD-WF-240-083-N.jpg","img/neutralC/CFD-MF-335-002-N.jpg","img/neutralC/CFD-MF-309-002-N.jpg","1","0","1","0","0","0","0.459891000005882","0.373356299998704","0.534941699996125","1","1","1","1","1","1","1","1","1"
"250022","img/neutralC/CFD-MF-309-002-N.jpg","img/neutralC/CFD-WF-240-083-N.jpg","img/neutralC/CFD-WM-215-041-N.jpg","1","1","1","0","0","0","0.534941699996125","0.459891000005882","0.46436129999347","1","1","1","1","1","1","1","1","1"
"250022","img/neutralC/CFD-WM-215-041-N.jpg","img/neutralC/CFD-MF-309-002-N.jpg","img/neutralC/CFD-BF-041-001-N.jpg","1","1","1","0","0","1","0.46436129999347","0.534941699996125","0.429167700000107","1","1","1","1","1","1","1","1","1"
"250022","img/neutralC/CFD-BF-041-001-N.jpg","img/neutralC/CFD-WM-215-041-N.jpg","img/neutralC/CFD-WM-019-003-N.jpg","1","1","1","1","0","1","0.429167700000107","0.46436129999347","0.366653900011443","1","1","1","1","1","1","1","1","1"
"250022","img/neutralC/CFD-WM-019-003-N.jpg","img/neutralC/CFD-BF-041-001-N.jpg","img/neutralC/CFD-IF-642-295-N.jpg","1","1","1","1","1","1","0.366653900011443","0.429167700000107","0.475902100035455","1","1","1","1","1","1","1","1","1"
"250022","img/neutralC/CFD-IF-642-295-N.jpg","img/neutralC/CFD-WM-019-003-N.jpg","img/neutralC/CFD-AM-247-165-N.jpg","1","1","1","1","1","1","0.475902100035455","0.366653900011443","0.423984900000505","1","1","1","1","1","1","1","1","1"
"250022","img/neutralC/CFD-AM-247-165-N.jpg","img/neutralC/CFD-IF-642-295-N.jpg","img/neutralC/CFD-LM-201-057-N.jpg","1","1","1","1","1","1","0.423984900000505","0.475902100035455","0.324054099968635","1","1","1","1","1","1","1","1","1"
"250022","img/neutralC/CFD-LM-201-057-N.jpg","img/neutralC/CFD-AM-247-165-N.jpg","img/neutralC/CFD-BM-251-013-N.jpg","1","1","1","1","1","1","0.324054099968635","0.423984900000505","0.443154699984007","1","1","1","1","1","1","1","1","1"
"250022","img/neutralC/CFD-BM-251-013-N.jpg","img/neutralC/CFD-LM-201-057-N.jpg","img/neutralC/CFD-WM-026-001-N.jpg","1","1","1","1","1","1","0.443154699984007","0.324054099968635","0.481351800030097","1","1","1","1","1","1","1","1","1"
"250022","img/neutralC/CFD-WM-026-001-N.jpg","img/neutralC/CFD-BM-251-013-N.jpg","img/neutralC/CFD-WF-228-196-N.jpg","1","1","0","1","1","0","0.481351800030097","0.443154699984007","0.420584300009068","1","1","1","1","1","1","1","1","1"
"250022","img/neutralC/CFD-WF-228-196-N.jpg","img/neutralC/CFD-WM-026-001-N.jpg","img/neutralC/CFD-IM-648-337-N.jpg","0","1","0","0","1","0","0.420584300009068","0.481351800030097","0.386998299974948","1","1","1","1","1","1","1","1","1"
"250022","img/neutralC/CFD-IM-648-337-N.jpg","img/neutralC/CFD-WF-228-196-N.jpg","img/neutralC/CFD-WM-249-239-N.jpg","0","0","1","0","0","1","0.386998299974948","0.420584300009068","0.440461900027003","1","1","1","1","1","1","1","1","1"
"250022","img/neutralC/CFD-WM-249-239-N.jpg","img/neutralC/CFD-IM-648-337-N.jpg","img/neutralC/CFD-BF-212-315-N.jpg","1","0","1","1","0","1","0.440461900027003","0.386998299974948","0.419809199986048","1","1","1","1","1","1","1","1","1"
"250022","img/neutralC/CFD-BF-212-315-N.jpg","img/neutralC/CFD-WM-249-239-N.jpg","img/neutralC/CFD-WM-012-001-N.jpg","1","1","1","1","1","1","0.419809199986048","0.440461900027003","0.555868100025691","1","1","1","1","1","1","1","1","1"
"250022","img/neutralC/CFD-WM-012-001-N.jpg","img/neutralC/CFD-BF-212-315-N.jpg","img/neutralC/CFD-WF-005-010-N.jpg","1","1","1","1","1","0","0.555868100025691","0.419809199986048","0.665467099985108","1","1","1","1","1","1","1","1","1"
"250022","img/neutralC/CFD-WF-005-010-N.jpg","img/neutralC/CFD-WM-012-001-N.jpg","img/neutralC/CFD-BF-025-002-N.jpg","1","1","1","0","1","0","0.665467099985108","0.555868100025691","0.560531000024639","1","1","1","1","1","1","1","1","1"
"250022","img/neutralC/CFD-BF-025-002-N.jpg","img/neutralC/CFD-WF-005-010-N.jpg","img/neutralC/CFD-MM-317-061-N.jpg","1","1","1","0","0","1","0.560531000024639","0.665467099985108","0.37629729998298","1","1","1","1","1","1","1","1","1"
"250022","img/neutralC/CFD-MM-317-061-N.jpg","img/neutralC/CFD-BF-025-002-N.jpg","img/neutralC/CFD-LM-244-068-N.jpg","1","1","1","1","0","1","0.37629729998298","0.560531000024639","0.498024599975906","1","1","1","1","1","1","1","1","1"
"250022","img/neutralC/CFD-LM-244-068-N.jpg","img/neutralC/CFD-MM-317-061-N.jpg","img/neutralC/CFD-LM-243-075-N.jpg","1","1","1","1","1","0","0.498024599975906","0.37629729998298","0.462902500003111","1","1","1","1","1","1","1","1","1"
"250022","img/neutralC/CFD-LM-243-075-N.jpg","img/neutralC/CFD-LM-244-068-N.jpg","img/neutralC/CFD-BM-205-001-N.jpg","1","1","1","0","1","0","0.462902500003111","0.498024599975906","0.469472999975551","1","1","1","1","1","1","1","1","1"
"250022","img/neutralC/CFD-BM-205-001-N.jpg","img/neutralC/CFD-LM-243-075-N.jpg","img/neutralC/CFD-LM-216-082-N.jpg","1","1","0","0","0","0","0.469472999975551","0.462902500003111","0.477499899978284","1","1","1","1","1","1","1","1","1"
"250022","img/neutralC/CFD-LM-216-082-N.jpg","img/neutralC/CFD-BM-205-001-N.jpg","img/neutralC/CFD-WF-017-003-N.jpg","0","1","1","0","0","1","0.477499899978284","0.469472999975551","0.491410799964797","1","1","1","1","1","1","1","1","1"
"250022","img/neutralC/CFD-WF-017-003-N.jpg","img/neutralC/CFD-LM-216-082-N.jpg","img/neutralC/CFD-AF-240-206-N.jpg","1","0","1","1","0","0","0.491410799964797","0.477499899978284","0.608020299987402","1","1","1","1","1","1","1","1","1"
"250022","img/neutralC/CFD-AF-240-206-N.jpg","img/neutralC/CFD-WF-017-003-N.jpg","img/neutralC/CFD-WM-006-002-N.jpg","1","1","1","0","1","0","0.608020299987402","0.491410799964797","0.506643199943937","1","1","1","1","1","1","1","1","1"
"250022","img/neutralC/CFD-WM-006-002-N.jpg","img/neutralC/CFD-AF-240-206-N.jpg","img/neutralC/CFD-LM-214-165-N.jpg","1","1","1","0","0","1","0.506643199943937","0.608020299987402","0.486289800028317","1","1","1","1","1","1","1","1","1"
"250022","img/neutralC/CFD-LM-214-165-N.jpg","img/neutralC/CFD-WM-006-002-N.jpg",NA,"1","1",NA,"1","0",NA,"0.486289800028317","0.506643199943937",NA,"1","1",NA,"1","1",NA,"1","1",NA
"250022","img/neutralC/CFD-WM-024-015-N.jpg",NA,"img/neutralC/CFD-AF-254-167-N.jpg","1",NA,"1","1",NA,"1","0.506411499984097",NA,"0.368672800017521","1",NA,"1","1",NA,"1","1",NA,"1"
"250022","img/neutralC/CFD-AF-254-167-N.jpg","img/neutralC/CFD-WM-024-015-N.jpg","img/neutralC/CFD-MF-340-026-N.jpg","1","1","1","1","1","1","0.368672800017521","0.506411499984097","0.363480100000743","1","1","1","1","1","1","1","1","1"
"250022","img/neutralC/CFD-MF-340-026-N.jpg","img/neutralC/CFD-AF-254-167-N.jpg","img/neutralC/CFD-LF-226-174-N.jpg","1","1","1","1","1","0","0.363480100000743","0.368672800017521","0.523390799993649","1","1","1","1","1","1","1","1","1"
"250022","img/neutralC/CFD-LF-226-174-N.jpg","img/neutralC/CFD-MF-340-026-N.jpg","img/neutralC/CFD-MF-300-002-N.jpg","1","1","0","0","1","0","0.523390799993649","0.363480100000743","0.878172199998517","1","1","1","1","1","1","1","1","1"
"250022","img/neutralC/CFD-MF-300-002-N.jpg","img/neutralC/CFD-LF-226-174-N.jpg","img/neutralC/CFD-LF-201-035-N.jpg","0","1","1","0","0","1","0.878172199998517","0.523390799993649","0.36441499995999","1","1","1","1","1","1","1","1","1"
"250022","img/neutralC/CFD-LF-201-035-N.jpg","img/neutralC/CFD-MF-300-002-N.jpg","img/neutralC/CFD-WM-213-076-N.jpg","1","0","1","1","0","1","0.36441499995999","0.878172199998517","0.370153199997731","1","1","1","1","1","1","1","1","1"
"250022","img/neutralC/CFD-WM-213-076-N.jpg","img/neutralC/CFD-LF-201-035-N.jpg","img/neutralC/CFD-WM-232-070-N.jpg","1","1","0","1","1","0","0.370153199997731","0.36441499995999","0.43456820002757","1","1","1","1","1","1","1","1","2"
"250022","img/neutralC/CFD-WM-232-070-N.jpg","img/neutralC/CFD-WM-213-076-N.jpg","img/neutralC/CFD-MF-329-001-N.jpg","0","1","1","0","1","0","0.43456820002757","0.370153199997731","0.515526300005149","1","1","1","1","1","1","2","1","1"
"250022","img/neutralC/CFD-MF-329-001-N.jpg","img/neutralC/CFD-WM-232-070-N.jpg","img/neutralC/CFD-BM-039-029-N.jpg","1","0","1","0","0","1","0.515526300005149","0.43456820002757","0.464463000011165","1","1","1","1","1","1","1","2","1"
"250022","img/neutralC/CFD-BM-039-029-N.jpg","img/neutralC/CFD-MF-329-001-N.jpg","img/neutralC/CFD-AF-229-160-N.jpg","1","1","1","1","0","0","0.464463000011165","0.515526300005149","0.66512799996417","1","1","1","1","1","1","1","1","1"
"250022","img/neutralC/CFD-AF-229-160-N.jpg","img/neutralC/CFD-BM-039-029-N.jpg","img/neutralC/CFD-WF-012-002-N.jpg","1","1","1","0","1","1","0.66512799996417","0.464463000011165","0.390424799988978","1","1","1","1","1","1","1","1","1"
"250022","img/neutralC/CFD-WF-012-002-N.jpg","img/neutralC/CFD-AF-229-160-N.jpg","img/neutralC/CFD-AM-236-090-N.jpg","1","1","1","1","0","1","0.390424799988978","0.66512799996417","0.353194599971175","1","1","1","1","1","1","1","1","1"
"250022","img/neutralC/CFD-AM-236-090-N.jpg","img/neutralC/CFD-WF-012-002-N.jpg","img/neutralC/CFD-IF-619-197-N.jpg","1","1","1","1","1","0","0.353194599971175","0.390424799988978","0.462330599955749","1","1","1","1","1","1","1","1","1"
"250022","img/neutralC/CFD-IF-619-197-N.jpg","img/neutralC/CFD-AM-236-090-N.jpg","img/neutralC/CFD-WF-212-050-N.jpg","1","1","1","0","1","0","0.462330599955749","0.353194599971175","0.519817799970042","1","1","1","1","1","1","1","1","1"
"250022","img/neutralC/CFD-WF-212-050-N.jpg","img/neutralC/CFD-IF-619-197-N.jpg","img/neutralC/CFD-AF-215-70-N.jpg","1","1","1","0","0","0","0.519817799970042","0.462330599955749","0.595413100032602","1","1","1","1","1","1","1","1","1"
"250022","img/neutralC/CFD-AF-215-70-N.jpg","img/neutralC/CFD-WF-212-050-N.jpg","img/neutralC/CFD-IF-608-390-N.jpg","1","1","1","0","0","1","0.595413100032602","0.519817799970042","0.395390600024257","1","1","1","1","1","1","1","1","1"
"250022","img/neutralC/CFD-IF-608-390-N.jpg","img/neutralC/CFD-AF-215-70-N.jpg","img/neutralC/CFD-LM-217-162-N.jpg","1","1","1","1","0","0","0.395390600024257","0.595413100032602","0.535235699964687","1","1","1","1","1","1","1","1","1"
"250022","img/neutralC/CFD-LM-217-162-N.jpg","img/neutralC/CFD-IF-608-390-N.jpg","img/neutralC/CFD-WF-008-002-N.jpg","1","1","1","0","1","1","0.535235699964687","0.395390600024257","0.397965100011788","1","1","1","1","1","1","1","1","1"
"250022","img/neutralC/CFD-WF-008-002-N.jpg","img/neutralC/CFD-LM-217-162-N.jpg","img/neutralC/CFD-WF-248-129-N.jpg","1","1","1","1","0","0","0.397965100011788","0.535235699964687","0.553259500011336","1","1","1","1","1","1","1","1","1"
"250022","img/neutralC/CFD-WF-248-129-N.jpg","img/neutralC/CFD-WF-008-002-N.jpg","img/neutralC/CFD-BF-224-002-N.jpg","1","1","1","0","1","1","0.553259500011336","0.397965100011788","0.36082240001997","1","1","1","1","1","1","1","1","1"
"250022","img/neutralC/CFD-BF-224-002-N.jpg","img/neutralC/CFD-WF-248-129-N.jpg","img/neutralC/CFD-BF-051-035-N.jpg","1","1","1","1","0","0","0.36082240001997","0.553259500011336","0.56666089995997","1","1","1","1","1","1","1","1","1"
"250022","img/neutralC/CFD-BF-051-035-N.jpg","img/neutralC/CFD-BF-224-002-N.jpg","img/neutralC/CFD-IM-604-014-N.jpg","1","1","0","0","1","0","0.56666089995997","0.36082240001997","0.71129700000165","1","1","1","1","1","1","1","1","1"
"250022","img/neutralC/CFD-IM-604-014-N.jpg","img/neutralC/CFD-BF-051-035-N.jpg","img/neutralC/CFD-MF-327-002-N.jpg","0","1","1","0","0","0","0.71129700000165","0.56666089995997","0.485868100018706","1","1","1","1","1","1","1","1","1"
"250022","img/neutralC/CFD-MF-327-002-N.jpg","img/neutralC/CFD-IM-604-014-N.jpg","img/neutralC/CFD-IM-675-015-N.jpg","1","0","1","0","0","1","0.485868100018706","0.71129700000165","0.443480800022371","1","1","1","1","1","1","1","1","1"
"250022","img/neutralC/CFD-IM-675-015-N.jpg","img/neutralC/CFD-MF-327-002-N.jpg","img/neutralC/CFD-IM-637-007-N.jpg","1","1","1","1","0","0","0.443480800022371","0.485868100018706","0.54985690000467","1","1","1","1","1","1","1","1","1"
"250022","img/neutralC/CFD-IM-637-007-N.jpg","img/neutralC/CFD-IM-675-015-N.jpg","img/neutralC/CFD-WF-217-085-N.jpg","1","1","1","0","1","1","0.54985690000467","0.443480800022371","0.377925799984951","1","1","1","1","1","1","1","1","1"
"250022","img/neutralC/CFD-WF-217-085-N.jpg","img/neutralC/CFD-IM-637-007-N.jpg","img/neutralC/CFD-IM-685-004-N.jpg","1","1","1","1","0","1","0.377925799984951","0.54985690000467","0.367034700000659","1","1","1","1","1","1","1","1","1"
"250022","img/neutralC/CFD-IM-685-004-N.jpg","img/neutralC/CFD-WF-217-085-N.jpg","img/neutralC/CFD-MM-304-002-N.jpg","1","1","1","1","1","1","0.367034700000659","0.377925799984951","0.314754399994854","1","1","1","1","1","1","1","1","1"
"250022","img/neutralC/CFD-MM-304-002-N.jpg","img/neutralC/CFD-IM-685-004-N.jpg","img/neutralC/CFD-IM-709-103-N.jpg","1","1","1","1","1","0","0.314754399994854","0.367034700000659","0.552454199991189","1","1","1","1","1","1","1","1","1"
"250022","img/neutralC/CFD-IM-709-103-N.jpg","img/neutralC/CFD-MM-304-002-N.jpg","img/neutralC/CFD-BM-243-218-N.jpg","1","1","1","0","1","1","0.552454199991189","0.314754399994854","0.413051799987443","1","1","1","1","1","1","1","1","1"
"250022","img/neutralC/CFD-BM-243-218-N.jpg","img/neutralC/CFD-IM-709-103-N.jpg","img/neutralC/CFD-BF-043-003-N.jpg","1","1","1","1","0","0","0.413051799987443","0.552454199991189","0.574699299992062","1","1","1","1","1","1","1","1","1"
"250022","img/neutralC/CFD-BF-043-003-N.jpg","img/neutralC/CFD-BM-243-218-N.jpg",NA,"1","1",NA,"0","1",NA,"0.574699299992062","0.413051799987443",NA,"1","1",NA,"1","1",NA,"1","1",NA
"250022","img/neutralC/CFD-BF-237-172-N.jpg",NA,"img/neutralC/CFD-IM-680-369-N.jpg","1",NA,"1","1",NA,"1","0.553932699956931",NA,"0.329005800012965","1",NA,"1","1",NA,"1","1",NA,"1"
"250022","img/neutralC/CFD-IM-680-369-N.jpg","img/neutralC/CFD-BF-237-172-N.jpg","img/neutralC/CFD-WF-007-001-N.jpg","1","1","1","1","1","1","0.329005800012965","0.553932699956931","0.299752699967939","1","1","1","1","1","1","1","1","1"
"250022","img/neutralC/CFD-WF-007-001-N.jpg","img/neutralC/CFD-IM-680-369-N.jpg","img/neutralC/CFD-WM-015-002-N.jpg","1","1","0","1","1","0","0.299752699967939","0.329005800012965","0.325024399964605","1","1","1","1","1","1","1","1","1"
"250022","img/neutralC/CFD-WM-015-002-N.jpg","img/neutralC/CFD-WF-007-001-N.jpg","img/neutralC/CFD-LF-206-078-N.jpg","0","1","1","0","1","1","0.325024399964605","0.299752699967939","0.308619400020689","1","1","1","1","1","1","1","1","1"
"250022","img/neutralC/CFD-LF-206-078-N.jpg","img/neutralC/CFD-WM-015-002-N.jpg","img/neutralC/CFD-IM-667-369-N.jpg","1","0","1","1","0","0","0.308619400020689","0.325024399964605","0.871619799989276","1","1","1","1","1","1","1","1","1"
"250022","img/neutralC/CFD-IM-667-369-N.jpg","img/neutralC/CFD-LF-206-078-N.jpg","img/neutralC/CFD-IF-660-464-N.jpg","1","1","1","0","1","0","0.871619799989276","0.308619400020689","0.525543799973093","1","1","1","1","1","1","1","1","1"
"250022","img/neutralC/CFD-IF-660-464-N.jpg","img/neutralC/CFD-IM-667-369-N.jpg","img/neutralC/CFD-IM-702-101-N.jpg","1","1","1","0","0","1","0.525543799973093","0.871619799989276","0.507365600031335","1","1","1","1","1","1","1","1","1"
"250022","img/neutralC/CFD-IM-702-101-N.jpg","img/neutralC/CFD-IF-660-464-N.jpg","img/neutralC/CFD-IM-706-002-N.jpg","1","1","0","1","0","0","0.507365600031335","0.525543799973093","0.443274700024631","1","1","1","1","1","1","1","1","2"
"250022","img/neutralC/CFD-IM-706-002-N.jpg","img/neutralC/CFD-IM-702-101-N.jpg","img/neutralC/CFD-BF-014-002-N.jpg","0","1","1","0","1","1","0.443274700024631","0.507365600031335","0.397668299963698","1","1","1","1","1","1","2","1","1"
"250022","img/neutralC/CFD-BF-014-002-N.jpg","img/neutralC/CFD-IM-706-002-N.jpg","img/neutralC/CFD-LM-225-130-N.jpg","1","0","1","1","0","0","0.397668299963698","0.443274700024631","0.50494820001768","1","1","1","1","1","1","1","2","1"
"250022","img/neutralC/CFD-LM-225-130-N.jpg","img/neutralC/CFD-BF-014-002-N.jpg","img/neutralC/CFD-IM-664-651-N.jpg","1","1","1","0","1","1","0.50494820001768","0.397668299963698","0.331278200028464","1","1","1","1","1","1","1","1","1"
"250022","img/neutralC/CFD-IM-664-651-N.jpg","img/neutralC/CFD-LM-225-130-N.jpg","img/neutralC/CFD-IF-626-375-N.jpg","1","1","1","1","0","0","0.331278200028464","0.50494820001768","0.422754400002304","1","1","1","1","1","1","1","1","1"
"250022","img/neutralC/CFD-IF-626-375-N.jpg","img/neutralC/CFD-IM-664-651-N.jpg","img/neutralC/CFD-AF-233-190-N.jpg","1","1","0","0","1","0","0.422754400002304","0.331278200028464","0.36227709997911","1","1","1","1","1","1","1","1","1"
"250022","img/neutralC/CFD-AF-233-190-N.jpg","img/neutralC/CFD-IF-626-375-N.jpg","img/neutralC/CFD-BM-001-014-N.jpg","0","1","1","0","0","0","0.36227709997911","0.422754400002304","0.420450400037225","1","1","1","1","1","1","1","1","1"
"250022","img/neutralC/CFD-BM-001-014-N.jpg","img/neutralC/CFD-AF-233-190-N.jpg","img/neutralC/CFD-WM-218-074-N.jpg","1","0","1","0","0","1","0.420450400037225","0.36227709997911","0.339423399942461","1","1","1","1","1","1","1","1","1"
"250022","img/neutralC/CFD-WM-218-074-N.jpg","img/neutralC/CFD-BM-001-014-N.jpg","img/neutralC/CFD-WF-030-002-N.jpg","1","1","0","1","0","0","0.339423399942461","0.420450400037225","0.329960100003518","1","1","1","1","1","1","1","1","1"
"250022","img/neutralC/CFD-WF-030-002-N.jpg","img/neutralC/CFD-WM-218-074-N.jpg","img/neutralC/CFD-MF-343-001-N.jpg","0","1","1","0","1","1","0.329960100003518","0.339423399942461","0.458264000015333","1","1","1","1","1","1","1","1","1"
"250022","img/neutralC/CFD-MF-343-001-N.jpg","img/neutralC/CFD-WF-030-002-N.jpg","img/neutralC/CFD-WF-244-163-N.jpg","1","0","1","1","0","1","0.458264000015333","0.329960100003518","0.435644100012723","1","1","1","1","1","1","1","1","1"
"250022","img/neutralC/CFD-WF-244-163-N.jpg","img/neutralC/CFD-MF-343-001-N.jpg","img/neutralC/CFD-MM-324-069-N.jpg","1","1","1","1","1","1","0.435644100012723","0.458264000015333","0.46193560003303","1","1","1","1","1","1","1","1","1"
"250022","img/neutralC/CFD-MM-324-069-N.jpg","img/neutralC/CFD-WF-244-163-N.jpg","img/neutralC/CFD-BM-250-170-N.jpg","1","1","1","1","1","1","0.46193560003303","0.435644100012723","0.363392099970952","1","1","1","1","1","1","1","1","1"
"250022","img/neutralC/CFD-BM-250-170-N.jpg","img/neutralC/CFD-MM-324-069-N.jpg","img/neutralC/CFD-MF-316-001-N.jpg","1","1","1","1","1","0","0.363392099970952","0.46193560003303","0.502608000009786","1","1","1","1","1","1","1","1","1"
"250022","img/neutralC/CFD-MF-316-001-N.jpg","img/neutralC/CFD-BM-250-170-N.jpg","img/neutralC/CFD-MF-305-014-N.jpg","1","1","1","0","1","1","0.502608000009786","0.363392099970952","0.343286999966949","1","1","1","1","1","1","1","1","1"
"250022","img/neutralC/CFD-MF-305-014-N.jpg","img/neutralC/CFD-MF-316-001-N.jpg","img/neutralC/CFD-BM-217-082-N.jpg","1","1","1","1","0","0","0.343286999966949","0.502608000009786","0.58597119996557","1","1","1","1","1","1","1","1","1"
"250022","img/neutralC/CFD-BM-217-082-N.jpg","img/neutralC/CFD-MF-305-014-N.jpg","img/neutralC/CFD-AF-253-130-N.jpg","1","1","1","0","1","1","0.58597119996557","0.343286999966949","0.357518700009678","1","1","1","1","1","1","1","1","1"
"250022","img/neutralC/CFD-AF-253-130-N.jpg","img/neutralC/CFD-BM-217-082-N.jpg","img/neutralC/CFD-MF-357-002-N.jpg","1","1","1","1","0","0","0.357518700009678","0.58597119996557","0.431604199984577","1","1","1","1","1","1","1","1","1"
"250022","img/neutralC/CFD-MF-357-002-N.jpg","img/neutralC/CFD-AF-253-130-N.jpg","img/neutralC/CFD-LF-255-088-N.jpg","1","1","0","0","1","0","0.431604199984577","0.357518700009678","0.482802200014703","1","1","1","1","1","1","1","1","1"
"250022","img/neutralC/CFD-LF-255-088-N.jpg","img/neutralC/CFD-MF-357-002-N.jpg","img/neutralC/CFD-WM-209-038-N.jpg","0","1","1","0","0","0","0.482802200014703","0.431604199984577","0.496333300019614","1","1","1","1","1","1","1","1","1"
"250022","img/neutralC/CFD-WM-209-038-N.jpg","img/neutralC/CFD-LF-255-088-N.jpg","img/neutralC/CFD-AM-220-134-N.jpg","1","0","1","0","0","0","0.496333300019614","0.482802200014703","0.66796550003346","1","1","1","1","1","1","1","1","1"
"250022","img/neutralC/CFD-AM-220-134-N.jpg","img/neutralC/CFD-WM-209-038-N.jpg","img/neutralC/CFD-LM-200-045-N.jpg","1","1","1","0","0","1","0.66796550003346","0.496333300019614","0.536219900008291","1","1","1","1","1","1","1","1","1"
"250022","img/neutralC/CFD-LM-200-045-N.jpg","img/neutralC/CFD-AM-220-134-N.jpg","img/neutralC/CFD-WF-222-092-N.jpg","1","1","1","1","0","1","0.536219900008291","0.66796550003346","0.438714099989738","1","1","1","1","1","1","1","1","1"
"250022","img/neutralC/CFD-WF-222-092-N.jpg","img/neutralC/CFD-LM-200-045-N.jpg","img/neutralC/CFD-MF-303-013-N.jpg","1","1","1","1","1","0","0.438714099989738","0.536219900008291","0.491603300033603","1","1","1","1","1","1","1","1","1"
"250022","img/neutralC/CFD-MF-303-013-N.jpg","img/neutralC/CFD-WF-222-092-N.jpg",NA,"1","1",NA,"0","1",NA,"0.491603300033603","0.438714099989738",NA,"1","1",NA,"1","1",NA,"1","1",NA
"250022","img/neutralC/CFD-WF-241-210-N.jpg",NA,"img/neutralC/CFD-IM-697-015-N.jpg","0",NA,"1","0",NA,"1","0.444196099997498",NA,"0.389146800036542","1",NA,"1","1",NA,"1","1",NA,"1"
"250022","img/neutralC/CFD-IM-697-015-N.jpg","img/neutralC/CFD-WF-241-210-N.jpg","img/neutralC/CFD-MF-328-020-N.jpg","1","0","0","1","0","0","0.389146800036542","0.444196099997498","0.269664699968416","1","1","1","1","1","1","1","1","1"
"250022","img/neutralC/CFD-MF-328-020-N.jpg","img/neutralC/CFD-IM-697-015-N.jpg","img/neutralC/CFD-WF-207-014-N.jpg","0","1","0","0","1","1","0.269664699968416","0.389146800036542","0.201009999960661","1","1","1","1","1","1","1","1","1"
"250022","img/neutralC/CFD-WF-207-014-N.jpg","img/neutralC/CFD-MF-328-020-N.jpg","img/neutralC/CFD-AM-219-101-N.jpg","0","0","1","1","0","0","0.201009999960661","0.269664699968416","3.43160050001461","1","1","1","1","1","1","1","1","1"
"250022","img/neutralC/CFD-AM-219-101-N.jpg","img/neutralC/CFD-WF-207-014-N.jpg","img/neutralC/CFD-AM-249-163-N.jpg","1","0","1","0","1","1","3.43160050001461","0.201009999960661","0.29811079998035","1","1","1","1","1","1","1","1","2"
"250022","img/neutralC/CFD-AM-249-163-N.jpg","img/neutralC/CFD-AM-219-101-N.jpg","img/neutralC/CFD-WF-243-148-N.jpg","1","1","0","1","0","0","0.29811079998035","3.43160050001461","0.287429599964526","1","1","1","1","1","1","2","1","1"
"250022","img/neutralC/CFD-WF-243-148-N.jpg","img/neutralC/CFD-AM-249-163-N.jpg","img/neutralC/CFD-WF-221-005-N.jpg","0","1","0","0","1","0","0.287429599964526","0.29811079998035","0.23739680001745","1","1","1","1","1","1","1","2","2"
"250022","img/neutralC/CFD-WF-221-005-N.jpg","img/neutralC/CFD-WF-243-148-N.jpg","img/neutralC/CFD-IM-689-263-N.jpg","0","0","1","0","0","1","0.23739680001745","0.287429599964526","0.207958800019696","1","1","1","1","1","1","2","1","2"
"250022","img/neutralC/CFD-IM-689-263-N.jpg","img/neutralC/CFD-WF-221-005-N.jpg","img/neutralC/CFD-IM-615-167-N.jpg","1","0","0","1","0","0","0.207958800019696","0.23739680001745","0.238217000034638","1","1","1","1","1","1","2","2","1"
"250022","img/neutralC/CFD-IM-615-167-N.jpg","img/neutralC/CFD-IM-689-263-N.jpg","img/neutralC/CFD-LF-222-147-N.jpg","0","1","0","0","1","0","0.238217000034638","0.207958800019696","0.311546500015538","1","1","1","1","1","1","1","2","1"
"250022","img/neutralC/CFD-LF-222-147-N.jpg","img/neutralC/CFD-IM-615-167-N.jpg","img/neutralC/CFD-AM-243-212-N.jpg","0","0","1","0","0","1","0.311546500015538","0.238217000034638","0.182270099991001","1","1","1","1","1","1","1","1","1"
"250022","img/neutralC/CFD-AM-243-212-N.jpg","img/neutralC/CFD-LF-222-147-N.jpg","img/neutralC/CFD-WM-023-001-N.jpg","1","0","0","1","0","0","0.182270099991001","0.311546500015538","0.265185299969744","1","1","1","1","1","1","1","1","1"
"250022","img/neutralC/CFD-WM-023-001-N.jpg","img/neutralC/CFD-AM-243-212-N.jpg","img/neutralC/CFD-BM-020-001-N.jpg","0","1","0","0","1","0","0.265185299969744","0.182270099991001",NA,"1","1","0","1","1","0","1","1","0"
"250022","img/neutralC/CFD-BM-020-001-N.jpg","img/neutralC/CFD-WM-023-001-N.jpg","img/neutralC/CFD-AM-205-153-N.jpg","0","0","0","0","0","1",NA,"0.265185299969744","0.187242299958598","0","1","1","0","1","1","0","1","1"
"250022","img/neutralC/CFD-AM-205-153-N.jpg","img/neutralC/CFD-BM-020-001-N.jpg","img/neutralC/CFD-LF-238-154-N.jpg","0","0","0","1","0","1","0.187242299958598",NA,"0.220732799964026","1","0","1","1","0","1","1","0","1"
"250022","img/neutralC/CFD-LF-238-154-N.jpg","img/neutralC/CFD-AM-205-153-N.jpg","img/neutralC/CFD-BF-012-001-N.jpg","0","0","0","1","1","0","0.220732799964026","0.187242299958598","0.289306099992245","1","1","1","1","1","1","1","1","1"
"250022","img/neutralC/CFD-BF-012-001-N.jpg","img/neutralC/CFD-LF-238-154-N.jpg","img/neutralC/CFD-BM-043-071-N.jpg","0","0","0","0","1","0","0.289306099992245","0.220732799964026","0.258165100007318","1","1","1","1","1","1","1","1","1"
"250022","img/neutralC/CFD-BM-043-071-N.jpg","img/neutralC/CFD-BF-012-001-N.jpg","img/neutralC/CFD-LF-212-066-N.jpg","0","0","1","0","0","1","0.258165100007318","0.289306099992245","0.374671699944884","1","1","1","1","1","1","1","1","1"
"250022","img/neutralC/CFD-LF-212-066-N.jpg","img/neutralC/CFD-BM-043-071-N.jpg","img/neutralC/CFD-BF-244-231-N.jpg","1","0","1","1","0","1","0.374671699944884","0.258165100007318","0.239313099998981","1","1","1","1","1","1","1","1","1"
"250022","img/neutralC/CFD-BF-244-231-N.jpg","img/neutralC/CFD-LF-212-066-N.jpg","img/neutralC/CFD-BM-021-021-N.jpg","1","1","1","1","1","1","0.239313099998981","0.374671699944884","0.391322399955243","1","1","1","1","1","1","1","1","1"
"250022","img/neutralC/CFD-BM-021-021-N.jpg","img/neutralC/CFD-BF-244-231-N.jpg","img/neutralC/CFD-WM-028-003-N.jpg","1","1","1","1","1","1","0.391322399955243","0.239313099998981","0.277457799995318","1","1","1","1","1","1","1","1","1"
"250022","img/neutralC/CFD-WM-028-003-N.jpg","img/neutralC/CFD-BM-021-021-N.jpg","img/neutralC/CFD-MM-306-010-N.jpg","1","1","1","1","1","0","0.277457799995318","0.391322399955243","0.22043530002702","1","1","1","1","1","1","1","1","1"
"250022","img/neutralC/CFD-MM-306-010-N.jpg","img/neutralC/CFD-WM-028-003-N.jpg","img/neutralC/CFD-WM-025-002-N.jpg","1","1","0","0","1","0","0.22043530002702","0.277457799995318","0.219967999961227","1","1","1","1","1","1","1","1","1"
"250022","img/neutralC/CFD-WM-025-002-N.jpg","img/neutralC/CFD-MM-306-010-N.jpg","img/neutralC/CFD-LM-240-013-N.jpg","0","1","0","0","0","1","0.219967999961227","0.22043530002702","0.27223280002363","1","1","1","1","1","1","1","1","1"
"250022","img/neutralC/CFD-LM-240-013-N.jpg","img/neutralC/CFD-WM-025-002-N.jpg","img/neutralC/CFD-BM-009-002-N.jpg","0","0","1","1","0","1","0.27223280002363","0.219967999961227","0.336513300018851","1","1","1","1","1","1","1","1","1"
"250022","img/neutralC/CFD-BM-009-002-N.jpg","img/neutralC/CFD-LM-240-013-N.jpg","img/neutralC/CFD-WF-009-001-N.jpg","1","0","1","1","1","1","0.336513300018851","0.27223280002363","0.374279699986801","1","1","1","1","1","1","1","1","1"
"250022","img/neutralC/CFD-WF-009-001-N.jpg","img/neutralC/CFD-BM-009-002-N.jpg","img/neutralC/CFD-IF-676-017-N.jpg","1","1","1","1","1","1","0.374279699986801","0.336513300018851","0.35944859997835","1","1","1","1","1","1","1","1","1"
"250022","img/neutralC/CFD-IF-676-017-N.jpg","img/neutralC/CFD-WF-009-001-N.jpg","img/neutralC/CFD-IM-606-008-N.jpg","1","1","0","1","1","0","0.35944859997835","0.374279699986801","0.41705250000814","1","1","1","1","1","1","1","1","1"
"250022","img/neutralC/CFD-IM-606-008-N.jpg","img/neutralC/CFD-IF-676-017-N.jpg","img/neutralC/CFD-BM-030-003-N.jpg","0","1","0","0","1","0","0.41705250000814","0.35944859997835","0.346062799973879","1","1","1","1","1","1","1","1","1"
"250022","img/neutralC/CFD-BM-030-003-N.jpg","img/neutralC/CFD-IM-606-008-N.jpg","img/neutralC/CFD-AF-237-223-N.jpg","0","0","0","0","0","0","0.346062799973879","0.41705250000814","0.230386100010946","1","1","1","1","1","1","1","1","1"
"250022","img/neutralC/CFD-AF-237-223-N.jpg","img/neutralC/CFD-BM-030-003-N.jpg","img/neutralC/CFD-BM-227-191-N.jpg","0","0","1","0","0","1","0.230386100010946","0.346062799973879","0.17170070001157","1","1","1","1","1","1","1","1","1"
"250022","img/neutralC/CFD-BM-227-191-N.jpg","img/neutralC/CFD-AF-237-223-N.jpg",NA,"1","0",NA,"1","0",NA,"0.17170070001157","0.230386100010946",NA,"1","1",NA,"1","1",NA,"1","1",NA
"250022","img/neutralC/CFD-LF-236-221-N.jpg",NA,"img/neutralC/CFD-BM-027-001-N.jpg","1",NA,"0","1",NA,"0","0.297238199971616",NA,"0.353432599978987","1",NA,"1","1",NA,"1","1",NA,"1"
"250022","img/neutralC/CFD-BM-027-001-N.jpg","img/neutralC/CFD-LF-236-221-N.jpg","img/neutralC/CFD-MM-319-052-N.jpg","0","1","1","0","1","1","0.353432599978987","0.297238199971616","0.363221300009172","1","1","1","1","1","1","1","1","1"
"250022","img/neutralC/CFD-MM-319-052-N.jpg","img/neutralC/CFD-BM-027-001-N.jpg","img/neutralC/CFD-AM-217-085-N.jpg","1","0","0","1","0","0","0.363221300009172","0.353432599978987","0.361167600029148","1","1","1","1","1","1","1","1","1"
"250022","img/neutralC/CFD-AM-217-085-N.jpg","img/neutralC/CFD-MM-319-052-N.jpg","img/neutralC/CFD-BF-023-010-N.jpg","0","1","1","0","1","1","0.361167600029148","0.363221300009172","0.0519683999591507","1","1","1","1","1","0","1","1","1"
"250022","img/neutralC/CFD-BF-023-010-N.jpg","img/neutralC/CFD-AM-217-085-N.jpg","img/neutralC/CFD-BM-247-240-N.jpg","1","0","0","1","0","0","0.0519683999591507","0.361167600029148","0.188226600002963","1","1","1","0","1","1","1","1","2"
"250022","img/neutralC/CFD-BM-247-240-N.jpg","img/neutralC/CFD-BF-023-010-N.jpg","img/neutralC/CFD-IF-718-001-N.jpg","0","1","1","0","1","1","0.188226600002963","0.0519683999591507","0.335454699990805","1","1","1","1","0","1","2","1","1"
"250022","img/neutralC/CFD-IF-718-001-N.jpg","img/neutralC/CFD-BM-247-240-N.jpg","img/neutralC/CFD-IM-728-041-N.jpg","1","0","1","1","0","0","0.335454699990805","0.188226600002963","0.755732599995099","1","1","1","1","1","1","1","2","1"
"250022","img/neutralC/CFD-IM-728-041-N.jpg","img/neutralC/CFD-IF-718-001-N.jpg","img/neutralC/CFD-WM-225-127-N.jpg","1","1","0","0","1","0","0.755732599995099","0.335454699990805","0.351563400006853","1","1","1","1","1","1","1","1","1"
"250022","img/neutralC/CFD-WM-225-127-N.jpg","img/neutralC/CFD-IM-728-041-N.jpg","img/neutralC/CFD-BF-204-189-N.jpg","0","1","1","0","0","1","0.351563400006853","0.755732599995099","0.254727699968498","1","1","1","1","1","1","1","1","1"
"250022","img/neutralC/CFD-BF-204-189-N.jpg","img/neutralC/CFD-WM-225-127-N.jpg","img/neutralC/CFD-LF-216-121-N.jpg","1","0","1","1","0","1","0.254727699968498","0.351563400006853","0.332906600029673","1","1","1","1","1","1","1","1","1"
"250022","img/neutralC/CFD-LF-216-121-N.jpg","img/neutralC/CFD-BF-204-189-N.jpg","img/neutralC/CFD-WF-022-017-N.jpg","1","1","0","1","1","0","0.332906600029673","0.254727699968498","0.456273199990392","1","1","1","1","1","1","1","1","2"
"250022","img/neutralC/CFD-WF-022-017-N.jpg","img/neutralC/CFD-LF-216-121-N.jpg","img/neutralC/CFD-BF-201-080-N.jpg","0","1","0","0","1","1","0.456273199990392","0.332906600029673","0.274596999981441","1","1","1","1","1","1","2","1","1"
"250022","img/neutralC/CFD-BF-201-080-N.jpg","img/neutralC/CFD-WF-022-017-N.jpg","img/neutralC/CFD-WM-002-009-N.jpg","0","0","0","1","0","0","0.274596999981441","0.456273199990392","0.373324699990917","1","1","1","1","1","1","1","2","1"
"250022","img/neutralC/CFD-WM-002-009-N.jpg","img/neutralC/CFD-BF-201-080-N.jpg","img/neutralC/CFD-IF-672-305-N.jpg","0","0","1","0","1","0","0.373324699990917","0.274596999981441","0.260168300010264","1","1","1","1","1","1","1","1","2"
"250022","img/neutralC/CFD-IF-672-305-N.jpg","img/neutralC/CFD-WM-002-009-N.jpg","img/neutralC/CFD-AM-235-241-N.jpg","1","0","1","0","0","0","0.260168300010264","0.373324699990917","0.00957290001679212","1","1","1","1","1","0","2","1","2"
"250022","img/neutralC/CFD-AM-235-241-N.jpg","img/neutralC/CFD-IF-672-305-N.jpg","img/neutralC/CFD-BF-028-001-N.jpg","1","1","0","0","0","1","0.00957290001679212","0.260168300010264","0.272994099999778","1","1","1","0","1","1","2","2","1"
"250022","img/neutralC/CFD-BF-028-001-N.jpg","img/neutralC/CFD-AM-235-241-N.jpg","img/neutralC/CFD-BF-003-003-N.jpg","0","1","1","1","0","0","0.272994099999778","0.00957290001679212","0.379653299984057","1","1","1","1","0","1","1","2","2"
"250022","img/neutralC/CFD-BF-003-003-N.jpg","img/neutralC/CFD-BF-028-001-N.jpg","img/neutralC/CFD-BM-029-024-N.jpg","1","0","1","0","1","1","0.379653299984057","0.272994099999778","0.144601200008765","1","1","1","1","1","0","2","1","3"
"250022","img/neutralC/CFD-BM-029-024-N.jpg","img/neutralC/CFD-BF-003-003-N.jpg","img/neutralC/CFD-IM-639-263-N.jpg","1","1","1","1","0","1","0.144601200008765","0.379653299984057","0.2396899999585","1","1","1","0","1","1","3","2","5"
"250022","img/neutralC/CFD-IM-639-263-N.jpg","img/neutralC/CFD-BM-029-024-N.jpg","img/neutralC/CFD-WF-002-004-N.jpg","1","1","1","1","1","0","0.2396899999585","0.144601200008765","0.157933000009507","1","1","1","1","0","1","5","3","1"
"250022","img/neutralC/CFD-WF-002-004-N.jpg","img/neutralC/CFD-IM-639-263-N.jpg","img/neutralC/CFD-WM-040-022-N.jpg","1","1","0","0","1","0","0.157933000009507","0.2396899999585","0.265830799995456","1","1","1","1","1","1","1","5","3"
"250022","img/neutralC/CFD-WM-040-022-N.jpg","img/neutralC/CFD-WF-002-004-N.jpg","img/neutralC/CFD-LM-252-076-N.jpg","0","1","0","0","0","1","0.265830799995456","0.157933000009507","0.271360099955928","1","1","1","1","1","1","3","1","3"
"250022","img/neutralC/CFD-LM-252-076-N.jpg","img/neutralC/CFD-WM-040-022-N.jpg","img/neutralC/CFD-WM-257-161-N.jpg","0","0","1","1","0","1","0.271360099955928","0.265830799995456","0.216379999998026","1","1","1","1","1","1","3","3","1"
"250022","img/neutralC/CFD-WM-257-161-N.jpg","img/neutralC/CFD-LM-252-076-N.jpg","img/neutralC/CFD-BM-015-015-N.jpg","1","0","0","1","1","0","0.216379999998026","0.271360099955928","0.280283400032204","1","1","1","1","1","1","1","3","2"
"250022","img/neutralC/CFD-BM-015-015-N.jpg","img/neutralC/CFD-WM-257-161-N.jpg","img/neutralC/CFD-AM-215-120-N.jpg","0","1","1","0","1","1","0.280283400032204","0.216379999998026","0.2442775000236","1","1","1","1","1","1","2","1","1"
"250022","img/neutralC/CFD-AM-215-120-N.jpg","img/neutralC/CFD-BM-015-015-N.jpg","img/neutralC/CFD-BF-255-140-N.jpg","1","0","0","1","0","1","0.2442775000236","0.280283400032204","0.2569111000048","1","1","1","1","1","1","1","2","1"
"250022","img/neutralC/CFD-BF-255-140-N.jpg","img/neutralC/CFD-AM-215-120-N.jpg","img/neutralC/CFD-IM-674-281-N.jpg","0","1","0","1","1","1","0.2569111000048","0.2442775000236","0.328216800000519","1","1","1","1","1","1","1","1","1"
"250022","img/neutralC/CFD-IM-674-281-N.jpg","img/neutralC/CFD-BF-255-140-N.jpg","img/neutralC/CFD-WM-038-003-N.jpg","0","0","0","1","1","0","0.328216800000519","0.2569111000048","0.371928400010802","1","1","1","1","1","1","1","1","1"
"250022","img/neutralC/CFD-WM-038-003-N.jpg","img/neutralC/CFD-IM-674-281-N.jpg","img/neutralC/CFD-BF-208-266-N.jpg","0","0","0","0","1","0","0.371928400010802","0.328216800000519","0.332880000001751","1","1","1","1","1","1","1","1","1"
"250022","img/neutralC/CFD-BF-208-266-N.jpg","img/neutralC/CFD-WM-038-003-N.jpg","img/neutralC/CFD-BM-211-174-N.jpg","0","0","1","0","0","0","0.332880000001751","0.371928400010802","0.564094399975147","1","1","1","1","1","1","1","1","1"
"250022","img/neutralC/CFD-BM-211-174-N.jpg","img/neutralC/CFD-BF-208-266-N.jpg","img/neutralC/CFD-WF-026-002-N.jpg","1","0","1","0","0","1","0.564094399975147","0.332880000001751","0.400168399966788","1","1","1","1","1","1","1","1","1"
"250022","img/neutralC/CFD-WF-026-002-N.jpg","img/neutralC/CFD-BM-211-174-N.jpg",NA,"1","1",NA,"1","0",NA,"0.400168399966788","0.564094399975147",NA,"1","1",NA,"1","1",NA,"1","1",NA
