"participant_id","current_trial_face","pre_trial_face","post_trial_face","current_trial_accuracy","pre_trial_accuracy","post_trial_accuracy","current_trial_congruency","pre_trial_congruency","post_trial_congruency","current_trial_rt","pre_trial_rt","post_trial_rt","current_trial_responded","pre_trial_responded","post_trial_responded","current_trial_legitResponse","pre_trial_legitResponse","post_trial_legitResponse","current_trial_resp_nums","pre_trial_resp_nums","post_trial_resp_nums"
"250058","img/neutralC/CFD-WF-250-167-N.jpg",NA,"img/neutralC/CFD-BF-253-202-N.jpg","1",NA,"1","1",NA,"0","0.588798600016162",NA,"0.705575299973134","1",NA,"1","1",NA,"1","1",NA,"1"
"250058","img/neutralC/CFD-BF-253-202-N.jpg","img/neutralC/CFD-WF-250-167-N.jpg","img/neutralC/CFD-LF-214-090-N.jpg","1","1","1","0","1","0","0.705575299973134","0.588798600016162","0.696766700013541","1","1","1","1","1","1","1","1","1"
"250058","img/neutralC/CFD-LF-214-090-N.jpg","img/neutralC/CFD-BF-253-202-N.jpg","img/neutralC/CFD-LM-215-247-N.jpg","1","1","1","0","0","0","0.696766700013541","0.705575299973134","0.745699700026307","1","1","1","1","1","1","1","1","1"
"250058","img/neutralC/CFD-LM-215-247-N.jpg","img/neutralC/CFD-LF-214-090-N.jpg","img/neutralC/CFD-BF-205-141-N.jpg","1","1","1","0","0","0","0.745699700026307","0.696766700013541","0.741858099994715","1","1","1","1","1","1","1","1","1"
"250058","img/neutralC/CFD-BF-205-141-N.jpg","img/neutralC/CFD-LM-215-247-N.jpg","img/neutralC/CFD-IM-651-308-N.jpg","1","1","1","0","0","0","0.741858099994715","0.745699700026307","0.739777999988291","1","1","1","1","1","1","1","1","1"
"250058","img/neutralC/CFD-IM-651-308-N.jpg","img/neutralC/CFD-BF-205-141-N.jpg","img/neutralC/CFD-WM-041-021-N.jpg","1","1","0","0","0","0","0.739777999988291","0.741858099994715","1.11818590003531","1","1","1","1","1","1","1","1","1"
"250058","img/neutralC/CFD-WM-041-021-N.jpg","img/neutralC/CFD-IM-651-308-N.jpg","img/neutralC/CFD-MM-316-156-N.jpg","0","1","1","0","0","1","1.11818590003531","0.739777999988291","0.551398999989033","1","1","1","1","1","1","1","1","1"
"250058","img/neutralC/CFD-MM-316-156-N.jpg","img/neutralC/CFD-WM-041-021-N.jpg","img/neutralC/CFD-WF-213-031-N.jpg","1","0","1","1","0","1","0.551398999989033","1.11818590003531","0.608882899978198","1","1","1","1","1","1","1","1","1"
"250058","img/neutralC/CFD-WF-213-031-N.jpg","img/neutralC/CFD-MM-316-156-N.jpg","img/neutralC/CFD-BM-239-136-N.jpg","1","1","1","1","1","1","0.608882899978198","0.551398999989033","0.608081999991555","1","1","1","1","1","1","1","1","1"
"250058","img/neutralC/CFD-BM-239-136-N.jpg","img/neutralC/CFD-WF-213-031-N.jpg","img/neutralC/CFD-LF-224-176-N.jpg","1","1","1","1","1","0","0.608081999991555","0.608882899978198","0.712671099987347","1","1","1","1","1","1","1","1","1"
"250058","img/neutralC/CFD-LF-224-176-N.jpg","img/neutralC/CFD-BM-239-136-N.jpg","img/neutralC/CFD-WM-011-002-N.jpg","1","1","1","0","1","0","0.712671099987347","0.608081999991555","0.7469909999636","1","1","1","1","1","1","1","1","1"
"250058","img/neutralC/CFD-WM-011-002-N.jpg","img/neutralC/CFD-LF-224-176-N.jpg","img/neutralC/CFD-MF-337-026-N.jpg","1","1","1","0","0","1","0.7469909999636","0.712671099987347","0.519752600055654","1","1","1","1","1","1","1","1","1"
"250058","img/neutralC/CFD-MF-337-026-N.jpg","img/neutralC/CFD-WM-011-002-N.jpg","img/neutralC/CFD-IF-634-382-N.jpg","1","1","1","1","0","1","0.519752600055654","0.7469909999636","0.618043200054672","1","1","1","1","1","1","1","1","1"
"250058","img/neutralC/CFD-IF-634-382-N.jpg","img/neutralC/CFD-MF-337-026-N.jpg","img/neutralC/CFD-AM-212-050-N.jpg","1","1","1","1","1","1","0.618043200054672","0.519752600055654","0.741159700031858","1","1","1","1","1","1","1","1","1"
"250058","img/neutralC/CFD-AM-212-050-N.jpg","img/neutralC/CFD-IF-634-382-N.jpg","img/neutralC/CFD-LF-230-203-N.jpg","1","1","0","1","1","0","0.741159700031858","0.618043200054672","0.789459599996917","1","1","1","1","1","1","1","1","1"
"250058","img/neutralC/CFD-LF-230-203-N.jpg","img/neutralC/CFD-AM-212-050-N.jpg","img/neutralC/CFD-BF-213-188-N.jpg","0","1","1","0","1","1","0.789459599996917","0.741159700031858","0.829404900025111","1","1","1","1","1","1","1","1","1"
"250058","img/neutralC/CFD-BF-213-188-N.jpg","img/neutralC/CFD-LF-230-203-N.jpg","img/neutralC/CFD-IF-710-016-N.jpg","1","0","1","1","0","0","0.829404900025111","0.789459599996917","1.18354449997423","1","1","1","1","1","1","1","1","1"
"250058","img/neutralC/CFD-IF-710-016-N.jpg","img/neutralC/CFD-BF-213-188-N.jpg","img/neutralC/CFD-AM-201-076-N.jpg","1","1","1","0","1","1","1.18354449997423","0.829404900025111","0.938892700010911","1","1","1","1","1","1","1","1","1"
"250058","img/neutralC/CFD-AM-201-076-N.jpg","img/neutralC/CFD-IF-710-016-N.jpg","img/neutralC/CFD-BM-041-035-N.jpg","1","1","1","1","0","0","0.938892700010911","1.18354449997423","0.74773240002105","1","1","1","1","1","1","1","1","1"
"250058","img/neutralC/CFD-BM-041-035-N.jpg","img/neutralC/CFD-AM-201-076-N.jpg","img/neutralC/CFD-BM-019-002-N.jpg","1","1","1","0","1","0","0.74773240002105","0.938892700010911","0.977782599977218","1","1","1","1","1","1","1","1","1"
"250058","img/neutralC/CFD-BM-019-002-N.jpg","img/neutralC/CFD-BM-041-035-N.jpg","img/neutralC/CFD-LF-205-100-N.jpg","1","1","1","0","0","1","0.977782599977218","0.74773240002105","0.712783000024501","1","1","1","1","1","1","1","1","1"
"250058","img/neutralC/CFD-LF-205-100-N.jpg","img/neutralC/CFD-BM-019-002-N.jpg","img/neutralC/CFD-BF-029-031-N.jpg","1","1","1","1","0","1","0.712783000024501","0.977782599977218","0.560589300002903","1","1","1","1","1","1","1","1","1"
"250058","img/neutralC/CFD-BF-029-031-N.jpg","img/neutralC/CFD-LF-205-100-N.jpg","img/neutralC/CFD-LM-218-183-N.jpg","1","1","1","1","1","1","0.560589300002903","0.712783000024501","0.503918099973816","1","1","1","1","1","1","1","1","1"
"250058","img/neutralC/CFD-LM-218-183-N.jpg","img/neutralC/CFD-BF-029-031-N.jpg","img/neutralC/CFD-WF-224-099-N.jpg","1","1","1","1","1","0","0.503918099973816","0.560589300002903","0.691599800018594","1","1","1","1","1","1","1","1","1"
"250058","img/neutralC/CFD-WF-224-099-N.jpg","img/neutralC/CFD-LM-218-183-N.jpg","img/neutralC/CFD-LF-203-066-N.jpg","1","1","1","0","1","0","0.691599800018594","0.503918099973816","0.594971000042278","1","1","1","1","1","1","1","1","1"
"250058","img/neutralC/CFD-LF-203-066-N.jpg","img/neutralC/CFD-WF-224-099-N.jpg","img/neutralC/CFD-IF-693-172-N.jpg","1","1","1","0","0","0","0.594971000042278","0.691599800018594","0.630154400016181","1","1","1","1","1","1","1","1","1"
"250058","img/neutralC/CFD-IF-693-172-N.jpg","img/neutralC/CFD-LF-203-066-N.jpg","img/neutralC/CFD-BM-033-003-N.jpg","1","1","0","0","0","0","0.630154400016181","0.594971000042278","0.664202500018291","1","1","1","1","1","1","1","1","1"
"250058","img/neutralC/CFD-BM-033-003-N.jpg","img/neutralC/CFD-IF-693-172-N.jpg","img/neutralC/CFD-AF-231-357-N.jpg","0","1","1","0","0","1","0.664202500018291","0.630154400016181","0.499377700034529","1","1","1","1","1","1","1","1","1"
"250058","img/neutralC/CFD-AF-231-357-N.jpg","img/neutralC/CFD-BM-033-003-N.jpg","img/neutralC/CFD-BF-039-031-N.jpg","1","0","1","1","0","1","0.499377700034529","0.664202500018291","0.606278799998108","1","1","1","1","1","1","1","1","1"
"250058","img/neutralC/CFD-BF-039-031-N.jpg","img/neutralC/CFD-AF-231-357-N.jpg","img/neutralC/CFD-WM-021-001-N.jpg","1","1","1","1","1","1","0.606278799998108","0.499377700034529","0.588988200004678","1","1","1","1","1","1","1","1","1"
"250058","img/neutralC/CFD-WM-021-001-N.jpg","img/neutralC/CFD-BF-039-031-N.jpg","img/neutralC/CFD-IM-684-008-N.jpg","1","1","1","1","1","1","0.588988200004678","0.606278799998108","0.518468099995516","1","1","1","1","1","1","1","1","1"
"250058","img/neutralC/CFD-IM-684-008-N.jpg","img/neutralC/CFD-WM-021-001-N.jpg",NA,"1","1",NA,"1","1",NA,"0.518468099995516","0.588988200004678",NA,"1","1",NA,"1","1",NA,"1","1",NA
"250058","img/neutralC/CFD-LF-218-072-N.jpg",NA,"img/neutralC/CFD-AM-211-052-N.jpg","1",NA,"1","0",NA,"1","0.566213899990544",NA,"0.384296100004576","1",NA,"1","1",NA,"1","1",NA,"1"
"250058","img/neutralC/CFD-AM-211-052-N.jpg","img/neutralC/CFD-LF-218-072-N.jpg","img/neutralC/CFD-IF-623-129-N.jpg","1","1","1","1","0","1","0.384296100004576","0.566213899990544","0.367824100016151","1","1","1","1","1","1","1","1","1"
"250058","img/neutralC/CFD-IF-623-129-N.jpg","img/neutralC/CFD-AM-211-052-N.jpg","img/neutralC/CFD-IM-671-601-N.jpg","1","1","1","1","1","0","0.367824100016151","0.384296100004576","0.461004099983256","1","1","1","1","1","1","1","1","1"
"250058","img/neutralC/CFD-IM-671-601-N.jpg","img/neutralC/CFD-IF-623-129-N.jpg","img/neutralC/CFD-IF-650-315-N.jpg","1","1","1","0","1","0","0.461004099983256","0.367824100016151","0.731484099989757","1","1","1","1","1","1","1","1","1"
"250058","img/neutralC/CFD-IF-650-315-N.jpg","img/neutralC/CFD-IM-671-601-N.jpg","img/neutralC/CFD-LF-220-120-N.jpg","1","1","1","0","0","1","0.731484099989757","0.461004099983256","0.473159899993334","1","1","1","1","1","1","1","1","1"
"250058","img/neutralC/CFD-LF-220-120-N.jpg","img/neutralC/CFD-IF-650-315-N.jpg","img/neutralC/CFD-WM-020-001-N.jpg","1","1","1","1","0","1","0.473159899993334","0.731484099989757","0.342370700032916","1","1","1","1","1","1","1","1","1"
"250058","img/neutralC/CFD-WM-020-001-N.jpg","img/neutralC/CFD-LF-220-120-N.jpg","img/neutralC/CFD-WM-033-025-N.jpg","1","1","1","1","1","1","0.342370700032916","0.473159899993334","0.518168399983551","1","1","1","1","1","1","1","1","1"
"250058","img/neutralC/CFD-WM-033-025-N.jpg","img/neutralC/CFD-WM-020-001-N.jpg","img/neutralC/CFD-BF-232-187-N.jpg","1","1","1","1","1","1","0.518168399983551","0.342370700032916","0.559581800014712","1","1","1","1","1","1","1","1","1"
"250058","img/neutralC/CFD-BF-232-187-N.jpg","img/neutralC/CFD-WM-033-025-N.jpg","img/neutralC/CFD-BF-226-119-N.jpg","1","1","1","1","1","1","0.559581800014712","0.518168399983551","0.740324100013822","1","1","1","1","1","1","1","1","1"
"250058","img/neutralC/CFD-BF-226-119-N.jpg","img/neutralC/CFD-BF-232-187-N.jpg","img/neutralC/CFD-IM-743-006-N.jpg","1","1","1","1","1","1","0.740324100013822","0.559581800014712","0.406410199997481","1","1","1","1","1","1","1","1","1"
"250058","img/neutralC/CFD-IM-743-006-N.jpg","img/neutralC/CFD-BF-226-119-N.jpg","img/neutralC/CFD-WF-001-003-N.jpg","1","1","1","1","1","1","0.406410199997481","0.740324100013822","0.48370869999053","1","1","1","1","1","1","1","1","1"
"250058","img/neutralC/CFD-WF-001-003-N.jpg","img/neutralC/CFD-IM-743-006-N.jpg","img/neutralC/CFD-MF-359-019-N.jpg","1","1","1","1","1","0","0.48370869999053","0.406410199997481","0.963057199958712","1","1","1","1","1","1","1","1","1"
"250058","img/neutralC/CFD-MF-359-019-N.jpg","img/neutralC/CFD-WF-001-003-N.jpg","img/neutralC/CFD-BM-225-154-N.jpg","1","1","1","0","1","1","0.963057199958712","0.48370869999053","0.496136899979319","1","1","1","1","1","1","1","1","1"
"250058","img/neutralC/CFD-BM-225-154-N.jpg","img/neutralC/CFD-MF-359-019-N.jpg","img/neutralC/CFD-WF-214-122-N.jpg","1","1","1","1","0","1","0.496136899979319","0.963057199958712","0.578190100030042","1","1","1","1","1","1","1","1","1"
"250058","img/neutralC/CFD-WF-214-122-N.jpg","img/neutralC/CFD-BM-225-154-N.jpg","img/neutralC/CFD-IM-645-001-N.jpg","1","1","1","1","1","0","0.578190100030042","0.496136899979319","0.681995499995537","1","1","1","1","1","1","1","1","1"
"250058","img/neutralC/CFD-IM-645-001-N.jpg","img/neutralC/CFD-WF-214-122-N.jpg","img/neutralC/CFD-WF-200-099-N.jpg","1","1","0","0","1","0","0.681995499995537","0.578190100030042","0.558880800032057","1","1","1","1","1","1","1","1","1"
"250058","img/neutralC/CFD-WF-200-099-N.jpg","img/neutralC/CFD-IM-645-001-N.jpg","img/neutralC/CFD-MF-352-054-N.jpg","0","1","1","0","0","0","0.558880800032057","0.681995499995537","1.10877220000839","1","1","1","1","1","1","1","1","1"
"250058","img/neutralC/CFD-MF-352-054-N.jpg","img/neutralC/CFD-WF-200-099-N.jpg","img/neutralC/CFD-BM-253-004-N.jpg","1","0","1","0","0","1","1.10877220000839","0.558880800032057","0.852640800003428","1","1","1","1","1","1","1","1","1"
"250058","img/neutralC/CFD-BM-253-004-N.jpg","img/neutralC/CFD-MF-352-054-N.jpg","img/neutralC/CFD-LM-237-264-N.jpg","1","1","0","1","0","0","0.852640800003428","1.10877220000839","0.80646729998989","1","1","1","1","1","1","1","1","1"
"250058","img/neutralC/CFD-LM-237-264-N.jpg","img/neutralC/CFD-BM-253-004-N.jpg","img/neutralC/CFD-WF-036-023-N.jpg","0","1","1","0","1","0","0.80646729998989","0.852640800003428","1.06479500001296","1","1","1","1","1","1","1","1","1"
"250058","img/neutralC/CFD-WF-036-023-N.jpg","img/neutralC/CFD-LM-237-264-N.jpg","img/neutralC/CFD-IM-703-182-N.jpg","1","0","1","0","0","1","1.06479500001296","0.80646729998989","0.473731600039173","1","1","1","1","1","1","1","1","1"
"250058","img/neutralC/CFD-IM-703-182-N.jpg","img/neutralC/CFD-WF-036-023-N.jpg","img/neutralC/CFD-WM-219-008-N.jpg","1","1","1","1","0","0","0.473731600039173","1.06479500001296","0.589714600006118","1","1","1","1","1","1","1","1","1"
"250058","img/neutralC/CFD-WM-219-008-N.jpg","img/neutralC/CFD-IM-703-182-N.jpg","img/neutralC/CFD-MF-333-012-N.jpg","1","1","1","0","1","0","0.589714600006118","0.473731600039173","0.497665799979586","1","1","1","1","1","1","1","1","1"
"250058","img/neutralC/CFD-MF-333-012-N.jpg","img/neutralC/CFD-WM-219-008-N.jpg","img/neutralC/CFD-WM-004-010-N.jpg","1","1","1","0","0","0","0.497665799979586","0.589714600006118","0.527630600030534","1","1","1","1","1","1","1","1","1"
"250058","img/neutralC/CFD-WM-004-010-N.jpg","img/neutralC/CFD-MF-333-012-N.jpg","img/neutralC/CFD-WM-235-147-N.jpg","1","1","1","0","0","0","0.527630600030534","0.497665799979586","0.514211100002285","1","1","1","1","1","1","1","1","1"
"250058","img/neutralC/CFD-WM-235-147-N.jpg","img/neutralC/CFD-WM-004-010-N.jpg","img/neutralC/CFD-IM-616-214-N.jpg","1","1","1","0","0","0","0.514211100002285","0.527630600030534","0.517751199949998","1","1","1","1","1","1","1","1","1"
"250058","img/neutralC/CFD-IM-616-214-N.jpg","img/neutralC/CFD-WM-235-147-N.jpg","img/neutralC/CFD-LM-228-188-N.jpg","1","1","1","0","0","1","0.517751199949998","0.514211100002285","0.383867700002156","1","1","1","1","1","1","1","1","1"
"250058","img/neutralC/CFD-LM-228-188-N.jpg","img/neutralC/CFD-IM-616-214-N.jpg","img/neutralC/CFD-BF-038-037-N.jpg","1","1","1","1","0","1","0.383867700002156","0.517751199949998","0.616759200056549","1","1","1","1","1","1","1","1","1"
"250058","img/neutralC/CFD-BF-038-037-N.jpg","img/neutralC/CFD-LM-228-188-N.jpg","img/neutralC/CFD-AM-242-176-N.jpg","1","1","1","1","1","1","0.616759200056549","0.383867700002156","0.470709000015631","1","1","1","1","1","1","1","1","1"
"250058","img/neutralC/CFD-AM-242-176-N.jpg","img/neutralC/CFD-BF-038-037-N.jpg","img/neutralC/CFD-AM-251-124-N.jpg","1","1","1","1","1","0","0.470709000015631","0.616759200056549","0.588591499952599","1","1","1","1","1","1","1","1","1"
"250058","img/neutralC/CFD-AM-251-124-N.jpg","img/neutralC/CFD-AM-242-176-N.jpg","img/neutralC/CFD-BF-229-179-N.jpg","1","1","1","0","1","0","0.588591499952599","0.470709000015631","0.553911100025289","1","1","1","1","1","1","1","1","1"
"250058","img/neutralC/CFD-BF-229-179-N.jpg","img/neutralC/CFD-AM-251-124-N.jpg",NA,"1","1",NA,"0","0",NA,"0.553911100025289","0.588591499952599",NA,"1","1",NA,"1","1",NA,"1","1",NA
"250058","img/neutralC/CFD-WF-221-005-N.jpg",NA,"img/neutralC/CFD-BM-043-071-N.jpg","0",NA,"1","0",NA,"0","0.483670399989933",NA,"0.536797000037041","1",NA,"1","1",NA,"1","1",NA,"1"
"250058","img/neutralC/CFD-BM-043-071-N.jpg","img/neutralC/CFD-WF-221-005-N.jpg","img/neutralC/CFD-IF-676-017-N.jpg","1","0","1","0","0","1","0.536797000037041","0.483670399989933","0.480787200038321","1","1","1","1","1","1","1","1","1"
"250058","img/neutralC/CFD-IF-676-017-N.jpg","img/neutralC/CFD-BM-043-071-N.jpg","img/neutralC/CFD-AM-219-101-N.jpg","1","1","1","1","0","0","0.480787200038321","0.536797000037041","0.416331999993417","1","1","1","1","1","1","1","1","1"
"250058","img/neutralC/CFD-AM-219-101-N.jpg","img/neutralC/CFD-IF-676-017-N.jpg","img/neutralC/CFD-LF-238-154-N.jpg","1","1","1","0","1","1","0.416331999993417","0.480787200038321","0.43116670002928","1","1","1","1","1","1","1","1","1"
"250058","img/neutralC/CFD-LF-238-154-N.jpg","img/neutralC/CFD-AM-219-101-N.jpg","img/neutralC/CFD-BF-012-001-N.jpg","1","1","1","1","0","0","0.43116670002928","0.416331999993417","0.495392199954949","1","1","1","1","1","1","1","1","1"
"250058","img/neutralC/CFD-BF-012-001-N.jpg","img/neutralC/CFD-LF-238-154-N.jpg","img/neutralC/CFD-MF-328-020-N.jpg","1","1","1","0","1","0","0.495392199954949","0.43116670002928","0.551021800027229","1","1","1","1","1","1","1","1","1"
"250058","img/neutralC/CFD-MF-328-020-N.jpg","img/neutralC/CFD-BF-012-001-N.jpg","img/neutralC/CFD-IM-697-015-N.jpg","1","1","1","0","0","1","0.551021800027229","0.495392199954949","0.573363000003155","1","1","1","1","1","1","1","1","1"
"250058","img/neutralC/CFD-IM-697-015-N.jpg","img/neutralC/CFD-MF-328-020-N.jpg","img/neutralC/CFD-WF-009-001-N.jpg","1","1","1","1","0","1","0.573363000003155","0.551021800027229","0.495273699983954","1","1","1","1","1","1","1","1","1"
"250058","img/neutralC/CFD-WF-009-001-N.jpg","img/neutralC/CFD-IM-697-015-N.jpg","img/neutralC/CFD-IM-606-008-N.jpg","1","1","1","1","1","0","0.495273699983954","0.573363000003155","0.595314500038512","1","1","1","1","1","1","1","1","1"
"250058","img/neutralC/CFD-IM-606-008-N.jpg","img/neutralC/CFD-WF-009-001-N.jpg","img/neutralC/CFD-WM-028-003-N.jpg","1","1","1","0","1","1","0.595314500038512","0.495273699983954","0.439900900004432","1","1","1","1","1","1","1","1","1"
"250058","img/neutralC/CFD-WM-028-003-N.jpg","img/neutralC/CFD-IM-606-008-N.jpg","img/neutralC/CFD-WF-241-210-N.jpg","1","1","1","1","0","0","0.439900900004432","0.595314500038512","0.653552500007208","1","1","1","1","1","1","1","1","1"
"250058","img/neutralC/CFD-WF-241-210-N.jpg","img/neutralC/CFD-WM-028-003-N.jpg","img/neutralC/CFD-WM-025-002-N.jpg","1","1","1","0","1","0","0.653552500007208","0.439900900004432","0.501573199988343","1","1","1","1","1","1","1","1","1"
"250058","img/neutralC/CFD-WM-025-002-N.jpg","img/neutralC/CFD-WF-241-210-N.jpg","img/neutralC/CFD-BM-021-021-N.jpg","1","1","1","0","0","1","0.501573199988343","0.653552500007208","0.333968199964147","1","1","1","1","1","1","1","1","1"
"250058","img/neutralC/CFD-BM-021-021-N.jpg","img/neutralC/CFD-WM-025-002-N.jpg","img/neutralC/CFD-WF-207-014-N.jpg","1","1","1","1","0","1","0.333968199964147","0.501573199988343","0.523524100019131","1","1","1","1","1","1","1","1","1"
"250058","img/neutralC/CFD-WF-207-014-N.jpg","img/neutralC/CFD-BM-021-021-N.jpg","img/neutralC/CFD-IM-689-263-N.jpg","1","1","1","1","1","1","0.523524100019131","0.333968199964147","0.577300800010562","1","1","1","1","1","1","1","1","1"
"250058","img/neutralC/CFD-IM-689-263-N.jpg","img/neutralC/CFD-WF-207-014-N.jpg","img/neutralC/CFD-BM-030-003-N.jpg","1","1","1","1","1","0","0.577300800010562","0.523524100019131","0.513761699956376","1","1","1","1","1","1","1","1","1"
"250058","img/neutralC/CFD-BM-030-003-N.jpg","img/neutralC/CFD-IM-689-263-N.jpg","img/neutralC/CFD-IM-615-167-N.jpg","1","1","1","0","1","0","0.513761699956376","0.577300800010562","0.515136700007133","1","1","1","1","1","1","1","1","1"
"250058","img/neutralC/CFD-IM-615-167-N.jpg","img/neutralC/CFD-BM-030-003-N.jpg","img/neutralC/CFD-WF-243-148-N.jpg","1","1","1","0","0","0","0.515136700007133","0.513761699956376","0.602413699962199","1","1","1","1","1","1","1","1","1"
"250058","img/neutralC/CFD-WF-243-148-N.jpg","img/neutralC/CFD-IM-615-167-N.jpg","img/neutralC/CFD-AM-205-153-N.jpg","1","1","1","0","0","1","0.602413699962199","0.515136700007133","0.45697579998523","1","1","1","1","1","1","1","1","1"
"250058","img/neutralC/CFD-AM-205-153-N.jpg","img/neutralC/CFD-WF-243-148-N.jpg","img/neutralC/CFD-AF-237-223-N.jpg","1","1","1","1","0","0","0.45697579998523","0.602413699962199","0.666865199978929","1","1","1","1","1","1","1","1","1"
"250058","img/neutralC/CFD-AF-237-223-N.jpg","img/neutralC/CFD-AM-205-153-N.jpg","img/neutralC/CFD-AM-243-212-N.jpg","1","1","1","0","1","1","0.666865199978929","0.45697579998523","0.516914700041525","1","1","1","1","1","1","1","1","1"
"250058","img/neutralC/CFD-AM-243-212-N.jpg","img/neutralC/CFD-AF-237-223-N.jpg","img/neutralC/CFD-BM-020-001-N.jpg","1","1","1","1","0","0","0.516914700041525","0.666865199978929","0.4668687999947","1","1","1","1","1","1","1","1","1"
"250058","img/neutralC/CFD-BM-020-001-N.jpg","img/neutralC/CFD-AM-243-212-N.jpg","img/neutralC/CFD-WM-023-001-N.jpg","1","1","0","0","1","0","0.4668687999947","0.516914700041525","0.592979999957606","1","1","1","1","1","1","1","1","1"
"250058","img/neutralC/CFD-WM-023-001-N.jpg","img/neutralC/CFD-BM-020-001-N.jpg","img/neutralC/CFD-LF-212-066-N.jpg","0","1","1","0","0","1","0.592979999957606","0.4668687999947","0.42759160004789","1","1","1","1","1","1","1","1","1"
"250058","img/neutralC/CFD-LF-212-066-N.jpg","img/neutralC/CFD-WM-023-001-N.jpg","img/neutralC/CFD-BM-009-002-N.jpg","1","0","1","1","0","1","0.42759160004789","0.592979999957606","0.50097839999944","1","1","1","1","1","1","1","1","1"
"250058","img/neutralC/CFD-BM-009-002-N.jpg","img/neutralC/CFD-LF-212-066-N.jpg","img/neutralC/CFD-MM-306-010-N.jpg","1","1","1","1","1","0","0.50097839999944","0.42759160004789","0.691707400023006","1","1","1","1","1","1","1","1","1"
"250058","img/neutralC/CFD-MM-306-010-N.jpg","img/neutralC/CFD-BM-009-002-N.jpg","img/neutralC/CFD-BF-244-231-N.jpg","1","1","1","0","1","1","0.691707400023006","0.50097839999944","0.510028299991973","1","1","1","1","1","1","1","1","1"
"250058","img/neutralC/CFD-BF-244-231-N.jpg","img/neutralC/CFD-MM-306-010-N.jpg","img/neutralC/CFD-LF-222-147-N.jpg","1","1","1","1","0","0","0.510028299991973","0.691707400023006","0.650753399997484","1","1","1","1","1","1","1","1","1"
"250058","img/neutralC/CFD-LF-222-147-N.jpg","img/neutralC/CFD-BF-244-231-N.jpg","img/neutralC/CFD-LM-240-013-N.jpg","1","1","1","0","1","1","0.650753399997484","0.510028299991973","0.490526400040835","1","1","1","1","1","1","1","1","1"
"250058","img/neutralC/CFD-LM-240-013-N.jpg","img/neutralC/CFD-LF-222-147-N.jpg","img/neutralC/CFD-BM-227-191-N.jpg","1","1","1","1","0","1","0.490526400040835","0.650753399997484","0.547969200008083","1","1","1","1","1","1","1","1","1"
"250058","img/neutralC/CFD-BM-227-191-N.jpg","img/neutralC/CFD-LM-240-013-N.jpg","img/neutralC/CFD-AM-249-163-N.jpg","1","1","1","1","1","1","0.547969200008083","0.490526400040835","0.64304130000528","1","1","1","1","1","1","1","1","1"
"250058","img/neutralC/CFD-AM-249-163-N.jpg","img/neutralC/CFD-BM-227-191-N.jpg",NA,"1","1",NA,"1","1",NA,"0.64304130000528","0.547969200008083",NA,"1","1",NA,"1","1",NA,"1","1",NA
"250058","img/neutralC/CFD-BF-202-109-N.jpg",NA,"img/neutralC/CFD-MM-317-061-N.jpg","1",NA,"1","1",NA,"1","0.491667800000869",NA,"0.474833899992518","1",NA,"1","1",NA,"1","1",NA,"1"
"250058","img/neutralC/CFD-MM-317-061-N.jpg","img/neutralC/CFD-BF-202-109-N.jpg","img/neutralC/CFD-BM-248-128-N.jpg","1","1","1","1","1","0","0.474833899992518","0.491667800000869","0.537349200050812","1","1","1","1","1","1","1","1","1"
"250058","img/neutralC/CFD-BM-248-128-N.jpg","img/neutralC/CFD-MM-317-061-N.jpg","img/neutralC/CFD-WF-228-196-N.jpg","1","1","1","0","1","0","0.537349200050812","0.474833899992518","0.543656099995133","1","1","1","1","1","1","1","1","1"
"250058","img/neutralC/CFD-WF-228-196-N.jpg","img/neutralC/CFD-BM-248-128-N.jpg","img/neutralC/CFD-LM-214-165-N.jpg","1","1","1","0","0","1","0.543656099995133","0.537349200050812","0.521947500004899","1","1","1","1","1","1","1","1","1"
"250058","img/neutralC/CFD-LM-214-165-N.jpg","img/neutralC/CFD-WF-228-196-N.jpg","img/neutralC/CFD-LM-216-082-N.jpg","1","1","1","1","0","0","0.521947500004899","0.543656099995133","0.521283900015987","1","1","1","1","1","1","1","1","1"
"250058","img/neutralC/CFD-LM-216-082-N.jpg","img/neutralC/CFD-LM-214-165-N.jpg","img/neutralC/CFD-WM-212-097-N.jpg","1","1","1","0","1","0","0.521283900015987","0.521947500004899","0.531547399994452","1","1","1","1","1","1","1","1","1"
"250058","img/neutralC/CFD-WM-212-097-N.jpg","img/neutralC/CFD-LM-216-082-N.jpg","img/neutralC/CFD-BF-025-002-N.jpg","1","1","1","0","0","0","0.531547399994452","0.521283900015987","0.801324300002307","1","1","1","1","1","1","1","1","1"
"250058","img/neutralC/CFD-BF-025-002-N.jpg","img/neutralC/CFD-WM-212-097-N.jpg","img/neutralC/CFD-WM-249-239-N.jpg","1","1","1","0","0","1","0.801324300002307","0.531547399994452","0.557091800030321","1","1","1","1","1","1","1","1","1"
"250058","img/neutralC/CFD-WM-249-239-N.jpg","img/neutralC/CFD-BF-025-002-N.jpg","img/neutralC/CFD-MF-309-002-N.jpg","1","1","1","1","0","0","0.557091800030321","0.801324300002307","0.517649099987466","1","1","1","1","1","1","1","1","1"
"250058","img/neutralC/CFD-MF-309-002-N.jpg","img/neutralC/CFD-WM-249-239-N.jpg","img/neutralC/CFD-AF-240-206-N.jpg","1","1","0","0","1","0","0.517649099987466","0.557091800030321","0.954788799979724","1","1","1","1","1","1","1","1","1"
"250058","img/neutralC/CFD-AF-240-206-N.jpg","img/neutralC/CFD-MF-309-002-N.jpg","img/neutralC/CFD-WM-215-041-N.jpg","0","1","1","0","0","0","0.954788799979724","0.517649099987466","0.759171200043056","1","1","1","1","1","1","1","1","1"
"250058","img/neutralC/CFD-WM-215-041-N.jpg","img/neutralC/CFD-AF-240-206-N.jpg","img/neutralC/CFD-IF-642-295-N.jpg","1","0","1","0","0","1","0.759171200043056","0.954788799979724","0.544190299988259","1","1","1","1","1","1","1","1","1"
"250058","img/neutralC/CFD-IF-642-295-N.jpg","img/neutralC/CFD-WM-215-041-N.jpg","img/neutralC/CFD-BM-205-001-N.jpg","1","1","1","1","0","0","0.544190299988259","0.759171200043056","0.694519899960142","1","1","1","1","1","1","1","1","1"
"250058","img/neutralC/CFD-BM-205-001-N.jpg","img/neutralC/CFD-IF-642-295-N.jpg","img/neutralC/CFD-WM-012-001-N.jpg","1","1","1","0","1","1","0.694519899960142","0.544190299988259","0.629178999981377","1","1","1","1","1","1","1","1","1"
"250058","img/neutralC/CFD-WM-012-001-N.jpg","img/neutralC/CFD-BM-205-001-N.jpg","img/neutralC/CFD-BF-228-212-N.jpg","1","1","1","1","0","0","0.629178999981377","0.694519899960142","0.72835660004057","1","1","1","1","1","1","1","1","1"
"250058","img/neutralC/CFD-BF-228-212-N.jpg","img/neutralC/CFD-WM-012-001-N.jpg","img/neutralC/CFD-WM-019-003-N.jpg","1","1","1","0","1","1","0.72835660004057","0.629178999981377","0.51741219998803","1","1","1","1","1","1","1","1","1"
"250058","img/neutralC/CFD-WM-019-003-N.jpg","img/neutralC/CFD-BF-228-212-N.jpg","img/neutralC/CFD-WF-005-010-N.jpg","1","1","1","1","0","0","0.51741219998803","0.72835660004057","0.63111720001325","1","1","1","1","1","1","1","1","1"
"250058","img/neutralC/CFD-WF-005-010-N.jpg","img/neutralC/CFD-WM-019-003-N.jpg","img/neutralC/CFD-AM-247-165-N.jpg","1","1","1","0","1","1","0.63111720001325","0.51741219998803","0.58802199998172","1","1","1","1","1","1","1","1","1"
"250058","img/neutralC/CFD-AM-247-165-N.jpg","img/neutralC/CFD-WF-005-010-N.jpg","img/neutralC/CFD-WF-017-003-N.jpg","1","1","1","1","0","1","0.58802199998172","0.63111720001325","0.578627099981532","1","1","1","1","1","1","1","1","1"
"250058","img/neutralC/CFD-WF-017-003-N.jpg","img/neutralC/CFD-AM-247-165-N.jpg","img/neutralC/CFD-WM-026-001-N.jpg","1","1","1","1","1","1","0.578627099981532","0.58802199998172","0.580007800017484","1","1","1","1","1","1","1","1","1"
"250058","img/neutralC/CFD-WM-026-001-N.jpg","img/neutralC/CFD-WF-017-003-N.jpg","img/neutralC/CFD-WF-240-083-N.jpg","1","1","1","1","1","0","0.580007800017484","0.578627099981532","0.751755400036927","1","1","1","1","1","1","1","1","1"
"250058","img/neutralC/CFD-WF-240-083-N.jpg","img/neutralC/CFD-WM-026-001-N.jpg","img/neutralC/CFD-LM-244-068-N.jpg","1","1","1","0","1","1","0.751755400036927","0.580007800017484","0.59684140002355","1","1","1","1","1","1","1","1","1"
"250058","img/neutralC/CFD-LM-244-068-N.jpg","img/neutralC/CFD-WF-240-083-N.jpg","img/neutralC/CFD-LM-201-057-N.jpg","1","1","1","1","0","1","0.59684140002355","0.751755400036927","0.688754400005564","1","1","1","1","1","1","1","1","1"
"250058","img/neutralC/CFD-LM-201-057-N.jpg","img/neutralC/CFD-LM-244-068-N.jpg","img/neutralC/CFD-IM-646-023-N.jpg","1","1","1","1","1","1","0.688754400005564","0.59684140002355","0.818734700034838","1","1","1","1","1","1","1","1","1"
"250058","img/neutralC/CFD-IM-646-023-N.jpg","img/neutralC/CFD-LM-201-057-N.jpg","img/neutralC/CFD-WM-006-002-N.jpg","1","1","0","1","1","0","0.818734700034838","0.688754400005564","0.908655500039458","1","1","1","1","1","1","1","1","1"
"250058","img/neutralC/CFD-WM-006-002-N.jpg","img/neutralC/CFD-IM-646-023-N.jpg","img/neutralC/CFD-BF-041-001-N.jpg","0","1","1","0","1","1","0.908655500039458","0.818734700034838","0.645887100021355","1","1","1","1","1","1","1","1","1"
"250058","img/neutralC/CFD-BF-041-001-N.jpg","img/neutralC/CFD-WM-006-002-N.jpg","img/neutralC/CFD-IM-648-337-N.jpg","1","0","1","1","0","0","0.645887100021355","0.908655500039458","1.09428939997451","1","1","1","1","1","1","1","1","1"
"250058","img/neutralC/CFD-IM-648-337-N.jpg","img/neutralC/CFD-BF-041-001-N.jpg","img/neutralC/CFD-BF-212-315-N.jpg","1","1","1","0","1","1","1.09428939997451","0.645887100021355","0.830276300024707","1","1","1","1","1","1","1","1","1"
"250058","img/neutralC/CFD-BF-212-315-N.jpg","img/neutralC/CFD-IM-648-337-N.jpg","img/neutralC/CFD-BM-251-013-N.jpg","1","1","1","1","0","1","0.830276300024707","1.09428939997451","0.585535000020172","1","1","1","1","1","1","1","1","1"
"250058","img/neutralC/CFD-BM-251-013-N.jpg","img/neutralC/CFD-BF-212-315-N.jpg","img/neutralC/CFD-MF-335-002-N.jpg","1","1","1","1","1","0","0.585535000020172","0.830276300024707","0.711604100011755","1","1","1","1","1","1","1","1","1"
"250058","img/neutralC/CFD-MF-335-002-N.jpg","img/neutralC/CFD-BM-251-013-N.jpg","img/neutralC/CFD-LM-243-075-N.jpg","1","1","1","0","1","0","0.711604100011755","0.585535000020172","0.629297800012864","1","1","1","1","1","1","1","1","1"
"250058","img/neutralC/CFD-LM-243-075-N.jpg","img/neutralC/CFD-MF-335-002-N.jpg",NA,"1","1",NA,"0","0",NA,"0.629297800012864","0.711604100011755",NA,"1","1",NA,"1","1",NA,"1","1",NA
"250058","img/neutralC/CFD-WF-223-133-N.jpg",NA,"img/neutralC/CFD-BM-028-002-N.jpg","0",NA,"1","0",NA,"1","1.0649949000217",NA,"0.615850900008809","1",NA,"1","1",NA,"1","1",NA,"1"
"250058","img/neutralC/CFD-BM-028-002-N.jpg","img/neutralC/CFD-WF-223-133-N.jpg","img/neutralC/CFD-BF-222-240-N.jpg","1","0","1","1","0","0","0.615850900008809","1.0649949000217","0.638802500034217","1","1","1","1","1","1","1","1","1"
"250058","img/neutralC/CFD-BF-222-240-N.jpg","img/neutralC/CFD-BM-028-002-N.jpg","img/neutralC/CFD-BM-010-003-N.jpg","1","1","1","0","1","0","0.638802500034217","0.615850900008809","0.69235430000117","1","1","1","1","1","1","1","1","1"
"250058","img/neutralC/CFD-BM-010-003-N.jpg","img/neutralC/CFD-BF-222-240-N.jpg","img/neutralC/CFD-WF-006-002-N.jpg","1","1","1","0","0","0","0.69235430000117","0.638802500034217","0.559171699977014","1","1","1","1","1","1","1","1","1"
"250058","img/neutralC/CFD-WF-006-002-N.jpg","img/neutralC/CFD-BM-010-003-N.jpg","img/neutralC/CFD-LM-238-129-N.jpg","1","1","1","0","0","1","0.559171699977014","0.69235430000117","0.534767300006934","1","1","1","1","1","1","1","1","1"
"250058","img/neutralC/CFD-LM-238-129-N.jpg","img/neutralC/CFD-WF-006-002-N.jpg","img/neutralC/CFD-LM-247-095-N.jpg","1","1","1","1","0","0","0.534767300006934","0.559171699977014","0.647261400008574","1","1","1","1","1","1","1","1","1"
"250058","img/neutralC/CFD-LM-247-095-N.jpg","img/neutralC/CFD-LM-238-129-N.jpg","img/neutralC/CFD-IF-673-389-N.jpg","1","1","0","0","1","0","0.647261400008574","0.534767300006934","0.73243580001872","1","1","1","1","1","1","1","1","1"
"250058","img/neutralC/CFD-IF-673-389-N.jpg","img/neutralC/CFD-LM-247-095-N.jpg","img/neutralC/CFD-BF-004-014-N.jpg","0","1","1","0","0","1","0.73243580001872","0.647261400008574","0.566233999968972","1","1","1","1","1","1","1","1","1"
"250058","img/neutralC/CFD-BF-004-014-N.jpg","img/neutralC/CFD-IF-673-389-N.jpg","img/neutralC/CFD-LF-210-220-N.jpg","1","0","1","1","0","1","0.566233999968972","0.73243580001872","0.790106099972036","1","1","1","1","1","1","1","1","1"
"250058","img/neutralC/CFD-LF-210-220-N.jpg","img/neutralC/CFD-BF-004-014-N.jpg","img/neutralC/CFD-WM-228-065-N.jpg","1","1","1","1","1","0","0.790106099972036","0.566233999968972","1.10513700003503","1","1","1","1","1","1","1","1","1"
"250058","img/neutralC/CFD-WM-228-065-N.jpg","img/neutralC/CFD-LF-210-220-N.jpg","img/neutralC/CFD-LF-241-188-N.jpg","1","1","1","0","1","0","1.10513700003503","0.790106099972036","0.921503200021107","1","1","1","1","1","1","1","1","1"
"250058","img/neutralC/CFD-LF-241-188-N.jpg","img/neutralC/CFD-WM-228-065-N.jpg","img/neutralC/CFD-WM-202-107-N.jpg","1","1","1","0","0","1","0.921503200021107","1.10513700003503","0.477797300030943","1","1","1","1","1","1","1","1","2"
"250058","img/neutralC/CFD-WM-202-107-N.jpg","img/neutralC/CFD-LF-241-188-N.jpg","img/neutralC/CFD-BM-213-134-N.jpg","1","1","1","1","0","1","0.477797300030943","0.921503200021107","0.536340599996038","1","1","1","1","1","1","2","1","1"
"250058","img/neutralC/CFD-BM-213-134-N.jpg","img/neutralC/CFD-WM-202-107-N.jpg","img/neutralC/CFD-WF-033-002-N.jpg","1","1","1","1","1","1","0.536340599996038","0.477797300030943","0.574009500036482","1","1","1","1","1","1","1","2","1"
"250058","img/neutralC/CFD-WF-033-002-N.jpg","img/neutralC/CFD-BM-213-134-N.jpg","img/neutralC/CFD-AF-210-050-N.jpg","1","1","1","1","1","1","0.574009500036482","0.536340599996038","0.615056000009645","1","1","1","1","1","1","1","1","1"
"250058","img/neutralC/CFD-AF-210-050-N.jpg","img/neutralC/CFD-WF-033-002-N.jpg","img/neutralC/CFD-IF-744-114-N.jpg","1","1","1","1","1","0","0.615056000009645","0.574009500036482","0.718954599986318","1","1","1","1","1","1","1","1","1"
"250058","img/neutralC/CFD-IF-744-114-N.jpg","img/neutralC/CFD-AF-210-050-N.jpg","img/neutralC/CFD-AF-227-207-N.jpg","1","1","1","0","1","1","0.718954599986318","0.615056000009645","0.556845600018278","1","1","1","1","1","1","1","1","1"
"250058","img/neutralC/CFD-AF-227-207-N.jpg","img/neutralC/CFD-IF-744-114-N.jpg","img/neutralC/CFD-IM-701-312-N.jpg","1","1","1","1","0","0","0.556845600018278","0.718954599986318","0.84824339998886","1","1","1","1","1","1","1","1","1"
"250058","img/neutralC/CFD-IM-701-312-N.jpg","img/neutralC/CFD-AF-227-207-N.jpg","img/neutralC/CFD-BM-013-002-N.jpg","1","1","1","0","1","1","0.84824339998886","0.556845600018278","0.518909899983555","1","1","1","1","1","1","1","1","1"
"250058","img/neutralC/CFD-BM-013-002-N.jpg","img/neutralC/CFD-IM-701-312-N.jpg","img/neutralC/CFD-IM-659-359-N.jpg","1","1","1","1","0","0","0.518909899983555","0.84824339998886","0.922843499982264","1","1","1","1","1","1","1","1","1"
"250058","img/neutralC/CFD-IM-659-359-N.jpg","img/neutralC/CFD-BM-013-002-N.jpg","img/neutralC/CFD-AM-221-184-N.jpg","1","1","1","0","1","1","0.922843499982264","0.518909899983555","0.717371500039008","1","1","1","1","1","1","1","1","1"
"250058","img/neutralC/CFD-AM-221-184-N.jpg","img/neutralC/CFD-IM-659-359-N.jpg","img/neutralC/CFD-AF-239-171-N.jpg","1","1","1","1","0","1","0.717371500039008","0.922843499982264","0.665411899972241","1","1","1","1","1","1","1","1","1"
"250058","img/neutralC/CFD-AF-239-171-N.jpg","img/neutralC/CFD-AM-221-184-N.jpg","img/neutralC/CFD-MF-336-016-N.jpg","1","1","1","1","1","1","0.665411899972241","0.717371500039008","0.609179299965035","1","1","1","1","1","1","1","1","1"
"250058","img/neutralC/CFD-MF-336-016-N.jpg","img/neutralC/CFD-AF-239-171-N.jpg","img/neutralC/CFD-LF-225-164-N.jpg","1","1","1","1","1","1","0.609179299965035","0.665411899972241","0.585301899991464","1","1","1","1","1","1","1","1","1"
"250058","img/neutralC/CFD-LF-225-164-N.jpg","img/neutralC/CFD-MF-336-016-N.jpg","img/neutralC/CFD-WM-254-152-N.jpg","1","1","1","1","1","1","0.585301899991464","0.609179299965035","0.756995700008702","1","1","1","1","1","1","1","1","1"
"250058","img/neutralC/CFD-WM-254-152-N.jpg","img/neutralC/CFD-LF-225-164-N.jpg","img/neutralC/CFD-MF-312-002-N.jpg","1","1","1","1","1","1","0.756995700008702","0.585301899991464","0.539708200027235","1","1","1","1","1","1","1","1","1"
"250058","img/neutralC/CFD-MF-312-002-N.jpg","img/neutralC/CFD-WM-254-152-N.jpg","img/neutralC/CFD-IF-625-225-N.jpg","1","1","1","1","1","0","0.539708200027235","0.756995700008702","1.02048830001149","1","1","1","1","1","1","1","1","1"
"250058","img/neutralC/CFD-IF-625-225-N.jpg","img/neutralC/CFD-MF-312-002-N.jpg","img/neutralC/CFD-LF-208-127-N.jpg","1","1","1","0","1","0","1.02048830001149","0.539708200027235","0.756468000006862","1","1","1","1","1","1","1","1","1"
"250058","img/neutralC/CFD-LF-208-127-N.jpg","img/neutralC/CFD-IF-625-225-N.jpg","img/neutralC/CFD-BM-003-003-N.jpg","1","1","1","0","0","0","0.756468000006862","1.02048830001149","0.662655399995856","1","1","1","1","1","1","1","1","1"
"250058","img/neutralC/CFD-BM-003-003-N.jpg","img/neutralC/CFD-LF-208-127-N.jpg","img/neutralC/CFD-IM-738-191-N.jpg","1","1","1","0","0","0","0.662655399995856","0.756468000006862","0.686995800002478","1","1","1","1","1","1","1","1","1"
"250058","img/neutralC/CFD-IM-738-191-N.jpg","img/neutralC/CFD-BM-003-003-N.jpg","img/neutralC/CFD-BF-045-003-N.jpg","1","1","1","0","0","0","0.686995800002478","0.662655399995856","0.758318300009705","1","1","1","1","1","1","1","1","1"
"250058","img/neutralC/CFD-BF-045-003-N.jpg","img/neutralC/CFD-IM-738-191-N.jpg",NA,"1","1",NA,"0","0",NA,"0.758318300009705","0.686995800002478",NA,"1","1",NA,"1","1",NA,"1","1",NA
"250058","img/neutralC/CFD-IM-686-097-N.jpg",NA,"img/neutralC/CFD-WM-258-125-N.jpg","1",NA,"1","0",NA,"0","0.853381200053263",NA,"0.74343160004355","1",NA,"1","1",NA,"1","1",NA,"1"
"250058","img/neutralC/CFD-WM-258-125-N.jpg","img/neutralC/CFD-IM-686-097-N.jpg","img/neutralC/CFD-AF-206-079-N.jpg","1","1","1","0","0","1","0.74343160004355","0.853381200053263","0.435258799989242","1","1","1","1","1","1","1","1","1"
"250058","img/neutralC/CFD-AF-206-079-N.jpg","img/neutralC/CFD-WM-258-125-N.jpg","img/neutralC/CFD-IM-653-008-N.jpg","1","1","1","1","0","0","0.435258799989242","0.74343160004355","0.659945799969137","1","1","1","1","1","1","1","1","1"
"250058","img/neutralC/CFD-IM-653-008-N.jpg","img/neutralC/CFD-AF-206-079-N.jpg","img/neutralC/CFD-LM-219-295-N.jpg","1","1","1","0","1","1","0.659945799969137","0.435258799989242","0.411101999983657","1","1","1","1","1","1","1","1","1"
"250058","img/neutralC/CFD-LM-219-295-N.jpg","img/neutralC/CFD-IM-653-008-N.jpg","img/neutralC/CFD-BM-026-002-N.jpg","1","1","1","1","0","0","0.411101999983657","0.659945799969137","0.672021400008816","1","1","1","1","1","1","1","1","1"
"250058","img/neutralC/CFD-BM-026-002-N.jpg","img/neutralC/CFD-LM-219-295-N.jpg","img/neutralC/CFD-IM-727-195-N.jpg","1","1","1","0","1","1","0.672021400008816","0.411101999983657","0.797980299976189","1","1","1","1","1","1","1","1","1"
"250058","img/neutralC/CFD-IM-727-195-N.jpg","img/neutralC/CFD-BM-026-002-N.jpg","img/neutralC/CFD-LM-233-171-N.jpg","1","1","1","1","0","0","0.797980299976189","0.672021400008816","0.597161900019273","1","1","1","1","1","1","1","1","1"
"250058","img/neutralC/CFD-LM-233-171-N.jpg","img/neutralC/CFD-IM-727-195-N.jpg","img/neutralC/CFD-MF-313-002-N.jpg","1","1","1","0","1","0","0.597161900019273","0.797980299976189","0.543730200035498","1","1","1","1","1","1","1","1","1"
"250058","img/neutralC/CFD-MF-313-002-N.jpg","img/neutralC/CFD-LM-233-171-N.jpg","img/neutralC/CFD-LF-245-166-N.jpg","1","1","1","0","0","1","0.543730200035498","0.597161900019273","0.508937800012063","1","1","1","1","1","1","1","1","1"
"250058","img/neutralC/CFD-LF-245-166-N.jpg","img/neutralC/CFD-MF-313-002-N.jpg","img/neutralC/CFD-BF-238-190-N.jpg","1","1","1","1","0","1","0.508937800012063","0.543730200035498","0.479171300015878","1","1","1","1","1","1","1","1","1"
"250058","img/neutralC/CFD-BF-238-190-N.jpg","img/neutralC/CFD-LF-245-166-N.jpg","img/neutralC/CFD-AF-241-141-N.jpg","1","1","1","1","1","1","0.479171300015878","0.508937800012063","0.488617299997713","1","1","1","1","1","1","1","1","1"
"250058","img/neutralC/CFD-AF-241-141-N.jpg","img/neutralC/CFD-BF-238-190-N.jpg","img/neutralC/CFD-WF-209-052-N.jpg","1","1","1","1","1","1","0.488617299997713","0.479171300015878","0.530536499980371","1","1","1","1","1","1","1","1","1"
"250058","img/neutralC/CFD-WF-209-052-N.jpg","img/neutralC/CFD-AF-241-141-N.jpg","img/neutralC/CFD-BM-005-003-N.jpg","1","1","1","1","1","1","0.530536499980371","0.488617299997713","0.647546400025021","1","1","1","1","1","1","1","1","1"
"250058","img/neutralC/CFD-BM-005-003-N.jpg","img/neutralC/CFD-WF-209-052-N.jpg","img/neutralC/CFD-WM-227-099-N.jpg","1","1","1","1","1","1","0.647546400025021","0.530536499980371","0.532536599959712","1","1","1","1","1","1","1","1","1"
"250058","img/neutralC/CFD-WM-227-099-N.jpg","img/neutralC/CFD-BM-005-003-N.jpg","img/neutralC/CFD-WM-017-002-N.jpg","1","1","0","1","1","0","0.532536599959712","0.647546400025021","0.943657099967822","1","1","1","1","1","1","1","1","1"
"250058","img/neutralC/CFD-WM-017-002-N.jpg","img/neutralC/CFD-WM-227-099-N.jpg","img/neutralC/CFD-IM-617-174-N.jpg","0","1","1","0","1","0","0.943657099967822","0.532536599959712","0.699938699952327","1","1","1","1","1","1","1","1","1"
"250058","img/neutralC/CFD-IM-617-174-N.jpg","img/neutralC/CFD-WM-017-002-N.jpg","img/neutralC/CFD-LF-250-169-N.jpg","1","0","1","0","0","1","0.699938699952327","0.943657099967822","0.718991800036747","1","1","1","1","1","1","1","1","1"
"250058","img/neutralC/CFD-LF-250-169-N.jpg","img/neutralC/CFD-IM-617-174-N.jpg","img/neutralC/CFD-BF-010-001-N.jpg","1","1","1","1","0","1","0.718991800036747","0.699938699952327","0.549157300032675","1","1","1","1","1","1","1","1","1"
"250058","img/neutralC/CFD-BF-010-001-N.jpg","img/neutralC/CFD-LF-250-169-N.jpg","img/neutralC/CFD-BM-231-155-N.jpg","1","1","1","1","1","1","0.549157300032675","0.718991800036747","0.470329599978868","1","1","1","1","1","1","1","1","1"
"250058","img/neutralC/CFD-BM-231-155-N.jpg","img/neutralC/CFD-BF-010-001-N.jpg","img/neutralC/CFD-IF-665-015-N.jpg","1","1","1","1","1","0","0.470329599978868","0.549157300032675","1.13523610000266","1","1","1","1","1","1","1","1","1"
"250058","img/neutralC/CFD-IF-665-015-N.jpg","img/neutralC/CFD-BM-231-155-N.jpg","img/neutralC/CFD-WM-242-011-N.jpg","1","1","1","0","1","0","1.13523610000266","0.470329599978868","2.13267050002469","1","1","1","1","1","1","1","1","1"
"250058","img/neutralC/CFD-WM-242-011-N.jpg","img/neutralC/CFD-IF-665-015-N.jpg","img/neutralC/CFD-BM-018-001-N.jpg","1","1","1","0","0","1","2.13267050002469","1.13523610000266","0.963672999991104","1","1","1","1","1","1","1","1","1"
"250058","img/neutralC/CFD-BM-018-001-N.jpg","img/neutralC/CFD-WM-242-011-N.jpg","img/neutralC/CFD-LF-242-121-N.jpg","1","1","1","1","0","0","0.963672999991104","2.13267050002469","0.727382000011858","1","1","1","1","1","1","1","1","1"
"250058","img/neutralC/CFD-LF-242-121-N.jpg","img/neutralC/CFD-BM-018-001-N.jpg","img/neutralC/CFD-LF-247-051-N.jpg","1","1","1","0","1","1","0.727382000011858","0.963672999991104","0.591990299988538","1","1","1","1","1","1","1","1","1"
"250058","img/neutralC/CFD-LF-247-051-N.jpg","img/neutralC/CFD-LF-242-121-N.jpg","img/neutralC/CFD-IF-620-218-N.jpg","1","1","1","1","0","0","0.591990299988538","0.727382000011858","0.668501400039531","1","1","1","1","1","1","1","1","1"
"250058","img/neutralC/CFD-IF-620-218-N.jpg","img/neutralC/CFD-LF-247-051-N.jpg","img/neutralC/CFD-IM-638-250-1-N.jpg","1","1","1","0","1","1","0.668501400039531","0.591990299988538","1.16262469999492","1","1","1","1","1","1","1","1","1"
"250058","img/neutralC/CFD-IM-638-250-1-N.jpg","img/neutralC/CFD-IF-620-218-N.jpg","img/neutralC/CFD-AF-202-122-N.jpg","1","1","1","1","0","1","1.16262469999492","0.668501400039531","1.02256319997832","1","1","1","1","1","1","1","1","1"
"250058","img/neutralC/CFD-AF-202-122-N.jpg","img/neutralC/CFD-IM-638-250-1-N.jpg","img/neutralC/CFD-BF-033-028-N.jpg","1","1","1","1","1","0","1.02256319997832","1.16262469999492","1.31274850002956","1","1","1","1","1","1","1","1","1"
"250058","img/neutralC/CFD-BF-033-028-N.jpg","img/neutralC/CFD-AF-202-122-N.jpg","img/neutralC/CFD-IM-657-308-N.jpg","1","1","0","0","1","0","1.31274850002956","1.02256319997832","0.902078100014478","1","1","1","1","1","1","1","1","1"
"250058","img/neutralC/CFD-IM-657-308-N.jpg","img/neutralC/CFD-BF-033-028-N.jpg","img/neutralC/CFD-BM-212-117-N.jpg","0","1","1","0","0","0","0.902078100014478","1.31274850002956","1.14516860002186","1","1","1","1","1","1","1","1","1"
"250058","img/neutralC/CFD-BM-212-117-N.jpg","img/neutralC/CFD-IM-657-308-N.jpg","img/neutralC/CFD-LM-226-175-N.jpg","1","0","1","0","0","0","1.14516860002186","0.902078100014478","1.04048789996887","1","1","1","1","1","1","1","1","1"
"250058","img/neutralC/CFD-LM-226-175-N.jpg","img/neutralC/CFD-BM-212-117-N.jpg",NA,"1","1",NA,"0","0",NA,"1.04048789996887","1.14516860002186",NA,"1","1",NA,"1","1",NA,"1","1",NA
"250058","img/neutralC/CFD-BF-027-002-N.jpg",NA,"img/neutralC/CFD-LM-213-061-N.jpg","1",NA,"1","1",NA,"0","0.562097599962726",NA,"0.69819850003114","1",NA,"1","1",NA,"1","1",NA,"1"
"250058","img/neutralC/CFD-LM-213-061-N.jpg","img/neutralC/CFD-BF-027-002-N.jpg","img/neutralC/CFD-BF-006-017-N.jpg","1","1","1","0","1","0","0.69819850003114","0.562097599962726","0.63167999999132","1","1","1","1","1","1","1","1","1"
"250058","img/neutralC/CFD-BF-006-017-N.jpg","img/neutralC/CFD-LM-213-061-N.jpg","img/neutralC/CFD-IF-677-452-1-N.jpg","1","1","1","0","0","1","0.63167999999132","0.69819850003114","0.597066399990581","1","1","1","1","1","1","1","1","1"
"250058","img/neutralC/CFD-IF-677-452-1-N.jpg","img/neutralC/CFD-BF-006-017-N.jpg","img/neutralC/CFD-WM-248-036-N.jpg","1","1","1","1","0","1","0.597066399990581","0.63167999999132","0.789568100008182","1","1","1","1","1","1","1","1","1"
"250058","img/neutralC/CFD-WM-248-036-N.jpg","img/neutralC/CFD-IF-677-452-1-N.jpg","img/neutralC/CFD-BF-044-034-N.jpg","1","1","1","1","1","0","0.789568100008182","0.597066399990581","0.780213200021535","1","1","1","1","1","1","1","1","1"
"250058","img/neutralC/CFD-BF-044-034-N.jpg","img/neutralC/CFD-WM-248-036-N.jpg","img/neutralC/CFD-IF-729-393-N.jpg","1","1","1","0","1","0","0.780213200021535","0.789568100008182","0.734126899973489","1","1","1","1","1","1","1","1","1"
"250058","img/neutralC/CFD-IF-729-393-N.jpg","img/neutralC/CFD-BF-044-034-N.jpg","img/neutralC/CFD-BM-238-242-N.jpg","1","1","1","0","0","0","0.734126899973489","0.780213200021535","0.719683200004511","1","1","1","1","1","1","1","1","1"
"250058","img/neutralC/CFD-BM-238-242-N.jpg","img/neutralC/CFD-IF-729-393-N.jpg","img/neutralC/CFD-LF-204-133-N.jpg","1","1","1","0","0","1","0.719683200004511","0.734126899973489","0.572926599998027","1","1","1","1","1","1","1","1","1"
"250058","img/neutralC/CFD-LF-204-133-N.jpg","img/neutralC/CFD-BM-238-242-N.jpg","img/neutralC/CFD-BF-002-001-N.jpg","1","1","1","1","0","0","0.572926599998027","0.719683200004511","0.47966119996272","1","1","1","1","1","1","1","1","1"
"250058","img/neutralC/CFD-BF-002-001-N.jpg","img/neutralC/CFD-LF-204-133-N.jpg","img/neutralC/CFD-BM-207-024-N.jpg","1","1","1","0","1","1","0.47966119996272","0.572926599998027","0.713961699977517","1","1","1","1","1","1","1","1","1"
"250058","img/neutralC/CFD-BM-207-024-N.jpg","img/neutralC/CFD-BF-002-001-N.jpg","img/neutralC/CFD-BM-036-003-N.jpg","1","1","1","1","0","1","0.713961699977517","0.47966119996272","0.603373899997678","1","1","1","1","1","1","1","1","1"
"250058","img/neutralC/CFD-BM-036-003-N.jpg","img/neutralC/CFD-BM-207-024-N.jpg","img/neutralC/CFD-BF-011-002-N.jpg","1","1","1","1","1","1","0.603373899997678","0.713961699977517","0.551792700018268","1","1","1","1","1","1","1","1","1"
"250058","img/neutralC/CFD-BF-011-002-N.jpg","img/neutralC/CFD-BM-036-003-N.jpg","img/neutralC/CFD-WM-014-002-N.jpg","1","1","1","1","1","0","0.551792700018268","0.603373899997678","0.918240700033493","1","1","1","1","1","1","1","1","1"
"250058","img/neutralC/CFD-WM-014-002-N.jpg","img/neutralC/CFD-BF-011-002-N.jpg","img/neutralC/CFD-IM-726-248-N.jpg","1","1","0","0","1","0","0.918240700033493","0.551792700018268","0.891435700003058","1","1","1","1","1","1","1","1","1"
"250058","img/neutralC/CFD-IM-726-248-N.jpg","img/neutralC/CFD-WM-014-002-N.jpg","img/neutralC/CFD-WF-233-112-N.jpg","0","1","1","0","0","1","0.891435700003058","0.918240700033493","0.622550800035242","1","1","1","1","1","1","1","1","1"
"250058","img/neutralC/CFD-WF-233-112-N.jpg","img/neutralC/CFD-IM-726-248-N.jpg","img/neutralC/CFD-BF-036-027-N.jpg","1","0","1","1","0","0","0.622550800035242","0.891435700003058","0.632220899977256","1","1","1","1","1","1","1","1","1"
"250058","img/neutralC/CFD-BF-036-027-N.jpg","img/neutralC/CFD-WF-233-112-N.jpg","img/neutralC/CFD-IM-721-341-N.jpg","1","1","1","0","1","1","0.632220899977256","0.622550800035242","0.500832999998238","1","1","1","1","1","1","1","1","1"
"250058","img/neutralC/CFD-IM-721-341-N.jpg","img/neutralC/CFD-BF-036-027-N.jpg","img/neutralC/CFD-AM-230-150-N.jpg","1","1","1","1","0","0","0.500832999998238","0.632220899977256","0.717964299954474","1","1","1","1","1","1","1","1","1"
"250058","img/neutralC/CFD-AM-230-150-N.jpg","img/neutralC/CFD-IM-721-341-N.jpg","img/neutralC/CFD-WM-034-030-N.jpg","1","1","1","0","1","1","0.717964299954474","0.500832999998238","0.619610699999612","1","1","1","1","1","1","1","1","1"
"250058","img/neutralC/CFD-WM-034-030-N.jpg","img/neutralC/CFD-AM-230-150-N.jpg","img/neutralC/CFD-BF-207-004-N.jpg","1","1","1","1","0","1","0.619610699999612","0.717964299954474","0.578773299988825","1","1","1","1","1","1","1","1","1"
"250058","img/neutralC/CFD-BF-207-004-N.jpg","img/neutralC/CFD-WM-034-030-N.jpg","img/neutralC/CFD-WF-234-086-N.jpg","1","1","1","1","1","1","0.578773299988825","0.619610699999612","0.494343800004572","1","1","1","1","1","1","1","1","1"
"250058","img/neutralC/CFD-WF-234-086-N.jpg","img/neutralC/CFD-BF-207-004-N.jpg","img/neutralC/CFD-IF-742-103-N.jpg","1","1","1","1","1","1","0.494343800004572","0.578773299988825","0.481813999998849","1","1","1","1","1","1","1","1","1"
"250058","img/neutralC/CFD-IF-742-103-N.jpg","img/neutralC/CFD-WF-234-086-N.jpg","img/neutralC/CFD-IM-696-001-N.jpg","1","1","1","1","1","0","0.481813999998849","0.494343800004572","0.680340900027659","1","1","1","1","1","1","1","1","1"
"250058","img/neutralC/CFD-IM-696-001-N.jpg","img/neutralC/CFD-IF-742-103-N.jpg","img/neutralC/CFD-WF-029-002-N.jpg","1","1","0","0","1","0","0.680340900027659","0.481813999998849","0.945437700022012","1","1","1","1","1","1","1","1","1"
"250058","img/neutralC/CFD-WF-029-002-N.jpg","img/neutralC/CFD-IM-696-001-N.jpg","img/neutralC/CFD-WF-208-068-N.jpg","0","1","0","0","0","1","0.945437700022012","0.680340900027659","3.07792930002324","1","1","1","1","1","1","1","1","1"
"250058","img/neutralC/CFD-WF-208-068-N.jpg","img/neutralC/CFD-WF-029-002-N.jpg","img/neutralC/CFD-MF-301-024-N.jpg","0","0","1","1","0","0","3.07792930002324","0.945437700022012","1.20397430000594","1","1","1","1","1","1","1","1","1"
"250058","img/neutralC/CFD-MF-301-024-N.jpg","img/neutralC/CFD-WF-208-068-N.jpg","img/neutralC/CFD-BF-214-308-N.jpg","1","0","1","0","1","1","1.20397430000594","3.07792930002324","0.65305719996104","1","1","1","1","1","1","1","1","1"
"250058","img/neutralC/CFD-BF-214-308-N.jpg","img/neutralC/CFD-MF-301-024-N.jpg","img/neutralC/CFD-BM-241-235-N.jpg","1","1","1","1","0","0","0.65305719996104","1.20397430000594","0.676835899997968","1","1","1","1","1","1","1","1","1"
"250058","img/neutralC/CFD-BM-241-235-N.jpg","img/neutralC/CFD-BF-214-308-N.jpg","img/neutralC/CFD-BF-236-177-N.jpg","1","1","1","0","1","0","0.676835899997968","0.65305719996104","0.712199100002181","1","1","1","1","1","1","1","1","1"
"250058","img/neutralC/CFD-BF-236-177-N.jpg","img/neutralC/CFD-BM-241-235-N.jpg","img/neutralC/CFD-BF-247-179-N.jpg","1","1","1","0","0","0","0.712199100002181","0.676835899997968","0.624178900034167","1","1","1","1","1","1","1","1","1"
"250058","img/neutralC/CFD-BF-247-179-N.jpg","img/neutralC/CFD-BF-236-177-N.jpg","img/neutralC/CFD-IM-707-105-N.jpg","1","1","1","0","0","1","0.624178900034167","0.712199100002181","0.539287300023716","1","1","1","1","1","1","1","1","1"
"250058","img/neutralC/CFD-IM-707-105-N.jpg","img/neutralC/CFD-BF-247-179-N.jpg",NA,"1","1",NA,"1","0",NA,"0.539287300023716","0.624178900034167",NA,"1","1",NA,"1","1",NA,"1","1",NA
"250058","img/neutralC/CFD-BM-023-029-N.jpg",NA,"img/neutralC/CFD-LF-211-003-N.jpg","1",NA,"0","1",NA,"0","0.753020600008313",NA,"0.975636700051837","1",NA,"1","1",NA,"1","1",NA,"1"
"250058","img/neutralC/CFD-LF-211-003-N.jpg","img/neutralC/CFD-BM-023-029-N.jpg","img/neutralC/CFD-MM-321-021-N.jpg","0","1","1","0","1","0","0.975636700051837","0.753020600008313","1.09782229998382","1","1","1","1","1","1","1","1","1"
"250058","img/neutralC/CFD-MM-321-021-N.jpg","img/neutralC/CFD-LF-211-003-N.jpg","img/neutralC/CFD-WF-238-023-N.jpg","1","0","1","0","0","0","1.09782229998382","0.975636700051837","0.886780100001488","1","1","1","1","1","1","1","1","1"
"250058","img/neutralC/CFD-WF-238-023-N.jpg","img/neutralC/CFD-MM-321-021-N.jpg","img/neutralC/CFD-BM-200-046-N.jpg","1","1","0","0","0","0","0.886780100001488","1.09782229998382",NA,"1","1","0","1","1","0","1","1","0"
"250058","img/neutralC/CFD-BM-200-046-N.jpg","img/neutralC/CFD-WF-238-023-N.jpg","img/neutralC/CFD-WF-023-003-N.jpg","0","1","0","0","0","1",NA,"0.886780100001488",NA,"0","1","0","0","1","0","0","1","0"
"250058","img/neutralC/CFD-WF-023-003-N.jpg","img/neutralC/CFD-BM-200-046-N.jpg","img/neutralC/CFD-IF-629-234-N.jpg","0","0","0","1","0","0",NA,NA,NA,"0","0","0","0","0","0","0","0","0"
"250058","img/neutralC/CFD-IF-629-234-N.jpg","img/neutralC/CFD-WF-023-003-N.jpg","img/neutralC/CFD-WM-201-063-N.jpg","0","0","0","0","1","1",NA,NA,NA,"0","0","0","0","0","0","0","0","0"
"250058","img/neutralC/CFD-WM-201-063-N.jpg","img/neutralC/CFD-IF-629-234-N.jpg","img/neutralC/CFD-LF-215-157-N.jpg","0","0","0","1","0","0",NA,NA,NA,"0","0","0","0","0","0","0","0","0"
"250058","img/neutralC/CFD-LF-215-157-N.jpg","img/neutralC/CFD-WM-201-063-N.jpg","img/neutralC/CFD-IM-719-221-N.jpg","0","0","0","0","1","0",NA,NA,NA,"0","0","0","0","0","0","0","0","0"
"250058","img/neutralC/CFD-IM-719-221-N.jpg","img/neutralC/CFD-LF-215-157-N.jpg","img/neutralC/CFD-WM-255-219-N.jpg","0","0","1","0","0","0",NA,NA,"0.725578100013081","0","0","1","0","0","1","0","0","1"
"250058","img/neutralC/CFD-WM-255-219-N.jpg","img/neutralC/CFD-IM-719-221-N.jpg","img/neutralC/CFD-BF-218-207-N.jpg","1","0","1","0","0","1","0.725578100013081",NA,"0.624750800023321","1","0","1","1","0","1","1","0","1"
"250058","img/neutralC/CFD-BF-218-207-N.jpg","img/neutralC/CFD-WM-255-219-N.jpg","img/neutralC/CFD-BF-018-039-N.jpg","1","1","1","1","0","1","0.624750800023321","0.725578100013081","0.487631700001657","1","1","1","1","1","1","1","1","1"
"250058","img/neutralC/CFD-BF-018-039-N.jpg","img/neutralC/CFD-BF-218-207-N.jpg","img/neutralC/CFD-WF-245-084-N.jpg","1","1","1","1","1","1","0.487631700001657","0.624750800023321","0.58588620001683","1","1","1","1","1","1","1","1","1"
"250058","img/neutralC/CFD-WF-245-084-N.jpg","img/neutralC/CFD-BF-018-039-N.jpg","img/neutralC/CFD-AF-221-147-N.jpg","1","1","1","1","1","0","0.58588620001683","0.487631700001657","0.533349399978761","1","1","1","1","1","1","1","1","1"
"250058","img/neutralC/CFD-AF-221-147-N.jpg","img/neutralC/CFD-WF-245-084-N.jpg","img/neutralC/CFD-WF-018-017-N.jpg","1","1","1","0","1","1","0.533349399978761","0.58588620001683","0.552170200040564","1","1","1","1","1","1","1","1","1"
"250058","img/neutralC/CFD-WF-018-017-N.jpg","img/neutralC/CFD-AF-221-147-N.jpg","img/neutralC/CFD-IM-627-178-N.jpg","1","1","1","1","0","1","0.552170200040564","0.533349399978761","0.495509699976537","1","1","1","1","1","1","1","1","1"
"250058","img/neutralC/CFD-IM-627-178-N.jpg","img/neutralC/CFD-WF-018-017-N.jpg","img/neutralC/CFD-MF-321-003-N.jpg","1","1","1","1","1","0","0.495509699976537","0.552170200040564","0.662852100038435","1","1","1","1","1","1","1","1","1"
"250058","img/neutralC/CFD-MF-321-003-N.jpg","img/neutralC/CFD-IM-627-178-N.jpg","img/neutralC/CFD-WM-237-052-N.jpg","1","1","1","0","1","1","0.662852100038435","0.495509699976537","0.586539300042205","1","1","1","1","1","1","1","1","1"
"250058","img/neutralC/CFD-WM-237-052-N.jpg","img/neutralC/CFD-MF-321-003-N.jpg","img/neutralC/CFD-WF-226-095-N.jpg","1","1","1","1","0","1","0.586539300042205","0.662852100038435","0.579581199970562","1","1","1","1","1","1","1","1","1"
"250058","img/neutralC/CFD-WF-226-095-N.jpg","img/neutralC/CFD-WM-237-052-N.jpg","img/neutralC/CFD-WM-221-091-N.jpg","1","1","1","1","1","0","0.579581199970562","0.586539300042205","1.0281514999806","1","1","1","1","1","1","1","1","1"
"250058","img/neutralC/CFD-WM-221-091-N.jpg","img/neutralC/CFD-WF-226-095-N.jpg","img/neutralC/CFD-AM-244-222-N.jpg","1","1","0","0","1","0","1.0281514999806","0.579581199970562","0.758384999993723","1","1","1","1","1","1","1","1","1"
"250058","img/neutralC/CFD-AM-244-222-N.jpg","img/neutralC/CFD-WM-221-091-N.jpg","img/neutralC/CFD-IM-700-009-N.jpg","0","1","1","0","0","1","0.758384999993723","1.0281514999806","0.487629399984144","1","1","1","1","1","1","1","1","1"
"250058","img/neutralC/CFD-IM-700-009-N.jpg","img/neutralC/CFD-AM-244-222-N.jpg","img/neutralC/CFD-WM-013-001-N.jpg","1","0","1","1","0","1","0.487629399984144","0.758384999993723","0.5323945999844","1","1","1","1","1","1","1","1","1"
"250058","img/neutralC/CFD-WM-013-001-N.jpg","img/neutralC/CFD-IM-700-009-N.jpg","img/neutralC/CFD-AF-232-078-N.jpg","1","1","1","1","1","1","0.5323945999844","0.487629399984144","0.75753010000335","1","1","1","1","1","1","1","1","1"
"250058","img/neutralC/CFD-AF-232-078-N.jpg","img/neutralC/CFD-WM-013-001-N.jpg","img/neutralC/CFD-MF-342-022-N.jpg","1","1","1","1","1","1","0.75753010000335","0.5323945999844","0.478634099999908","1","1","1","1","1","1","1","1","1"
"250058","img/neutralC/CFD-MF-342-022-N.jpg","img/neutralC/CFD-AF-232-078-N.jpg","img/neutralC/CFD-BF-254-201-N.jpg","1","1","1","1","1","0","0.478634099999908","0.75753010000335","0.8511633000453","1","1","1","1","1","1","1","1","1"
"250058","img/neutralC/CFD-BF-254-201-N.jpg","img/neutralC/CFD-MF-342-022-N.jpg","img/neutralC/CFD-LM-253-075-N.jpg","1","1","1","0","1","0","0.8511633000453","0.478634099999908","0.645143300003838","1","1","1","1","1","1","1","1","1"
"250058","img/neutralC/CFD-LM-253-075-N.jpg","img/neutralC/CFD-BF-254-201-N.jpg","img/neutralC/CFD-WM-009-002-N.jpg","1","1","1","0","0","0","0.645143300003838","0.8511633000453","0.71984070003964","1","1","1","1","1","1","1","1","1"
"250058","img/neutralC/CFD-WM-009-002-N.jpg","img/neutralC/CFD-LM-253-075-N.jpg","img/neutralC/CFD-MF-318-022-N.jpg","1","1","1","0","0","1","0.71984070003964","0.645143300003838","0.606664799968712","1","1","1","1","1","1","1","1","1"
"250058","img/neutralC/CFD-MF-318-022-N.jpg","img/neutralC/CFD-WM-009-002-N.jpg","img/neutralC/CFD-BM-204-003-N.jpg","1","1","1","1","0","0","0.606664799968712","0.71984070003964","0.892950299952645","1","1","1","1","1","1","1","1","1"
"250058","img/neutralC/CFD-BM-204-003-N.jpg","img/neutralC/CFD-MF-318-022-N.jpg","img/neutralC/CFD-WF-027-003-N.jpg","1","1","1","0","1","1","0.892950299952645","0.606664799968712","0.470825600030366","1","1","1","1","1","1","1","1","1"
"250058","img/neutralC/CFD-WF-027-003-N.jpg","img/neutralC/CFD-BM-204-003-N.jpg",NA,"1","1",NA,"1","0",NA,"0.470825600030366","0.892950299952645",NA,"1","1",NA,"1","1",NA,"1","1",NA
"250058","img/neutralC/CFD-WF-244-163-N.jpg",NA,"img/neutralC/CFD-WF-007-001-N.jpg","1",NA,"1","1",NA,"1","0.600898400007281",NA,"0.507158300024457","1",NA,"1","1",NA,"1","1",NA,"1"
"250058","img/neutralC/CFD-WF-007-001-N.jpg","img/neutralC/CFD-WF-244-163-N.jpg","img/neutralC/CFD-BF-014-002-N.jpg","1","1","1","1","1","1","0.507158300024457","0.600898400007281","0.515059099998325","1","1","1","1","1","1","1","1","1"
"250058","img/neutralC/CFD-BF-014-002-N.jpg","img/neutralC/CFD-WF-007-001-N.jpg","img/neutralC/CFD-IM-702-101-N.jpg","1","1","1","1","1","1","0.515059099998325","0.507158300024457","0.610770600032993","1","1","1","1","1","1","1","1","1"
"250058","img/neutralC/CFD-IM-702-101-N.jpg","img/neutralC/CFD-BF-014-002-N.jpg","img/neutralC/CFD-MF-316-001-N.jpg","1","1","1","1","1","0","0.610770600032993","0.515059099998325","0.637316700012889","1","1","1","1","1","1","1","1","1"
"250058","img/neutralC/CFD-MF-316-001-N.jpg","img/neutralC/CFD-IM-702-101-N.jpg","img/neutralC/CFD-IF-626-375-N.jpg","1","1","1","0","1","0","0.637316700012889","0.610770600032993","0.496516200015321","1","1","1","1","1","1","1","1","1"
"250058","img/neutralC/CFD-IF-626-375-N.jpg","img/neutralC/CFD-MF-316-001-N.jpg","img/neutralC/CFD-LF-255-088-N.jpg","1","1","1","0","0","0","0.496516200015321","0.637316700012889","0.44908570003463","1","1","1","1","1","1","1","1","1"
"250058","img/neutralC/CFD-LF-255-088-N.jpg","img/neutralC/CFD-IF-626-375-N.jpg","img/neutralC/CFD-MF-357-002-N.jpg","1","1","1","0","0","0","0.44908570003463","0.496516200015321","0.488178100029472","1","1","1","1","1","1","1","1","1"
"250058","img/neutralC/CFD-MF-357-002-N.jpg","img/neutralC/CFD-LF-255-088-N.jpg","img/neutralC/CFD-AF-253-130-N.jpg","1","1","1","0","0","1","0.488178100029472","0.44908570003463","0.563243000011425","1","1","1","1","1","1","1","1","1"
"250058","img/neutralC/CFD-AF-253-130-N.jpg","img/neutralC/CFD-MF-357-002-N.jpg","img/neutralC/CFD-WF-222-092-N.jpg","1","1","1","1","0","1","0.563243000011425","0.488178100029472","0.543105699995067","1","1","1","1","1","1","1","1","1"
"250058","img/neutralC/CFD-WF-222-092-N.jpg","img/neutralC/CFD-AF-253-130-N.jpg","img/neutralC/CFD-WM-015-002-N.jpg","1","1","1","1","1","0","0.543105699995067","0.563243000011425","0.49018939997768","1","1","1","1","1","1","1","1","1"
"250058","img/neutralC/CFD-WM-015-002-N.jpg","img/neutralC/CFD-WF-222-092-N.jpg","img/neutralC/CFD-BM-001-014-N.jpg","1","1","1","0","1","0","0.49018939997768","0.543105699995067","0.703252399980556","1","1","1","1","1","1","1","1","1"
"250058","img/neutralC/CFD-BM-001-014-N.jpg","img/neutralC/CFD-WM-015-002-N.jpg","img/neutralC/CFD-WM-218-074-N.jpg","1","1","1","0","0","1","0.703252399980556","0.49018939997768","0.551277399994433","1","1","1","1","1","1","1","1","1"
"250058","img/neutralC/CFD-WM-218-074-N.jpg","img/neutralC/CFD-BM-001-014-N.jpg","img/neutralC/CFD-IM-680-369-N.jpg","1","1","1","1","0","1","0.551277399994433","0.703252399980556","0.618012799997814","1","1","1","1","1","1","1","1","1"
"250058","img/neutralC/CFD-IM-680-369-N.jpg","img/neutralC/CFD-WM-218-074-N.jpg","img/neutralC/CFD-BM-250-170-N.jpg","1","1","1","1","1","1","0.618012799997814","0.551277399994433","0.461949099961203","1","1","1","1","1","1","1","1","1"
"250058","img/neutralC/CFD-BM-250-170-N.jpg","img/neutralC/CFD-IM-680-369-N.jpg","img/neutralC/CFD-AF-233-190-N.jpg","1","1","1","1","1","0","0.461949099961203","0.618012799997814","0.771267200005241","1","1","1","1","1","1","1","1","1"
"250058","img/neutralC/CFD-AF-233-190-N.jpg","img/neutralC/CFD-BM-250-170-N.jpg","img/neutralC/CFD-MF-305-014-N.jpg","1","1","1","0","1","1","0.771267200005241","0.461949099961203","0.451945899985731","1","1","1","1","1","1","1","1","1"
"250058","img/neutralC/CFD-MF-305-014-N.jpg","img/neutralC/CFD-AF-233-190-N.jpg","img/neutralC/CFD-WF-030-002-N.jpg","1","1","1","1","0","0","0.451945899985731","0.771267200005241","0.634698299982119","1","1","1","1","1","1","1","1","1"
"250058","img/neutralC/CFD-WF-030-002-N.jpg","img/neutralC/CFD-MF-305-014-N.jpg","img/neutralC/CFD-IF-660-464-N.jpg","1","1","1","0","1","0","0.634698299982119","0.451945899985731","0.635331200028304","1","1","1","1","1","1","1","1","1"
"250058","img/neutralC/CFD-IF-660-464-N.jpg","img/neutralC/CFD-WF-030-002-N.jpg","img/neutralC/CFD-BM-217-082-N.jpg","1","1","1","0","0","0","0.635331200028304","0.634698299982119","0.578473099973053","1","1","1","1","1","1","1","1","1"
"250058","img/neutralC/CFD-BM-217-082-N.jpg","img/neutralC/CFD-IF-660-464-N.jpg","img/neutralC/CFD-MM-324-069-N.jpg","1","1","1","0","0","1","0.578473099973053","0.635331200028304","0.576538100023754","1","1","1","1","1","1","1","1","1"
"250058","img/neutralC/CFD-MM-324-069-N.jpg","img/neutralC/CFD-BM-217-082-N.jpg","img/neutralC/CFD-IM-664-651-N.jpg","1","1","1","1","0","1","0.576538100023754","0.578473099973053","0.655267199967057","1","1","1","1","1","1","1","1","1"
"250058","img/neutralC/CFD-IM-664-651-N.jpg","img/neutralC/CFD-MM-324-069-N.jpg","img/neutralC/CFD-MF-303-013-N.jpg","1","1","1","1","1","0","0.655267199967057","0.576538100023754","0.74265169998398","1","1","1","1","1","1","1","1","1"
"250058","img/neutralC/CFD-MF-303-013-N.jpg","img/neutralC/CFD-IM-664-651-N.jpg","img/neutralC/CFD-IM-706-002-N.jpg","1","1","1","0","1","0","0.74265169998398","0.655267199967057","0.686505899997428","1","1","1","1","1","1","1","1","1"
"250058","img/neutralC/CFD-IM-706-002-N.jpg","img/neutralC/CFD-MF-303-013-N.jpg","img/neutralC/CFD-LF-206-078-N.jpg","1","1","1","0","0","1","0.686505899997428","0.74265169998398","0.623611000017263","1","1","1","1","1","1","1","1","1"
"250058","img/neutralC/CFD-LF-206-078-N.jpg","img/neutralC/CFD-IM-706-002-N.jpg","img/neutralC/CFD-WM-209-038-N.jpg","1","1","1","1","0","0","0.623611000017263","0.686505899997428","0.559406600019429","1","1","1","1","1","1","1","1","1"
"250058","img/neutralC/CFD-WM-209-038-N.jpg","img/neutralC/CFD-LF-206-078-N.jpg","img/neutralC/CFD-LM-200-045-N.jpg","1","1","1","0","1","1","0.559406600019429","0.623611000017263","0.718369300011545","1","1","1","1","1","1","1","1","1"
"250058","img/neutralC/CFD-LM-200-045-N.jpg","img/neutralC/CFD-WM-209-038-N.jpg","img/neutralC/CFD-MF-343-001-N.jpg","1","1","1","1","0","1","0.718369300011545","0.559406600019429","0.543560300022364","1","1","1","1","1","1","1","1","1"
"250058","img/neutralC/CFD-MF-343-001-N.jpg","img/neutralC/CFD-LM-200-045-N.jpg","img/neutralC/CFD-AM-220-134-N.jpg","1","1","1","1","1","0","0.543560300022364","0.718369300011545","0.666013400012162","1","1","1","1","1","1","1","1","1"
"250058","img/neutralC/CFD-AM-220-134-N.jpg","img/neutralC/CFD-MF-343-001-N.jpg","img/neutralC/CFD-BF-237-172-N.jpg","1","1","1","0","1","1","0.666013400012162","0.543560300022364","0.515248600044288","1","1","1","1","1","1","1","1","1"
"250058","img/neutralC/CFD-BF-237-172-N.jpg","img/neutralC/CFD-AM-220-134-N.jpg","img/neutralC/CFD-IM-667-369-N.jpg","1","1","1","1","0","0","0.515248600044288","0.666013400012162","0.690720499958843","1","1","1","1","1","1","1","1","1"
"250058","img/neutralC/CFD-IM-667-369-N.jpg","img/neutralC/CFD-BF-237-172-N.jpg","img/neutralC/CFD-LM-225-130-N.jpg","1","1","0","0","1","0","0.690720499958843","0.515248600044288","0.882826099987142","1","1","1","1","1","1","1","1","1"
"250058","img/neutralC/CFD-LM-225-130-N.jpg","img/neutralC/CFD-IM-667-369-N.jpg",NA,"0","1",NA,"0","0",NA,"0.882826099987142","0.690720499958843",NA,"1","1",NA,"1","1",NA,"1","1",NA
"250058","img/neutralC/CFD-IM-678-482-N.jpg",NA,"img/neutralC/CFD-LM-241-125-N.jpg","1",NA,"1","0",NA,"1","0.982053600018844",NA,"0.611137299973052","1",NA,"1","1",NA,"1","1",NA,"1"
"250058","img/neutralC/CFD-LM-241-125-N.jpg","img/neutralC/CFD-IM-678-482-N.jpg","img/neutralC/CFD-IM-635-010-N.jpg","1","1","1","1","0","1","0.611137299973052","0.982053600018844","0.458658899995498","1","1","1","1","1","1","1","1","1"
"250058","img/neutralC/CFD-IM-635-010-N.jpg","img/neutralC/CFD-LM-241-125-N.jpg","img/neutralC/CFD-AM-225-102-N.jpg","1","1","1","1","1","0","0.458658899995498","0.611137299973052","0.695620100013912","1","1","1","1","1","1","1","1","1"
"250058","img/neutralC/CFD-AM-225-102-N.jpg","img/neutralC/CFD-IM-635-010-N.jpg","img/neutralC/CFD-AM-245-111-N.jpg","1","1","1","0","1","1","0.695620100013912","0.458658899995498","0.44290079997154","1","1","1","1","1","1","1","1","1"
"250058","img/neutralC/CFD-AM-245-111-N.jpg","img/neutralC/CFD-AM-225-102-N.jpg","img/neutralC/CFD-IF-636-011-N.jpg","1","1","1","1","0","1","0.44290079997154","0.695620100013912","0.457501799974125","1","1","1","1","1","1","1","1","1"
"250058","img/neutralC/CFD-IF-636-011-N.jpg","img/neutralC/CFD-AM-245-111-N.jpg","img/neutralC/CFD-IF-732-260-N.jpg","1","1","1","1","1","0","0.457501799974125","0.44290079997154","0.52795130002778","1","1","1","1","1","1","1","1","1"
"250058","img/neutralC/CFD-IF-732-260-N.jpg","img/neutralC/CFD-IF-636-011-N.jpg","img/neutralC/CFD-WM-018-002-N.jpg","1","1","1","0","1","0","0.52795130002778","0.457501799974125","0.833424400014337","1","1","1","1","1","1","1","1","1"
"250058","img/neutralC/CFD-WM-018-002-N.jpg","img/neutralC/CFD-IF-732-260-N.jpg","img/neutralC/CFD-AF-213-126-N.jpg","1","1","1","0","0","1","0.833424400014337","0.52795130002778","0.508255699998699","1","1","1","1","1","1","1","1","1"
"250058","img/neutralC/CFD-AF-213-126-N.jpg","img/neutralC/CFD-WM-018-002-N.jpg","img/neutralC/CFD-IM-669-111-N.jpg","1","1","1","1","0","1","0.508255699998699","0.833424400014337","0.456324100028723","1","1","1","1","1","1","1","1","1"
"250058","img/neutralC/CFD-IM-669-111-N.jpg","img/neutralC/CFD-AF-213-126-N.jpg","img/neutralC/CFD-WF-210-086-N.jpg","1","1","1","1","1","0","0.456324100028723","0.508255699998699","1.10385580000002","1","1","1","1","1","1","1","1","1"
"250058","img/neutralC/CFD-WF-210-086-N.jpg","img/neutralC/CFD-IM-669-111-N.jpg","img/neutralC/CFD-BF-206-143-N.jpg","1","1","1","0","1","1","1.10385580000002","0.456324100028723","0.570452600019053","1","1","1","1","1","1","1","1","1"
"250058","img/neutralC/CFD-BF-206-143-N.jpg","img/neutralC/CFD-WF-210-086-N.jpg","img/neutralC/CFD-BM-215-155-N.jpg","1","1","1","1","0","0","0.570452600019053","1.10385580000002","0.599675699952058","1","1","1","1","1","1","1","1","1"
"250058","img/neutralC/CFD-BM-215-155-N.jpg","img/neutralC/CFD-BF-206-143-N.jpg","img/neutralC/CFD-AM-233-236-N.jpg","1","1","1","0","1","1","0.599675699952058","0.570452600019053","0.685136300045997","1","1","1","1","1","1","1","1","1"
"250058","img/neutralC/CFD-AM-233-236-N.jpg","img/neutralC/CFD-BM-215-155-N.jpg","img/neutralC/CFD-BF-020-002-N.jpg","1","1","1","1","0","1","0.685136300045997","0.599675699952058","0.601969600014854","1","1","1","1","1","1","1","1","1"
"250058","img/neutralC/CFD-BF-020-002-N.jpg","img/neutralC/CFD-AM-233-236-N.jpg","img/neutralC/CFD-BF-040-003-N.jpg","1","1","1","1","1","1","0.601969600014854","0.685136300045997","0.514441899955273","1","1","1","1","1","1","1","1","1"
"250058","img/neutralC/CFD-BF-040-003-N.jpg","img/neutralC/CFD-BF-020-002-N.jpg","img/neutralC/CFD-BF-042-026-N.jpg","1","1","1","1","1","1","0.514441899955273","0.601969600014854","0.639245699974708","1","1","1","1","1","1","1","1","1"
"250058","img/neutralC/CFD-BF-042-026-N.jpg","img/neutralC/CFD-BF-040-003-N.jpg","img/neutralC/CFD-BF-235-168-N.jpg","1","1","1","1","1","1","0.639245699974708","0.514441899955273","0.644681099976879","1","1","1","1","1","1","1","1","1"
"250058","img/neutralC/CFD-BF-235-168-N.jpg","img/neutralC/CFD-BF-042-026-N.jpg","img/neutralC/CFD-MF-307-002-N.jpg","1","1","1","1","1","1","0.644681099976879","0.639245699974708","0.6137273000204","1","1","1","1","1","1","1","1","1"
"250058","img/neutralC/CFD-MF-307-002-N.jpg","img/neutralC/CFD-BF-235-168-N.jpg","img/neutralC/CFD-LM-204-001-N.jpg","1","1","1","1","1","0","0.6137273000204","0.644681099976879","1.50016629998572","1","1","1","1","1","1","1","1","1"
"250058","img/neutralC/CFD-LM-204-001-N.jpg","img/neutralC/CFD-MF-307-002-N.jpg","img/neutralC/CFD-BM-004-002-N.jpg","1","1","0","0","1","0","1.50016629998572","0.6137273000204","0.872247099992819","1","1","1","1","1","1","1","1","1"
"250058","img/neutralC/CFD-BM-004-002-N.jpg","img/neutralC/CFD-LM-204-001-N.jpg","img/neutralC/CFD-MF-302-027-N.jpg","0","1","1","0","0","0","0.872247099992819","1.50016629998572","0.810063900018577","1","1","1","1","1","1","1","1","1"
"250058","img/neutralC/CFD-MF-302-027-N.jpg","img/neutralC/CFD-BM-004-002-N.jpg","img/neutralC/CFD-IM-632-097-N.jpg","1","0","1","0","0","0","0.810063900018577","0.872247099992819","0.895287899998948","1","1","1","1","1","1","1","1","1"
"250058","img/neutralC/CFD-IM-632-097-N.jpg","img/neutralC/CFD-MF-302-027-N.jpg","img/neutralC/CFD-AF-246-242-N.jpg","1","1","1","0","0","0","0.895287899998948","0.810063900018577","0.520943499985151","1","1","1","1","1","1","1","1","1"
"250058","img/neutralC/CFD-AF-246-242-N.jpg","img/neutralC/CFD-IM-632-097-N.jpg","img/neutralC/CFD-AF-244-168-N.jpg","1","1","1","0","0","0","0.520943499985151","0.895287899998948","0.660275999980513","1","1","1","1","1","1","1","1","1"
"250058","img/neutralC/CFD-AF-244-168-N.jpg","img/neutralC/CFD-AF-246-242-N.jpg","img/neutralC/CFD-WM-253-119-N.jpg","1","1","1","0","0","1","0.660275999980513","0.520943499985151","0.645762600004673","1","1","1","1","1","1","1","1","1"
"250058","img/neutralC/CFD-WM-253-119-N.jpg","img/neutralC/CFD-AF-244-168-N.jpg","img/neutralC/CFD-BF-217-189-N.jpg","1","1","1","1","0","0","0.645762600004673","0.660275999980513","0.678852399985772","1","1","1","1","1","1","1","1","1"
"250058","img/neutralC/CFD-BF-217-189-N.jpg","img/neutralC/CFD-WM-253-119-N.jpg","img/neutralC/CFD-AF-234-208-N.jpg","1","1","1","0","1","1","0.678852399985772","0.645762600004673","0.636953699984588","1","1","1","1","1","1","1","1","1"
"250058","img/neutralC/CFD-AF-234-208-N.jpg","img/neutralC/CFD-BF-217-189-N.jpg","img/neutralC/CFD-AF-205-155-N.jpg","1","1","1","1","0","0","0.636953699984588","0.678852399985772","0.618817800015677","1","1","1","1","1","1","1","1","1"
"250058","img/neutralC/CFD-AF-205-155-N.jpg","img/neutralC/CFD-AF-234-208-N.jpg","img/neutralC/CFD-AF-250-200-N.jpg","1","1","1","0","1","1","0.618817800015677","0.636953699984588","0.602895000018179","1","1","1","1","1","1","1","1","1"
"250058","img/neutralC/CFD-AF-250-200-N.jpg","img/neutralC/CFD-AF-205-155-N.jpg","img/neutralC/CFD-LF-239-148-N.jpg","1","1","1","1","0","0","0.602895000018179","0.618817800015677","0.959241200005636","1","1","1","1","1","1","1","1","1"
"250058","img/neutralC/CFD-LF-239-148-N.jpg","img/neutralC/CFD-AF-250-200-N.jpg","img/neutralC/CFD-WF-235-121-N.jpg","1","1","1","0","1","0","0.959241200005636","0.602895000018179","0.715836099989247","1","1","1","1","1","1","1","1","1"
"250058","img/neutralC/CFD-WF-235-121-N.jpg","img/neutralC/CFD-LF-239-148-N.jpg",NA,"1","1",NA,"0","0",NA,"0.715836099989247","0.959241200005636",NA,"1","1",NA,"1","1",NA,"1","1",NA
"250058","img/neutralC/CFD-BF-224-002-N.jpg",NA,"img/neutralC/CFD-AM-236-090-N.jpg","1",NA,"1","1",NA,"1","0.644506999989972",NA,"0.62127220002003","1",NA,"1","1",NA,"1","1",NA,"1"
"250058","img/neutralC/CFD-AM-236-090-N.jpg","img/neutralC/CFD-BF-224-002-N.jpg","img/neutralC/CFD-BM-243-218-N.jpg","1","1","1","1","1","1","0.62127220002003","0.644506999989972","0.522752400022","1","1","1","1","1","1","1","1","1"
"250058","img/neutralC/CFD-BM-243-218-N.jpg","img/neutralC/CFD-AM-236-090-N.jpg","img/neutralC/CFD-MF-327-002-N.jpg","1","1","1","1","1","0","0.522752400022","0.62127220002003","0.65291399997659","1","1","1","1","1","1","1","1","1"
"250058","img/neutralC/CFD-MF-327-002-N.jpg","img/neutralC/CFD-BM-243-218-N.jpg","img/neutralC/CFD-MF-329-001-N.jpg","1","1","1","0","1","0","0.65291399997659","0.522752400022","0.690207299950998","1","1","1","1","1","1","1","1","1"
"250058","img/neutralC/CFD-MF-329-001-N.jpg","img/neutralC/CFD-MF-327-002-N.jpg","img/neutralC/CFD-IM-604-014-N.jpg","1","1","1","0","0","0","0.690207299950998","0.65291399997659","0.531091000011656","1","1","1","1","1","1","1","1","1"
"250058","img/neutralC/CFD-IM-604-014-N.jpg","img/neutralC/CFD-MF-329-001-N.jpg","img/neutralC/CFD-WF-217-085-N.jpg","1","1","1","0","0","1","0.531091000011656","0.690207299950998","0.583064300008118","1","1","1","1","1","1","1","1","1"
"250058","img/neutralC/CFD-WF-217-085-N.jpg","img/neutralC/CFD-IM-604-014-N.jpg","img/neutralC/CFD-BM-039-029-N.jpg","1","1","1","1","0","1","0.583064300008118","0.531091000011656","0.496265500027221","1","1","1","1","1","1","1","1","1"
"250058","img/neutralC/CFD-BM-039-029-N.jpg","img/neutralC/CFD-WF-217-085-N.jpg","img/neutralC/CFD-AF-254-167-N.jpg","1","1","1","1","1","1","0.496265500027221","0.583064300008118","0.535395100014284","1","1","1","1","1","1","1","1","1"
"250058","img/neutralC/CFD-AF-254-167-N.jpg","img/neutralC/CFD-BM-039-029-N.jpg","img/neutralC/CFD-WM-213-076-N.jpg","1","1","1","1","1","1","0.535395100014284","0.496265500027221","0.435253000003286","1","1","1","1","1","1","1","1","1"
"250058","img/neutralC/CFD-WM-213-076-N.jpg","img/neutralC/CFD-AF-254-167-N.jpg","img/neutralC/CFD-BF-043-003-N.jpg","1","1","1","1","1","0","0.435253000003286","0.535395100014284","0.952864199993201","1","1","1","1","1","1","1","1","1"
"250058","img/neutralC/CFD-BF-043-003-N.jpg","img/neutralC/CFD-WM-213-076-N.jpg","img/neutralC/CFD-AF-215-70-N.jpg","1","1","1","0","1","0","0.952864199993201","0.435253000003286","0.913866100017913","1","1","1","1","1","1","1","1","1"
"250058","img/neutralC/CFD-AF-215-70-N.jpg","img/neutralC/CFD-BF-043-003-N.jpg","img/neutralC/CFD-MF-340-026-N.jpg","1","1","1","0","0","1","0.913866100017913","0.952864199993201","0.69243459997233","1","1","1","1","1","1","1","1","1"
"250058","img/neutralC/CFD-MF-340-026-N.jpg","img/neutralC/CFD-AF-215-70-N.jpg","img/neutralC/CFD-IF-619-197-N.jpg","1","1","0","1","0","0","0.69243459997233","0.913866100017913","1.01478450000286","1","1","1","1","1","1","1","1","1"
"250058","img/neutralC/CFD-IF-619-197-N.jpg","img/neutralC/CFD-MF-340-026-N.jpg","img/neutralC/CFD-AF-229-160-N.jpg","0","1","1","0","1","0","1.01478450000286","0.69243459997233","1.17232230002992","1","1","1","1","1","1","1","1","1"
"250058","img/neutralC/CFD-AF-229-160-N.jpg","img/neutralC/CFD-IF-619-197-N.jpg","img/neutralC/CFD-LF-226-174-N.jpg","1","0","1","0","0","0","1.17232230002992","1.01478450000286","0.70417979999911","1","1","1","1","1","1","1","1","1"
"250058","img/neutralC/CFD-LF-226-174-N.jpg","img/neutralC/CFD-AF-229-160-N.jpg","img/neutralC/CFD-LM-217-162-N.jpg","1","1","1","0","0","0","0.70417979999911","1.17232230002992","0.63595590001205","1","1","1","1","1","1","1","1","1"
"250058","img/neutralC/CFD-LM-217-162-N.jpg","img/neutralC/CFD-LF-226-174-N.jpg","img/neutralC/CFD-IM-637-007-N.jpg","1","1","1","0","0","0","0.63595590001205","0.70417979999911","0.898128299973905","1","1","1","1","1","1","1","1","1"
"250058","img/neutralC/CFD-IM-637-007-N.jpg","img/neutralC/CFD-LM-217-162-N.jpg","img/neutralC/CFD-WM-024-015-N.jpg","1","1","1","0","0","1","0.898128299973905","0.63595590001205","0.519914800010156","1","1","1","1","1","1","1","1","1"
"250058","img/neutralC/CFD-WM-024-015-N.jpg","img/neutralC/CFD-IM-637-007-N.jpg","img/neutralC/CFD-WM-232-070-N.jpg","1","1","1","1","0","0","0.519914800010156","0.898128299973905","0.584867400000803","1","1","1","1","1","1","1","1","1"
"250058","img/neutralC/CFD-WM-232-070-N.jpg","img/neutralC/CFD-WM-024-015-N.jpg","img/neutralC/CFD-LF-201-035-N.jpg","1","1","1","0","1","1","0.584867400000803","0.519914800010156","0.467379499983508","1","1","1","1","1","1","1","1","1"
"250058","img/neutralC/CFD-LF-201-035-N.jpg","img/neutralC/CFD-WM-232-070-N.jpg","img/neutralC/CFD-IM-685-004-N.jpg","1","1","1","1","0","1","0.467379499983508","0.584867400000803","0.531141000043135","1","1","1","1","1","1","1","1","1"
"250058","img/neutralC/CFD-IM-685-004-N.jpg","img/neutralC/CFD-LF-201-035-N.jpg","img/neutralC/CFD-IF-608-390-N.jpg","1","1","1","1","1","1","0.531141000043135","0.467379499983508","0.517363400023896","1","1","1","1","1","1","1","1","1"
"250058","img/neutralC/CFD-IF-608-390-N.jpg","img/neutralC/CFD-IM-685-004-N.jpg","img/neutralC/CFD-BF-051-035-N.jpg","1","1","1","1","1","0","0.517363400023896","0.531141000043135","0.615953000029549","1","1","1","1","1","1","1","1","1"
"250058","img/neutralC/CFD-BF-051-035-N.jpg","img/neutralC/CFD-IF-608-390-N.jpg","img/neutralC/CFD-IM-709-103-N.jpg","1","1","1","0","1","0","0.615953000029549","0.517363400023896","0.698845500010066","1","1","1","1","1","1","1","1","1"
"250058","img/neutralC/CFD-IM-709-103-N.jpg","img/neutralC/CFD-BF-051-035-N.jpg","img/neutralC/CFD-IM-675-015-N.jpg","1","1","1","0","0","1","0.698845500010066","0.615953000029549","0.61867809999967","1","1","1","1","1","1","1","1","1"
"250058","img/neutralC/CFD-IM-675-015-N.jpg","img/neutralC/CFD-IM-709-103-N.jpg","img/neutralC/CFD-MM-304-002-N.jpg","1","1","1","1","0","1","0.61867809999967","0.698845500010066","0.560848499997519","1","1","1","1","1","1","1","1","1"
"250058","img/neutralC/CFD-MM-304-002-N.jpg","img/neutralC/CFD-IM-675-015-N.jpg","img/neutralC/CFD-WF-212-050-N.jpg","1","1","1","1","1","0","0.560848499997519","0.61867809999967","0.589646700012963","1","1","1","1","1","1","1","1","1"
"250058","img/neutralC/CFD-WF-212-050-N.jpg","img/neutralC/CFD-MM-304-002-N.jpg","img/neutralC/CFD-WF-248-129-N.jpg","1","1","1","0","1","0","0.589646700012963","0.560848499997519","0.641289599996526","1","1","1","1","1","1","1","1","1"
"250058","img/neutralC/CFD-WF-248-129-N.jpg","img/neutralC/CFD-WF-212-050-N.jpg","img/neutralC/CFD-MF-300-002-N.jpg","1","1","1","0","0","0","0.641289599996526","0.589646700012963","0.542196599999443","1","1","1","1","1","1","1","1","1"
"250058","img/neutralC/CFD-MF-300-002-N.jpg","img/neutralC/CFD-WF-248-129-N.jpg","img/neutralC/CFD-WF-008-002-N.jpg","1","1","1","0","0","1","0.542196599999443","0.641289599996526","0.497946499963291","1","1","1","1","1","1","1","1","1"
"250058","img/neutralC/CFD-WF-008-002-N.jpg","img/neutralC/CFD-MF-300-002-N.jpg","img/neutralC/CFD-WF-012-002-N.jpg","1","1","1","1","0","1","0.497946499963291","0.542196599999443","0.582848499994725","1","1","1","1","1","1","1","1","1"
"250058","img/neutralC/CFD-WF-012-002-N.jpg","img/neutralC/CFD-WF-008-002-N.jpg",NA,"1","1",NA,"1","1",NA,"0.582848499994725","0.497946499963291",NA,"1","1",NA,"1","1",NA,"1","1",NA
"250058","img/neutralC/CFD-MM-319-052-N.jpg",NA,"img/neutralC/CFD-BM-211-174-N.jpg","1",NA,"1","1",NA,"0","0.721157799998764",NA,"0.560064300021622","1",NA,"1","1",NA,"1","1",NA,"1"
"250058","img/neutralC/CFD-BM-211-174-N.jpg","img/neutralC/CFD-MM-319-052-N.jpg","img/neutralC/CFD-WM-002-009-N.jpg","1","1","1","0","1","0","0.560064300021622","0.721157799998764","0.561710000038147","1","1","1","1","1","1","1","1","1"
"250058","img/neutralC/CFD-WM-002-009-N.jpg","img/neutralC/CFD-BM-211-174-N.jpg","img/neutralC/CFD-AM-217-085-N.jpg","1","1","1","0","0","0","0.561710000038147","0.560064300021622","0.496084900049027","1","1","1","1","1","1","1","1","1"
"250058","img/neutralC/CFD-AM-217-085-N.jpg","img/neutralC/CFD-WM-002-009-N.jpg","img/neutralC/CFD-BM-027-001-N.jpg","1","1","1","0","0","0","0.496084900049027","0.561710000038147","0.699653500050772","1","1","1","1","1","1","1","1","1"
"250058","img/neutralC/CFD-BM-027-001-N.jpg","img/neutralC/CFD-AM-217-085-N.jpg","img/neutralC/CFD-IM-728-041-N.jpg","1","1","1","0","0","0","0.699653500050772","0.496084900049027","0.562522699998226","1","1","1","1","1","1","1","1","1"
"250058","img/neutralC/CFD-IM-728-041-N.jpg","img/neutralC/CFD-BM-027-001-N.jpg","img/neutralC/CFD-AM-235-241-N.jpg","1","1","1","0","0","0","0.562522699998226","0.699653500050772","0.561371800024062","1","1","1","1","1","1","1","1","1"
"250058","img/neutralC/CFD-AM-235-241-N.jpg","img/neutralC/CFD-IM-728-041-N.jpg","img/neutralC/CFD-LF-236-221-N.jpg","1","1","1","0","0","1","0.561371800024062","0.562522699998226","0.532816899998579","1","1","1","1","1","1","1","1","1"
"250058","img/neutralC/CFD-LF-236-221-N.jpg","img/neutralC/CFD-AM-235-241-N.jpg","img/neutralC/CFD-BM-029-024-N.jpg","1","1","1","1","0","1","0.532816899998579","0.561371800024062","0.465491100039799","1","1","1","1","1","1","1","1","1"
"250058","img/neutralC/CFD-BM-029-024-N.jpg","img/neutralC/CFD-LF-236-221-N.jpg","img/neutralC/CFD-IF-718-001-N.jpg","1","1","1","1","1","1","0.465491100039799","0.532816899998579","0.481292800046504","1","1","1","1","1","1","1","1","1"
"250058","img/neutralC/CFD-IF-718-001-N.jpg","img/neutralC/CFD-BM-029-024-N.jpg","img/neutralC/CFD-WF-002-004-N.jpg","1","1","1","1","1","0","0.481292800046504","0.465491100039799","0.852585100044962","1","1","1","1","1","1","1","1","1"
"250058","img/neutralC/CFD-WF-002-004-N.jpg","img/neutralC/CFD-IF-718-001-N.jpg","img/neutralC/CFD-WM-225-127-N.jpg","1","1","1","0","1","0","0.852585100044962","0.481292800046504","0.601886400021613","1","1","1","1","1","1","1","1","1"
"250058","img/neutralC/CFD-WM-225-127-N.jpg","img/neutralC/CFD-WF-002-004-N.jpg","img/neutralC/CFD-WF-022-017-N.jpg","1","1","1","0","0","0","0.601886400021613","0.852585100044962","0.625843200017698","1","1","1","1","1","1","1","1","1"
"250058","img/neutralC/CFD-WF-022-017-N.jpg","img/neutralC/CFD-WM-225-127-N.jpg","img/neutralC/CFD-BF-208-266-N.jpg","1","1","1","0","0","0","0.625843200017698","0.601886400021613","0.708509600022808","1","1","1","1","1","1","1","1","1"
"250058","img/neutralC/CFD-BF-208-266-N.jpg","img/neutralC/CFD-WF-022-017-N.jpg","img/neutralC/CFD-LF-216-121-N.jpg","1","1","1","0","0","1","0.708509600022808","0.625843200017698","0.535802299971692","1","1","1","1","1","1","1","1","1"
"250058","img/neutralC/CFD-LF-216-121-N.jpg","img/neutralC/CFD-BF-208-266-N.jpg","img/neutralC/CFD-BF-255-140-N.jpg","1","1","1","1","0","1","0.535802299971692","0.708509600022808","0.62569270003587","1","1","1","1","1","1","1","1","1"
"250058","img/neutralC/CFD-BF-255-140-N.jpg","img/neutralC/CFD-LF-216-121-N.jpg","img/neutralC/CFD-WF-026-002-N.jpg","1","1","1","1","1","1","0.62569270003587","0.535802299971692","0.542835800035391","1","1","1","1","1","1","1","1","1"
"250058","img/neutralC/CFD-WF-026-002-N.jpg","img/neutralC/CFD-BF-255-140-N.jpg","img/neutralC/CFD-BF-201-080-N.jpg","1","1","1","1","1","1","0.542835800035391","0.62569270003587","0.640193399973214","1","1","1","1","1","1","1","1","1"
"250058","img/neutralC/CFD-BF-201-080-N.jpg","img/neutralC/CFD-WF-026-002-N.jpg","img/neutralC/CFD-IM-639-263-N.jpg","1","1","1","1","1","1","0.640193399973214","0.542835800035391","0.609069099999033","1","1","1","1","1","1","1","1","1"
"250058","img/neutralC/CFD-IM-639-263-N.jpg","img/neutralC/CFD-BF-201-080-N.jpg","img/neutralC/CFD-LM-252-076-N.jpg","1","1","1","1","1","1","0.609069099999033","0.640193399973214","0.505558700009715","1","1","1","1","1","1","1","1","1"
"250058","img/neutralC/CFD-LM-252-076-N.jpg","img/neutralC/CFD-IM-639-263-N.jpg","img/neutralC/CFD-BM-247-240-N.jpg","1","1","1","1","1","0","0.505558700009715","0.609069099999033","0.59894749999512","1","1","1","1","1","1","1","1","1"
"250058","img/neutralC/CFD-BM-247-240-N.jpg","img/neutralC/CFD-LM-252-076-N.jpg","img/neutralC/CFD-AM-215-120-N.jpg","1","1","1","0","1","1","0.59894749999512","0.505558700009715","0.547177299973555","1","1","1","1","1","1","1","1","1"
"250058","img/neutralC/CFD-AM-215-120-N.jpg","img/neutralC/CFD-BM-247-240-N.jpg","img/neutralC/CFD-BF-023-010-N.jpg","1","1","1","1","0","1","0.547177299973555","0.59894749999512","0.56791310000699","1","1","1","1","1","1","1","1","1"
"250058","img/neutralC/CFD-BF-023-010-N.jpg","img/neutralC/CFD-AM-215-120-N.jpg","img/neutralC/CFD-BF-028-001-N.jpg","1","1","1","1","1","1","0.56791310000699","0.547177299973555","0.567517800023779","1","1","1","1","1","1","1","1","1"
"250058","img/neutralC/CFD-BF-028-001-N.jpg","img/neutralC/CFD-BF-023-010-N.jpg","img/neutralC/CFD-BF-003-003-N.jpg","1","1","1","1","1","0","0.567517800023779","0.56791310000699","0.460666900034994","1","1","1","1","1","1","1","1","1"
"250058","img/neutralC/CFD-BF-003-003-N.jpg","img/neutralC/CFD-BF-028-001-N.jpg","img/neutralC/CFD-BM-015-015-N.jpg","1","1","1","0","1","0","0.460666900034994","0.567517800023779","0.463495099975262","1","1","1","1","1","1","1","1","1"
"250058","img/neutralC/CFD-BM-015-015-N.jpg","img/neutralC/CFD-BF-003-003-N.jpg","img/neutralC/CFD-BF-204-189-N.jpg","1","1","1","0","0","1","0.463495099975262","0.460666900034994","0.527436200005468","1","1","1","1","1","1","1","1","1"
"250058","img/neutralC/CFD-BF-204-189-N.jpg","img/neutralC/CFD-BM-015-015-N.jpg","img/neutralC/CFD-WM-038-003-N.jpg","1","1","1","1","0","0","0.527436200005468","0.463495099975262","0.668433699989691","1","1","1","1","1","1","1","1","1"
"250058","img/neutralC/CFD-WM-038-003-N.jpg","img/neutralC/CFD-BF-204-189-N.jpg","img/neutralC/CFD-WM-040-022-N.jpg","1","1","1","0","1","0","0.668433699989691","0.527436200005468","0.60047130001476","1","1","1","1","1","1","1","1","1"
"250058","img/neutralC/CFD-WM-040-022-N.jpg","img/neutralC/CFD-WM-038-003-N.jpg","img/neutralC/CFD-IM-674-281-N.jpg","1","1","1","0","0","1","0.60047130001476","0.668433699989691","0.535491799993906","1","1","1","1","1","1","1","1","1"
"250058","img/neutralC/CFD-IM-674-281-N.jpg","img/neutralC/CFD-WM-040-022-N.jpg","img/neutralC/CFD-WM-257-161-N.jpg","1","1","1","1","0","1","0.535491799993906","0.60047130001476","0.593123400001787","1","1","1","1","1","1","1","1","1"
"250058","img/neutralC/CFD-WM-257-161-N.jpg","img/neutralC/CFD-IM-674-281-N.jpg","img/neutralC/CFD-IF-672-305-N.jpg","1","1","1","1","1","0","0.593123400001787","0.535491799993906","0.717303599987645","1","1","1","1","1","1","1","1","1"
"250058","img/neutralC/CFD-IF-672-305-N.jpg","img/neutralC/CFD-WM-257-161-N.jpg",NA,"1","1",NA,"0","1",NA,"0.717303599987645","0.593123400001787",NA,"1","1",NA,"1","1",NA,"1","1",NA
