"participant_id","face","surpAcc","memory_surp_responses","memory_surp_rt","keep_surp_memory_trial_based_on_rt","surp_block_num","exclude_block","number_of_surp_resp_items_used","num_blocks_excluded"
"250041","img/neutralC/CFD-BM-253-004-N.jpg","1","s","2.46796789998189",1,1,0,2,0
"250041","img/neutralC/CFD-IM-671-601-N.jpg","1","s","1.69356889999472",1,1,0,2,0
"250041","img/neutralC/CFD-BM-004-002-N.jpg","0","k","2.65025530010462",1,1,0,2,0
"250041","img/neutralC/CFD-LF-245-166-N.jpg","0","k","2.24134700000286",1,1,0,2,0
"250041","img/neutralC/CFD-WF-244-163-N.jpg","1","k","1.44088379992172",1,1,0,2,0
"250041","img/neutralC/CFD-WF-030-002-N.jpg","1","s","2.89549959986471",1,1,0,2,0
"250041","img/neutralC/CFD-WF-001-003-N.jpg","0","s","2.24332450004295",1,1,0,2,0
"250041","img/neutralC/CFD-WF-233-112-N.jpg","0","s","4.55781459994614",1,1,0,2,0
"250041","img/neutralC/CFD-IM-617-174-N.jpg","1","k","5.16935600014403",1,1,0,2,0
"250041","img/neutralC/CFD-WF-250-167-N.jpg","1","k","1.39284510002472",1,1,0,2,0
"250041","img/neutralC/CFD-IF-660-464-N.jpg","1","s","1.9782340999227",1,1,0,2,0
"250041","img/neutralC/CFD-WF-213-031-N.jpg","1","s","3.16292839986272",1,1,0,2,0
"250041","img/neutralC/CFD-WM-012-001-N.jpg","0","s","3.32085080002435",1,1,0,2,0
"250041","img/neutralC/CFD-WM-020-001-N.jpg","1","k","1.6693826999981",1,1,0,2,0
"250041","img/neutralC/CFD-BM-238-242-N.jpg","1","s","1.01308790012263",1,1,0,2,0
"250041","img/neutralC/CFD-BF-012-001-N.jpg","0","k","1.16544289980084",1,1,0,2,0
"250041","img/neutralC/CFD-LF-225-164-N.jpg","1","s","1.39864640007727",1,1,0,2,0
"250041","img/neutralC/CFD-AF-253-130-N.jpg","1","s","1.52733070007525",1,1,0,2,0
"250041","img/neutralC/CFD-WM-033-025-N.jpg","0","k","2.46216099988669",1,1,0,2,0
"250041","img/neutralC/CFD-BM-009-002-N.jpg","1","k","2.5974742998369",1,1,0,2,0
"250041","img/neutralC/CFD-WF-234-086-N.jpg","1","k","2.17751950002275",1,1,0,2,0
"250041","img/neutralC/CFD-AM-219-101-N.jpg","1","s","2.78909390000626",1,1,0,2,0
"250041","img/neutralC/CFD-IM-700-009-N.jpg","1","k","1.37722899997607",1,1,0,2,0
"250041","img/neutralC/CFD-MF-307-002-N.jpg","1","s","3.02686099987477",1,1,0,2,0
"250041","img/neutralC/CFD-MF-305-014-N.jpg","0","k","2.18056300003082",1,1,0,2,0
"250041","img/neutralC/CFD-IM-707-105-N.jpg","1","k","2.11912359995767",1,1,0,2,0
"250041","img/neutralC/CFD-WM-023-001-N.jpg","1","s","3.11604480003007",1,1,0,2,0
"250041","img/neutralC/CFD-LF-204-133-N.jpg","1","s","2.7466131998226",1,1,0,2,0
"250041","img/neutralC/CFD-WM-212-097-N.jpg","0","s","2.28073090012185",1,1,0,2,0
"250041","img/neutralC/CFD-AF-246-242-N.jpg","1","k","8.08831700007431",1,1,0,2,0
"250041","img/neutralC/CFD-BM-227-191-N.jpg","1","s","1.88184050004929",1,1,0,2,0
"250041","img/neutralC/CFD-IF-744-114-N.jpg","1","s","2.28039970016107",1,1,0,2,0
"250041","img/neutralC/CFD-WM-215-041-N.jpg","1","k","2.85338569991291",1,1,0,2,0
"250041","img/neutralC/CFD-BM-239-136-N.jpg","1","s","3.66073039988987",1,1,0,2,0
"250041","img/neutralC/CFD-IM-632-097-N.jpg","1","k","4.82098890002817",1,1,0,2,0
"250041","img/neutralC/CFD-AM-233-236-N.jpg","1","s","4.2044440000318",1,1,0,2,0
"250041","img/neutralC/CFD-BM-020-001-N.jpg","1","k","3.22406749986112",1,1,0,2,0
"250041","img/neutralC/CFD-WM-004-010-N.jpg","0","k","3.86092159990221",1,1,0,2,0
"250041","img/neutralC/CFD-WM-227-099-N.jpg","0","k","4.62491410016082",1,1,0,2,0
"250041","img/neutralC/CFD-WM-034-030-N.jpg","1","s","1.05428369995207",1,1,0,2,0
"250041","img/neutralC/CFD-IM-674-281-N.jpg","1","s","1.05618009995669",1,1,0,2,0
"250041","img/neutralC/CFD-WM-028-003-N.jpg","1","s","2.74288749997504",1,1,0,2,0
"250041","img/neutralC/CFD-IM-657-308-N.jpg","1","k","1.73316509998403",1,1,0,2,0
"250041","img/neutralC/CFD-BM-213-134-N.jpg","1","k","1.72107980004512",1,1,0,2,0
"250041","img/neutralC/CFD-MF-300-002-N.jpg","1","k","3.48686880012974",1,1,0,2,0
"250041","img/neutralC/CFD-BF-205-141-N.jpg","0","s","2.60005460004322",1,1,0,2,0
"250041","img/neutralC/CFD-MM-304-002-N.jpg","1","s","2.64767730003223",1,1,0,2,0
"250041","img/neutralC/CFD-LM-247-095-N.jpg","0","k","3.47176550002769",1,1,0,2,0
"250041","img/neutralC/CFD-IM-667-369-N.jpg","1","s","1.12412820011377",1,2,0,2,0
"250041","img/neutralC/CFD-IF-665-015-N.jpg","1","k","2.21997049986385",1,2,0,2,0
"250041","img/neutralC/CFD-WF-208-068-N.jpg","0","s","2.48840010003187",1,2,0,2,0
"250041","img/neutralC/CFD-LM-213-061-N.jpg","0","k","2.25064110010862",1,2,0,2,0
"250041","img/neutralC/CFD-IF-693-172-N.jpg","1","k","1.9265653998591",1,2,0,2,0
"250041","img/neutralC/CFD-IM-627-178-N.jpg","1","s","1.60926450020634",1,2,0,2,0
"250041","img/neutralC/CFD-BF-044-034-N.jpg","1","s","3.2490420001559",1,2,0,2,0
"250041","img/neutralC/CFD-AF-250-200-N.jpg","0","k","2.50721509987488",1,2,0,2,0
"250041","img/neutralC/CFD-AF-239-171-N.jpg","1","k","1.25819379999302",1,2,0,2,0
"250041","img/neutralC/CFD-MF-313-002-N.jpg","1","k","2.4361958000809",1,2,0,2,0
"250041","img/neutralC/CFD-BM-023-029-N.jpg","0","s","4.91390240006149",1,2,0,2,0
"250041","img/neutralC/CFD-IM-669-111-N.jpg","0","s","1.9909226000309",1,2,0,2,0
"250041","img/neutralC/CFD-BM-003-003-N.jpg","1","s","2.26622750004753",1,2,0,2,0
"250041","img/neutralC/CFD-BM-036-003-N.jpg","0","s","2.83006029995158",1,2,0,2,0
"250041","img/neutralC/CFD-LM-237-264-N.jpg","0","s","3.12457869993523",1,2,0,2,0
"250041","img/neutralC/CFD-LF-224-176-N.jpg","0","k","2.37748180003837",1,2,0,2,0
"250041","img/neutralC/CFD-IM-651-308-N.jpg","1","s","2.70225249999203",1,2,0,2,0
"250041","img/neutralC/CFD-BM-207-024-N.jpg","0","k","2.87982549984008",1,2,0,2,0
"250041","img/neutralC/CFD-IF-672-305-N.jpg","1","s","2.12807819992304",1,2,0,2,0
"250041","img/neutralC/CFD-WF-240-083-N.jpg","0","s","2.90506829996593",1,2,0,2,0
"250041","img/neutralC/CFD-BF-218-207-N.jpg","1","s","3.21717610000633",1,2,0,2,0
"250041","img/neutralC/CFD-IF-710-016-N.jpg","0","k","2.27097549987957",1,2,0,2,0
"250041","img/neutralC/CFD-WM-228-065-N.jpg","1","k","2.1355580999516",1,2,0,2,0
"250041","img/neutralC/CFD-BM-015-015-N.jpg","0","s","3.53270700015128",1,2,0,2,0
"250041","img/neutralC/CFD-IF-718-001-N.jpg","1","k","1.99866429995745",1,2,0,2,0
"250041","img/neutralC/CFD-WM-248-036-N.jpg","1","s","2.80720230005682",1,2,0,2,0
"250041","img/neutralC/CFD-WM-009-002-N.jpg","0","k","2.01687180018052",1,2,0,2,0
"250041","img/neutralC/CFD-BM-030-003-N.jpg","1","s","4.24562249984592",1,2,0,2,0
"250041","img/neutralC/CFD-BM-026-002-N.jpg","1","s","2.61478479998186",1,2,0,2,0
"250041","img/neutralC/CFD-BM-217-082-N.jpg","1","s","4.42735170014203",1,2,0,2,0
"250041","img/neutralC/CFD-WM-219-008-N.jpg","1","k","4.41925689997151",1,2,0,2,0
"250041","img/neutralC/CFD-MM-306-010-N.jpg","1","s","3.17627150006592",1,2,0,2,0
"250041","img/neutralC/CFD-WM-242-011-N.jpg","1","k","9.69243959989399",1,2,0,2,0
"250041","img/neutralC/CFD-BF-043-003-N.jpg","0","k","1.9326065001078",1,2,0,2,0
"250041","img/neutralC/CFD-MM-319-052-N.jpg","1","k","2.09249800001271",1,2,0,2,0
"250041","img/neutralC/CFD-WM-015-002-N.jpg","1","k","5.26418770011514",1,2,0,2,0
"250041","img/neutralC/CFD-BF-051-035-N.jpg","0","k","6.16433509998024",1,2,0,2,0
"250041","img/neutralC/CFD-AM-211-052-N.jpg","1","s","3.29800110007636",1,2,0,2,0
"250041","img/neutralC/CFD-IM-689-263-N.jpg","1","s","2.78111380012706",1,2,0,2,0
"250041","img/neutralC/CFD-WF-023-003-N.jpg","1","s","3.47784529998899",1,2,0,2,0
"250041","img/neutralC/CFD-IM-664-651-N.jpg","1","k","3.43326730001718",1,2,0,2,0
"250041","img/neutralC/CFD-WF-033-002-N.jpg","0","k","4.08582919999026",1,2,0,2,0
"250041","img/neutralC/CFD-WM-017-002-N.jpg","1","s","1.43486099992879",1,2,0,2,0
"250041","img/neutralC/CFD-MF-321-003-N.jpg","1","k","5.38235440012068",1,2,0,2,0
"250041","img/neutralC/CFD-IF-634-382-N.jpg","1","k","3.08781010005623",1,2,0,2,0
"250041","img/neutralC/CFD-LM-241-125-N.jpg","1","s","2.69513640017249",1,2,0,2,0
"250041","img/neutralC/CFD-WM-019-003-N.jpg","0","s","2.14538110001013",1,2,0,2,0
"250041","img/neutralC/CFD-WF-200-099-N.jpg","1","k","6.40896749985404",1,2,0,2,0
"250041","img/neutralC/CFD-AF-232-078-N.jpg","1","s","1.81516900006682",1,3,0,2,0
"250041","img/neutralC/CFD-AM-242-176-N.jpg","1","s","2.8803757999558",1,3,0,2,0
"250041","img/neutralC/CFD-LF-241-188-N.jpg","1","k","1.55109369987622",1,3,0,2,0
"250041","img/neutralC/CFD-IF-677-452-1-N.jpg","0","k","2.81371000013314",1,3,0,2,0
"250041","img/neutralC/CFD-MM-321-021-N.jpg","1","k","1.84614549996331",1,3,0,2,0
"250041","img/neutralC/CFD-BF-018-039-N.jpg","0","k","2.93977829976939",1,3,0,2,0
"250041","img/neutralC/CFD-WM-209-038-N.jpg","1","k","1.92742779990658",1,3,0,2,0
"250041","img/neutralC/CFD-WM-202-107-N.jpg","0","s","1.98524029995315",1,3,0,2,0
"250041","img/neutralC/CFD-IM-659-359-N.jpg","0","s","1.96867080009542",1,3,0,2,0
"250041","img/neutralC/CFD-LM-216-082-N.jpg","0","s","3.13293349999003",1,3,0,2,0
"250041","img/neutralC/CFD-BF-045-003-N.jpg","1","k","2.55026450008154",1,3,0,2,0
"250041","img/neutralC/CFD-LM-204-001-N.jpg","1","s","1.9526341999881",1,3,0,2,0
"250041","img/neutralC/CFD-BF-033-028-N.jpg","0","s","3.93271179986186",1,3,0,2,0
"250041","img/neutralC/CFD-MM-316-156-N.jpg","0","s","2.22591949999332",1,3,0,2,0
"250041","img/neutralC/CFD-IM-738-191-N.jpg","1","s","1.88806120003574",1,3,0,2,0
"250041","img/neutralC/CFD-WF-036-023-N.jpg","0","s","2.87084830016829",1,3,0,2,0
"250041","img/neutralC/CFD-BM-039-029-N.jpg","1","k","1.87627510004677",1,3,0,2,0
"250041","img/neutralC/CFD-BF-238-190-N.jpg","1","s","1.59957759990357",1,3,0,2,0
"250041","img/neutralC/CFD-BF-208-266-N.jpg","1","k","1.71352460002527",1,3,0,2,0
"250041","img/neutralC/CFD-AF-244-168-N.jpg","1","s","2.43081710021943",1,3,0,2,0
"250041","img/neutralC/CFD-IM-639-263-N.jpg","0","s","3.76372259994969",1,3,0,2,0
"250041","img/neutralC/CFD-WM-213-076-N.jpg","1","s","3.43175119999796",1,3,0,2,0
"250041","img/neutralC/CFD-IM-701-312-N.jpg","1","k","2.26591810001992",1,3,0,2,0
"250041","img/neutralC/CFD-AM-225-102-N.jpg","1","k","2.95082870009355",1,3,0,2,0
"250041","img/neutralC/CFD-LF-255-088-N.jpg","1","s","5.2363973997999",1,3,0,2,0
"250041","img/neutralC/CFD-WM-038-003-N.jpg","0","k","2.54955669981427",1,3,0,2,0
"250041","img/neutralC/CFD-BF-038-037-N.jpg","0","s","1.23797730007209",1,3,0,2,0
"250041","img/neutralC/CFD-WF-008-002-N.jpg","1","k","3.34752850001678",1,3,0,2,0
"250041","img/neutralC/CFD-BF-004-014-N.jpg","1","k","1.93397990008816",1,3,0,2,0
"250041","img/neutralC/CFD-AM-251-124-N.jpg","1","s","1.88394220010377",1,3,0,2,0
"250041","img/neutralC/CFD-AF-227-207-N.jpg","1","k","1.77130600018427",1,3,0,2,0
"250041","img/neutralC/CFD-WM-255-219-N.jpg","1","s","2.02181560010649",1,3,0,2,0
"250041","img/neutralC/CFD-AF-213-126-N.jpg","1","s","3.80827449983917",1,3,0,2,0
"250041","img/neutralC/CFD-LF-206-078-N.jpg","1","s","1.53711299994029",1,3,0,2,0
"250041","img/neutralC/CFD-BM-251-013-N.jpg","1","k","1.57193149998784",1,3,0,2,0
"250041","img/neutralC/CFD-IM-680-369-N.jpg","1","s","1.31780660012737",1,3,0,2,0
"250041","img/neutralC/CFD-LM-217-162-N.jpg","1","k","1.22956859995611",1,3,0,2,0
"250041","img/neutralC/CFD-BF-027-002-N.jpg","0","k","3.66685099992901",1,3,0,2,0
"250041","img/neutralC/CFD-WF-026-002-N.jpg","0","k","1.85927799995989",1,3,0,2,0
"250041","img/neutralC/CFD-AM-212-050-N.jpg","1","s","2.07459079986438",1,3,0,2,0
"250041","img/neutralC/CFD-BM-005-003-N.jpg","1","k","2.98200970003381",1,3,0,2,0
"250041","img/neutralC/CFD-WM-258-125-N.jpg","0","k","1.61271699983627",1,3,0,2,0
"250041","img/neutralC/CFD-IF-673-389-N.jpg","1","s","1.88935819990002",1,3,0,2,0
"250041","img/neutralC/CFD-BF-255-140-N.jpg","0","k","6.11959499982186",1,3,0,2,0
"250041","img/neutralC/CFD-BF-003-003-N.jpg","1","k","1.49125450011343",1,3,0,2,0
"250041","img/neutralC/CFD-WM-254-152-N.jpg","1","s","2.14886280009523",1,3,0,2,0
"250041","img/neutralC/CFD-WM-014-002-N.jpg","0","k","1.40820330008864",1,3,0,2,0
"250041","img/neutralC/CFD-BF-025-002-N.jpg","1","k","1.67646400001831",1,3,0,2,0
"250041","img/neutralC/CFD-LM-218-183-N.jpg","0","s","2.71111609996296",1,4,0,2,0
"250041","img/neutralC/CFD-WF-226-095-N.jpg","1","s","1.84477539989166",1,4,0,2,0
"250041","img/neutralC/CFD-AF-221-147-N.jpg","0","k","1.64489070000127",1,4,0,2,0
"250041","img/neutralC/CFD-LF-214-090-N.jpg","1","s","1.7298603001982",1,4,0,2,0
"250041","img/neutralC/CFD-BF-232-187-N.jpg","1","s","1.09461659984663",1,4,0,2,0
"250041","img/neutralC/CFD-BF-039-031-N.jpg","1","k","2.39540200005285",1,4,0,2,0
"250041","img/neutralC/CFD-BF-020-002-N.jpg","0","k","1.80016330000944",1,4,0,2,0
"250041","img/neutralC/CFD-AF-229-160-N.jpg","0","s","2.43603009986691",1,4,0,2,0
"250041","img/neutralC/CFD-AF-215-70-N.jpg","1","k","1.66771920002066",1,4,0,2,0
"250041","img/neutralC/CFD-WM-018-002-N.jpg","1","s","2.78953950013965",1,4,0,2,0
"250041","img/neutralC/CFD-BF-212-315-N.jpg","1","s","2.0098963000346",1,4,0,2,0
"250041","img/neutralC/CFD-AM-230-150-N.jpg","1","k","1.72216370003298",1,4,0,2,0
"250041","img/neutralC/CFD-LF-212-066-N.jpg","0","s","1.68485689978115",1,4,0,2,0
"250041","img/neutralC/CFD-WF-235-121-N.jpg","0","s","1.67782339989208",1,4,0,2,0
"250041","img/neutralC/CFD-IM-703-182-N.jpg","1","k","1.6679298998788",1,4,0,2,0
"250041","img/neutralC/CFD-BF-002-001-N.jpg","1","k","1.48492569988593",1,4,0,2,0
"250041","img/neutralC/CFD-LM-226-175-N.jpg","1","k","1.8929775999859",1,4,0,2,0
"250041","img/neutralC/CFD-MF-301-024-N.jpg","0","s","3.00701600010507",1,4,0,2,0
"250041","img/neutralC/CFD-BF-226-119-N.jpg","0","s","2.96507270005532",1,4,0,2,0
"250041","img/neutralC/CFD-AM-247-165-N.jpg","0","s","4.85795189999044",1,4,0,2,0
"250041","img/neutralC/CFD-WM-024-015-N.jpg","1","k","2.12934249988757",1,4,0,2,0
"250041","img/neutralC/CFD-BF-010-001-N.jpg","0","s","2.485883400077",1,4,0,2,0
"250041","img/neutralC/CFD-MF-318-022-N.jpg","1","k","4.8447669998277",1,4,0,2,0
"250041","img/neutralC/CFD-AF-237-223-N.jpg","1","s","1.82081329985522",1,4,0,2,0
"250041","img/neutralC/CFD-IM-696-001-N.jpg","0","k","2.2959015998058",1,4,0,2,0
"250041","img/neutralC/CFD-LM-200-045-N.jpg","0","k","6.97138840006664",1,4,0,2,0
"250041","img/neutralC/CFD-MF-309-002-N.jpg","0","s","2.5229766999837",1,4,0,2,0
"250041","img/neutralC/CFD-AM-245-111-N.jpg","1","s","2.71074940008111",1,4,0,2,0
"250041","img/neutralC/CFD-BM-250-170-N.jpg","0","s","2.08099689986557",1,4,0,2,0
"250041","img/neutralC/CFD-LM-238-129-N.jpg","0","k","1.6187281999737",1,4,0,2,0
"250041","img/neutralC/CFD-MF-335-002-N.jpg","1","k","3.64754340006039",1,4,0,2,0
"250041","img/neutralC/CFD-BM-018-001-N.jpg","1","k","2.01023480016738",1,4,0,2,0
"250041","img/neutralC/CFD-WF-209-052-N.jpg","1","s","1.26236069994047",1,4,0,2,0
"250041","img/neutralC/CFD-WM-006-002-N.jpg","1","s","2.9996474001091",1,4,0,2,0
"250041","img/neutralC/CFD-BF-028-001-N.jpg","1","k","1.92620359989814",1,4,0,2,0
"250041","img/neutralC/CFD-WF-006-002-N.jpg","1","k","1.83068859996274",1,4,0,2,0
"250041","img/neutralC/CFD-LM-243-075-N.jpg","1","s","1.84968119999394",1,4,0,2,0
"250041","img/neutralC/CFD-LM-219-295-N.jpg","1","s","1.93782490002923",1,4,0,2,0
"250041","img/neutralC/CFD-BM-013-002-N.jpg","1","s","2.17617709981278",1,4,0,2,0
"250041","img/neutralC/CFD-WF-238-023-N.jpg","1","s","2.18880210001953",1,4,0,2,0
"250041","img/neutralC/CFD-WM-253-119-N.jpg","1","k","2.25353379989974",1,4,0,2,0
"250041","img/neutralC/CFD-BM-001-014-N.jpg","1","s","2.43801019992679",1,4,0,2,0
"250041","img/neutralC/CFD-BM-247-240-N.jpg","1","k","1.53237630007789",1,4,0,2,0
"250041","img/neutralC/CFD-LF-222-147-N.jpg","0","k","2.48365049995482",1,4,0,2,0
"250041","img/neutralC/CFD-LF-208-127-N.jpg","1","s","1.6962359000463",1,4,0,2,0
"250041","img/neutralC/CFD-IM-675-015-N.jpg","1","s","1.5140023001004",1,4,0,2,0
"250041","img/neutralC/CFD-AM-235-241-N.jpg","0","k","1.51361729996279",1,4,0,2,0
"250041","img/neutralC/CFD-WF-007-001-N.jpg","0","k","1.72926970012486",1,4,0,2,0
"250041","img/neutralC/CFD-WF-221-005-N.jpg","0","s","2.89063989999704",1,5,0,2,0
"250041","img/neutralC/CFD-LF-203-066-N.jpg","1","s","2.38544259988703",1,5,0,2,0
"250041","img/neutralC/CFD-WF-002-004-N.jpg","1","k","2.74059799988754",1,5,0,2,0
"250041","img/neutralC/CFD-BF-237-172-N.jpg","1","k","1.38023649994284",1,5,0,2,0
"250041","img/neutralC/CFD-IM-606-008-N.jpg","0","s","1.68856050004251",1,5,0,2,0
"250041","img/neutralC/CFD-WF-245-084-N.jpg","1","k","1.35548410005867",1,5,0,2,0
"250041","img/neutralC/CFD-AM-221-184-N.jpg","0","k","4.37944009993225",1,5,0,2,0
"250041","img/neutralC/CFD-AM-236-090-N.jpg","0","k","1.49049109988846",1,5,0,2,0
"250041","img/neutralC/CFD-IM-684-008-N.jpg","1","s","1.18463889998384",1,5,0,2,0
"250041","img/neutralC/CFD-LM-244-068-N.jpg","1","s","1.95125739998184",1,5,0,2,0
"250041","img/neutralC/CFD-WF-005-010-N.jpg","0","k","2.69968369998969",1,5,0,2,0
"250041","img/neutralC/CFD-WF-027-003-N.jpg","1","s","4.50524089997634",1,5,0,2,0
"250041","img/neutralC/CFD-AF-240-206-N.jpg","1","k","1.82227430003695",1,5,0,2,0
"250041","img/neutralC/CFD-LF-242-121-N.jpg","1","k","1.40751819987781",1,5,0,2,0
"250041","img/neutralC/CFD-BF-207-004-N.jpg","1","s","1.55254799989052",1,5,0,2,0
"250041","img/neutralC/CFD-WF-243-148-N.jpg","0","s","2.47145879990421",1,5,0,2,0
"250041","img/neutralC/CFD-BM-010-003-N.jpg","1","s","1.77686469978653",1,5,0,2,0
"250041","img/neutralC/CFD-IF-625-225-N.jpg","0","k","1.26361320004798",1,5,0,2,0
"250041","img/neutralC/CFD-LF-211-003-N.jpg","1","k","1.19011219986714",1,5,0,2,0
"250041","img/neutralC/CFD-IM-635-010-N.jpg","0","k","0.910872099921107",1,5,0,2,0
"250041","img/neutralC/CFD-BF-236-177-N.jpg","0","s","1.09216689993627",1,5,0,2,0
"250041","img/neutralC/CFD-AM-220-134-N.jpg","0","k","1.28839459992014",1,5,0,2,0
"250041","img/neutralC/CFD-WM-225-127-N.jpg","1","k","2.66449970006943",1,5,0,2,0
"250041","img/neutralC/CFD-BF-202-109-N.jpg","0","s","1.16911419993266",1,5,0,2,0
"250041","img/neutralC/CFD-WF-224-099-N.jpg","0","s","2.49164729984477",1,5,0,2,0
"250041","img/neutralC/CFD-IM-743-006-N.jpg","1","k","1.15778329991736",1,5,0,2,0
"250041","img/neutralC/CFD-IF-642-295-N.jpg","1","s","1.79855960002169",1,5,0,2,0
"250041","img/neutralC/CFD-WF-207-014-N.jpg","0","k","2.9146867999807",1,5,0,2,0
"250041","img/neutralC/CFD-BF-041-001-N.jpg","1","s","1.5730465000961",1,5,0,2,0
"250041","img/neutralC/CFD-WM-221-091-N.jpg","0","k","4.49251700006425",1,5,0,2,0
"250041","img/neutralC/CFD-BF-217-189-N.jpg","1","s","1.7182310000062",1,5,0,2,0
"250041","img/neutralC/CFD-IM-638-250-1-N.jpg","1","s","1.55919829988852",1,5,0,2,0
"250041","img/neutralC/CFD-WM-249-239-N.jpg","1","k","2.65912130009383",1,5,0,2,0
"250041","img/neutralC/CFD-LM-252-076-N.jpg","1","s","1.67955819983035",1,5,0,2,0
"250041","img/neutralC/CFD-LF-239-148-N.jpg","1","k","2.27135489997454",1,5,0,2,0
"250041","img/neutralC/CFD-BF-201-080-N.jpg","1","k","3.33317940006964",1,5,0,2,0
"250041","img/neutralC/CFD-BM-029-024-N.jpg","1","s","1.74009920004755",1,5,0,2,0
"250041","img/neutralC/CFD-MF-328-020-N.jpg","0","s","1.521929099923",1,5,0,2,0
"250041","img/neutralC/CFD-AF-254-167-N.jpg","1","k","2.48886659997515",1,5,0,2,0
"250041","img/neutralC/CFD-AF-233-190-N.jpg","0","s","9.08590249996632",1,5,0,2,0
"250041","img/neutralC/CFD-WF-228-196-N.jpg","1","s","1.40092849987559",1,5,0,2,0
"250041","img/neutralC/CFD-AF-205-155-N.jpg","1","s","2.99969780002721",1,5,0,2,0
"250041","img/neutralC/CFD-WM-021-001-N.jpg","1","k","1.43977740011178",1,5,0,2,0
"250041","img/neutralC/CFD-BM-027-001-N.jpg","1","s","3.7568705000449",1,5,0,2,0
"250041","img/neutralC/CFD-BF-014-002-N.jpg","0","s","1.24464220018126",1,5,0,2,0
"250041","img/neutralC/CFD-WF-029-002-N.jpg","0","k","1.15621419996023",1,5,0,2,0
"250041","img/neutralC/CFD-MF-336-016-N.jpg","0","k","1.582674899837",1,5,0,2,0
"250041","img/neutralC/CFD-MF-340-026-N.jpg","1","k","0.995234300149605",1,5,0,2,0
"250041","img/neutralC/CFD-IM-702-101-N.jpg","1","s","0.824191800085828",1,6,0,2,0
"250041","img/neutralC/CFD-BM-019-002-N.jpg","1","k","0.900856799911708",1,6,0,2,0
"250041","img/neutralC/CFD-WM-002-009-N.jpg","1","s","0.922189599834382",1,6,0,2,0
"250041","img/neutralC/CFD-IM-719-221-N.jpg","1","k","0.848974500084296",1,6,0,2,0
"250041","img/neutralC/CFD-IF-608-390-N.jpg","1","s","1.41128519992344",1,6,0,2,0
"250041","img/neutralC/CFD-BF-042-026-N.jpg","1","k","1.11680009984411",1,6,0,2,0
"250041","img/neutralC/CFD-BM-021-021-N.jpg","1","k","0.997261899989098",1,6,0,2,0
"250041","img/neutralC/CFD-LF-210-220-N.jpg","1","s","1.18568520015106",1,6,0,2,0
"250041","img/neutralC/CFD-BM-243-218-N.jpg","1","k","0.897960699861869",1,6,0,2,0
"250041","img/neutralC/CFD-LM-253-075-N.jpg","0","k","2.50200189999305",1,6,0,2,0
"250041","img/neutralC/CFD-AF-202-122-N.jpg","1","k","1.30888819997199",1,6,0,2,0
"250041","img/neutralC/CFD-IM-697-015-N.jpg","1","s","1.39771610009484",1,6,0,2,0
"250041","img/neutralC/CFD-BM-241-235-N.jpg","1","s","0.770599599927664",1,6,0,2,0
"250041","img/neutralC/CFD-LF-230-203-N.jpg","0","k","4.98528999998234",1,6,0,2,0
"250041","img/neutralC/CFD-BM-225-154-N.jpg","1","k","0.98991940007545",1,6,0,2,0
"250041","img/neutralC/CFD-LM-215-247-N.jpg","1","s","1.63207420008257",1,6,0,2,0
"250041","img/neutralC/CFD-WF-222-092-N.jpg","0","s","1.38381520006806",1,6,0,2,0
"250041","img/neutralC/CFD-AF-206-079-N.jpg","0","s","1.74926239997149",1,6,0,2,0
"250041","img/neutralC/CFD-AM-244-222-N.jpg","1","k","1.9982694000937",1,6,0,2,0
"250041","img/neutralC/CFD-IF-676-017-N.jpg","0","s","1.56916929990984",1,6,0,2,0
"250041","img/neutralC/CFD-LM-233-171-N.jpg","1","k","2.16705060005188",1,6,0,2,0
"250041","img/neutralC/CFD-LF-250-169-N.jpg","1","k","1.81575509998947",1,6,0,2,0
"250041","img/neutralC/CFD-MF-337-026-N.jpg","1","s","1.15868069999851",1,6,0,2,0
"250041","img/neutralC/CFD-WM-237-052-N.jpg","0","s","1.79806679999456",1,6,0,2,0
"250041","img/neutralC/CFD-IF-629-234-N.jpg","0","s","2.64678290020674",1,6,0,2,0
"250041","img/neutralC/CFD-WM-041-021-N.jpg","0","s","2.07566419988871",1,6,0,2,0
"250041","img/neutralC/CFD-BM-215-155-N.jpg","1","s","2.4179109998513",1,6,0,2,0
"250041","img/neutralC/CFD-IM-637-007-N.jpg","1","s","1.80067919986323",1,6,0,2,0
"250041","img/neutralC/CFD-LM-214-165-N.jpg","1","k","1.39667210006155",1,6,0,2,0
"250041","img/neutralC/CFD-IM-604-014-N.jpg","0","s","1.44647349999286",1,6,0,2,0
"250041","img/neutralC/CFD-LF-236-221-N.jpg","0","k","1.32009159983136",1,6,0,2,0
"250041","img/neutralC/CFD-LF-218-072-N.jpg","1","k","2.7463937997818",1,6,0,2,0
"250041","img/neutralC/CFD-WF-018-017-N.jpg","0","k","2.36085589998402",1,6,0,2,0
"250041","img/neutralC/CFD-MF-343-001-N.jpg","1","s","1.91577050019987",1,6,0,2,0
"250041","img/neutralC/CFD-BF-253-202-N.jpg","0","s","2.15843439986929",1,6,0,2,0
"250041","img/neutralC/CFD-MF-302-027-N.jpg","1","k","1.39693979988806",1,6,0,2,0
"250041","img/neutralC/CFD-BF-214-308-N.jpg","1","k","1.26853189989924",1,6,0,2,0
"250041","img/neutralC/CFD-BF-006-017-N.jpg","1","s","1.44946879986674",1,6,0,2,0
"250041","img/neutralC/CFD-LF-238-154-N.jpg","0","s","1.71338950004429",1,6,0,2,0
"250041","img/neutralC/CFD-IM-646-023-N.jpg","0","k","1.15659489994869",1,6,0,2,0
"250041","img/neutralC/CFD-WF-223-133-N.jpg","1","k","1.2909935999196",1,6,0,2,0
"250041","img/neutralC/CFD-IM-616-214-N.jpg","0","k","1.78478450002149",1,6,0,2,0
"250041","img/neutralC/CFD-WF-241-210-N.jpg","1","s","2.26938660000451",1,6,0,2,0
"250041","img/neutralC/CFD-LF-247-051-N.jpg","0","s","1.15209240000695",1,6,0,2,0
"250041","img/neutralC/CFD-BF-254-201-N.jpg","0","k","1.07659710012376",1,6,0,2,0
"250041","img/neutralC/CFD-IF-620-218-N.jpg","1","s","1.43393959989771",1,6,0,2,0
"250041","img/neutralC/CFD-BF-222-240-N.jpg","0","k","1.71601699991152",1,6,0,2,0
"250041","img/neutralC/CFD-IM-615-167-N.jpg","1","k","1.55015150015242",1,6,0,2,0
"250041","img/neutralC/CFD-MF-312-002-N.jpg","0","s","1.44905489985831",1,7,0,2,0
"250041","img/neutralC/CFD-AF-210-050-N.jpg","1","k","2.3628526001703",1,7,0,2,0
"250041","img/neutralC/CFD-LF-226-174-N.jpg","0","s","3.02966609993018",1,7,0,2,0
"250041","img/neutralC/CFD-IM-721-341-N.jpg","1","k","2.79330149991438",1,7,0,2,0
"250041","img/neutralC/CFD-LF-220-120-N.jpg","0","k","1.39452260010876",1,7,0,2,0
"250041","img/neutralC/CFD-BM-033-003-N.jpg","0","s","1.14825930004008",1,7,0,2,0
"250041","img/neutralC/CFD-AF-241-141-N.jpg","1","k","2.25098360003904",1,7,0,2,0
"250041","img/neutralC/CFD-MF-303-013-N.jpg","0","s","1.09023469989188",1,7,0,2,0
"250041","img/neutralC/CFD-BF-213-188-N.jpg","1","k","1.70897160004824",1,7,0,2,0
"250041","img/neutralC/CFD-IF-742-103-N.jpg","1","k","1.67504859995097",1,7,0,2,0
"250041","img/neutralC/CFD-LM-225-130-N.jpg","0","k","3.54758460004814",1,7,0,2,0
"250041","img/neutralC/CFD-AM-243-212-N.jpg","0","s","1.2659779000096",1,7,0,2,0
"250041","img/neutralC/CFD-WF-012-002-N.jpg","1","k","1.1476400999818",1,7,0,2,0
"250041","img/neutralC/CFD-BF-224-002-N.jpg","0","s","1.55919150006957",1,7,0,2,0
"250041","img/neutralC/CFD-BF-029-031-N.jpg","0","s","4.49532779981382",1,7,0,2,0
"250041","img/neutralC/CFD-LF-205-100-N.jpg","1","s","6.59199730004184",1,7,0,2,0
"250041","img/neutralC/CFD-MF-327-002-N.jpg","0","k","1.14174480014481",1,7,0,2,0
"250041","img/neutralC/CFD-IM-685-004-N.jpg","0","k","0.884166399948299",1,7,0,2,0
"250041","img/neutralC/CFD-IM-653-008-N.jpg","1","k","1.43464830005541",1,7,0,2,0
"250041","img/neutralC/CFD-BF-206-143-N.jpg","0","k","1.5722080997657",1,7,0,2,0
"250041","img/neutralC/CFD-MF-329-001-N.jpg","1","k","1.55650030006655",1,7,0,2,0
"250041","img/neutralC/CFD-IM-706-002-N.jpg","1","k","1.92953010019846",1,7,0,2,0
"250041","img/neutralC/CFD-BM-200-046-N.jpg","1","k","1.10141050000675",1,7,0,2,0
"250041","img/neutralC/CFD-WM-257-161-N.jpg","1","s","1.97594329994172",1,7,0,2,0
"250041","img/neutralC/CFD-MF-357-002-N.jpg","0","s","0.988694000057876",1,7,0,2,0
"250041","img/neutralC/CFD-BM-248-128-N.jpg","1","k","1.23641899996437",1,7,0,2,0
"250041","img/neutralC/CFD-AM-205-153-N.jpg","0","k","1.42398740001954",1,7,0,2,0
"250041","img/neutralC/CFD-WM-040-022-N.jpg","0","s","4.21923020016402",1,7,0,2,0
"250041","img/neutralC/CFD-IF-732-260-N.jpg","1","k","1.85864500002936",1,7,0,2,0
"250041","img/neutralC/CFD-BM-204-003-N.jpg","1","k","2.49252480012365",1,7,0,2,0
"250041","img/neutralC/CFD-IM-709-103-N.jpg","1","s","1.18989420006983",1,7,0,2,0
"250041","img/neutralC/CFD-WF-210-086-N.jpg","0","s","2.6877242999617",1,7,0,2,0
"250041","img/neutralC/CFD-IF-650-315-N.jpg","0","s","2.14718900015578",1,7,0,2,0
"250041","img/neutralC/CFD-BM-212-117-N.jpg","0","k","1.28490820014849",1,7,0,2,0
"250041","img/neutralC/CFD-WF-214-122-N.jpg","1","s","1.44719719979912",1,7,0,2,0
"250041","img/neutralC/CFD-WM-232-070-N.jpg","1","k","1.26174170011654",1,7,0,2,0
"250041","img/neutralC/CFD-AM-249-163-N.jpg","1","k","1.39607020001858",1,7,0,2,0
"250041","img/neutralC/CFD-WF-009-001-N.jpg","0","s","1.16504730004817",1,7,0,2,0
"250041","img/neutralC/CFD-WF-248-129-N.jpg","0","k","1.77147880010307",1,7,0,2,0
"250041","img/neutralC/CFD-BM-211-174-N.jpg","0","s","1.46450449991971",1,7,0,2,0
"250041","img/neutralC/CFD-MF-316-001-N.jpg","0","s","1.45794199989177",1,7,0,2,0
"250041","img/neutralC/CFD-MF-342-022-N.jpg","0","s","1.22769160009921",1,7,0,2,0
"250041","img/neutralC/CFD-WM-025-002-N.jpg","1","k","1.0100012999028",1,7,0,2,0
"250041","img/neutralC/CFD-IM-648-337-N.jpg","1","s","0.791036899900064",1,7,0,2,0
"250041","img/neutralC/CFD-WM-026-001-N.jpg","0","k","0.796136100078002",1,7,0,2,0
"250041","img/neutralC/CFD-IM-727-195-N.jpg","0","s","0.873173800064251",1,7,0,2,0
"250041","img/neutralC/CFD-AM-201-076-N.jpg","1","k","1.77532680006698",1,7,0,2,0
"250041","img/neutralC/CFD-IF-729-393-N.jpg","1","s","1.04185999999754",1,7,0,2,0
"250041","img/neutralC/CFD-AM-217-085-N.jpg","1","s","2.00126589997672",1,8,0,2,0
"250041","img/neutralC/CFD-BF-036-027-N.jpg","1","k","1.7761403999757",1,8,0,2,0
"250041","img/neutralC/CFD-WM-201-063-N.jpg","1","k","1.17998400004581",1,8,0,2,0
"250041","img/neutralC/CFD-MF-359-019-N.jpg","0","s","1.32288410002366",1,8,0,2,0
"250041","img/neutralC/CFD-LM-228-188-N.jpg","1","k","0.862178099807352",1,8,0,2,0
"250041","img/neutralC/CFD-BF-040-003-N.jpg","1","s","1.88256629998796",1,8,0,2,0
"250041","img/neutralC/CFD-WF-022-017-N.jpg","1","k","1.24442609981634",1,8,0,2,0
"250041","img/neutralC/CFD-BF-247-179-N.jpg","1","s","1.54363510012627",1,8,0,2,0
"250041","img/neutralC/CFD-BM-205-001-N.jpg","1","s","1.59745529992506",1,8,0,2,0
"250041","img/neutralC/CFD-BF-244-231-N.jpg","1","s","2.78121829987504",1,8,0,2,0
"250041","img/neutralC/CFD-LF-215-157-N.jpg","1","s","1.00773370009847",1,8,0,2,0
"250041","img/neutralC/CFD-IM-728-041-N.jpg","1","k","0.899236399913207",1,8,0,2,0
"250041","img/neutralC/CFD-BF-204-189-N.jpg","1","s","2.20513030001894",1,8,0,2,0
"250041","img/neutralC/CFD-WF-217-085-N.jpg","1","k","1.29427559999749",1,8,0,2,0
"250041","img/neutralC/CFD-MF-352-054-N.jpg","0","s","1.27814109995961",1,8,0,2,0
"250041","img/neutralC/CFD-BM-041-035-N.jpg","0","s","1.49075530003756",1,8,0,2,0
"250041","img/neutralC/CFD-IM-726-248-N.jpg","1","s","1.46339269983582",1,8,0,2,0
"250041","img/neutralC/CFD-LM-240-013-N.jpg","0","s","0.99691759981215",1,8,0,2,0
"250041","img/neutralC/CFD-IF-626-375-N.jpg","1","k","1.2726445000153",1,8,0,2,0
"250041","img/neutralC/CFD-WF-017-003-N.jpg","1","s","1.3405696998816",1,8,0,2,0
"250041","img/neutralC/CFD-BF-023-010-N.jpg","1","k","1.73153850017115",1,8,0,2,0
"250041","img/neutralC/CFD-LF-216-121-N.jpg","1","s","1.36502150003798",1,8,0,2,0
"250041","img/neutralC/CFD-IF-636-011-N.jpg","1","s","0.861630599945784",1,8,0,2,0
"250041","img/neutralC/CFD-BF-011-002-N.jpg","0","k","3.98986770003103",1,8,0,2,0
"250041","img/neutralC/CFD-BF-229-179-N.jpg","1","s","1.49213790008798",1,8,0,2,0
"250041","img/neutralC/CFD-WM-218-074-N.jpg","0","k","1.83204620005563",1,8,0,2,0
"250041","img/neutralC/CFD-WM-235-147-N.jpg","1","s","2.03022890002467",1,8,0,2,0
"250041","img/neutralC/CFD-WM-011-002-N.jpg","0","s","0.988100999966264",1,8,0,2,0
"250041","img/neutralC/CFD-AF-234-208-N.jpg","1","k","1.63952010008506",1,8,0,2,0
"250041","img/neutralC/CFD-LF-201-035-N.jpg","1","s","1.35472069983371",1,8,0,2,0
"250041","img/neutralC/CFD-MF-333-012-N.jpg","1","k","5.79874050011858",1,8,0,2,0
"250041","img/neutralC/CFD-IF-619-197-N.jpg","0","s","1.03359930007719",1,8,0,2,0
"250041","img/neutralC/CFD-AF-231-357-N.jpg","1","s","2.33995980001055",1,8,0,2,0
"250041","img/neutralC/CFD-IF-623-129-N.jpg","0","s","2.53546639997512",1,8,0,2,0
"250041","img/neutralC/CFD-BM-231-155-N.jpg","0","k","1.58547209994867",1,8,0,2,0
"250041","img/neutralC/CFD-WF-212-050-N.jpg","1","k","1.05191019992344",1,8,0,2,0
"250041","img/neutralC/CFD-WM-013-001-N.jpg","1","s","2.2815937998239",1,8,0,2,0
"250041","img/neutralC/CFD-LM-201-057-N.jpg","1","s","2.79741270001978",1,8,0,2,0
"250041","img/neutralC/CFD-IM-686-097-N.jpg","0","k","1.19587799999863",1,8,0,2,0
"250041","img/neutralC/CFD-MM-324-069-N.jpg","1","s","1.4531698001083",1,8,0,2,0
"250041","img/neutralC/CFD-BF-235-168-N.jpg","0","k","3.16547250002623",1,8,0,2,0
"250041","img/neutralC/CFD-BM-028-002-N.jpg","1","s","2.86050259997137",1,8,0,2,0
"250041","img/neutralC/CFD-BF-228-212-N.jpg","0","s","1.33632129989564",1,8,0,2,0
"250041","img/neutralC/CFD-BM-043-071-N.jpg","0","k","1.56289160018787",1,8,0,2,0
"250041","img/neutralC/CFD-IM-678-482-N.jpg","1","k","1.30545809981413",1,8,0,2,0
"250041","img/neutralC/CFD-MM-317-061-N.jpg","0","k","1.46458879997954",1,8,0,2,0
"250041","img/neutralC/CFD-AM-215-120-N.jpg","1","s","2.10117869987153",1,8,0,2,0
"250041","img/neutralC/CFD-IM-645-001-N.jpg","1","s","1.27716030017473",1,8,0,2,0
