"participant_id","face","surpAcc","memory_surp_responses","memory_surp_rt","keep_surp_memory_trial_based_on_rt","surp_block_num","exclude_block","number_of_surp_resp_items_used","num_blocks_excluded"
"250062","img/neutralC/CFD-WF-001-003-N.jpg","1","k","4.52542870002799",1,1,0,2,0
"250062","img/neutralC/CFD-WF-244-163-N.jpg","0","k","5.96743019996211",1,1,0,2,0
"250062","img/neutralC/CFD-MF-300-002-N.jpg","1","k","3.09194339998066",1,1,0,2,0
"250062","img/neutralC/CFD-LF-225-164-N.jpg","0","k","4.59235280007124",1,1,0,2,0
"250062","img/neutralC/CFD-WM-033-025-N.jpg","1","k","1.60663809999824",1,1,0,2,0
"250062","img/neutralC/CFD-MF-305-014-N.jpg","1","s","2.51691120001487",1,1,0,2,0
"250062","img/neutralC/CFD-IM-700-009-N.jpg","1","s","1.31894879997708",1,1,0,2,0
"250062","img/neutralC/CFD-WF-030-002-N.jpg","0","s","2.15889850002714",1,1,0,2,0
"250062","img/neutralC/CFD-BM-020-001-N.jpg","1","s","2.56117160001304",1,1,0,2,0
"250062","img/neutralC/CFD-BM-009-002-N.jpg","0","s","1.30303909990471",1,1,0,2,0
"250062","img/neutralC/CFD-BF-012-001-N.jpg","0","s","1.56611510005314",1,1,0,2,0
"250062","img/neutralC/CFD-IM-707-105-N.jpg","1","s","1.08566320000682",1,1,0,2,0
"250062","img/neutralC/CFD-BF-205-141-N.jpg","0","k","2.29218390001915",1,1,0,2,0
"250062","img/neutralC/CFD-IM-657-308-N.jpg","1","s","0.906560200033709",1,1,0,2,0
"250062","img/neutralC/CFD-BM-004-002-N.jpg","1","s","1.15837770001963",1,1,0,2,0
"250062","img/neutralC/CFD-WM-028-003-N.jpg","1","k","1.37089370004833",1,1,0,2,0
"250062","img/neutralC/CFD-WM-212-097-N.jpg","1","s","1.31382849998772",1,1,0,2,0
"250062","img/neutralC/CFD-WF-250-167-N.jpg","0","k","1.99132180004381",1,1,0,2,0
"250062","img/neutralC/CFD-BM-227-191-N.jpg","1","s","1.0585763999261",1,1,0,2,0
"250062","img/neutralC/CFD-WM-227-099-N.jpg","0","k","1.06746669998392",1,1,0,2,0
"250062","img/neutralC/CFD-IM-674-281-N.jpg","1","k","1.98351129994262",1,1,0,2,0
"250062","img/neutralC/CFD-WF-233-112-N.jpg","0","s","2.35527439997531",1,1,0,2,0
"250062","img/neutralC/CFD-MM-304-002-N.jpg","1","s","2.14243989996612",1,1,0,2,0
"250062","img/neutralC/CFD-LF-204-133-N.jpg","0","s","1.37868710001931",1,1,0,2,0
"250062","img/neutralC/CFD-WM-004-010-N.jpg","0","s","1.17534309998155",1,1,0,2,0
"250062","img/neutralC/CFD-IM-671-601-N.jpg","1","s","1.10305789997801",1,1,0,2,0
"250062","img/neutralC/CFD-IM-617-174-N.jpg","1","s","1.29224610002711",1,1,0,2,0
"250062","img/neutralC/CFD-AM-219-101-N.jpg","0","k","1.34495049994439",1,1,0,2,0
"250062","img/neutralC/CFD-WM-012-001-N.jpg","0","k","2.89408190001268",1,1,0,2,0
"250062","img/neutralC/CFD-WM-215-041-N.jpg","1","s","2.05706709995866",1,1,0,2,0
"250062","img/neutralC/CFD-LM-247-095-N.jpg","1","k","5.297520800028",1,1,0,2,0
"250062","img/neutralC/CFD-AF-253-130-N.jpg","0","k","1.54627789999358",1,1,0,2,0
"250062","img/neutralC/CFD-WM-020-001-N.jpg","1","s","3.0913947999943",1,1,0,2,0
"250062","img/neutralC/CFD-WM-023-001-N.jpg","1","s","3.42563940002583",1,1,0,2,0
"250062","img/neutralC/CFD-BM-213-134-N.jpg","1","s","2.40506710007321",1,1,0,2,0
"250062","img/neutralC/CFD-AF-246-242-N.jpg","1","k","1.31703849998303",1,1,0,2,0
"250062","img/neutralC/CFD-WM-034-030-N.jpg","1","s","1.31635719991755",1,1,0,2,0
"250062","img/neutralC/CFD-IF-660-464-N.jpg","0","s","2.92662269994617",1,1,0,2,0
"250062","img/neutralC/CFD-IF-744-114-N.jpg","1","s","1.53725019993726",1,1,0,2,0
"250062","img/neutralC/CFD-BM-253-004-N.jpg","0","k","3.69622529996559",1,1,0,2,0
"250062","img/neutralC/CFD-AM-233-236-N.jpg","1","k","2.00566169992089",1,1,0,2,0
"250062","img/neutralC/CFD-BM-238-242-N.jpg","1","k","1.63875719998032",1,1,0,2,0
"250062","img/neutralC/CFD-WF-213-031-N.jpg","0","s","3.44239229999948",1,1,0,2,0
"250062","img/neutralC/CFD-LF-245-166-N.jpg","0","s","4.75762789999135",1,1,0,2,0
"250062","img/neutralC/CFD-BM-239-136-N.jpg","0","k","3.37696529994719",1,1,0,2,0
"250062","img/neutralC/CFD-WF-234-086-N.jpg","1","k","4.18016800004989",1,1,0,2,0
"250062","img/neutralC/CFD-IM-632-097-N.jpg","1","k","3.84848169994075",1,1,0,2,0
"250062","img/neutralC/CFD-MF-307-002-N.jpg","1","s","12.6131022000918",1,1,0,2,0
"250062","img/neutralC/CFD-WF-208-068-N.jpg","0","k","4.98623239994049",1,2,0,2,0
"250062","img/neutralC/CFD-WM-219-008-N.jpg","0","s","1.80216780002229",1,2,0,2,0
"250062","img/neutralC/CFD-BF-044-034-N.jpg","1","s","4.03572380007245",1,2,0,2,0
"250062","img/neutralC/CFD-IF-693-172-N.jpg","0","k","7.85121540003456",1,2,0,2,0
"250062","img/neutralC/CFD-WM-015-002-N.jpg","1","s","2.04292729997542",1,2,0,2,0
"250062","img/neutralC/CFD-MM-319-052-N.jpg","1","k","2.21382379997522",1,2,0,2,0
"250062","img/neutralC/CFD-MM-306-010-N.jpg","1","s","1.39581160002854",1,2,0,2,0
"250062","img/neutralC/CFD-IF-718-001-N.jpg","1","k","1.46277580002788",1,2,0,2,0
"250062","img/neutralC/CFD-WF-023-003-N.jpg","1","k","3.95144710002933",1,2,0,2,0
"250062","img/neutralC/CFD-WM-248-036-N.jpg","0","s","1.57337979995646",1,2,0,2,0
"250062","img/neutralC/CFD-IF-710-016-N.jpg","0","s","9.59943089995068",1,2,0,2,0
"250062","img/neutralC/CFD-IF-665-015-N.jpg","1","k","1.81059790006839",1,2,0,2,0
"250062","img/neutralC/CFD-WM-019-003-N.jpg","1","s","2.68439409998246",1,2,0,2,0
"250062","img/neutralC/CFD-WM-017-002-N.jpg","0","s","6.36151660000905",1,2,0,2,0
"250062","img/neutralC/CFD-LM-213-061-N.jpg","1","s","7.14685520005878",1,2,0,2,0
"250062","img/neutralC/CFD-BF-218-207-N.jpg","0","s","20.2274059000192",1,2,0,2,0
"250062","img/neutralC/CFD-LM-237-264-N.jpg","0","k","2.05694919999223",1,2,0,2,0
"250062","img/neutralC/CFD-WM-228-065-N.jpg","0","k","4.13686309999321",1,2,0,2,0
"250062","img/neutralC/CFD-IM-669-111-N.jpg","1","k","2.09959060000256",1,2,0,2,0
"250062","img/neutralC/CFD-BF-051-035-N.jpg","1","s","2.46481829998083",1,2,0,2,0
"250062","img/neutralC/CFD-MF-313-002-N.jpg","1","k","6.02809899998829",1,2,0,2,0
"250062","img/neutralC/CFD-BM-003-003-N.jpg","1","k","2.16545099997893",1,2,0,2,0
"250062","img/neutralC/CFD-BM-026-002-N.jpg","1","s","1.44192539993674",1,2,0,2,0
"250062","img/neutralC/CFD-LF-224-176-N.jpg","0","k","3.02163000009023",1,2,0,2,0
"250062","img/neutralC/CFD-WM-009-002-N.jpg","1","s","2.28206789994147",1,2,0,2,0
"250062","img/neutralC/CFD-IM-651-308-N.jpg","1","s","2.34209949988872",1,2,0,2,0
"250062","img/neutralC/CFD-BM-015-015-N.jpg","0","k","6.03801500005648",1,2,0,2,0
"250062","img/neutralC/CFD-WM-242-011-N.jpg","1","s","4.6829604000086",1,2,0,2,0
"250062","img/neutralC/CFD-WF-033-002-N.jpg","0","s","3.60546909994446",1,2,0,2,0
"250062","img/neutralC/CFD-BM-217-082-N.jpg","1","k","8.80093319993466",1,2,0,2,0
"250062","img/neutralC/CFD-LM-241-125-N.jpg","1","s","3.0926326001063",1,2,0,2,0
"250062","img/neutralC/CFD-AF-250-200-N.jpg","1","s","1.75118780008052",1,2,0,2,0
"250062","img/neutralC/CFD-IF-634-382-N.jpg","1","s","1.65581189992372",1,2,0,2,0
"250062","img/neutralC/CFD-IM-627-178-N.jpg","0","s","4.10989510000218",1,2,0,2,0
"250062","img/neutralC/CFD-IF-672-305-N.jpg","1","s","2.23946489999071",1,2,0,2,0
"250062","img/neutralC/CFD-AF-239-171-N.jpg","1","k","3.25692730001174",1,2,0,2,0
"250062","img/neutralC/CFD-BM-036-003-N.jpg","0","s","2.7841581000248",1,2,0,2,0
"250062","img/neutralC/CFD-MF-321-003-N.jpg","1","k","8.24305990000721",1,2,0,2,0
"250062","img/neutralC/CFD-IM-667-369-N.jpg","1","s","2.49783720006235",1,2,0,2,0
"250062","img/neutralC/CFD-BM-023-029-N.jpg","1","k","4.01558419992216",1,2,0,2,0
"250062","img/neutralC/CFD-BM-207-024-N.jpg","1","s","2.89017030003015",1,2,0,2,0
"250062","img/neutralC/CFD-WF-200-099-N.jpg","0","s","6.61771000002045",1,2,0,2,0
"250062","img/neutralC/CFD-IM-689-263-N.jpg","1","k","2.32474660000298",1,2,0,2,0
"250062","img/neutralC/CFD-WF-240-083-N.jpg","0","k","10.0584030000027",1,2,0,2,0
"250062","img/neutralC/CFD-BM-030-003-N.jpg","1","k","5.14409179997165",1,2,0,2,0
"250062","img/neutralC/CFD-AM-211-052-N.jpg","0","k","3.08736340003088",1,2,0,2,0
"250062","img/neutralC/CFD-IM-664-651-N.jpg","1","s","4.04863800003659",1,2,0,2,0
"250062","img/neutralC/CFD-BF-043-003-N.jpg","1","s","2.05290000000969",1,2,0,2,0
"250062","img/neutralC/CFD-IM-659-359-N.jpg","1","k","3.21841299999505",1,3,0,2,0
"250062","img/neutralC/CFD-WM-014-002-N.jpg","1","s","1.9851345999632",1,3,0,2,0
"250062","img/neutralC/CFD-BF-018-039-N.jpg","1","s","6.05233819992281",1,3,0,2,0
"250062","img/neutralC/CFD-BF-045-003-N.jpg","0","s","2.88245659996755",1,3,0,2,0
"250062","img/neutralC/CFD-WF-036-023-N.jpg","1","k","2.51120499998797",1,3,0,2,0
"250062","img/neutralC/CFD-LF-206-078-N.jpg","0","k","6.53155590000097",1,3,0,2,0
"250062","img/neutralC/CFD-MM-321-021-N.jpg","1","k","2.76713779999409",1,3,0,2,0
"250062","img/neutralC/CFD-BF-025-002-N.jpg","1","k","3.18818449997343",1,3,0,2,0
"250062","img/neutralC/CFD-AF-213-126-N.jpg","0","s","2.05067580007017",1,3,0,2,0
"250062","img/neutralC/CFD-LM-204-001-N.jpg","1","s","1.71430630004033",1,3,0,2,0
"250062","img/neutralC/CFD-LF-255-088-N.jpg","0","s","1.74719080002978",1,3,0,2,0
"250062","img/neutralC/CFD-WF-008-002-N.jpg","1","s","1.89952380000614",1,3,0,2,0
"250062","img/neutralC/CFD-BM-039-029-N.jpg","0","s","7.27106429997366",1,3,0,2,0
"250062","img/neutralC/CFD-BM-251-013-N.jpg","1","s","6.95749060006347",1,3,0,2,0
"250062","img/neutralC/CFD-WM-038-003-N.jpg","1","k","1.89991989999544",1,3,0,2,0
"250062","img/neutralC/CFD-IF-677-452-1-N.jpg","1","s","4.38202859996818",1,3,0,2,0
"250062","img/neutralC/CFD-LF-241-188-N.jpg","0","k","6.06273989996407",1,3,0,2,0
"250062","img/neutralC/CFD-BF-208-266-N.jpg","1","s","4.65941560000647",1,3,0,2,0
"250062","img/neutralC/CFD-AM-212-050-N.jpg","1","s","4.67930700001307",1,3,0,2,0
"250062","img/neutralC/CFD-IM-680-369-N.jpg","0","s","8.4887348000193",1,3,0,2,0
"250062","img/neutralC/CFD-AF-227-207-N.jpg","1","s","2.35644789994694",1,3,0,2,0
"250062","img/neutralC/CFD-BF-027-002-N.jpg","0","s","6.14371800003573",1,3,0,2,0
"250062","img/neutralC/CFD-AF-244-168-N.jpg","1","k","1.31359570007771",1,3,0,2,0
"250062","img/neutralC/CFD-AM-225-102-N.jpg","0","s","3.40126930002589",1,3,0,2,0
"250062","img/neutralC/CFD-WM-202-107-N.jpg","1","k","2.23216969997156",1,3,0,2,0
"250062","img/neutralC/CFD-BF-255-140-N.jpg","1","k","5.02749729994684",1,3,0,2,0
"250062","img/neutralC/CFD-BM-005-003-N.jpg","1","k","1.75045029993635",1,3,0,2,0
"250062","img/neutralC/CFD-MM-316-156-N.jpg","1","s","2.98505060002208",1,3,0,2,0
"250062","img/neutralC/CFD-LM-216-082-N.jpg","1","s","2.58830079995096",1,3,0,2,0
"250062","img/neutralC/CFD-IM-639-263-N.jpg","0","s","3.50188180000987",1,3,0,2,0
"250062","img/neutralC/CFD-BF-003-003-N.jpg","0","s","4.06442509999033",1,3,0,2,0
"250062","img/neutralC/CFD-LM-217-162-N.jpg","1","s","5.17933379998431",1,3,0,2,0
"250062","img/neutralC/CFD-IF-673-389-N.jpg","1","s","3.89503799995873",1,3,0,2,0
"250062","img/neutralC/CFD-WM-255-219-N.jpg","0","k","3.6787751999218",1,3,0,2,0
"250062","img/neutralC/CFD-BF-038-037-N.jpg","0","s","3.55806779989507",1,3,0,2,0
"250062","img/neutralC/CFD-AM-251-124-N.jpg","1","s","3.58232459996361",1,3,0,2,0
"250062","img/neutralC/CFD-BF-238-190-N.jpg","0","s","1.62353139999323",1,3,0,2,0
"250062","img/neutralC/CFD-IM-701-312-N.jpg","0","s","7.12054400006309",1,3,0,2,0
"250062","img/neutralC/CFD-WF-026-002-N.jpg","1","s","3.3267627999885",1,3,0,2,0
"250062","img/neutralC/CFD-WM-258-125-N.jpg","0","k","4.92361040005926",1,3,0,2,0
"250062","img/neutralC/CFD-WM-254-152-N.jpg","1","k","2.86885640001856",1,3,0,2,0
"250062","img/neutralC/CFD-AF-232-078-N.jpg","0","k","4.82856530009303",1,3,0,2,0
"250062","img/neutralC/CFD-AM-242-176-N.jpg","1","s","6.48245969996788",1,3,0,2,0
"250062","img/neutralC/CFD-BF-033-028-N.jpg","0","k","2.09318620001432",1,3,0,2,0
"250062","img/neutralC/CFD-BF-004-014-N.jpg","0","k","3.38523939996958",1,3,0,2,0
"250062","img/neutralC/CFD-WM-209-038-N.jpg","1","k","1.35680270008743",1,3,0,2,0
"250062","img/neutralC/CFD-IM-738-191-N.jpg","1","k","3.08638529991731",1,3,0,2,0
"250062","img/neutralC/CFD-WM-213-076-N.jpg","1","s","2.03034940001089",1,3,0,2,0
"250062","img/neutralC/CFD-LF-222-147-N.jpg","1","s","2.8693621000275",1,4,0,2,0
"250062","img/neutralC/CFD-BM-247-240-N.jpg","1","k","2.9046132999938",1,4,0,2,0
"250062","img/neutralC/CFD-LF-208-127-N.jpg","1","s","1.96039669995662",1,4,0,2,0
"250062","img/neutralC/CFD-WF-209-052-N.jpg","1","k","2.29009899997618",1,4,0,2,0
"250062","img/neutralC/CFD-MF-335-002-N.jpg","1","k","4.78898339997977",1,4,0,2,0
"250062","img/neutralC/CFD-AM-245-111-N.jpg","1","s","4.54839399992488",1,4,0,2,0
"250062","img/neutralC/CFD-LF-212-066-N.jpg","1","k","1.72295030008536",1,4,0,2,0
"250062","img/neutralC/CFD-LM-226-175-N.jpg","1","s","2.55622830009088",1,4,0,2,0
"250062","img/neutralC/CFD-BF-232-187-N.jpg","0","s","4.21311360003892",1,4,0,2,0
"250062","img/neutralC/CFD-AF-221-147-N.jpg","0","s","3.37222750007641",1,4,0,2,0
"250062","img/neutralC/CFD-BM-018-001-N.jpg","1","s","3.30028900003526",1,4,0,2,0
"250062","img/neutralC/CFD-WF-238-023-N.jpg","1","s","2.34697120008059",1,4,0,2,0
"250062","img/neutralC/CFD-MF-301-024-N.jpg","1","s","7.77002999989782",1,4,0,2,0
"250062","img/neutralC/CFD-BF-010-001-N.jpg","1","s","11.9123563000467",1,4,0,2,0
"250062","img/neutralC/CFD-WM-024-015-N.jpg","1","k","3.23608219996095",1,4,0,2,0
"250062","img/neutralC/CFD-BF-002-001-N.jpg","1","k","1.80759250000119",1,4,0,2,0
"250062","img/neutralC/CFD-LF-214-090-N.jpg","1","k","1.94702349998988",1,4,0,2,0
"250062","img/neutralC/CFD-WM-006-002-N.jpg","0","s","7.90929159999359",1,4,0,2,0
"250062","img/neutralC/CFD-BF-028-001-N.jpg","1","s","1.35887200001162",1,4,0,2,0
"250062","img/neutralC/CFD-WF-235-121-N.jpg","0","s","4.88123719999567",1,4,0,2,0
"250062","img/neutralC/CFD-MF-309-002-N.jpg","1","s","2.36477519990876",1,4,0,2,0
"250062","img/neutralC/CFD-IM-675-015-N.jpg","0","s","6.63453179993667",1,4,0,2,0
"250062","img/neutralC/CFD-IM-696-001-N.jpg","0","k","5.22216669993941",1,4,0,2,0
"250062","img/neutralC/CFD-AM-247-165-N.jpg","0","k","1.95893459999934",1,4,0,2,0
"250062","img/neutralC/CFD-AM-235-241-N.jpg","0","k","6.87023270002101",1,4,0,2,0
"250062","img/neutralC/CFD-MF-318-022-N.jpg","1","k","3.16857900004834",1,4,0,2,0
"250062","img/neutralC/CFD-LM-218-183-N.jpg","1","s","2.56650140008423",1,4,0,2,0
"250062","img/neutralC/CFD-LM-200-045-N.jpg","1","s","9.78325340000447",1,4,0,2,0
"250062","img/neutralC/CFD-BM-013-002-N.jpg","0","s","2.07047800009604",1,4,0,2,0
"250062","img/neutralC/CFD-LM-238-129-N.jpg","1","k","2.00622639991343",1,4,0,2,0
"250062","img/neutralC/CFD-WF-007-001-N.jpg","1","k","3.86390840006061",1,4,0,2,0
"250062","img/neutralC/CFD-AF-215-70-N.jpg","1","k","2.81889009999577",1,4,0,2,0
"250062","img/neutralC/CFD-BF-226-119-N.jpg","0","s","1.5668690999737",1,4,0,2,0
"250062","img/neutralC/CFD-AM-230-150-N.jpg","1","s","4.6598868999863",1,4,0,2,0
"250062","img/neutralC/CFD-WF-006-002-N.jpg","0","s","1.49375270004384",1,4,0,2,0
"250062","img/neutralC/CFD-IM-703-182-N.jpg","1","k","2.63014699995983",1,4,0,2,0
"250062","img/neutralC/CFD-WM-018-002-N.jpg","1","k","5.40711690008175",1,4,0,2,0
"250062","img/neutralC/CFD-WM-253-119-N.jpg","0","k","2.38067029998638",1,4,0,2,0
"250062","img/neutralC/CFD-AF-237-223-N.jpg","1","s","1.49521980003919",1,4,0,2,0
"250062","img/neutralC/CFD-BM-001-014-N.jpg","1","s","1.34228300000541",1,4,0,2,0
"250062","img/neutralC/CFD-AF-229-160-N.jpg","1","s","2.09610460000113",1,4,0,2,0
"250062","img/neutralC/CFD-BF-020-002-N.jpg","1","k","5.18210600002203",1,4,0,2,0
"250062","img/neutralC/CFD-WF-226-095-N.jpg","1","s","2.25634259998333",1,4,0,2,0
"250062","img/neutralC/CFD-BM-250-170-N.jpg","0","k","2.77150419994723",1,4,0,2,0
"250062","img/neutralC/CFD-BF-212-315-N.jpg","0","k","3.759286699933",1,4,0,2,0
"250062","img/neutralC/CFD-LM-243-075-N.jpg","1","k","5.3842663000105",1,4,0,2,0
"250062","img/neutralC/CFD-BF-039-031-N.jpg","0","s","3.29366780002601",1,4,0,2,0
"250062","img/neutralC/CFD-LM-219-295-N.jpg","1","s","1.96805550006684",1,4,0,2,0
"250062","img/neutralC/CFD-AF-205-155-N.jpg","1","k","2.5808481000131",1,5,0,2,0
"250062","img/neutralC/CFD-WF-228-196-N.jpg","0","k","1.59441119991243",1,5,0,2,0
"250062","img/neutralC/CFD-WM-221-091-N.jpg","1","k","1.55194290005602",1,5,0,2,0
"250062","img/neutralC/CFD-LF-242-121-N.jpg","0","s","1.74759229994379",1,5,0,2,0
"250062","img/neutralC/CFD-AM-221-184-N.jpg","1","k","3.78867729997728",1,5,0,2,0
"250062","img/neutralC/CFD-LM-244-068-N.jpg","1","s","1.58652150002308",1,5,0,2,0
"250062","img/neutralC/CFD-AM-220-134-N.jpg","1","k","3.5689207999967",1,5,0,2,0
"250062","img/neutralC/CFD-BF-014-002-N.jpg","1","k","4.05554480000865",1,5,0,2,0
"250062","img/neutralC/CFD-WF-245-084-N.jpg","1","s","1.62244649999775",1,5,0,2,0
"250062","img/neutralC/CFD-BM-027-001-N.jpg","1","k","8.95752840000205",1,5,0,2,0
"250062","img/neutralC/CFD-WM-225-127-N.jpg","1","s","2.06964020000305",1,5,0,2,0
"250062","img/neutralC/CFD-BM-010-003-N.jpg","1","k","3.45958919997793",1,5,0,2,0
"250062","img/neutralC/CFD-IM-606-008-N.jpg","1","k","2.61302759998944",1,5,0,2,0
"250062","img/neutralC/CFD-IM-743-006-N.jpg","1","s","3.70359599997755",1,5,0,2,0
"250062","img/neutralC/CFD-BF-237-172-N.jpg","0","s","1.87923739990219",1,5,0,2,0
"250062","img/neutralC/CFD-WF-207-014-N.jpg","1","s","4.18569269997533",1,5,0,2,0
"250062","img/neutralC/CFD-BF-041-001-N.jpg","1","s","1.97009439999238",1,5,0,2,0
"250062","img/neutralC/CFD-IM-635-010-N.jpg","0","k","1.94840069999918",1,5,0,2,0
"250062","img/neutralC/CFD-LM-252-076-N.jpg","1","s","1.66463610006031",1,5,0,2,0
"250062","img/neutralC/CFD-WF-029-002-N.jpg","1","s","3.21565190004185",1,5,0,2,0
"250062","img/neutralC/CFD-BM-029-024-N.jpg","1","s","2.04872249998152",1,5,0,2,0
"250062","img/neutralC/CFD-WF-027-003-N.jpg","1","s","2.04893679998349",1,5,0,2,0
"250062","img/neutralC/CFD-AF-254-167-N.jpg","1","s","1.67291730002034",1,5,0,2,0
"250062","img/neutralC/CFD-BF-201-080-N.jpg","1","k","4.31645429995842",1,5,0,2,0
"250062","img/neutralC/CFD-AM-236-090-N.jpg","0","s","3.65302079997491",1,5,0,2,0
"250062","img/neutralC/CFD-WM-021-001-N.jpg","1","s","4.52806379995309",1,5,0,2,0
"250062","img/neutralC/CFD-WF-005-010-N.jpg","1","k","2.91947199997958",1,5,0,2,0
"250062","img/neutralC/CFD-WF-243-148-N.jpg","1","s","9.80913029995281",1,5,0,2,0
"250062","img/neutralC/CFD-IF-642-295-N.jpg","1","s","1.91335590009112",1,5,0,2,0
"250062","img/neutralC/CFD-MF-340-026-N.jpg","1","k","1.29539000010118",1,5,0,2,0
"250062","img/neutralC/CFD-WM-249-239-N.jpg","1","s","1.45623280003201",1,5,0,2,0
"250062","img/neutralC/CFD-IM-638-250-1-N.jpg","0","s","1.62419879995286",1,5,0,2,0
"250062","img/neutralC/CFD-IM-684-008-N.jpg","1","k","1.55030829994939",1,5,0,2,0
"250062","img/neutralC/CFD-MF-336-016-N.jpg","1","s","1.43640829995275",1,5,0,2,0
"250062","img/neutralC/CFD-WF-224-099-N.jpg","1","k","9.65632120007649",1,5,0,2,0
"250062","img/neutralC/CFD-IF-625-225-N.jpg","1","s","1.45217290008441",1,5,0,2,0
"250062","img/neutralC/CFD-AF-240-206-N.jpg","1","k","1.4847169999266",1,5,0,2,0
"250062","img/neutralC/CFD-BF-236-177-N.jpg","1","s","0.993631700053811",1,5,0,2,0
"250062","img/neutralC/CFD-LF-211-003-N.jpg","0","k","2.18972239992581",1,5,0,2,0
"250062","img/neutralC/CFD-MF-328-020-N.jpg","1","s","1.57229810010176",1,5,0,2,0
"250062","img/neutralC/CFD-BF-217-189-N.jpg","0","s","3.23904410004616",1,5,0,2,0
"250062","img/neutralC/CFD-LF-203-066-N.jpg","1","s","8.70331150002312",1,5,0,2,0
"250062","img/neutralC/CFD-WF-002-004-N.jpg","1","k","3.71640910010319",1,5,0,2,0
"250062","img/neutralC/CFD-BF-207-004-N.jpg","1","k","2.59069930005353",1,5,0,2,0
"250062","img/neutralC/CFD-LF-239-148-N.jpg","1","k","2.58918600005563",1,5,0,2,0
"250062","img/neutralC/CFD-BF-202-109-N.jpg","0","k","2.89525090006646",1,5,0,2,0
"250062","img/neutralC/CFD-WF-221-005-N.jpg","1","k","10.1710254999343",1,5,0,2,0
"250062","img/neutralC/CFD-AF-233-190-N.jpg","1","s","1.65351590001956",1,5,0,2,0
"250062","img/neutralC/CFD-BF-214-308-N.jpg","1","k","1.94242249999661",1,6,0,2,0
"250062","img/neutralC/CFD-LF-250-169-N.jpg","1","s","2.32986689999234",1,6,0,2,0
"250062","img/neutralC/CFD-WF-018-017-N.jpg","0","s","3.30163060000632",1,6,0,2,0
"250062","img/neutralC/CFD-IF-629-234-N.jpg","1","k","2.41688359994441",1,6,0,2,0
"250062","img/neutralC/CFD-MF-302-027-N.jpg","1","s","2.29348470002879",1,6,0,2,0
"250062","img/neutralC/CFD-LF-218-072-N.jpg","0","s","1.39145340002142",1,6,0,2,0
"250062","img/neutralC/CFD-LF-247-051-N.jpg","0","s","2.11913609993644",1,6,0,2,0
"250062","img/neutralC/CFD-LF-236-221-N.jpg","1","k","8.00071179994848",1,6,0,2,0
"250062","img/neutralC/CFD-IM-719-221-N.jpg","0","s","2.988092900021",1,6,0,2,0
"250062","img/neutralC/CFD-BM-019-002-N.jpg","1","s","1.32828799996059",1,6,0,2,0
"250062","img/neutralC/CFD-AF-202-122-N.jpg","0","s","2.22324560000561",1,6,0,2,0
"250062","img/neutralC/CFD-LM-253-075-N.jpg","1","s","8.25910550006665",1,6,0,2,0
"250062","img/neutralC/CFD-BM-215-155-N.jpg","0","k","3.3064968000399",1,6,0,2,0
"250062","img/neutralC/CFD-BM-021-021-N.jpg","1","k","2.36023349990137",1,6,0,2,0
"250062","img/neutralC/CFD-WF-222-092-N.jpg","0","s","10.045681699994",1,6,0,2,0
"250062","img/neutralC/CFD-IM-615-167-N.jpg","0","s","3.70729950000532",1,6,0,2,0
"250062","img/neutralC/CFD-WM-237-052-N.jpg","1","k","2.74039599997923",1,6,0,2,0
"250062","img/neutralC/CFD-MF-337-026-N.jpg","1","s","1.65123519999906",1,6,0,2,0
"250062","img/neutralC/CFD-BM-243-218-N.jpg","1","k","1.74782649998087",1,6,0,2,0
"250062","img/neutralC/CFD-IF-608-390-N.jpg","1","k","1.48629220004659",1,6,0,2,0
"250062","img/neutralC/CFD-WM-002-009-N.jpg","1","k","2.28735480003525",1,6,0,2,0
"250062","img/neutralC/CFD-BF-006-017-N.jpg","1","k","2.74664799997117",1,6,0,2,0
"250062","img/neutralC/CFD-BM-241-235-N.jpg","1","s","6.58002170000691",1,6,0,2,0
"250062","img/neutralC/CFD-AF-206-079-N.jpg","1","s","7.3318058999721",1,6,0,2,0
"250062","img/neutralC/CFD-LF-210-220-N.jpg","1","s","6.27886950003449",1,6,0,2,0
"250062","img/neutralC/CFD-BF-254-201-N.jpg","0","s","9.03833260003012",1,6,0,2,0
"250062","img/neutralC/CFD-IM-646-023-N.jpg","0","k","1.67537750001065",1,6,0,2,0
"250062","img/neutralC/CFD-MF-343-001-N.jpg","1","k","1.85939809994306",1,6,0,2,0
"250062","img/neutralC/CFD-LF-238-154-N.jpg","0","s","1.90907389996573",1,6,0,2,0
"250062","img/neutralC/CFD-LM-214-165-N.jpg","1","s","1.93073769996408",1,6,0,2,0
"250062","img/neutralC/CFD-IM-702-101-N.jpg","1","s","3.64496049995068",1,6,0,2,0
"250062","img/neutralC/CFD-WM-041-021-N.jpg","0","k","3.65987390000373",1,6,0,2,0
"250062","img/neutralC/CFD-LF-230-203-N.jpg","1","s","1.77893580007367",1,6,0,2,0
"250062","img/neutralC/CFD-BF-222-240-N.jpg","1","s","2.49916979996487",1,6,0,2,0
"250062","img/neutralC/CFD-BM-225-154-N.jpg","1","k","2.54783830000088",1,6,0,2,0
"250062","img/neutralC/CFD-WF-223-133-N.jpg","1","k","6.41146710002795",1,6,0,2,0
"250062","img/neutralC/CFD-WF-241-210-N.jpg","0","s","4.4507724000141",1,6,0,2,0
"250062","img/neutralC/CFD-LM-215-247-N.jpg","0","s","2.09622369997669",1,6,0,2,0
"250062","img/neutralC/CFD-IM-637-007-N.jpg","0","k","4.96403250005096",1,6,0,2,0
"250062","img/neutralC/CFD-IM-616-214-N.jpg","1","s","4.75677790003829",1,6,0,2,0
"250062","img/neutralC/CFD-AM-244-222-N.jpg","0","k","2.82318880001549",1,6,0,2,0
"250062","img/neutralC/CFD-IM-697-015-N.jpg","0","s","9.8152517999988",1,6,0,2,0
"250062","img/neutralC/CFD-BF-042-026-N.jpg","0","k","1.35964760009665",1,6,0,2,0
"250062","img/neutralC/CFD-IF-676-017-N.jpg","1","k","3.26141709997319",1,6,0,2,0
"250062","img/neutralC/CFD-IF-620-218-N.jpg","1","k","8.91524010000285",1,6,0,2,0
"250062","img/neutralC/CFD-BF-253-202-N.jpg","0","k","8.13718229997903",1,6,0,2,0
"250062","img/neutralC/CFD-LM-233-171-N.jpg","1","s","1.82587289996445",1,6,0,2,0
"250062","img/neutralC/CFD-IM-604-014-N.jpg","0","k","1.71751989994664",1,6,0,2,0
"250062","img/neutralC/CFD-LF-220-120-N.jpg","1","k","5.23704240005463",1,7,0,2,0
"250062","img/neutralC/CFD-MF-329-001-N.jpg","0","s","2.0822482999647",1,7,0,2,0
"250062","img/neutralC/CFD-AM-205-153-N.jpg","1","k","1.21976249990985",1,7,0,2,0
"250062","img/neutralC/CFD-IM-727-195-N.jpg","1","s","1.15198840002995",1,7,0,2,0
"250062","img/neutralC/CFD-WF-009-001-N.jpg","0","s","4.19836489995942",1,7,0,2,0
"250062","img/neutralC/CFD-BM-033-003-N.jpg","1","s","1.25046460004523",1,7,0,2,0
"250062","img/neutralC/CFD-IM-706-002-N.jpg","1","s","2.82826570002362",1,7,0,2,0
"250062","img/neutralC/CFD-WF-248-129-N.jpg","0","s","1.88134419999551",1,7,0,2,0
"250062","img/neutralC/CFD-IM-653-008-N.jpg","1","k","1.19860669993795",1,7,0,2,0
"250062","img/neutralC/CFD-AF-210-050-N.jpg","1","s","2.99841620004736",1,7,0,2,0
"250062","img/neutralC/CFD-BF-029-031-N.jpg","1","s","1.82363519992214",1,7,0,2,0
"250062","img/neutralC/CFD-IF-650-315-N.jpg","1","s","1.70075469999574",1,7,0,2,0
"250062","img/neutralC/CFD-WF-012-002-N.jpg","1","s","1.68989569996484",1,7,0,2,0
"250062","img/neutralC/CFD-BM-200-046-N.jpg","1","s","2.74967310007196",1,7,0,2,0
"250062","img/neutralC/CFD-IM-648-337-N.jpg","1","k","2.9574319999665",1,7,0,2,0
"250062","img/neutralC/CFD-BM-212-117-N.jpg","1","k","11.9035616000183",1,7,0,2,0
"250062","img/neutralC/CFD-BF-213-188-N.jpg","1","k","7.0144196000183",1,7,0,2,0
"250062","img/neutralC/CFD-AF-241-141-N.jpg","1","k","2.25614360009786",1,7,0,2,0
"250062","img/neutralC/CFD-IM-709-103-N.jpg","1","s","6.3738919000607",1,7,0,2,0
"250062","img/neutralC/CFD-LM-225-130-N.jpg","0","s","1.63861839997116",1,7,0,2,0
"250062","img/neutralC/CFD-MF-316-001-N.jpg","0","s","1.86332400003448",1,7,0,2,0
"250062","img/neutralC/CFD-MF-327-002-N.jpg","1","k","1.82108669995796",1,7,0,2,0
"250062","img/neutralC/CFD-WM-257-161-N.jpg","1","k","3.55119629995897",1,7,0,2,0
"250062","img/neutralC/CFD-IF-729-393-N.jpg","0","k","2.12845790002029",1,7,0,2,0
"250062","img/neutralC/CFD-BM-248-128-N.jpg","0","k","9.73090640001465",1,7,0,2,0
"250062","img/neutralC/CFD-AM-249-163-N.jpg","1","k","3.08460579998791",1,7,0,2,0
"250062","img/neutralC/CFD-MF-342-022-N.jpg","0","s","3.40760079992469",1,7,0,2,0
"250062","img/neutralC/CFD-IF-732-260-N.jpg","0","s","1.96614029991906",1,7,0,2,0
"250062","img/neutralC/CFD-WM-040-022-N.jpg","1","k","1.65013769990765",1,7,0,2,0
"250062","img/neutralC/CFD-IF-742-103-N.jpg","1","k","5.71600959997158",1,7,0,2,0
"250062","img/neutralC/CFD-LF-226-174-N.jpg","0","s","5.14612550009042",1,7,0,2,0
"250062","img/neutralC/CFD-WM-232-070-N.jpg","1","k","4.1495181999635",1,7,0,2,0
"250062","img/neutralC/CFD-BM-204-003-N.jpg","1","k","1.42590919998474",1,7,0,2,0
"250062","img/neutralC/CFD-AM-201-076-N.jpg","0","s","4.48783180001192",1,7,0,2,0
"250062","img/neutralC/CFD-MF-312-002-N.jpg","1","k","2.77193830010947",1,7,0,2,0
"250062","img/neutralC/CFD-BM-211-174-N.jpg","0","k","3.49406779999845",1,7,0,2,0
"250062","img/neutralC/CFD-BF-224-002-N.jpg","0","s","12.8347272999818",1,7,0,2,0
"250062","img/neutralC/CFD-WF-210-086-N.jpg","0","s","1.59462330001406",1,7,0,2,0
"250062","img/neutralC/CFD-IM-721-341-N.jpg","0","s","1.84011729992926",1,7,0,2,0
"250062","img/neutralC/CFD-LF-205-100-N.jpg","1","k","3.15440670005046",1,7,0,2,0
"250062","img/neutralC/CFD-WM-025-002-N.jpg","1","k","2.06418590003159",1,7,0,2,0
"250062","img/neutralC/CFD-AM-243-212-N.jpg","0","k","7.11609200004023",1,7,0,2,0
"250062","img/neutralC/CFD-BF-206-143-N.jpg","1","k","1.91528750001453",1,7,0,2,0
"250062","img/neutralC/CFD-WM-026-001-N.jpg","0","s","3.67254529998172",1,7,0,2,0
"250062","img/neutralC/CFD-MF-357-002-N.jpg","1","s","4.63521390000824",1,7,0,2,0
"250062","img/neutralC/CFD-IM-685-004-N.jpg","0","k","10.5787612999557",1,7,0,2,0
"250062","img/neutralC/CFD-MF-303-013-N.jpg","0","s","1.29690049996134",1,7,0,2,0
"250062","img/neutralC/CFD-WF-214-122-N.jpg","1","k","3.6320313999895",1,7,0,2,0
"250062","img/neutralC/CFD-IF-619-197-N.jpg","1","s","2.31454200006556",1,8,0,2,0
"250062","img/neutralC/CFD-MF-359-019-N.jpg","0","k","3.45165150007233",1,8,0,2,0
"250062","img/neutralC/CFD-AM-217-085-N.jpg","1","s","1.89625900005922",1,8,0,2,0
"250062","img/neutralC/CFD-BM-205-001-N.jpg","1","k","1.65765559999272",1,8,0,2,0
"250062","img/neutralC/CFD-MM-317-061-N.jpg","1","s","2.70040149998385",1,8,0,2,0
"250062","img/neutralC/CFD-MF-333-012-N.jpg","1","s","1.48177419998683",1,8,0,2,0
"250062","img/neutralC/CFD-LF-215-157-N.jpg","1","k","2.66614989994559",1,8,0,2,0
"250062","img/neutralC/CFD-AF-231-357-N.jpg","1","k","3.97820629994385",1,8,0,2,0
"250062","img/neutralC/CFD-IM-686-097-N.jpg","0","s","4.01894760003779",1,8,0,2,0
"250062","img/neutralC/CFD-IM-728-041-N.jpg","1","k","1.67940730007831",1,8,0,2,0
"250062","img/neutralC/CFD-IF-626-375-N.jpg","0","k","2.22660389996599",1,8,0,2,0
"250062","img/neutralC/CFD-BF-235-168-N.jpg","0","k","2.35401859995909",1,8,0,2,0
"250062","img/neutralC/CFD-BF-011-002-N.jpg","0","s","1.48750259994995",1,8,0,2,0
"250062","img/neutralC/CFD-WM-201-063-N.jpg","1","k","1.56524300004821",1,8,0,2,0
"250062","img/neutralC/CFD-AM-215-120-N.jpg","1","s","1.01548910001293",1,8,0,2,0
"250062","img/neutralC/CFD-WF-212-050-N.jpg","1","k","1.41939510009252",1,8,0,2,0
"250062","img/neutralC/CFD-BF-040-003-N.jpg","0","s","2.08360809995793",1,8,0,2,0
"250062","img/neutralC/CFD-AF-234-208-N.jpg","1","s","1.61191470001359",1,8,0,2,0
"250062","img/neutralC/CFD-WM-011-002-N.jpg","1","s","1.5026773000136",1,8,0,2,0
"250062","img/neutralC/CFD-BM-028-002-N.jpg","0","k","1.68757469998673",1,8,0,2,0
"250062","img/neutralC/CFD-LF-201-035-N.jpg","1","k","3.401909600012",1,8,0,2,0
"250062","img/neutralC/CFD-WM-013-001-N.jpg","1","s","2.2461336000124",1,8,0,2,0
"250062","img/neutralC/CFD-LM-240-013-N.jpg","1","s","3.92498699994758",1,8,0,2,0
"250062","img/neutralC/CFD-MF-352-054-N.jpg","1","s","8.71930390002672",1,8,0,2,0
"250062","img/neutralC/CFD-MM-324-069-N.jpg","1","s","1.42610809998587",1,8,0,2,0
"250062","img/neutralC/CFD-BF-229-179-N.jpg","0","k","1.02822440001182",1,8,0,2,0
"250062","img/neutralC/CFD-IM-726-248-N.jpg","0","k","1.21626020001713",1,8,0,2,0
"250062","img/neutralC/CFD-WF-022-017-N.jpg","0","k","1.37351019994821",1,8,0,2,0
"250062","img/neutralC/CFD-BF-244-231-N.jpg","0","s","3.29132059996482",1,8,0,2,0
"250062","img/neutralC/CFD-IM-645-001-N.jpg","1","k","2.24841340002604",1,8,0,2,0
"250062","img/neutralC/CFD-BF-023-010-N.jpg","0","s","5.74333690002095",1,8,0,2,0
"250062","img/neutralC/CFD-IM-678-482-N.jpg","0","k","2.39340780000202",1,8,0,2,0
"250062","img/neutralC/CFD-IF-623-129-N.jpg","1","k","2.05265690002125",1,8,0,2,0
"250062","img/neutralC/CFD-BF-036-027-N.jpg","1","s","4.17500769998878",1,8,0,2,0
"250062","img/neutralC/CFD-BF-228-212-N.jpg","0","s","1.43583089997992",1,8,0,2,0
"250062","img/neutralC/CFD-WM-235-147-N.jpg","1","k","2.52576669992413",1,8,0,2,0
"250062","img/neutralC/CFD-LF-216-121-N.jpg","1","s","4.35655889997724",1,8,0,2,0
"250062","img/neutralC/CFD-IF-636-011-N.jpg","1","s","5.07813849998638",1,8,0,2,0
"250062","img/neutralC/CFD-BM-231-155-N.jpg","1","k","13.7991334000835",1,8,0,2,0
"250062","img/neutralC/CFD-WM-218-074-N.jpg","1","s","2.62666019995231",1,8,0,2,0
"250062","img/neutralC/CFD-LM-228-188-N.jpg","1","s","4.20988900004886",1,8,0,2,0
"250062","img/neutralC/CFD-WF-017-003-N.jpg","0","s","8.11508279992267",1,8,0,2,0
"250062","img/neutralC/CFD-WF-217-085-N.jpg","1","k","2.91323489998467",1,8,0,2,0
"250062","img/neutralC/CFD-BF-204-189-N.jpg","1","s","13.9482426000759",1,8,0,2,0
"250062","img/neutralC/CFD-BM-041-035-N.jpg","1","s","2.35911439999472",1,8,0,2,0
"250062","img/neutralC/CFD-LM-201-057-N.jpg","0","k","2.20980079995934",1,8,0,2,0
"250062","img/neutralC/CFD-BM-043-071-N.jpg","0","k","2.80626590002794",1,8,0,2,0
"250062","img/neutralC/CFD-BF-247-179-N.jpg","0","s","1.80363169999328",1,8,0,2,0
