"participant_id","current_trial_face","pre_trial_face","post_trial_face","current_trial_accuracy","pre_trial_accuracy","post_trial_accuracy","current_trial_congruency","pre_trial_congruency","post_trial_congruency","current_trial_rt","pre_trial_rt","post_trial_rt","current_trial_responded","pre_trial_responded","post_trial_responded","current_trial_legitResponse","pre_trial_legitResponse","post_trial_legitResponse","current_trial_resp_nums","pre_trial_resp_nums","post_trial_resp_nums"
"250001","img/neutralC/CFD-LF-222-147-N.jpg",NA,"img/neutralC/CFD-AM-219-101-N.jpg","1",NA,"1","0",NA,"0","0.784732599742711",NA,"0.690104799810797","1",NA,"1","1",NA,"1","1",NA,"1"
"250001","img/neutralC/CFD-AM-219-101-N.jpg","img/neutralC/CFD-LF-222-147-N.jpg","img/neutralC/CFD-WM-025-002-N.jpg","1","1","1","0","0","0","0.690104799810797","0.784732599742711","0.550936299841851","1","1","1","1","1","1","1","1","1"
"250001","img/neutralC/CFD-WM-025-002-N.jpg","img/neutralC/CFD-AM-219-101-N.jpg","img/neutralC/CFD-LM-240-013-N.jpg","1","1","1","0","0","1","0.550936299841851","0.690104799810797","0.422682599630207","1","1","1","1","1","1","1","1","1"
"250001","img/neutralC/CFD-LM-240-013-N.jpg","img/neutralC/CFD-WM-025-002-N.jpg","img/neutralC/CFD-BF-244-231-N.jpg","1","1","1","1","0","1","0.422682599630207","0.550936299841851","0.430076799821109","1","1","1","1","1","1","1","1","1"
"250001","img/neutralC/CFD-BF-244-231-N.jpg","img/neutralC/CFD-LM-240-013-N.jpg","img/neutralC/CFD-WF-243-148-N.jpg","1","1","1","1","1","0","0.430076799821109","0.422682599630207","0.528937199618667","1","1","1","1","1","1","1","1","1"
"250001","img/neutralC/CFD-WF-243-148-N.jpg","img/neutralC/CFD-BF-244-231-N.jpg","img/neutralC/CFD-BM-227-191-N.jpg","1","1","1","0","1","1","0.528937199618667","0.430076799821109","0.403603499289602","1","1","1","1","1","1","1","1","1"
"250001","img/neutralC/CFD-BM-227-191-N.jpg","img/neutralC/CFD-WF-243-148-N.jpg","img/neutralC/CFD-BF-012-001-N.jpg","1","1","1","1","0","0","0.403603499289602","0.528937199618667","0.510775199625641","1","1","1","1","1","1","1","1","1"
"250001","img/neutralC/CFD-BF-012-001-N.jpg","img/neutralC/CFD-BM-227-191-N.jpg","img/neutralC/CFD-IM-689-263-N.jpg","1","1","1","0","1","1","0.510775199625641","0.403603499289602","0.448993399739265","1","1","1","1","1","1","1","1","1"
"250001","img/neutralC/CFD-IM-689-263-N.jpg","img/neutralC/CFD-BF-012-001-N.jpg","img/neutralC/CFD-IM-697-015-N.jpg","1","1","1","1","0","1","0.448993399739265","0.510775199625641","0.416631699539721","1","1","1","1","1","1","1","1","1"
"250001","img/neutralC/CFD-IM-697-015-N.jpg","img/neutralC/CFD-IM-689-263-N.jpg","img/neutralC/CFD-WF-009-001-N.jpg","1","1","1","1","1","1","0.416631699539721","0.448993399739265","0.417118999641389","1","1","1","1","1","1","1","1","1"
"250001","img/neutralC/CFD-WF-009-001-N.jpg","img/neutralC/CFD-IM-697-015-N.jpg","img/neutralC/CFD-WF-221-005-N.jpg","1","1","1","1","1","0","0.417118999641389","0.416631699539721","0.563813299871981","1","1","1","1","1","1","1","1","1"
"250001","img/neutralC/CFD-WF-221-005-N.jpg","img/neutralC/CFD-WF-009-001-N.jpg","img/neutralC/CFD-WM-028-003-N.jpg","1","1","1","0","1","1","0.563813299871981","0.417118999641389","0.430587799753994","1","1","1","1","1","1","1","1","1"
"250001","img/neutralC/CFD-WM-028-003-N.jpg","img/neutralC/CFD-WF-221-005-N.jpg","img/neutralC/CFD-AM-243-212-N.jpg","1","1","1","1","0","1","0.430587799753994","0.563813299871981","0.461446999572218","1","1","1","1","1","1","1","1","1"
"250001","img/neutralC/CFD-AM-243-212-N.jpg","img/neutralC/CFD-WM-028-003-N.jpg","img/neutralC/CFD-MM-306-010-N.jpg","1","1","1","1","1","0","0.461446999572218","0.430587799753994","0.476704799570143","1","1","1","1","1","1","1","1","1"
"250001","img/neutralC/CFD-MM-306-010-N.jpg","img/neutralC/CFD-AM-243-212-N.jpg","img/neutralC/CFD-BM-030-003-N.jpg","1","1","1","0","1","0","0.476704799570143","0.461446999572218","0.511087599210441","1","1","1","1","1","1","1","1","1"
"250001","img/neutralC/CFD-BM-030-003-N.jpg","img/neutralC/CFD-MM-306-010-N.jpg","img/neutralC/CFD-AM-249-163-N.jpg","1","1","1","0","0","1","0.511087599210441","0.476704799570143","0.520432999357581","1","1","1","1","1","1","1","1","1"
"250001","img/neutralC/CFD-AM-249-163-N.jpg","img/neutralC/CFD-BM-030-003-N.jpg","img/neutralC/CFD-LF-212-066-N.jpg","1","1","1","1","0","1","0.520432999357581","0.511087599210441","0.41745559964329","1","1","1","1","1","1","1","1","1"
"250001","img/neutralC/CFD-LF-212-066-N.jpg","img/neutralC/CFD-AM-249-163-N.jpg","img/neutralC/CFD-WF-207-014-N.jpg","1","1","1","1","1","1","0.41745559964329","0.520432999357581","0.428833399899304","1","1","1","1","1","1","1","1","1"
"250001","img/neutralC/CFD-WF-207-014-N.jpg","img/neutralC/CFD-LF-212-066-N.jpg","img/neutralC/CFD-MF-328-020-N.jpg","1","1","1","1","1","0","0.428833399899304","0.41745559964329","0.541623799595982","1","1","1","1","1","1","1","1","1"
"250001","img/neutralC/CFD-MF-328-020-N.jpg","img/neutralC/CFD-WF-207-014-N.jpg","img/neutralC/CFD-LF-238-154-N.jpg","1","1","1","0","1","1","0.541623799595982","0.428833399899304","0.521529199555516","1","1","1","1","1","1","1","1","1"
"250001","img/neutralC/CFD-LF-238-154-N.jpg","img/neutralC/CFD-MF-328-020-N.jpg","img/neutralC/CFD-AM-205-153-N.jpg","1","1","1","1","0","1","0.521529199555516","0.541623799595982","0.42015099991113","1","1","1","1","1","1","1","1","1"
"250001","img/neutralC/CFD-AM-205-153-N.jpg","img/neutralC/CFD-LF-238-154-N.jpg","img/neutralC/CFD-IF-676-017-N.jpg","1","1","1","1","1","1","0.42015099991113","0.521529199555516","0.451470399741083","1","1","1","1","1","1","1","1","1"
"250001","img/neutralC/CFD-IF-676-017-N.jpg","img/neutralC/CFD-AM-205-153-N.jpg","img/neutralC/CFD-IM-615-167-N.jpg","1","1","1","1","1","0","0.451470399741083","0.42015099991113","0.52414989983663","1","1","1","1","1","1","1","1","1"
"250001","img/neutralC/CFD-IM-615-167-N.jpg","img/neutralC/CFD-IF-676-017-N.jpg","img/neutralC/CFD-WM-023-001-N.jpg","1","1","1","0","1","0","0.52414989983663","0.451470399741083","0.48899979935959","1","1","1","1","1","1","1","1","1"
"250001","img/neutralC/CFD-WM-023-001-N.jpg","img/neutralC/CFD-IM-615-167-N.jpg","img/neutralC/CFD-AF-237-223-N.jpg","1","1","1","0","0","0","0.48899979935959","0.52414989983663","0.498752499930561","1","1","1","1","1","1","1","1","1"
"250001","img/neutralC/CFD-AF-237-223-N.jpg","img/neutralC/CFD-WM-023-001-N.jpg","img/neutralC/CFD-IM-606-008-N.jpg","1","1","1","0","0","0","0.498752499930561","0.48899979935959","0.433943099342287","1","1","1","1","1","1","1","1","1"
"250001","img/neutralC/CFD-IM-606-008-N.jpg","img/neutralC/CFD-AF-237-223-N.jpg","img/neutralC/CFD-BM-020-001-N.jpg","1","1","1","0","0","0","0.433943099342287","0.498752499930561","0.495462999679148","1","1","1","1","1","1","1","1","1"
"250001","img/neutralC/CFD-BM-020-001-N.jpg","img/neutralC/CFD-IM-606-008-N.jpg","img/neutralC/CFD-BM-021-021-N.jpg","1","1","1","0","0","1","0.495462999679148","0.433943099342287","0.427301799412817","1","1","1","1","1","1","1","1","1"
"250001","img/neutralC/CFD-BM-021-021-N.jpg","img/neutralC/CFD-BM-020-001-N.jpg","img/neutralC/CFD-BM-009-002-N.jpg","1","1","1","1","0","1","0.427301799412817","0.495462999679148","0.432090099900961","1","1","1","1","1","1","1","1","1"
"250001","img/neutralC/CFD-BM-009-002-N.jpg","img/neutralC/CFD-BM-021-021-N.jpg","img/neutralC/CFD-BM-043-071-N.jpg","1","1","1","1","1","0","0.432090099900961","0.427301799412817","0.474232099950314","1","1","1","1","1","1","1","1","1"
"250001","img/neutralC/CFD-BM-043-071-N.jpg","img/neutralC/CFD-BM-009-002-N.jpg","img/neutralC/CFD-WF-241-210-N.jpg","1","1","1","0","1","0","0.474232099950314","0.432090099900961","0.496444799471647","1","1","1","1","1","1","1","1","1"
"250001","img/neutralC/CFD-WF-241-210-N.jpg","img/neutralC/CFD-BM-043-071-N.jpg",NA,"1","1",NA,"0","0",NA,"0.496444799471647","0.474232099950314",NA,"1","1",NA,"1","1",NA,"1","1",NA
"250001","img/neutralC/CFD-BF-033-028-N.jpg",NA,"img/neutralC/CFD-WM-017-002-N.jpg","1",NA,"1","0",NA,"0","0.556959299370646",NA,"0.502720599528402","1",NA,"1","1",NA,"1","1",NA,"1"
"250001","img/neutralC/CFD-WM-017-002-N.jpg","img/neutralC/CFD-BF-033-028-N.jpg","img/neutralC/CFD-WF-209-052-N.jpg","1","1","1","0","0","1","0.502720599528402","0.556959299370646","0.363070299383253","1","1","1","1","1","1","1","1","1"
"250001","img/neutralC/CFD-WF-209-052-N.jpg","img/neutralC/CFD-WM-017-002-N.jpg","img/neutralC/CFD-LM-226-175-N.jpg","1","1","1","1","0","0","0.363070299383253","0.502720599528402","0.361134699545801","1","1","1","1","1","1","1","1","1"
"250001","img/neutralC/CFD-LM-226-175-N.jpg","img/neutralC/CFD-WF-209-052-N.jpg","img/neutralC/CFD-BM-005-003-N.jpg","1","1","1","0","1","1","0.361134699545801","0.363070299383253","0.41170459985733","1","1","1","1","1","1","1","1","1"
"250001","img/neutralC/CFD-BM-005-003-N.jpg","img/neutralC/CFD-LM-226-175-N.jpg","img/neutralC/CFD-LF-250-169-N.jpg","1","1","1","1","0","1","0.41170459985733","0.361134699545801","0.368220599368215","1","1","1","1","1","1","1","1","1"
"250001","img/neutralC/CFD-LF-250-169-N.jpg","img/neutralC/CFD-BM-005-003-N.jpg","img/neutralC/CFD-AF-241-141-N.jpg","1","1","1","1","1","1","0.368220599368215","0.41170459985733","0.34139659954235","1","1","1","1","1","1","1","1","1"
"250001","img/neutralC/CFD-AF-241-141-N.jpg","img/neutralC/CFD-LF-250-169-N.jpg","img/neutralC/CFD-BF-010-001-N.jpg","1","1","1","1","1","1","0.34139659954235","0.368220599368215","0.316907600034028","1","1","1","1","1","1","1","1","1"
"250001","img/neutralC/CFD-BF-010-001-N.jpg","img/neutralC/CFD-AF-241-141-N.jpg","img/neutralC/CFD-AF-206-079-N.jpg","1","1","1","1","1","1","0.316907600034028","0.34139659954235","0.344463499262929","1","1","1","1","1","1","1","1","1"
"250001","img/neutralC/CFD-AF-206-079-N.jpg","img/neutralC/CFD-BF-010-001-N.jpg","img/neutralC/CFD-MF-313-002-N.jpg","1","1","1","1","1","0","0.344463499262929","0.316907600034028","0.3515365999192","1","1","1","1","1","1","1","1","1"
"250001","img/neutralC/CFD-MF-313-002-N.jpg","img/neutralC/CFD-AF-206-079-N.jpg","img/neutralC/CFD-IM-653-008-N.jpg","1","1","0","0","1","0","0.3515365999192","0.344463499262929","0.320811499841511","1","1","1","1","1","1","1","1","1"
"250001","img/neutralC/CFD-IM-653-008-N.jpg","img/neutralC/CFD-MF-313-002-N.jpg","img/neutralC/CFD-WM-227-099-N.jpg","0","1","1","0","0","1","0.320811499841511","0.3515365999192","0.434939099475741","1","1","1","1","1","1","1","1","1"
"250001","img/neutralC/CFD-WM-227-099-N.jpg","img/neutralC/CFD-IM-653-008-N.jpg","img/neutralC/CFD-WM-242-011-N.jpg","1","0","1","1","0","0","0.434939099475741","0.320811499841511","0.470397499855608","1","1","1","1","1","1","1","1","1"
"250001","img/neutralC/CFD-WM-242-011-N.jpg","img/neutralC/CFD-WM-227-099-N.jpg","img/neutralC/CFD-IM-657-308-N.jpg","1","1","1","0","1","0","0.470397499855608","0.434939099475741","0.518569599837065","1","1","1","1","1","1","1","1","1"
"250001","img/neutralC/CFD-IM-657-308-N.jpg","img/neutralC/CFD-WM-242-011-N.jpg","img/neutralC/CFD-IF-620-218-N.jpg","1","1","1","0","0","0","0.518569599837065","0.470397499855608","0.5420972998254","1","1","1","1","1","1","1","1","1"
"250001","img/neutralC/CFD-IF-620-218-N.jpg","img/neutralC/CFD-IM-657-308-N.jpg","img/neutralC/CFD-LM-233-171-N.jpg","1","1","1","0","0","0","0.5420972998254","0.518569599837065","0.50329569960013","1","1","1","1","1","1","1","1","1"
"250001","img/neutralC/CFD-LM-233-171-N.jpg","img/neutralC/CFD-IF-620-218-N.jpg","img/neutralC/CFD-WM-258-125-N.jpg","1","1","1","0","0","0","0.50329569960013","0.5420972998254","0.516692999284714","1","1","1","1","1","1","1","1","1"
"250001","img/neutralC/CFD-WM-258-125-N.jpg","img/neutralC/CFD-LM-233-171-N.jpg","img/neutralC/CFD-IM-638-250-1-N.jpg","1","1","1","0","0","1","0.516692999284714","0.50329569960013","0.443894299678504","1","1","1","1","1","1","1","1","1"
"250001","img/neutralC/CFD-IM-638-250-1-N.jpg","img/neutralC/CFD-WM-258-125-N.jpg","img/neutralC/CFD-BM-026-002-N.jpg","1","1","1","1","0","0","0.443894299678504","0.516692999284714","0.484340999275446","1","1","1","1","1","1","1","1","1"
"250001","img/neutralC/CFD-BM-026-002-N.jpg","img/neutralC/CFD-IM-638-250-1-N.jpg","img/neutralC/CFD-LM-219-295-N.jpg","1","1","1","0","1","1","0.484340999275446","0.443894299678504","0.387626499403268","1","1","1","1","1","1","1","1","1"
"250001","img/neutralC/CFD-LM-219-295-N.jpg","img/neutralC/CFD-BM-026-002-N.jpg","img/neutralC/CFD-IM-617-174-N.jpg","1","1","1","1","0","0","0.387626499403268","0.484340999275446","0.456762299407274","1","1","1","1","1","1","1","1","1"
"250001","img/neutralC/CFD-IM-617-174-N.jpg","img/neutralC/CFD-LM-219-295-N.jpg","img/neutralC/CFD-LF-242-121-N.jpg","1","1","1","0","1","0","0.456762299407274","0.387626499403268","0.47741589974612","1","1","1","1","1","1","1","1","1"
"250001","img/neutralC/CFD-LF-242-121-N.jpg","img/neutralC/CFD-IM-617-174-N.jpg","img/neutralC/CFD-BM-231-155-N.jpg","1","1","1","0","0","1","0.47741589974612","0.456762299407274","0.417535899672657","1","1","1","1","1","1","1","1","1"
"250001","img/neutralC/CFD-BM-231-155-N.jpg","img/neutralC/CFD-LF-242-121-N.jpg","img/neutralC/CFD-LF-245-166-N.jpg","1","1","1","1","0","1","0.417535899672657","0.47741589974612","0.471487699542195","1","1","1","1","1","1","1","1","1"
"250001","img/neutralC/CFD-LF-245-166-N.jpg","img/neutralC/CFD-BM-231-155-N.jpg","img/neutralC/CFD-BM-018-001-N.jpg","1","1","1","1","1","1","0.471487699542195","0.417535899672657","0.560840599704534","1","1","1","1","1","1","1","1","1"
"250001","img/neutralC/CFD-BM-018-001-N.jpg","img/neutralC/CFD-LF-245-166-N.jpg","img/neutralC/CFD-LF-247-051-N.jpg","1","1","1","1","1","1","0.560840599704534","0.471487699542195","0.436405999585986","1","1","1","1","1","1","1","1","1"
"250001","img/neutralC/CFD-LF-247-051-N.jpg","img/neutralC/CFD-BM-018-001-N.jpg","img/neutralC/CFD-IM-727-195-N.jpg","1","1","1","1","1","1","0.436405999585986","0.560840599704534","0.381954599637538","1","1","1","1","1","1","1","1","1"
"250001","img/neutralC/CFD-IM-727-195-N.jpg","img/neutralC/CFD-LF-247-051-N.jpg","img/neutralC/CFD-AF-202-122-N.jpg","1","1","1","1","1","1","0.381954599637538","0.436405999585986","0.389123899396509","1","1","1","1","1","1","1","1","1"
"250001","img/neutralC/CFD-AF-202-122-N.jpg","img/neutralC/CFD-IM-727-195-N.jpg","img/neutralC/CFD-BF-238-190-N.jpg","1","1","1","1","1","1","0.389123899396509","0.381954599637538","0.371255299542099","1","1","1","1","1","1","1","1","1"
"250001","img/neutralC/CFD-BF-238-190-N.jpg","img/neutralC/CFD-AF-202-122-N.jpg","img/neutralC/CFD-BM-212-117-N.jpg","1","1","0","1","1","0","0.371255299542099","0.389123899396509","0.429965399671346","1","1","1","1","1","1","1","1","1"
"250001","img/neutralC/CFD-BM-212-117-N.jpg","img/neutralC/CFD-BF-238-190-N.jpg","img/neutralC/CFD-IF-665-015-N.jpg","0","1","1","0","1","0","0.429965399671346","0.371255299542099","0.589217299595475","1","1","1","1","1","1","1","1","1"
"250001","img/neutralC/CFD-IF-665-015-N.jpg","img/neutralC/CFD-BM-212-117-N.jpg","img/neutralC/CFD-IM-686-097-N.jpg","1","0","1","0","0","0","0.589217299595475","0.429965399671346","0.396040499676019","1","1","1","1","1","1","1","1","1"
"250001","img/neutralC/CFD-IM-686-097-N.jpg","img/neutralC/CFD-IF-665-015-N.jpg",NA,"1","1",NA,"0","0",NA,"0.396040499676019","0.589217299595475",NA,"1","1",NA,"1","1",NA,"1","1",NA
"250001","img/neutralC/CFD-BF-042-026-N.jpg",NA,"img/neutralC/CFD-WM-253-119-N.jpg","1",NA,"1","1",NA,"1","0.549613699316978",NA,"0.578267299570143","1",NA,"1","1",NA,"1","1",NA,"1"
"250001","img/neutralC/CFD-WM-253-119-N.jpg","img/neutralC/CFD-BF-042-026-N.jpg","img/neutralC/CFD-WF-210-086-N.jpg","1","1","1","1","1","0","0.578267299570143","0.549613699316978","0.540120299905539","1","1","1","1","1","1","1","1","1"
"250001","img/neutralC/CFD-WF-210-086-N.jpg","img/neutralC/CFD-WM-253-119-N.jpg","img/neutralC/CFD-IM-632-097-N.jpg","1","1","1","0","1","0","0.540120299905539","0.578267299570143","0.381652499549091","1","1","1","1","1","1","1","1","1"
"250001","img/neutralC/CFD-IM-632-097-N.jpg","img/neutralC/CFD-WF-210-086-N.jpg","img/neutralC/CFD-IM-635-010-N.jpg","1","1","1","0","0","1","0.381652499549091","0.540120299905539","0.367728299461305","1","1","1","1","1","1","1","1","1"
"250001","img/neutralC/CFD-IM-635-010-N.jpg","img/neutralC/CFD-IM-632-097-N.jpg","img/neutralC/CFD-WM-018-002-N.jpg","1","1","1","1","0","0","0.367728299461305","0.381652499549091","0.401254999917","1","1","1","1","1","1","1","1","1"
"250001","img/neutralC/CFD-WM-018-002-N.jpg","img/neutralC/CFD-IM-635-010-N.jpg","img/neutralC/CFD-IM-678-482-N.jpg","1","1","1","0","1","0","0.401254999917","0.367728299461305","0.53080049995333","1","1","1","1","1","1","1","1","1"
"250001","img/neutralC/CFD-IM-678-482-N.jpg","img/neutralC/CFD-WM-018-002-N.jpg","img/neutralC/CFD-BF-020-002-N.jpg","1","1","1","0","0","1","0.53080049995333","0.401254999917","0.424163299612701","1","1","1","1","1","1","1","1","1"
"250001","img/neutralC/CFD-BF-020-002-N.jpg","img/neutralC/CFD-IM-678-482-N.jpg","img/neutralC/CFD-BM-215-155-N.jpg","1","1","1","1","0","0","0.424163299612701","0.53080049995333","0.44969190005213","1","1","1","1","1","1","1","1","1"
"250001","img/neutralC/CFD-BM-215-155-N.jpg","img/neutralC/CFD-BF-020-002-N.jpg","img/neutralC/CFD-AF-234-208-N.jpg","1","1","1","0","1","1","0.44969190005213","0.424163299612701","0.386708699632436","1","1","1","1","1","1","1","1","1"
"250001","img/neutralC/CFD-AF-234-208-N.jpg","img/neutralC/CFD-BM-215-155-N.jpg","img/neutralC/CFD-AM-233-236-N.jpg","1","1","1","1","0","1","0.386708699632436","0.44969190005213","0.418939100112766","1","1","1","1","1","1","1","1","1"
"250001","img/neutralC/CFD-AM-233-236-N.jpg","img/neutralC/CFD-AF-234-208-N.jpg","img/neutralC/CFD-AF-246-242-N.jpg","1","1","1","1","1","0","0.418939100112766","0.386708699632436","0.395633799955249","1","1","1","1","1","1","1","1","1"
"250001","img/neutralC/CFD-AF-246-242-N.jpg","img/neutralC/CFD-AM-233-236-N.jpg","img/neutralC/CFD-AF-244-168-N.jpg","1","1","1","0","1","0","0.395633799955249","0.418939100112766","0.425697299651802","1","1","1","1","1","1","1","1","1"
"250001","img/neutralC/CFD-AF-244-168-N.jpg","img/neutralC/CFD-AF-246-242-N.jpg","img/neutralC/CFD-AF-250-200-N.jpg","1","1","1","0","0","1","0.425697299651802","0.395633799955249","0.390007399953902","1","1","1","1","1","1","1","1","1"
"250001","img/neutralC/CFD-AF-250-200-N.jpg","img/neutralC/CFD-AF-244-168-N.jpg","img/neutralC/CFD-AM-225-102-N.jpg","1","1","1","1","0","0","0.390007399953902","0.425697299651802","0.584161199629307","1","1","1","1","1","1","1","1","1"
"250001","img/neutralC/CFD-AM-225-102-N.jpg","img/neutralC/CFD-AF-250-200-N.jpg","img/neutralC/CFD-BF-206-143-N.jpg","1","1","1","0","1","1","0.584161199629307","0.390007399953902","0.509144299663603","1","1","1","1","1","1","1","1","1"
"250001","img/neutralC/CFD-BF-206-143-N.jpg","img/neutralC/CFD-AM-225-102-N.jpg","img/neutralC/CFD-IF-636-011-N.jpg","1","1","1","1","0","1","0.509144299663603","0.584161199629307","0.35386179946363","1","1","1","1","1","1","1","1","1"
"250001","img/neutralC/CFD-IF-636-011-N.jpg","img/neutralC/CFD-BF-206-143-N.jpg","img/neutralC/CFD-AM-245-111-N.jpg","1","1","1","1","1","1","0.35386179946363","0.509144299663603","0.430322699714452","1","1","1","1","1","1","1","1","1"
"250001","img/neutralC/CFD-AM-245-111-N.jpg","img/neutralC/CFD-IF-636-011-N.jpg","img/neutralC/CFD-LM-204-001-N.jpg","1","1","0","1","1","0","0.430322699714452","0.35386179946363","0.463018599431962","1","1","1","1","1","1","1","1","2"
"250001","img/neutralC/CFD-LM-204-001-N.jpg","img/neutralC/CFD-AM-245-111-N.jpg","img/neutralC/CFD-IF-732-260-N.jpg","0","1","1","0","1","0","0.463018599431962","0.430322699714452","0.461322200018913","1","1","1","1","1","1","2","1","1"
"250001","img/neutralC/CFD-IF-732-260-N.jpg","img/neutralC/CFD-LM-204-001-N.jpg","img/neutralC/CFD-AF-213-126-N.jpg","1","0","1","0","0","1","0.461322200018913","0.463018599431962","0.3843644997105","1","1","1","1","1","1","1","2","1"
"250001","img/neutralC/CFD-AF-213-126-N.jpg","img/neutralC/CFD-IF-732-260-N.jpg","img/neutralC/CFD-BF-040-003-N.jpg","1","1","1","1","0","1","0.3843644997105","0.461322200018913","0.380991399288177","1","1","1","1","1","1","1","1","1"
"250001","img/neutralC/CFD-BF-040-003-N.jpg","img/neutralC/CFD-AF-213-126-N.jpg","img/neutralC/CFD-MF-307-002-N.jpg","1","1","1","1","1","1","0.380991399288177","0.3843644997105","0.453854799736291","1","1","1","1","1","1","1","1","1"
"250001","img/neutralC/CFD-MF-307-002-N.jpg","img/neutralC/CFD-BF-040-003-N.jpg","img/neutralC/CFD-WF-235-121-N.jpg","1","1","1","1","1","0","0.453854799736291","0.380991399288177","0.471757599618286","1","1","1","1","1","1","1","1","1"
"250001","img/neutralC/CFD-WF-235-121-N.jpg","img/neutralC/CFD-MF-307-002-N.jpg","img/neutralC/CFD-BF-235-168-N.jpg","1","1","1","0","1","1","0.471757599618286","0.453854799736291","0.441479899920523","1","1","1","1","1","1","1","1","1"
"250001","img/neutralC/CFD-BF-235-168-N.jpg","img/neutralC/CFD-WF-235-121-N.jpg","img/neutralC/CFD-MF-302-027-N.jpg","1","1","1","1","0","0","0.441479899920523","0.471757599618286","0.391985699534416","1","1","1","1","1","1","1","1","1"
"250001","img/neutralC/CFD-MF-302-027-N.jpg","img/neutralC/CFD-BF-235-168-N.jpg","img/neutralC/CFD-AF-205-155-N.jpg","1","1","1","0","1","0","0.391985699534416","0.441479899920523","0.535486999433488","1","1","1","1","1","1","1","1","1"
"250001","img/neutralC/CFD-AF-205-155-N.jpg","img/neutralC/CFD-MF-302-027-N.jpg","img/neutralC/CFD-BM-004-002-N.jpg","1","1","1","0","0","0","0.535486999433488","0.391985699534416","0.423675599507987","1","1","1","1","1","1","1","1","1"
"250001","img/neutralC/CFD-BM-004-002-N.jpg","img/neutralC/CFD-AF-205-155-N.jpg","img/neutralC/CFD-LM-241-125-N.jpg","1","1","1","0","0","1","0.423675599507987","0.535486999433488","0.435491899959743","1","1","1","1","1","1","1","1","1"
"250001","img/neutralC/CFD-LM-241-125-N.jpg","img/neutralC/CFD-BM-004-002-N.jpg","img/neutralC/CFD-BF-217-189-N.jpg","1","1","1","1","0","0","0.435491899959743","0.423675599507987","0.502000599633902","1","1","1","1","1","1","1","1","1"
"250001","img/neutralC/CFD-BF-217-189-N.jpg","img/neutralC/CFD-LM-241-125-N.jpg","img/neutralC/CFD-IM-669-111-N.jpg","1","1","1","0","1","1","0.502000599633902","0.435491899959743","0.425692699849606","1","1","1","1","1","1","1","1","1"
"250001","img/neutralC/CFD-IM-669-111-N.jpg","img/neutralC/CFD-BF-217-189-N.jpg","img/neutralC/CFD-LF-239-148-N.jpg","1","1","1","1","0","0","0.425692699849606","0.502000599633902","0.444290199782699","1","1","1","1","1","1","1","1","1"
"250001","img/neutralC/CFD-LF-239-148-N.jpg","img/neutralC/CFD-IM-669-111-N.jpg",NA,"1","1",NA,"0","1",NA,"0.444290199782699","0.425692699849606",NA,"1","1",NA,"1","1",NA,"1","1",NA
"250001","img/neutralC/CFD-IM-675-015-N.jpg",NA,"img/neutralC/CFD-MF-340-026-N.jpg","1",NA,"1","1",NA,"1","0.756678599864244",NA,"0.450618200004101","1",NA,"1","1",NA,"1","1",NA,"1"
"250001","img/neutralC/CFD-MF-340-026-N.jpg","img/neutralC/CFD-IM-675-015-N.jpg","img/neutralC/CFD-AF-229-160-N.jpg","1","1","1","1","1","0","0.450618200004101","0.756678599864244","0.533644299488515","1","1","1","1","1","1","1","1","1"
"250001","img/neutralC/CFD-AF-229-160-N.jpg","img/neutralC/CFD-MF-340-026-N.jpg","img/neutralC/CFD-WM-232-070-N.jpg","1","1","1","0","1","0","0.533644299488515","0.450618200004101","0.434927399735898","1","1","1","1","1","1","1","1","1"
"250001","img/neutralC/CFD-WM-232-070-N.jpg","img/neutralC/CFD-AF-229-160-N.jpg","img/neutralC/CFD-BF-224-002-N.jpg","1","1","1","0","0","1","0.434927399735898","0.533644299488515","0.408668599557132","1","1","1","1","1","1","1","1","1"
"250001","img/neutralC/CFD-BF-224-002-N.jpg","img/neutralC/CFD-WM-232-070-N.jpg","img/neutralC/CFD-WF-217-085-N.jpg","1","1","1","1","0","1","0.408668599557132","0.434927399735898","0.400895599741489","1","1","1","1","1","1","1","1","1"
"250001","img/neutralC/CFD-WF-217-085-N.jpg","img/neutralC/CFD-BF-224-002-N.jpg","img/neutralC/CFD-MF-300-002-N.jpg","1","1","1","1","1","0","0.400895599741489","0.408668599557132","0.458599999547005","1","1","1","1","1","1","1","1","1"
"250001","img/neutralC/CFD-MF-300-002-N.jpg","img/neutralC/CFD-WF-217-085-N.jpg","img/neutralC/CFD-WF-012-002-N.jpg","1","1","1","0","1","1","0.458599999547005","0.400895599741489","0.371784099843353","1","1","1","1","1","1","1","1","1"
"250001","img/neutralC/CFD-WF-012-002-N.jpg","img/neutralC/CFD-MF-300-002-N.jpg","img/neutralC/CFD-IF-608-390-N.jpg","1","1","1","1","0","1","0.371784099843353","0.458599999547005","0.346925499849021","1","1","1","1","1","1","1","1","1"
"250001","img/neutralC/CFD-IF-608-390-N.jpg","img/neutralC/CFD-WF-012-002-N.jpg","img/neutralC/CFD-WF-008-002-N.jpg","1","1","1","1","1","1","0.346925499849021","0.371784099843353","0.398836699314415","1","1","1","1","1","1","1","1","1"
"250001","img/neutralC/CFD-WF-008-002-N.jpg","img/neutralC/CFD-IF-608-390-N.jpg","img/neutralC/CFD-BM-243-218-N.jpg","1","1","1","1","1","1","0.398836699314415","0.346925499849021","0.41013989970088","1","1","1","1","1","1","1","1","1"
"250001","img/neutralC/CFD-BM-243-218-N.jpg","img/neutralC/CFD-WF-008-002-N.jpg","img/neutralC/CFD-AF-254-167-N.jpg","1","1","1","1","1","1","0.41013989970088","0.398836699314415","0.421894199680537","1","1","1","1","1","1","1","1","1"
"250001","img/neutralC/CFD-AF-254-167-N.jpg","img/neutralC/CFD-BM-243-218-N.jpg","img/neutralC/CFD-AM-236-090-N.jpg","1","1","1","1","1","1","0.421894199680537","0.41013989970088","0.396203599870205","1","1","1","1","1","1","1","1","1"
"250001","img/neutralC/CFD-AM-236-090-N.jpg","img/neutralC/CFD-AF-254-167-N.jpg","img/neutralC/CFD-MF-327-002-N.jpg","1","1","1","1","1","0","0.396203599870205","0.421894199680537","0.525583299808204","1","1","1","1","1","1","1","1","1"
"250001","img/neutralC/CFD-MF-327-002-N.jpg","img/neutralC/CFD-AM-236-090-N.jpg","img/neutralC/CFD-IM-637-007-N.jpg","1","1","1","0","1","0","0.525583299808204","0.396203599870205","0.455756499897689","1","1","1","1","1","1","1","1","1"
"250001","img/neutralC/CFD-IM-637-007-N.jpg","img/neutralC/CFD-MF-327-002-N.jpg","img/neutralC/CFD-WF-248-129-N.jpg","1","1","1","0","0","0","0.455756499897689","0.525583299808204","0.476657399442047","1","1","1","1","1","1","1","1","1"
"250001","img/neutralC/CFD-WF-248-129-N.jpg","img/neutralC/CFD-IM-637-007-N.jpg","img/neutralC/CFD-BF-043-003-N.jpg","1","1","1","0","0","0","0.476657399442047","0.455756499897689","0.470760299824178","1","1","1","1","1","1","1","1","1"
"250001","img/neutralC/CFD-BF-043-003-N.jpg","img/neutralC/CFD-WF-248-129-N.jpg","img/neutralC/CFD-WM-024-015-N.jpg","1","1","1","0","0","1","0.470760299824178","0.476657399442047","0.458912699483335","1","1","1","1","1","1","1","1","1"
"250001","img/neutralC/CFD-WM-024-015-N.jpg","img/neutralC/CFD-BF-043-003-N.jpg","img/neutralC/CFD-IF-619-197-N.jpg","1","1","1","1","0","0","0.458912699483335","0.470760299824178","0.468236499466002","1","1","1","1","1","1","1","1","1"
"250001","img/neutralC/CFD-IF-619-197-N.jpg","img/neutralC/CFD-WM-024-015-N.jpg","img/neutralC/CFD-LF-201-035-N.jpg","1","1","1","0","1","1","0.468236499466002","0.458912699483335","0.411227199714631","1","1","1","1","1","1","1","1","1"
"250001","img/neutralC/CFD-LF-201-035-N.jpg","img/neutralC/CFD-IF-619-197-N.jpg","img/neutralC/CFD-IM-685-004-N.jpg","1","1","1","1","0","1","0.411227199714631","0.468236499466002","0.411493299528956","1","1","1","1","1","1","1","1","1"
"250001","img/neutralC/CFD-IM-685-004-N.jpg","img/neutralC/CFD-LF-201-035-N.jpg","img/neutralC/CFD-IM-604-014-N.jpg","1","1","1","1","1","0","0.411493299528956","0.411227199714631","0.419968299567699","1","1","1","1","1","1","1","1","1"
"250001","img/neutralC/CFD-IM-604-014-N.jpg","img/neutralC/CFD-IM-685-004-N.jpg","img/neutralC/CFD-WF-212-050-N.jpg","1","1","1","0","1","0","0.419968299567699","0.411493299528956","0.53712679957971","1","1","1","1","1","1","1","1","1"
"250001","img/neutralC/CFD-WF-212-050-N.jpg","img/neutralC/CFD-IM-604-014-N.jpg","img/neutralC/CFD-IM-709-103-N.jpg","1","1","1","0","0","0","0.53712679957971","0.419968299567699","0.395119399297982","1","1","1","1","1","1","1","1","1"
"250001","img/neutralC/CFD-IM-709-103-N.jpg","img/neutralC/CFD-WF-212-050-N.jpg","img/neutralC/CFD-MM-304-002-N.jpg","1","1","1","0","0","1","0.395119399297982","0.53712679957971","0.439650699496269","1","1","1","1","1","1","1","1","1"
"250001","img/neutralC/CFD-MM-304-002-N.jpg","img/neutralC/CFD-IM-709-103-N.jpg","img/neutralC/CFD-BM-039-029-N.jpg","1","1","1","1","0","1","0.439650699496269","0.395119399297982","0.417997199576348","1","1","1","1","1","1","1","1","1"
"250001","img/neutralC/CFD-BM-039-029-N.jpg","img/neutralC/CFD-MM-304-002-N.jpg","img/neutralC/CFD-LM-217-162-N.jpg","1","1","1","1","1","0","0.417997199576348","0.439650699496269","0.537076099775732","1","1","1","1","1","1","1","1","1"
"250001","img/neutralC/CFD-LM-217-162-N.jpg","img/neutralC/CFD-BM-039-029-N.jpg","img/neutralC/CFD-AF-215-70-N.jpg","1","1","1","0","1","0","0.537076099775732","0.417997199576348","0.394539799541235","1","1","1","1","1","1","1","1","1"
"250001","img/neutralC/CFD-AF-215-70-N.jpg","img/neutralC/CFD-LM-217-162-N.jpg","img/neutralC/CFD-LF-226-174-N.jpg","1","1","0","0","0","0","0.394539799541235","0.537076099775732","0.425413399934769","1","1","1","1","1","1","1","1","1"
"250001","img/neutralC/CFD-LF-226-174-N.jpg","img/neutralC/CFD-AF-215-70-N.jpg","img/neutralC/CFD-BF-051-035-N.jpg","0","1","1","0","0","0","0.425413399934769","0.394539799541235","0.457374099642038","1","1","1","1","1","1","1","1","1"
"250001","img/neutralC/CFD-BF-051-035-N.jpg","img/neutralC/CFD-LF-226-174-N.jpg","img/neutralC/CFD-WM-213-076-N.jpg","1","0","1","0","0","1","0.457374099642038","0.425413399934769","0.446676599327475","1","1","1","1","1","1","1","1","1"
"250001","img/neutralC/CFD-WM-213-076-N.jpg","img/neutralC/CFD-BF-051-035-N.jpg","img/neutralC/CFD-MF-329-001-N.jpg","1","1","1","1","0","0","0.446676599327475","0.457374099642038","0.504326799418777","1","1","1","1","1","1","1","1","1"
"250001","img/neutralC/CFD-MF-329-001-N.jpg","img/neutralC/CFD-WM-213-076-N.jpg",NA,"1","1",NA,"0","1",NA,"0.504326799418777","0.446676599327475",NA,"1","1",NA,"1","1",NA,"1","1",NA
"250001","img/neutralC/CFD-LF-216-121-N.jpg",NA,"img/neutralC/CFD-IF-718-001-N.jpg","1",NA,"1","1",NA,"1","2.28553579980507",NA,"1.33336539985612","1",NA,"1","1",NA,"1","1",NA,"1"
"250001","img/neutralC/CFD-IF-718-001-N.jpg","img/neutralC/CFD-LF-216-121-N.jpg","img/neutralC/CFD-AM-215-120-N.jpg","1","1","1","1","1","1","1.33336539985612","2.28553579980507","0.409384199883789","1","1","1","1","1","1","1","1","1"
"250001","img/neutralC/CFD-AM-215-120-N.jpg","img/neutralC/CFD-IF-718-001-N.jpg","img/neutralC/CFD-WM-040-022-N.jpg","1","1","1","1","1","0","0.409384199883789","1.33336539985612","0.46840119920671","1","1","1","1","1","1","1","1","1"
"250001","img/neutralC/CFD-WM-040-022-N.jpg","img/neutralC/CFD-AM-215-120-N.jpg","img/neutralC/CFD-BM-029-024-N.jpg","1","1","1","0","1","1","0.46840119920671","0.409384199883789","0.363983299583197","1","1","1","1","1","1","1","1","1"
"250001","img/neutralC/CFD-BM-029-024-N.jpg","img/neutralC/CFD-WM-040-022-N.jpg","img/neutralC/CFD-WM-038-003-N.jpg","1","1","1","1","0","0","0.363983299583197","0.46840119920671","0.393798799254","1","1","1","1","1","1","1","1","1"
"250001","img/neutralC/CFD-WM-038-003-N.jpg","img/neutralC/CFD-BM-029-024-N.jpg","img/neutralC/CFD-BM-027-001-N.jpg","1","1","1","0","1","0","0.393798799254","0.363983299583197","0.487158499658108","1","1","1","1","1","1","1","1","1"
"250001","img/neutralC/CFD-BM-027-001-N.jpg","img/neutralC/CFD-WM-038-003-N.jpg","img/neutralC/CFD-BM-211-174-N.jpg","1","1","1","0","0","0","0.487158499658108","0.393798799254","0.528413799591362","1","1","1","1","1","1","1","1","1"
"250001","img/neutralC/CFD-BM-211-174-N.jpg","img/neutralC/CFD-BM-027-001-N.jpg","img/neutralC/CFD-BF-003-003-N.jpg","1","1","1","0","0","0","0.528413799591362","0.487158499658108","0.416122299619019","1","1","1","1","1","1","1","1","1"
"250001","img/neutralC/CFD-BF-003-003-N.jpg","img/neutralC/CFD-BM-211-174-N.jpg","img/neutralC/CFD-BF-204-189-N.jpg","1","1","0","0","0","1","0.416122299619019","0.528413799591362","0.415837199427187","1","1","1","1","1","1","1","1","1"
"250001","img/neutralC/CFD-BF-204-189-N.jpg","img/neutralC/CFD-BF-003-003-N.jpg","img/neutralC/CFD-WM-257-161-N.jpg","0","1","1","1","0","1","0.415837199427187","0.416122299619019","0.424575699493289","1","1","1","1","1","1","1","1","1"
"250001","img/neutralC/CFD-WM-257-161-N.jpg","img/neutralC/CFD-BF-204-189-N.jpg","img/neutralC/CFD-IM-674-281-N.jpg","1","0","1","1","1","1","0.424575699493289","0.415837199427187","0.452224899549037","1","1","1","1","1","1","1","1","1"
"250001","img/neutralC/CFD-IM-674-281-N.jpg","img/neutralC/CFD-WM-257-161-N.jpg","img/neutralC/CFD-IF-672-305-N.jpg","1","1","1","1","1","0","0.452224899549037","0.424575699493289","0.457592799793929","1","1","1","1","1","1","1","1","1"
"250001","img/neutralC/CFD-IF-672-305-N.jpg","img/neutralC/CFD-IM-674-281-N.jpg","img/neutralC/CFD-IM-639-263-N.jpg","1","1","1","0","1","1","0.457592799793929","0.452224899549037","0.417626499664038","1","1","1","1","1","1","1","1","1"
"250001","img/neutralC/CFD-IM-639-263-N.jpg","img/neutralC/CFD-IF-672-305-N.jpg","img/neutralC/CFD-LM-252-076-N.jpg","1","1","1","1","0","1","0.417626499664038","0.457592799793929","0.39432349987328","1","1","1","1","1","1","1","1","1"
"250001","img/neutralC/CFD-LM-252-076-N.jpg","img/neutralC/CFD-IM-639-263-N.jpg","img/neutralC/CFD-WF-022-017-N.jpg","1","1","1","1","1","0","0.39432349987328","0.417626499664038","0.559715999756008","1","1","1","1","1","1","1","1","1"
"250001","img/neutralC/CFD-WF-022-017-N.jpg","img/neutralC/CFD-LM-252-076-N.jpg","img/neutralC/CFD-AM-217-085-N.jpg","1","1","1","0","1","0","0.559715999756008","0.39432349987328","0.522538699675351","1","1","1","1","1","1","1","1","1"
"250001","img/neutralC/CFD-AM-217-085-N.jpg","img/neutralC/CFD-WF-022-017-N.jpg","img/neutralC/CFD-BM-247-240-N.jpg","1","1","1","0","0","0","0.522538699675351","0.559715999756008","0.430557399522513","1","1","1","1","1","1","1","1","1"
"250001","img/neutralC/CFD-BM-247-240-N.jpg","img/neutralC/CFD-AM-217-085-N.jpg","img/neutralC/CFD-BF-255-140-N.jpg","1","1","1","0","0","1","0.430557399522513","0.522538699675351","0.401998399756849","1","1","1","1","1","1","1","1","1"
"250001","img/neutralC/CFD-BF-255-140-N.jpg","img/neutralC/CFD-BM-247-240-N.jpg","img/neutralC/CFD-WF-026-002-N.jpg","1","1","1","1","0","1","0.401998399756849","0.430557399522513","0.472918199375272","1","1","1","1","1","1","1","1","1"
"250001","img/neutralC/CFD-WF-026-002-N.jpg","img/neutralC/CFD-BF-255-140-N.jpg","img/neutralC/CFD-MM-319-052-N.jpg","1","1","1","1","1","1","0.472918199375272","0.401998399756849","0.447684499435127","1","1","1","1","1","1","1","1","1"
"250001","img/neutralC/CFD-MM-319-052-N.jpg","img/neutralC/CFD-WF-026-002-N.jpg","img/neutralC/CFD-WF-002-004-N.jpg","1","1","1","1","1","0","0.447684499435127","0.472918199375272","0.470434799790382","1","1","1","1","1","1","1","1","1"
"250001","img/neutralC/CFD-WF-002-004-N.jpg","img/neutralC/CFD-MM-319-052-N.jpg","img/neutralC/CFD-WM-225-127-N.jpg","1","1","1","0","1","0","0.470434799790382","0.447684499435127","0.489247199613601","1","1","1","1","1","1","1","1","1"
"250001","img/neutralC/CFD-WM-225-127-N.jpg","img/neutralC/CFD-WF-002-004-N.jpg","img/neutralC/CFD-AM-235-241-N.jpg","1","1","1","0","0","0","0.489247199613601","0.470434799790382","0.535112199839205","1","1","1","1","1","1","1","1","1"
"250001","img/neutralC/CFD-AM-235-241-N.jpg","img/neutralC/CFD-WM-225-127-N.jpg","img/neutralC/CFD-BF-028-001-N.jpg","1","1","1","0","0","1","0.535112199839205","0.489247199613601","0.416278599761427","1","1","1","1","1","1","1","1","1"
"250001","img/neutralC/CFD-BF-028-001-N.jpg","img/neutralC/CFD-AM-235-241-N.jpg","img/neutralC/CFD-LF-236-221-N.jpg","1","1","1","1","0","1","0.416278599761427","0.535112199839205","0.502990899607539","1","1","1","1","1","1","1","1","1"
"250001","img/neutralC/CFD-LF-236-221-N.jpg","img/neutralC/CFD-BF-028-001-N.jpg","img/neutralC/CFD-IM-728-041-N.jpg","1","1","1","1","1","0","0.502990899607539","0.416278599761427","0.437687899917364","1","1","1","1","1","1","1","1","1"
"250001","img/neutralC/CFD-IM-728-041-N.jpg","img/neutralC/CFD-LF-236-221-N.jpg","img/neutralC/CFD-BM-015-015-N.jpg","1","1","1","0","1","0","0.437687899917364","0.502990899607539","0.458113099448383","1","1","1","1","1","1","1","1","1"
"250001","img/neutralC/CFD-BM-015-015-N.jpg","img/neutralC/CFD-IM-728-041-N.jpg","img/neutralC/CFD-WM-002-009-N.jpg","1","1","1","0","0","0","0.458113099448383","0.437687899917364","0.462041299790144","1","1","1","1","1","1","1","1","1"
"250001","img/neutralC/CFD-WM-002-009-N.jpg","img/neutralC/CFD-BM-015-015-N.jpg","img/neutralC/CFD-BF-208-266-N.jpg","1","1","1","0","0","0","0.462041299790144","0.458113099448383","0.536727199330926","1","1","1","1","1","1","1","1","1"
"250001","img/neutralC/CFD-BF-208-266-N.jpg","img/neutralC/CFD-WM-002-009-N.jpg","img/neutralC/CFD-BF-201-080-N.jpg","1","1","1","0","0","1","0.536727199330926","0.462041299790144","0.479044399689883","1","1","1","1","1","1","1","1","1"
"250001","img/neutralC/CFD-BF-201-080-N.jpg","img/neutralC/CFD-BF-208-266-N.jpg","img/neutralC/CFD-BF-023-010-N.jpg","1","1","1","1","0","1","0.479044399689883","0.536727199330926","0.389499099459499","1","1","1","1","1","1","1","1","1"
"250001","img/neutralC/CFD-BF-023-010-N.jpg","img/neutralC/CFD-BF-201-080-N.jpg",NA,"1","1",NA,"1","1",NA,"0.389499099459499","0.479044399689883",NA,"1","1",NA,"1","1",NA,"1","1",NA
"250001","img/neutralC/CFD-WF-033-002-N.jpg",NA,"img/neutralC/CFD-IM-738-191-N.jpg","1",NA,"1","1",NA,"0","0.71084429975599",NA,"0.492607599589974","1",NA,"1","1",NA,"1","1",NA,"1"
"250001","img/neutralC/CFD-IM-738-191-N.jpg","img/neutralC/CFD-WF-033-002-N.jpg","img/neutralC/CFD-AM-221-184-N.jpg","1","1","1","0","1","1","0.492607599589974","0.71084429975599","0.38182729948312","1","1","1","1","1","1","1","1","1"
"250001","img/neutralC/CFD-AM-221-184-N.jpg","img/neutralC/CFD-IM-738-191-N.jpg","img/neutralC/CFD-AF-210-050-N.jpg","1","1","1","1","0","1","0.38182729948312","0.492607599589974","0.40473509952426","1","1","1","1","1","1","1","1","1"
"250001","img/neutralC/CFD-AF-210-050-N.jpg","img/neutralC/CFD-AM-221-184-N.jpg","img/neutralC/CFD-LF-208-127-N.jpg","1","1","1","1","1","0","0.40473509952426","0.38182729948312","0.394165999721736","1","1","1","1","1","1","1","1","1"
"250001","img/neutralC/CFD-LF-208-127-N.jpg","img/neutralC/CFD-AF-210-050-N.jpg","img/neutralC/CFD-AF-227-207-N.jpg","1","1","1","0","1","1","0.394165999721736","0.40473509952426","0.39008649950847","1","1","1","1","1","1","1","1","1"
"250001","img/neutralC/CFD-AF-227-207-N.jpg","img/neutralC/CFD-LF-208-127-N.jpg","img/neutralC/CFD-LF-210-220-N.jpg","1","1","1","1","0","1","0.39008649950847","0.394165999721736","0.365532399620861","1","1","1","1","1","1","1","1","1"
"250001","img/neutralC/CFD-LF-210-220-N.jpg","img/neutralC/CFD-AF-227-207-N.jpg","img/neutralC/CFD-WM-228-065-N.jpg","1","1","1","1","1","0","0.365532399620861","0.39008649950847","0.454703199677169","1","1","1","1","1","1","1","1","1"
"250001","img/neutralC/CFD-WM-228-065-N.jpg","img/neutralC/CFD-LF-210-220-N.jpg","img/neutralC/CFD-BM-013-002-N.jpg","1","1","1","0","1","1","0.454703199677169","0.365532399620861","0.344681799877435","1","1","1","1","1","1","1","1","1"
"250001","img/neutralC/CFD-BM-013-002-N.jpg","img/neutralC/CFD-WM-228-065-N.jpg","img/neutralC/CFD-BM-213-134-N.jpg","1","1","1","1","0","1","0.344681799877435","0.454703199677169","0.40631049964577","1","1","1","1","1","1","1","1","1"
"250001","img/neutralC/CFD-BM-213-134-N.jpg","img/neutralC/CFD-BM-013-002-N.jpg","img/neutralC/CFD-WM-254-152-N.jpg","1","1","1","1","1","1","0.40631049964577","0.344681799877435","0.363791499752551","1","1","1","1","1","1","1","1","1"
"250001","img/neutralC/CFD-WM-254-152-N.jpg","img/neutralC/CFD-BM-213-134-N.jpg","img/neutralC/CFD-BM-010-003-N.jpg","1","1","1","1","1","0","0.363791499752551","0.40631049964577","0.352627299726009","1","1","1","1","1","1","1","1","1"
"250001","img/neutralC/CFD-BM-010-003-N.jpg","img/neutralC/CFD-WM-254-152-N.jpg","img/neutralC/CFD-IM-659-359-N.jpg","1","1","1","0","1","0","0.352627299726009","0.363791499752551","0.468669199384749","1","1","1","1","1","1","1","1","1"
"250001","img/neutralC/CFD-IM-659-359-N.jpg","img/neutralC/CFD-BM-010-003-N.jpg","img/neutralC/CFD-WF-006-002-N.jpg","1","1","1","0","0","0","0.468669199384749","0.352627299726009","0.384766799397767","1","1","1","1","1","1","1","1","1"
"250001","img/neutralC/CFD-WF-006-002-N.jpg","img/neutralC/CFD-IM-659-359-N.jpg","img/neutralC/CFD-LF-241-188-N.jpg","1","1","1","0","0","0","0.384766799397767","0.468669199384749","0.4693916994147","1","1","1","1","1","1","1","1","1"
"250001","img/neutralC/CFD-LF-241-188-N.jpg","img/neutralC/CFD-WF-006-002-N.jpg","img/neutralC/CFD-LM-247-095-N.jpg","1","1","1","0","0","0","0.4693916994147","0.384766799397767","0.49103059945628","1","1","1","1","1","1","1","1","1"
"250001","img/neutralC/CFD-LM-247-095-N.jpg","img/neutralC/CFD-LF-241-188-N.jpg","img/neutralC/CFD-WF-223-133-N.jpg","1","1","1","0","0","0","0.49103059945628","0.4693916994147","0.457982299849391","1","1","1","1","1","1","1","1","1"
"250001","img/neutralC/CFD-WF-223-133-N.jpg","img/neutralC/CFD-LM-247-095-N.jpg","img/neutralC/CFD-IF-673-389-N.jpg","1","1","1","0","0","0","0.457982299849391","0.49103059945628","0.50076359976083","1","1","1","1","1","1","1","1","1"
"250001","img/neutralC/CFD-IF-673-389-N.jpg","img/neutralC/CFD-WF-223-133-N.jpg","img/neutralC/CFD-BM-003-003-N.jpg","1","1","1","0","0","0","0.50076359976083","0.457982299849391","0.447053799871355","1","1","1","1","1","1","1","1","1"
"250001","img/neutralC/CFD-BM-003-003-N.jpg","img/neutralC/CFD-IF-673-389-N.jpg","img/neutralC/CFD-IM-701-312-N.jpg","1","1","1","0","0","0","0.447053799871355","0.50076359976083","0.428829999640584","1","1","1","1","1","1","1","1","1"
"250001","img/neutralC/CFD-IM-701-312-N.jpg","img/neutralC/CFD-BM-003-003-N.jpg","img/neutralC/CFD-WM-202-107-N.jpg","1","1","1","0","0","1","0.428829999640584","0.447053799871355","0.491353299468756","1","1","1","1","1","1","1","1","1"
"250001","img/neutralC/CFD-WM-202-107-N.jpg","img/neutralC/CFD-IM-701-312-N.jpg","img/neutralC/CFD-LM-238-129-N.jpg","1","1","1","1","0","1","0.491353299468756","0.428829999640584","0.387997899670154","1","1","1","1","1","1","1","1","1"
"250001","img/neutralC/CFD-LM-238-129-N.jpg","img/neutralC/CFD-WM-202-107-N.jpg","img/neutralC/CFD-BF-045-003-N.jpg","1","1","1","1","1","0","0.387997899670154","0.491353299468756","0.426152599975467","1","1","1","1","1","1","1","1","1"
"250001","img/neutralC/CFD-BF-045-003-N.jpg","img/neutralC/CFD-LM-238-129-N.jpg","img/neutralC/CFD-AF-239-171-N.jpg","1","1","1","0","1","1","0.426152599975467","0.387997899670154","0.441307399887592","1","1","1","1","1","1","1","1","1"
"250001","img/neutralC/CFD-AF-239-171-N.jpg","img/neutralC/CFD-BF-045-003-N.jpg","img/neutralC/CFD-IF-744-114-N.jpg","1","1","1","1","0","0","0.441307399887592","0.426152599975467","0.388246099930257","1","1","1","1","1","1","1","1","1"
"250001","img/neutralC/CFD-IF-744-114-N.jpg","img/neutralC/CFD-AF-239-171-N.jpg","img/neutralC/CFD-BF-222-240-N.jpg","1","1","1","0","1","0","0.388246099930257","0.441307399887592","0.393130499403924","1","1","1","1","1","1","1","1","1"
"250001","img/neutralC/CFD-BF-222-240-N.jpg","img/neutralC/CFD-IF-744-114-N.jpg","img/neutralC/CFD-LF-225-164-N.jpg","1","1","1","0","0","1","0.393130499403924","0.388246099930257","0.412046799436212","1","1","1","1","1","1","1","1","1"
"250001","img/neutralC/CFD-LF-225-164-N.jpg","img/neutralC/CFD-BF-222-240-N.jpg","img/neutralC/CFD-BF-004-014-N.jpg","1","1","1","1","0","1","0.412046799436212","0.393130499403924","0.394576399587095","1","1","1","1","1","1","1","1","1"
"250001","img/neutralC/CFD-BF-004-014-N.jpg","img/neutralC/CFD-LF-225-164-N.jpg","img/neutralC/CFD-MF-312-002-N.jpg","1","1","1","1","1","1","0.394576399587095","0.412046799436212","0.430395399685949","1","1","1","1","1","1","1","1","1"
"250001","img/neutralC/CFD-MF-312-002-N.jpg","img/neutralC/CFD-BF-004-014-N.jpg","img/neutralC/CFD-IF-625-225-N.jpg","1","1","1","1","1","0","0.430395399685949","0.394576399587095","0.406611699610949","1","1","1","1","1","1","1","1","1"
"250001","img/neutralC/CFD-IF-625-225-N.jpg","img/neutralC/CFD-MF-312-002-N.jpg","img/neutralC/CFD-BM-028-002-N.jpg","1","1","1","0","1","1","0.406611699610949","0.430395399685949","0.423790999688208","1","1","1","1","1","1","1","1","1"
"250001","img/neutralC/CFD-BM-028-002-N.jpg","img/neutralC/CFD-IF-625-225-N.jpg","img/neutralC/CFD-MF-336-016-N.jpg","1","1","1","1","0","1","0.423790999688208","0.406611699610949","0.46155839972198","1","1","1","1","1","1","1","1","1"
"250001","img/neutralC/CFD-MF-336-016-N.jpg","img/neutralC/CFD-BM-028-002-N.jpg",NA,"1","1",NA,"1","1",NA,"0.46155839972198","0.423790999688208",NA,"1","1",NA,"1","1",NA,"1","1",NA
"250001","img/neutralC/CFD-WF-200-099-N.jpg",NA,"img/neutralC/CFD-MF-333-012-N.jpg","1",NA,"1","0",NA,"0","1.63660439942032",NA,"0.654705799650401","1",NA,"1","1",NA,"1","1",NA,"1"
"250001","img/neutralC/CFD-MF-333-012-N.jpg","img/neutralC/CFD-WF-200-099-N.jpg","img/neutralC/CFD-MF-352-054-N.jpg","1","1","1","0","0","0","0.654705799650401","1.63660439942032","0.519231499638408","1","1","1","1","1","1","1","1","1"
"250001","img/neutralC/CFD-MF-352-054-N.jpg","img/neutralC/CFD-MF-333-012-N.jpg","img/neutralC/CFD-WF-214-122-N.jpg","1","1","1","0","0","1","0.519231499638408","0.654705799650401","0.429002199321985","1","1","1","1","1","1","1","1","1"
"250001","img/neutralC/CFD-WF-214-122-N.jpg","img/neutralC/CFD-MF-352-054-N.jpg","img/neutralC/CFD-BM-225-154-N.jpg","1","1","1","1","0","1","0.429002199321985","0.519231499638408","0.367946299724281","1","1","1","1","1","1","1","1","1"
"250001","img/neutralC/CFD-BM-225-154-N.jpg","img/neutralC/CFD-WF-214-122-N.jpg","img/neutralC/CFD-BF-038-037-N.jpg","1","1","1","1","1","1","0.367946299724281","0.429002199321985","0.457098299637437","1","1","1","1","1","1","1","1","1"
"250001","img/neutralC/CFD-BF-038-037-N.jpg","img/neutralC/CFD-BM-225-154-N.jpg","img/neutralC/CFD-LM-237-264-N.jpg","1","1","1","1","1","0","0.457098299637437","0.367946299724281","0.547719899564981","1","1","1","1","1","1","1","1","1"
"250001","img/neutralC/CFD-LM-237-264-N.jpg","img/neutralC/CFD-BF-038-037-N.jpg","img/neutralC/CFD-AM-211-052-N.jpg","1","1","1","0","1","1","0.547719899564981","0.457098299637437","0.363457899540663","1","1","1","1","1","1","1","1","1"
"250001","img/neutralC/CFD-AM-211-052-N.jpg","img/neutralC/CFD-LM-237-264-N.jpg","img/neutralC/CFD-BM-253-004-N.jpg","1","1","1","1","0","1","0.363457899540663","0.547719899564981","0.403813499957323","1","1","1","1","1","1","1","1","1"
"250001","img/neutralC/CFD-BM-253-004-N.jpg","img/neutralC/CFD-AM-211-052-N.jpg","img/neutralC/CFD-MF-359-019-N.jpg","1","1","1","1","1","0","0.403813499957323","0.363457899540663","0.538843999616802","1","1","1","1","1","1","1","1","1"
"250001","img/neutralC/CFD-MF-359-019-N.jpg","img/neutralC/CFD-BM-253-004-N.jpg","img/neutralC/CFD-WF-036-023-N.jpg","1","1","1","0","1","0","0.538843999616802","0.403813499957323","0.465292099863291","1","1","1","1","1","1","1","1","1"
"250001","img/neutralC/CFD-WF-036-023-N.jpg","img/neutralC/CFD-MF-359-019-N.jpg","img/neutralC/CFD-LM-228-188-N.jpg","1","1","1","0","0","1","0.465292099863291","0.538843999616802","0.413435499649495","1","1","1","1","1","1","1","1","1"
"250001","img/neutralC/CFD-LM-228-188-N.jpg","img/neutralC/CFD-WF-036-023-N.jpg","img/neutralC/CFD-IM-616-214-N.jpg","1","1","1","1","0","0","0.413435499649495","0.465292099863291","0.456143299583346","1","1","1","1","1","1","1","1","1"
"250001","img/neutralC/CFD-IM-616-214-N.jpg","img/neutralC/CFD-LM-228-188-N.jpg","img/neutralC/CFD-IF-650-315-N.jpg","1","1","1","0","1","0","0.456143299583346","0.413435499649495","0.452426999341697","1","1","1","1","1","1","1","1","1"
"250001","img/neutralC/CFD-IF-650-315-N.jpg","img/neutralC/CFD-IM-616-214-N.jpg","img/neutralC/CFD-WM-004-010-N.jpg","1","1","1","0","0","0","0.452426999341697","0.456143299583346","0.471933199558407","1","1","1","1","1","1","1","1","1"
"250001","img/neutralC/CFD-WM-004-010-N.jpg","img/neutralC/CFD-IF-650-315-N.jpg","img/neutralC/CFD-AM-251-124-N.jpg","1","1","1","0","0","0","0.471933199558407","0.452426999341697","0.471716299653053","1","1","1","1","1","1","1","1","1"
"250001","img/neutralC/CFD-AM-251-124-N.jpg","img/neutralC/CFD-WM-004-010-N.jpg","img/neutralC/CFD-BF-229-179-N.jpg","1","1","1","0","0","0","0.471716299653053","0.471933199558407","0.428031099494547","1","1","1","1","1","1","1","1","1"
"250001","img/neutralC/CFD-BF-229-179-N.jpg","img/neutralC/CFD-AM-251-124-N.jpg","img/neutralC/CFD-BF-226-119-N.jpg","1","1","1","0","0","1","0.428031099494547","0.471716299653053","0.470213099382818","1","1","1","1","1","1","1","1","1"
"250001","img/neutralC/CFD-BF-226-119-N.jpg","img/neutralC/CFD-BF-229-179-N.jpg","img/neutralC/CFD-IM-743-006-N.jpg","1","1","1","1","0","1","0.470213099382818","0.428031099494547","0.422284999396652","1","1","1","1","1","1","1","1","1"
"250001","img/neutralC/CFD-IM-743-006-N.jpg","img/neutralC/CFD-BF-226-119-N.jpg","img/neutralC/CFD-AM-242-176-N.jpg","1","1","1","1","1","1","0.422284999396652","0.470213099382818","0.398459899704903","1","1","1","1","1","1","1","1","1"
"250001","img/neutralC/CFD-AM-242-176-N.jpg","img/neutralC/CFD-IM-743-006-N.jpg","img/neutralC/CFD-IM-703-182-N.jpg","1","1","1","1","1","1","0.398459899704903","0.422284999396652","0.498651399277151","1","1","1","1","1","1","1","1","1"
"250001","img/neutralC/CFD-IM-703-182-N.jpg","img/neutralC/CFD-AM-242-176-N.jpg","img/neutralC/CFD-WM-219-008-N.jpg","1","1","1","1","1","0","0.498651399277151","0.398459899704903","0.689284099265933","1","1","1","1","1","1","1","1","1"
"250001","img/neutralC/CFD-WM-219-008-N.jpg","img/neutralC/CFD-IM-703-182-N.jpg","img/neutralC/CFD-LF-218-072-N.jpg","1","1","1","0","1","0","0.689284099265933","0.498651399277151","0.42052899999544","1","1","1","1","1","1","1","1","1"
"250001","img/neutralC/CFD-LF-218-072-N.jpg","img/neutralC/CFD-WM-219-008-N.jpg","img/neutralC/CFD-BF-232-187-N.jpg","1","1","1","0","0","1","0.42052899999544","0.689284099265933","0.419139899779111","1","1","1","1","1","1","1","1","1"
"250001","img/neutralC/CFD-BF-232-187-N.jpg","img/neutralC/CFD-LF-218-072-N.jpg","img/neutralC/CFD-WM-020-001-N.jpg","1","1","1","1","0","1","0.419139899779111","0.42052899999544","0.646963499486446","1","1","1","1","1","1","1","1","1"
"250001","img/neutralC/CFD-WM-020-001-N.jpg","img/neutralC/CFD-BF-232-187-N.jpg","img/neutralC/CFD-IF-623-129-N.jpg","1","1","1","1","1","1","0.646963499486446","0.419139899779111","0.423304199706763","1","1","1","1","1","1","1","1","1"
"250001","img/neutralC/CFD-IF-623-129-N.jpg","img/neutralC/CFD-WM-020-001-N.jpg","img/neutralC/CFD-WM-033-025-N.jpg","1","1","1","1","1","1","0.423304199706763","0.646963499486446","0.467990399803966","1","1","1","1","1","1","1","1","1"
"250001","img/neutralC/CFD-WM-033-025-N.jpg","img/neutralC/CFD-IF-623-129-N.jpg","img/neutralC/CFD-IM-645-001-N.jpg","1","1","1","1","1","0","0.467990399803966","0.423304199706763","0.446359099354595","1","1","1","1","1","1","1","1","1"
"250001","img/neutralC/CFD-IM-645-001-N.jpg","img/neutralC/CFD-WM-033-025-N.jpg","img/neutralC/CFD-IM-671-601-N.jpg","1","1","1","0","1","0","0.446359099354595","0.467990399803966","0.48754149954766","1","1","1","1","1","1","1","1","1"
"250001","img/neutralC/CFD-IM-671-601-N.jpg","img/neutralC/CFD-IM-645-001-N.jpg","img/neutralC/CFD-WM-235-147-N.jpg","1","1","1","0","0","0","0.48754149954766","0.446359099354595","0.467474799603224","1","1","1","1","1","1","1","1","1"
"250001","img/neutralC/CFD-WM-235-147-N.jpg","img/neutralC/CFD-IM-671-601-N.jpg","img/neutralC/CFD-LF-220-120-N.jpg","1","1","1","0","0","1","0.467474799603224","0.48754149954766","0.43882429972291","1","1","1","1","1","1","1","1","1"
"250001","img/neutralC/CFD-LF-220-120-N.jpg","img/neutralC/CFD-WM-235-147-N.jpg","img/neutralC/CFD-WF-001-003-N.jpg","1","1","1","1","0","1","0.43882429972291","0.467474799603224","0.457870599348098","1","1","1","1","1","1","1","1","1"
"250001","img/neutralC/CFD-WF-001-003-N.jpg","img/neutralC/CFD-LF-220-120-N.jpg",NA,"1","1",NA,"1","1",NA,"0.457870599348098","0.43882429972291",NA,"1","1",NA,"1","1",NA,"1","1",NA
"250001","img/neutralC/CFD-BF-253-202-N.jpg",NA,"img/neutralC/CFD-AM-201-076-N.jpg","1",NA,"1","0",NA,"1","0.91759239975363",NA,"0.519916399382055","1",NA,"1","1",NA,"1","1",NA,"1"
"250001","img/neutralC/CFD-AM-201-076-N.jpg","img/neutralC/CFD-BF-253-202-N.jpg","img/neutralC/CFD-IM-651-308-N.jpg","1","1","1","1","0","0","0.519916399382055","0.91759239975363","0.389828299637884","1","1","1","1","1","1","1","1","1"
"250001","img/neutralC/CFD-IM-651-308-N.jpg","img/neutralC/CFD-AM-201-076-N.jpg","img/neutralC/CFD-LF-214-090-N.jpg","1","1","1","0","1","0","0.389828299637884","0.519916399382055","0.444237599615008","1","1","1","1","1","1","1","1","1"
"250001","img/neutralC/CFD-LF-214-090-N.jpg","img/neutralC/CFD-IM-651-308-N.jpg","img/neutralC/CFD-LF-230-203-N.jpg","1","1","1","0","0","0","0.444237599615008","0.389828299637884","0.548982299864292","1","1","1","1","1","1","1","1","1"
"250001","img/neutralC/CFD-LF-230-203-N.jpg","img/neutralC/CFD-LF-214-090-N.jpg","img/neutralC/CFD-WM-041-021-N.jpg","1","1","1","0","0","0","0.548982299864292","0.444237599615008","0.393316200003028","1","1","1","1","1","1","1","1","1"
"250001","img/neutralC/CFD-WM-041-021-N.jpg","img/neutralC/CFD-LF-230-203-N.jpg","img/neutralC/CFD-LF-203-066-N.jpg","1","1","1","0","0","0","0.393316200003028","0.548982299864292","0.541736999992281","1","1","1","1","1","1","1","1","1"
"250001","img/neutralC/CFD-LF-203-066-N.jpg","img/neutralC/CFD-WM-041-021-N.jpg","img/neutralC/CFD-IM-684-008-N.jpg","1","1","1","0","0","1","0.541736999992281","0.393316200003028","0.437452899757773","1","1","1","1","1","1","1","1","1"
"250001","img/neutralC/CFD-IM-684-008-N.jpg","img/neutralC/CFD-LF-203-066-N.jpg","img/neutralC/CFD-WF-224-099-N.jpg","1","1","1","1","0","0","0.437452899757773","0.541736999992281","0.435690499842167","1","1","1","1","1","1","1","1","1"
"250001","img/neutralC/CFD-WF-224-099-N.jpg","img/neutralC/CFD-IM-684-008-N.jpg","img/neutralC/CFD-IF-634-382-N.jpg","1","1","1","0","1","1","0.435690499842167","0.437452899757773","0.474452899768949","1","1","1","1","1","1","1","1","1"
"250001","img/neutralC/CFD-IF-634-382-N.jpg","img/neutralC/CFD-WF-224-099-N.jpg","img/neutralC/CFD-BM-019-002-N.jpg","1","1","1","1","0","0","0.474452899768949","0.435690499842167","0.460865099448711","1","1","1","1","1","1","1","1","1"
"250001","img/neutralC/CFD-BM-019-002-N.jpg","img/neutralC/CFD-IF-634-382-N.jpg","img/neutralC/CFD-BM-239-136-N.jpg","1","1","1","0","1","1","0.460865099448711","0.474452899768949","0.517472299747169","1","1","1","1","1","1","1","1","1"
"250001","img/neutralC/CFD-BM-239-136-N.jpg","img/neutralC/CFD-BM-019-002-N.jpg","img/neutralC/CFD-LF-205-100-N.jpg","1","1","1","1","0","1","0.517472299747169","0.460865099448711","0.657283199951053","1","1","1","1","1","1","1","1","1"
"250001","img/neutralC/CFD-LF-205-100-N.jpg","img/neutralC/CFD-BM-239-136-N.jpg","img/neutralC/CFD-MM-316-156-N.jpg","1","1","1","1","1","1","0.657283199951053","0.517472299747169","0.420498599298298","1","1","1","1","1","1","1","1","1"
"250001","img/neutralC/CFD-MM-316-156-N.jpg","img/neutralC/CFD-LF-205-100-N.jpg","img/neutralC/CFD-BF-039-031-N.jpg","1","1","1","1","1","1","0.420498599298298","0.657283199951053","0.354255999438465","1","1","1","1","1","1","1","1","1"
"250001","img/neutralC/CFD-BF-039-031-N.jpg","img/neutralC/CFD-MM-316-156-N.jpg","img/neutralC/CFD-AM-212-050-N.jpg","1","1","1","1","1","1","0.354255999438465","0.420498599298298","0.416148199699819","1","1","1","1","1","1","1","1","1"
"250001","img/neutralC/CFD-AM-212-050-N.jpg","img/neutralC/CFD-BF-039-031-N.jpg","img/neutralC/CFD-BF-205-141-N.jpg","1","1","1","1","1","0","0.416148199699819","0.354255999438465","0.431163099594414","1","1","1","1","1","1","1","1","1"
"250001","img/neutralC/CFD-BF-205-141-N.jpg","img/neutralC/CFD-AM-212-050-N.jpg","img/neutralC/CFD-IF-693-172-N.jpg","1","1","1","0","1","0","0.431163099594414","0.416148199699819","0.452647699508816","1","1","1","1","1","1","1","1","1"
"250001","img/neutralC/CFD-IF-693-172-N.jpg","img/neutralC/CFD-BF-205-141-N.jpg","img/neutralC/CFD-WF-213-031-N.jpg","1","1","1","0","0","1","0.452647699508816","0.431163099594414","0.415261899586767","1","1","1","1","1","1","1","1","1"
"250001","img/neutralC/CFD-WF-213-031-N.jpg","img/neutralC/CFD-IF-693-172-N.jpg","img/neutralC/CFD-WM-011-002-N.jpg","1","1","1","1","0","0","0.415261899586767","0.452647699508816","0.378978699911386","1","1","1","1","1","1","1","1","1"
"250001","img/neutralC/CFD-WM-011-002-N.jpg","img/neutralC/CFD-WF-213-031-N.jpg","img/neutralC/CFD-AF-231-357-N.jpg","1","1","1","0","1","1","0.378978699911386","0.415261899586767","0.462877599522471","1","1","1","1","1","1","1","1","1"
"250001","img/neutralC/CFD-AF-231-357-N.jpg","img/neutralC/CFD-WM-011-002-N.jpg","img/neutralC/CFD-WF-250-167-N.jpg","1","1","1","1","0","1","0.462877599522471","0.378978699911386","0.533928499557078","1","1","1","1","1","1","1","1","1"
"250001","img/neutralC/CFD-WF-250-167-N.jpg","img/neutralC/CFD-AF-231-357-N.jpg","img/neutralC/CFD-IF-710-016-N.jpg","1","1","1","1","1","0","0.533928499557078","0.462877599522471","1.14505399949849","1","1","1","1","1","1","1","1","1"
"250001","img/neutralC/CFD-IF-710-016-N.jpg","img/neutralC/CFD-WF-250-167-N.jpg","img/neutralC/CFD-LM-215-247-N.jpg","1","1","1","0","1","0","1.14505399949849","0.533928499557078","0.468945299740881","1","1","1","1","1","1","1","1","1"
"250001","img/neutralC/CFD-LM-215-247-N.jpg","img/neutralC/CFD-IF-710-016-N.jpg","img/neutralC/CFD-BM-041-035-N.jpg","1","1","1","0","0","0","0.468945299740881","1.14505399949849","0.440133599564433","1","1","1","1","1","1","1","1","1"
"250001","img/neutralC/CFD-BM-041-035-N.jpg","img/neutralC/CFD-LM-215-247-N.jpg","img/neutralC/CFD-MF-337-026-N.jpg","1","1","1","0","0","1","0.440133599564433","0.468945299740881","0.468305099755526","1","1","1","1","1","1","1","1","1"
"250001","img/neutralC/CFD-MF-337-026-N.jpg","img/neutralC/CFD-BM-041-035-N.jpg","img/neutralC/CFD-BF-213-188-N.jpg","1","1","1","1","0","1","0.468305099755526","0.440133599564433","0.472039199899882","1","1","1","1","1","1","1","1","1"
"250001","img/neutralC/CFD-BF-213-188-N.jpg","img/neutralC/CFD-MF-337-026-N.jpg","img/neutralC/CFD-WM-021-001-N.jpg","1","1","1","1","1","1","0.472039199899882","0.468305099755526","0.393782999832183","1","1","1","1","1","1","1","1","1"
"250001","img/neutralC/CFD-WM-021-001-N.jpg","img/neutralC/CFD-BF-213-188-N.jpg","img/neutralC/CFD-LF-224-176-N.jpg","1","1","1","1","1","0","0.393782999832183","0.472039199899882","0.443432599771768","1","1","1","1","1","1","1","1","1"
"250001","img/neutralC/CFD-LF-224-176-N.jpg","img/neutralC/CFD-WM-021-001-N.jpg","img/neutralC/CFD-BM-033-003-N.jpg","1","1","1","0","1","0","0.443432599771768","0.393782999832183","0.464964799582958","1","1","1","1","1","1","1","1","1"
"250001","img/neutralC/CFD-BM-033-003-N.jpg","img/neutralC/CFD-LF-224-176-N.jpg","img/neutralC/CFD-BF-029-031-N.jpg","1","1","1","0","0","1","0.464964799582958","0.443432599771768","0.424244899302721","1","1","1","1","1","1","1","1","1"
"250001","img/neutralC/CFD-BF-029-031-N.jpg","img/neutralC/CFD-BM-033-003-N.jpg","img/neutralC/CFD-LM-218-183-N.jpg","1","1","1","1","0","1","0.424244899302721","0.464964799582958","0.406902999617159","1","1","1","1","1","1","1","1","1"
"250001","img/neutralC/CFD-LM-218-183-N.jpg","img/neutralC/CFD-BF-029-031-N.jpg",NA,"1","1",NA,"1","1",NA,"0.406902999617159","0.424244899302721",NA,"1","1",NA,"1","1",NA,"1","1",NA
"250001","img/neutralC/CFD-WM-249-239-N.jpg",NA,"img/neutralC/CFD-IF-642-295-N.jpg","1",NA,"1","1",NA,"1","0.548408199567348",NA,"0.371786899864674","1",NA,"1","1",NA,"1","1",NA,"1"
"250001","img/neutralC/CFD-IF-642-295-N.jpg","img/neutralC/CFD-WM-249-239-N.jpg","img/neutralC/CFD-BM-248-128-N.jpg","1","1","1","1","1","0","0.371786899864674","0.548408199567348","0.448068199679255","1","1","1","1","1","1","1","1","1"
"250001","img/neutralC/CFD-BM-248-128-N.jpg","img/neutralC/CFD-IF-642-295-N.jpg","img/neutralC/CFD-BM-251-013-N.jpg","1","1","1","0","1","1","0.448068199679255","0.371786899864674","0.40621479973197","1","1","1","1","1","1","1","1","1"
"250001","img/neutralC/CFD-BM-251-013-N.jpg","img/neutralC/CFD-BM-248-128-N.jpg","img/neutralC/CFD-IM-648-337-N.jpg","1","1","1","1","0","0","0.40621479973197","0.448068199679255","0.435863399878144","1","1","1","1","1","1","1","1","1"
"250001","img/neutralC/CFD-IM-648-337-N.jpg","img/neutralC/CFD-BM-251-013-N.jpg","img/neutralC/CFD-MF-309-002-N.jpg","1","1","1","0","1","0","0.435863399878144","0.40621479973197","0.373840499669313","1","1","1","1","1","1","1","1","1"
"250001","img/neutralC/CFD-MF-309-002-N.jpg","img/neutralC/CFD-IM-648-337-N.jpg","img/neutralC/CFD-WM-006-002-N.jpg","1","1","1","0","0","0","0.373840499669313","0.435863399878144","0.444999599829316","1","1","1","1","1","1","1","1","1"
"250001","img/neutralC/CFD-WM-006-002-N.jpg","img/neutralC/CFD-MF-309-002-N.jpg","img/neutralC/CFD-WF-240-083-N.jpg","1","1","1","0","0","0","0.444999599829316","0.373840499669313","0.488690999802202","1","1","1","1","1","1","1","1","1"
"250001","img/neutralC/CFD-WF-240-083-N.jpg","img/neutralC/CFD-WM-006-002-N.jpg","img/neutralC/CFD-WF-005-010-N.jpg","1","1","1","0","0","0","0.488690999802202","0.444999599829316","0.536550099495798","1","1","1","1","1","1","1","1","1"
"250001","img/neutralC/CFD-WF-005-010-N.jpg","img/neutralC/CFD-WF-240-083-N.jpg","img/neutralC/CFD-BF-202-109-N.jpg","1","1","1","0","0","1","0.536550099495798","0.488690999802202","0.336017199791968","1","1","1","1","1","1","1","1","1"
"250001","img/neutralC/CFD-BF-202-109-N.jpg","img/neutralC/CFD-WF-005-010-N.jpg","img/neutralC/CFD-IM-646-023-N.jpg","1","1","1","1","0","1","0.336017199791968","0.536550099495798","0.412779599893838","1","1","1","1","1","1","1","1","1"
"250001","img/neutralC/CFD-IM-646-023-N.jpg","img/neutralC/CFD-BF-202-109-N.jpg","img/neutralC/CFD-MM-317-061-N.jpg","1","1","1","1","1","1","0.412779599893838","0.336017199791968","0.477456199936569","1","1","1","1","1","1","1","1","1"
"250001","img/neutralC/CFD-MM-317-061-N.jpg","img/neutralC/CFD-IM-646-023-N.jpg","img/neutralC/CFD-LM-243-075-N.jpg","1","1","1","1","1","0","0.477456199936569","0.412779599893838","0.388275299686939","1","1","1","1","1","1","1","1","1"
"250001","img/neutralC/CFD-LM-243-075-N.jpg","img/neutralC/CFD-MM-317-061-N.jpg","img/neutralC/CFD-WM-212-097-N.jpg","1","1","1","0","1","0","0.388275299686939","0.477456199936569","0.469952399842441","1","1","1","1","1","1","1","1","1"
"250001","img/neutralC/CFD-WM-212-097-N.jpg","img/neutralC/CFD-LM-243-075-N.jpg","img/neutralC/CFD-BF-025-002-N.jpg","1","1","1","0","0","0","0.469952399842441","0.388275299686939","0.454671799670905","1","1","1","1","1","1","1","1","1"
"250001","img/neutralC/CFD-BF-025-002-N.jpg","img/neutralC/CFD-WM-212-097-N.jpg","img/neutralC/CFD-BF-041-001-N.jpg","1","1","1","0","0","1","0.454671799670905","0.469952399842441","0.385069799609482","1","1","1","1","1","1","1","1","1"
"250001","img/neutralC/CFD-BF-041-001-N.jpg","img/neutralC/CFD-BF-025-002-N.jpg","img/neutralC/CFD-LM-244-068-N.jpg","1","1","1","1","0","1","0.385069799609482","0.454671799670905","0.356252999510616","1","1","1","1","1","1","1","1","1"
"250001","img/neutralC/CFD-LM-244-068-N.jpg","img/neutralC/CFD-BF-041-001-N.jpg","img/neutralC/CFD-WF-017-003-N.jpg","1","1","1","1","1","1","0.356252999510616","0.385069799609482","0.429632599465549","1","1","1","1","1","1","1","1","1"
"250001","img/neutralC/CFD-WF-017-003-N.jpg","img/neutralC/CFD-LM-244-068-N.jpg","img/neutralC/CFD-BM-205-001-N.jpg","1","1","1","1","1","0","0.429632599465549","0.356252999510616","0.539468999486417","1","1","1","1","1","1","1","1","1"
"250001","img/neutralC/CFD-BM-205-001-N.jpg","img/neutralC/CFD-WF-017-003-N.jpg","img/neutralC/CFD-MF-335-002-N.jpg","1","1","1","0","1","0","0.539468999486417","0.429632599465549","0.464324999600649","1","1","1","1","1","1","1","1","1"
"250001","img/neutralC/CFD-MF-335-002-N.jpg","img/neutralC/CFD-BM-205-001-N.jpg","img/neutralC/CFD-AM-247-165-N.jpg","1","1","1","0","0","1","0.464324999600649","0.539468999486417","0.351156899705529","1","1","1","1","1","1","1","1","1"
"250001","img/neutralC/CFD-AM-247-165-N.jpg","img/neutralC/CFD-MF-335-002-N.jpg","img/neutralC/CFD-WM-012-001-N.jpg","1","1","1","1","0","1","0.351156899705529","0.464324999600649","0.512214499991387","1","1","1","1","1","1","1","1","1"
"250001","img/neutralC/CFD-WM-012-001-N.jpg","img/neutralC/CFD-AM-247-165-N.jpg","img/neutralC/CFD-AF-240-206-N.jpg","1","1","1","1","1","0","0.512214499991387","0.351156899705529","0.395480499602854","1","1","1","1","1","1","1","1","1"
"250001","img/neutralC/CFD-AF-240-206-N.jpg","img/neutralC/CFD-WM-012-001-N.jpg","img/neutralC/CFD-WM-019-003-N.jpg","1","1","1","0","1","1","0.395480499602854","0.512214499991387","0.491795899346471","1","1","1","1","1","1","1","1","1"
"250001","img/neutralC/CFD-WM-019-003-N.jpg","img/neutralC/CFD-AF-240-206-N.jpg","img/neutralC/CFD-WF-228-196-N.jpg","1","1","1","1","0","0","0.491795899346471","0.395480499602854","0.414020599331707","1","1","1","1","1","1","1","1","1"
"250001","img/neutralC/CFD-WF-228-196-N.jpg","img/neutralC/CFD-WM-019-003-N.jpg","img/neutralC/CFD-BF-228-212-N.jpg","1","1","1","0","1","0","0.414020599331707","0.491795899346471","0.448175399564207","1","1","1","1","1","1","1","1","1"
"250001","img/neutralC/CFD-BF-228-212-N.jpg","img/neutralC/CFD-WF-228-196-N.jpg","img/neutralC/CFD-WM-026-001-N.jpg","1","1","1","0","0","1","0.448175399564207","0.414020599331707","0.397679099813104","1","1","1","1","1","1","1","1","1"
"250001","img/neutralC/CFD-WM-026-001-N.jpg","img/neutralC/CFD-BF-228-212-N.jpg","img/neutralC/CFD-LM-201-057-N.jpg","1","1","1","1","0","1","0.397679099813104","0.448175399564207","0.373129799496382","1","1","1","1","1","1","1","1","1"
"250001","img/neutralC/CFD-LM-201-057-N.jpg","img/neutralC/CFD-WM-026-001-N.jpg","img/neutralC/CFD-LM-214-165-N.jpg","1","1","1","1","1","1","0.373129799496382","0.397679099813104","0.419264999683946","1","1","1","1","1","1","1","1","1"
"250001","img/neutralC/CFD-LM-214-165-N.jpg","img/neutralC/CFD-LM-201-057-N.jpg","img/neutralC/CFD-LM-216-082-N.jpg","1","1","1","1","1","0","0.419264999683946","0.373129799496382","0.448903299868107","1","1","1","1","1","1","1","1","1"
"250001","img/neutralC/CFD-LM-216-082-N.jpg","img/neutralC/CFD-LM-214-165-N.jpg","img/neutralC/CFD-WM-215-041-N.jpg","1","1","1","0","1","0","0.448903299868107","0.419264999683946","0.40075849974528","1","1","1","1","1","1","1","1","1"
"250001","img/neutralC/CFD-WM-215-041-N.jpg","img/neutralC/CFD-LM-216-082-N.jpg","img/neutralC/CFD-BF-212-315-N.jpg","1","1","1","0","0","1","0.40075849974528","0.448903299868107","0.634965399745852","1","1","1","1","1","1","1","1","1"
"250001","img/neutralC/CFD-BF-212-315-N.jpg","img/neutralC/CFD-WM-215-041-N.jpg",NA,"1","1",NA,"1","0",NA,"0.634965399745852","0.40075849974528",NA,"1","1",NA,"1","1",NA,"1","1",NA
"250001","img/neutralC/CFD-MM-321-021-N.jpg",NA,"img/neutralC/CFD-LM-253-075-N.jpg","1",NA,"1","0",NA,"0","0.700324999634176",NA,"0.54007579991594","1",NA,"1","1",NA,"1","1",NA,"1"
"250001","img/neutralC/CFD-LM-253-075-N.jpg","img/neutralC/CFD-MM-321-021-N.jpg","img/neutralC/CFD-WM-237-052-N.jpg","1","1","1","0","0","1","0.54007579991594","0.700324999634176","0.386702199932188","1","1","1","1","1","1","1","1","1"
"250001","img/neutralC/CFD-WM-237-052-N.jpg","img/neutralC/CFD-LM-253-075-N.jpg","img/neutralC/CFD-WM-201-063-N.jpg","1","1","1","1","0","1","0.386702199932188","0.54007579991594","0.379528599325567","1","1","1","1","1","1","1","1","1"
"250001","img/neutralC/CFD-WM-201-063-N.jpg","img/neutralC/CFD-WM-237-052-N.jpg","img/neutralC/CFD-WM-009-002-N.jpg","1","1","1","1","1","0","0.379528599325567","0.386702199932188","0.559711499605328","1","1","1","1","1","1","1","1","1"
"250001","img/neutralC/CFD-WM-009-002-N.jpg","img/neutralC/CFD-WM-201-063-N.jpg","img/neutralC/CFD-IM-627-178-N.jpg","1","1","1","0","1","1","0.559711499605328","0.379528599325567","0.374427199363708","1","1","1","1","1","1","1","1","1"
"250001","img/neutralC/CFD-IM-627-178-N.jpg","img/neutralC/CFD-WM-009-002-N.jpg","img/neutralC/CFD-BM-023-029-N.jpg","1","1","1","1","0","1","0.374427199363708","0.559711499605328","0.39785059960559","1","1","1","1","1","1","1","1","1"
"250001","img/neutralC/CFD-BM-023-029-N.jpg","img/neutralC/CFD-IM-627-178-N.jpg","img/neutralC/CFD-IF-629-234-N.jpg","1","1","1","1","1","0","0.39785059960559","0.374427199363708","0.437475099228323","1","1","1","1","1","1","1","1","1"
"250001","img/neutralC/CFD-IF-629-234-N.jpg","img/neutralC/CFD-BM-023-029-N.jpg","img/neutralC/CFD-WF-238-023-N.jpg","1","1","1","0","1","0","0.437475099228323","0.39785059960559","0.604930199682713","1","1","1","1","1","1","1","1","1"
"250001","img/neutralC/CFD-WF-238-023-N.jpg","img/neutralC/CFD-IF-629-234-N.jpg","img/neutralC/CFD-AF-221-147-N.jpg","1","1","1","0","0","0","0.604930199682713","0.437475099228323","0.440282099880278","1","1","1","1","1","1","1","1","1"
"250001","img/neutralC/CFD-AF-221-147-N.jpg","img/neutralC/CFD-WF-238-023-N.jpg","img/neutralC/CFD-WM-255-219-N.jpg","1","1","0","0","0","0","0.440282099880278","0.604930199682713","0.470454499591142","1","1","1","1","1","1","1","1","1"
"250001","img/neutralC/CFD-WM-255-219-N.jpg","img/neutralC/CFD-AF-221-147-N.jpg","img/neutralC/CFD-WM-013-001-N.jpg","0","1","1","0","0","1","0.470454499591142","0.440282099880278","0.41084779985249","1","1","1","1","1","1","1","1","1"
"250001","img/neutralC/CFD-WM-013-001-N.jpg","img/neutralC/CFD-WM-255-219-N.jpg","img/neutralC/CFD-WF-226-095-N.jpg","1","0","1","1","0","1","0.41084779985249","0.470454499591142","0.43303049961105","1","1","1","1","1","1","1","1","1"
"250001","img/neutralC/CFD-WF-226-095-N.jpg","img/neutralC/CFD-WM-013-001-N.jpg","img/neutralC/CFD-WM-221-091-N.jpg","1","1","1","1","1","0","0.43303049961105","0.41084779985249","0.470359399914742","1","1","1","1","1","1","1","1","1"
"250001","img/neutralC/CFD-WM-221-091-N.jpg","img/neutralC/CFD-WF-226-095-N.jpg","img/neutralC/CFD-IM-700-009-N.jpg","1","1","1","0","1","1","0.470359399914742","0.43303049961105","0.426551399286836","1","1","1","1","1","1","1","1","1"
"250001","img/neutralC/CFD-IM-700-009-N.jpg","img/neutralC/CFD-WM-221-091-N.jpg","img/neutralC/CFD-BM-200-046-N.jpg","1","1","1","1","0","0","0.426551399286836","0.470359399914742","1.44405529974028","1","1","1","1","1","1","1","1","1"
"250001","img/neutralC/CFD-BM-200-046-N.jpg","img/neutralC/CFD-IM-700-009-N.jpg","img/neutralC/CFD-BF-018-039-N.jpg","1","1","1","0","1","1","1.44405529974028","0.426551399286836","0.468421599827707","1","1","1","1","1","1","1","1","1"
"250001","img/neutralC/CFD-BF-018-039-N.jpg","img/neutralC/CFD-BM-200-046-N.jpg","img/neutralC/CFD-IM-719-221-N.jpg","1","1","1","1","0","0","0.468421599827707","1.44405529974028","0.550123899243772","1","1","1","1","1","1","1","1","1"
"250001","img/neutralC/CFD-IM-719-221-N.jpg","img/neutralC/CFD-BF-018-039-N.jpg","img/neutralC/CFD-MF-321-003-N.jpg","1","1","1","0","1","0","0.550123899243772","0.468421599827707","0.550451399758458","1","1","1","1","1","1","1","1","1"
"250001","img/neutralC/CFD-MF-321-003-N.jpg","img/neutralC/CFD-IM-719-221-N.jpg","img/neutralC/CFD-LF-211-003-N.jpg","1","1","1","0","0","0","0.550451399758458","0.550123899243772","0.459902499802411","1","1","1","1","1","1","1","1","1"
"250001","img/neutralC/CFD-LF-211-003-N.jpg","img/neutralC/CFD-MF-321-003-N.jpg","img/neutralC/CFD-WF-018-017-N.jpg","1","1","1","0","0","1","0.459902499802411","0.550451399758458","0.424469899851829","1","1","1","1","1","1","1","1","1"
"250001","img/neutralC/CFD-WF-018-017-N.jpg","img/neutralC/CFD-LF-211-003-N.jpg","img/neutralC/CFD-AM-244-222-N.jpg","1","1","1","1","0","0","0.424469899851829","0.459902499802411","0.490638199262321","1","1","1","1","1","1","1","1","1"
"250001","img/neutralC/CFD-AM-244-222-N.jpg","img/neutralC/CFD-WF-018-017-N.jpg","img/neutralC/CFD-MF-318-022-N.jpg","1","1","1","0","1","1","0.490638199262321","0.424469899851829","0.447306499816477","1","1","1","1","1","1","1","1","1"
"250001","img/neutralC/CFD-MF-318-022-N.jpg","img/neutralC/CFD-AM-244-222-N.jpg","img/neutralC/CFD-AF-232-078-N.jpg","1","1","1","1","0","1","0.447306499816477","0.490638199262321","0.402463499922305","1","1","1","1","1","1","1","1","1"
"250001","img/neutralC/CFD-AF-232-078-N.jpg","img/neutralC/CFD-MF-318-022-N.jpg","img/neutralC/CFD-MF-342-022-N.jpg","1","1","1","1","1","1","0.402463499922305","0.447306499816477","0.487139199860394","1","1","1","1","1","1","1","1","1"
"250001","img/neutralC/CFD-MF-342-022-N.jpg","img/neutralC/CFD-AF-232-078-N.jpg","img/neutralC/CFD-BF-218-207-N.jpg","1","1","1","1","1","1","0.487139199860394","0.402463499922305","0.510289099533111","1","1","1","1","1","1","1","1","1"
"250001","img/neutralC/CFD-BF-218-207-N.jpg","img/neutralC/CFD-MF-342-022-N.jpg","img/neutralC/CFD-BM-204-003-N.jpg","1","1","1","1","1","0","0.510289099533111","0.487139199860394","0.525691599585116","1","1","1","1","1","1","1","1","1"
"250001","img/neutralC/CFD-BM-204-003-N.jpg","img/neutralC/CFD-BF-218-207-N.jpg","img/neutralC/CFD-WF-245-084-N.jpg","1","1","1","0","1","1","0.525691599585116","0.510289099533111","0.350064099766314","1","1","1","1","1","1","1","1","1"
"250001","img/neutralC/CFD-WF-245-084-N.jpg","img/neutralC/CFD-BM-204-003-N.jpg","img/neutralC/CFD-WF-027-003-N.jpg","1","1","1","1","0","1","0.350064099766314","0.525691599585116","0.408732699695975","1","1","1","1","1","1","1","1","1"
"250001","img/neutralC/CFD-WF-027-003-N.jpg","img/neutralC/CFD-WF-245-084-N.jpg","img/neutralC/CFD-LF-215-157-N.jpg","1","1","1","1","1","0","0.408732699695975","0.350064099766314","0.420206299982965","1","1","1","1","1","1","1","1","1"
"250001","img/neutralC/CFD-LF-215-157-N.jpg","img/neutralC/CFD-WF-027-003-N.jpg","img/neutralC/CFD-WF-023-003-N.jpg","1","1","1","0","1","1","0.420206299982965","0.408732699695975","0.411169999744743","1","1","1","1","1","1","1","1","1"
"250001","img/neutralC/CFD-WF-023-003-N.jpg","img/neutralC/CFD-LF-215-157-N.jpg","img/neutralC/CFD-BF-254-201-N.jpg","1","1","1","1","0","0","0.411169999744743","0.420206299982965","0.387938899453729","1","1","1","1","1","1","1","1","1"
"250001","img/neutralC/CFD-BF-254-201-N.jpg","img/neutralC/CFD-WF-023-003-N.jpg",NA,"1","1",NA,"0","1",NA,"0.387938899453729","0.411169999744743",NA,"1","1",NA,"1","1",NA,"1","1",NA
"250001","img/neutralC/CFD-LM-225-130-N.jpg",NA,"img/neutralC/CFD-IM-667-369-N.jpg","1",NA,"1","0",NA,"0","0.473071999382228",NA,"0.502132599242032","1",NA,"1","1",NA,"1","1",NA,"1"
"250001","img/neutralC/CFD-IM-667-369-N.jpg","img/neutralC/CFD-LM-225-130-N.jpg","img/neutralC/CFD-MF-305-014-N.jpg","1","1","1","0","0","1","0.502132599242032","0.473071999382228","0.365344999823719","1","1","1","1","1","1","1","1","1"
"250001","img/neutralC/CFD-MF-305-014-N.jpg","img/neutralC/CFD-IM-667-369-N.jpg","img/neutralC/CFD-AM-220-134-N.jpg","1","1","1","1","0","0","0.365344999823719","0.502132599242032","0.420164599549025","1","1","1","1","1","1","1","1","1"
"250001","img/neutralC/CFD-AM-220-134-N.jpg","img/neutralC/CFD-MF-305-014-N.jpg","img/neutralC/CFD-IF-660-464-N.jpg","1","1","1","0","1","0","0.420164599549025","0.365344999823719","0.547054499853402","1","1","1","1","1","1","1","1","1"
"250001","img/neutralC/CFD-IF-660-464-N.jpg","img/neutralC/CFD-AM-220-134-N.jpg","img/neutralC/CFD-BM-217-082-N.jpg","1","1","1","0","0","0","0.547054499853402","0.420164599549025","0.467093699611723","1","1","1","1","1","1","1","1","1"
"250001","img/neutralC/CFD-BM-217-082-N.jpg","img/neutralC/CFD-IF-660-464-N.jpg","img/neutralC/CFD-MF-357-002-N.jpg","1","1","1","0","0","0","0.467093699611723","0.547054499853402","0.446876099333167","1","1","1","1","1","1","1","1","1"
"250001","img/neutralC/CFD-MF-357-002-N.jpg","img/neutralC/CFD-BM-217-082-N.jpg","img/neutralC/CFD-MF-303-013-N.jpg","1","1","1","0","0","0","0.446876099333167","0.467093699611723","0.399431799538434","1","1","1","1","1","1","1","1","1"
"250001","img/neutralC/CFD-MF-303-013-N.jpg","img/neutralC/CFD-MF-357-002-N.jpg","img/neutralC/CFD-MF-316-001-N.jpg","1","1","1","0","0","0","0.399431799538434","0.446876099333167","0.571773199830204","1","1","1","1","1","1","1","1","1"
"250001","img/neutralC/CFD-MF-316-001-N.jpg","img/neutralC/CFD-MF-303-013-N.jpg","img/neutralC/CFD-IM-702-101-N.jpg","1","1","1","0","0","1","0.571773199830204","0.399431799538434","0.39256149996072","1","1","1","1","1","1","1","1","1"
"250001","img/neutralC/CFD-IM-702-101-N.jpg","img/neutralC/CFD-MF-316-001-N.jpg","img/neutralC/CFD-IM-680-369-N.jpg","1","1","1","1","0","1","0.39256149996072","0.571773199830204","0.442871899809688","1","1","1","1","1","1","1","1","1"
"250001","img/neutralC/CFD-IM-680-369-N.jpg","img/neutralC/CFD-IM-702-101-N.jpg","img/neutralC/CFD-MF-343-001-N.jpg","1","1","1","1","1","1","0.442871899809688","0.39256149996072","0.329838199540973","1","1","1","1","1","1","1","1","1"
"250001","img/neutralC/CFD-MF-343-001-N.jpg","img/neutralC/CFD-IM-680-369-N.jpg","img/neutralC/CFD-IM-706-002-N.jpg","1","1","1","1","1","0","0.329838199540973","0.442871899809688","0.402785399928689","1","1","1","1","1","1","1","1","1"
"250001","img/neutralC/CFD-IM-706-002-N.jpg","img/neutralC/CFD-MF-343-001-N.jpg","img/neutralC/CFD-LF-255-088-N.jpg","1","1","1","0","1","0","0.402785399928689","0.329838199540973","0.399222399573773","1","1","1","1","1","1","1","1","1"
"250001","img/neutralC/CFD-LF-255-088-N.jpg","img/neutralC/CFD-IM-706-002-N.jpg","img/neutralC/CFD-WM-209-038-N.jpg","1","1","1","0","0","0","0.399222399573773","0.402785399928689","0.508474899921566","1","1","1","1","1","1","1","1","1"
"250001","img/neutralC/CFD-WM-209-038-N.jpg","img/neutralC/CFD-LF-255-088-N.jpg","img/neutralC/CFD-AF-233-190-N.jpg","1","1","1","0","0","0","0.508474899921566","0.399222399573773","0.438893199432641","1","1","1","1","1","1","1","1","1"
"250001","img/neutralC/CFD-AF-233-190-N.jpg","img/neutralC/CFD-WM-209-038-N.jpg","img/neutralC/CFD-LM-200-045-N.jpg","1","1","1","0","0","1","0.438893199432641","0.508474899921566","0.470675299875438","1","1","1","1","1","1","1","1","1"
"250001","img/neutralC/CFD-LM-200-045-N.jpg","img/neutralC/CFD-AF-233-190-N.jpg","img/neutralC/CFD-WM-218-074-N.jpg","1","1","1","1","0","1","0.470675299875438","0.438893199432641","0.374211099930108","1","1","1","1","1","1","1","1","1"
"250001","img/neutralC/CFD-WM-218-074-N.jpg","img/neutralC/CFD-LM-200-045-N.jpg","img/neutralC/CFD-BF-237-172-N.jpg","1","1","1","1","1","1","0.374211099930108","0.470675299875438","0.389753999654204","1","1","1","1","1","1","1","1","1"
"250001","img/neutralC/CFD-BF-237-172-N.jpg","img/neutralC/CFD-WM-218-074-N.jpg","img/neutralC/CFD-MM-324-069-N.jpg","1","1","1","1","1","1","0.389753999654204","0.374211099930108","0.40607240004465","1","1","1","1","1","1","1","1","1"
"250001","img/neutralC/CFD-MM-324-069-N.jpg","img/neutralC/CFD-BF-237-172-N.jpg","img/neutralC/CFD-BM-001-014-N.jpg","1","1","1","1","1","0","0.40607240004465","0.389753999654204","0.402052099816501","1","1","1","1","1","1","1","1","1"
"250001","img/neutralC/CFD-BM-001-014-N.jpg","img/neutralC/CFD-MM-324-069-N.jpg","img/neutralC/CFD-BF-014-002-N.jpg","1","1","1","0","1","1","0.402052099816501","0.40607240004465","0.577484199777246","1","1","1","1","1","1","1","1","1"
"250001","img/neutralC/CFD-BF-014-002-N.jpg","img/neutralC/CFD-BM-001-014-N.jpg","img/neutralC/CFD-BM-250-170-N.jpg","1","1","1","1","0","1","0.577484199777246","0.402052099816501","0.428371599409729","1","1","1","1","1","1","1","1","1"
"250001","img/neutralC/CFD-BM-250-170-N.jpg","img/neutralC/CFD-BF-014-002-N.jpg","img/neutralC/CFD-WM-015-002-N.jpg","1","1","1","1","1","0","0.428371599409729","0.577484199777246","0.401392099447548","1","1","1","1","1","1","1","1","1"
"250001","img/neutralC/CFD-WM-015-002-N.jpg","img/neutralC/CFD-BM-250-170-N.jpg","img/neutralC/CFD-LF-206-078-N.jpg","1","1","1","0","1","1","0.401392099447548","0.428371599409729","0.399213399738073","1","1","1","1","1","1","1","1","1"
"250001","img/neutralC/CFD-LF-206-078-N.jpg","img/neutralC/CFD-WM-015-002-N.jpg","img/neutralC/CFD-WF-030-002-N.jpg","1","1","1","1","0","0","0.399213399738073","0.401392099447548","0.50161869963631","1","1","1","1","1","1","1","1","1"
"250001","img/neutralC/CFD-WF-030-002-N.jpg","img/neutralC/CFD-LF-206-078-N.jpg","img/neutralC/CFD-WF-007-001-N.jpg","1","1","1","0","1","1","0.50161869963631","0.399213399738073","0.623267599847168","1","1","1","1","1","1","1","1","1"
"250001","img/neutralC/CFD-WF-007-001-N.jpg","img/neutralC/CFD-WF-030-002-N.jpg","img/neutralC/CFD-AF-253-130-N.jpg","1","1","1","1","0","1","0.623267599847168","0.50161869963631","0.431536699645221","1","1","1","1","1","1","1","1","1"
"250001","img/neutralC/CFD-AF-253-130-N.jpg","img/neutralC/CFD-WF-007-001-N.jpg","img/neutralC/CFD-WF-244-163-N.jpg","1","1","1","1","1","1","0.431536699645221","0.623267599847168","0.408223799895495","1","1","1","1","1","1","1","1","1"
"250001","img/neutralC/CFD-WF-244-163-N.jpg","img/neutralC/CFD-AF-253-130-N.jpg","img/neutralC/CFD-WF-222-092-N.jpg","1","1","1","1","1","1","0.408223799895495","0.431536699645221","0.43652609968558","1","1","1","1","1","1","1","1","1"
"250001","img/neutralC/CFD-WF-222-092-N.jpg","img/neutralC/CFD-WF-244-163-N.jpg","img/neutralC/CFD-IF-626-375-N.jpg","1","1","1","1","1","0","0.43652609968558","0.408223799895495","0.420738399494439","1","1","1","1","1","1","1","1","1"
"250001","img/neutralC/CFD-IF-626-375-N.jpg","img/neutralC/CFD-WF-222-092-N.jpg","img/neutralC/CFD-IM-664-651-N.jpg","1","1","1","0","1","1","0.420738399494439","0.43652609968558","0.352533899713308","1","1","1","1","1","1","1","1","1"
"250001","img/neutralC/CFD-IM-664-651-N.jpg","img/neutralC/CFD-IF-626-375-N.jpg",NA,"1","1",NA,"1","0",NA,"0.352533899713308","0.420738399494439",NA,"1","1",NA,"1","1",NA,"1","1",NA
"250001","img/neutralC/CFD-IM-726-248-N.jpg",NA,"img/neutralC/CFD-WM-034-030-N.jpg","1",NA,"1","0",NA,"1","0.56615599989891",NA,"0.439676199574023","1",NA,"1","1",NA,"1","1",NA,"1"
"250001","img/neutralC/CFD-WM-034-030-N.jpg","img/neutralC/CFD-IM-726-248-N.jpg","img/neutralC/CFD-IM-721-341-N.jpg","1","1","1","1","0","1","0.439676199574023","0.56615599989891","0.39572519948706","1","1","1","1","1","1","1","1","1"
"250001","img/neutralC/CFD-IM-721-341-N.jpg","img/neutralC/CFD-WM-034-030-N.jpg","img/neutralC/CFD-AM-230-150-N.jpg","1","1","1","1","1","0","0.39572519948706","0.439676199574023","0.408416899852455","1","1","1","1","1","1","1","1","1"
"250001","img/neutralC/CFD-AM-230-150-N.jpg","img/neutralC/CFD-IM-721-341-N.jpg","img/neutralC/CFD-WF-208-068-N.jpg","1","1","1","0","1","1","0.408416899852455","0.39572519948706","0.379092799965292","1","1","1","1","1","1","1","1","1"
"250001","img/neutralC/CFD-WF-208-068-N.jpg","img/neutralC/CFD-AM-230-150-N.jpg","img/neutralC/CFD-BF-044-034-N.jpg","1","1","1","1","0","0","0.379092799965292","0.408416899852455","0.38833859981969","1","1","1","1","1","1","1","1","1"
"250001","img/neutralC/CFD-BF-044-034-N.jpg","img/neutralC/CFD-WF-208-068-N.jpg","img/neutralC/CFD-WM-248-036-N.jpg","1","1","1","0","1","1","0.38833859981969","0.379092799965292","0.401836799923331","1","1","1","1","1","1","1","1","1"
"250001","img/neutralC/CFD-WM-248-036-N.jpg","img/neutralC/CFD-BF-044-034-N.jpg","img/neutralC/CFD-IM-696-001-N.jpg","1","1","1","1","0","0","0.401836799923331","0.38833859981969","0.372765199281275","1","1","1","1","1","1","1","1","1"
"250001","img/neutralC/CFD-IM-696-001-N.jpg","img/neutralC/CFD-WM-248-036-N.jpg","img/neutralC/CFD-BF-011-002-N.jpg","1","1","1","0","1","1","0.372765199281275","0.401836799923331","0.355100799817592","1","1","1","1","1","1","1","1","1"
"250001","img/neutralC/CFD-BF-011-002-N.jpg","img/neutralC/CFD-IM-696-001-N.jpg","img/neutralC/CFD-IF-677-452-1-N.jpg","1","1","1","1","0","1","0.355100799817592","0.372765199281275","0.414254199247807","1","1","1","1","1","1","1","1","1"
"250001","img/neutralC/CFD-IF-677-452-1-N.jpg","img/neutralC/CFD-BF-011-002-N.jpg","img/neutralC/CFD-IM-707-105-N.jpg","1","1","1","1","1","1","0.414254199247807","0.355100799817592","0.348231100011617","1","1","1","1","1","1","1","1","1"
"250001","img/neutralC/CFD-IM-707-105-N.jpg","img/neutralC/CFD-IF-677-452-1-N.jpg","img/neutralC/CFD-IF-742-103-N.jpg","1","1","0","1","1","1","0.348231100011617","0.414254199247807","0.367081599775702","1","1","1","1","1","1","1","1","2"
"250001","img/neutralC/CFD-IF-742-103-N.jpg","img/neutralC/CFD-IM-707-105-N.jpg","img/neutralC/CFD-LF-204-133-N.jpg","0","1","1","1","1","1","0.367081599775702","0.348231100011617","1.85500259976834","1","1","1","1","1","1","2","1","1"
"250001","img/neutralC/CFD-LF-204-133-N.jpg","img/neutralC/CFD-IF-742-103-N.jpg","img/neutralC/CFD-BM-207-024-N.jpg","1","0","1","1","1","1","1.85500259976834","0.367081599775702","0.736089299432933","1","1","1","1","1","1","1","2","1"
"250001","img/neutralC/CFD-BM-207-024-N.jpg","img/neutralC/CFD-LF-204-133-N.jpg","img/neutralC/CFD-BM-238-242-N.jpg","1","1","1","1","1","0","0.736089299432933","1.85500259976834","0.410556099843234","1","1","1","1","1","1","1","1","1"
"250001","img/neutralC/CFD-BM-238-242-N.jpg","img/neutralC/CFD-BM-207-024-N.jpg","img/neutralC/CFD-BF-247-179-N.jpg","1","1","1","0","1","0","0.410556099843234","0.736089299432933","0.429264099802822","1","1","1","1","1","1","1","1","1"
"250001","img/neutralC/CFD-BF-247-179-N.jpg","img/neutralC/CFD-BM-238-242-N.jpg","img/neutralC/CFD-BF-207-004-N.jpg","1","1","1","0","0","1","0.429264099802822","0.410556099843234","0.414538899436593","1","1","1","1","1","1","1","1","1"
"250001","img/neutralC/CFD-BF-207-004-N.jpg","img/neutralC/CFD-BF-247-179-N.jpg","img/neutralC/CFD-BF-002-001-N.jpg","1","1","1","1","0","0","0.414538899436593","0.429264099802822","0.38085959944874","1","1","1","1","1","1","1","1","1"
"250001","img/neutralC/CFD-BF-002-001-N.jpg","img/neutralC/CFD-BF-207-004-N.jpg","img/neutralC/CFD-BF-006-017-N.jpg","1","1","1","0","1","0","0.38085959944874","0.414538899436593","0.37186859967187","1","1","1","1","1","1","1","1","1"
"250001","img/neutralC/CFD-BF-006-017-N.jpg","img/neutralC/CFD-BF-002-001-N.jpg","img/neutralC/CFD-BF-236-177-N.jpg","1","1","1","0","0","0","0.37186859967187","0.38085959944874","0.56128399958834","1","1","1","1","1","1","1","1","1"
"250001","img/neutralC/CFD-BF-236-177-N.jpg","img/neutralC/CFD-BF-006-017-N.jpg","img/neutralC/CFD-LM-213-061-N.jpg","1","1","1","0","0","0","0.56128399958834","0.37186859967187","0.537463899701834","1","1","1","1","1","1","1","1","1"
"250001","img/neutralC/CFD-LM-213-061-N.jpg","img/neutralC/CFD-BF-236-177-N.jpg","img/neutralC/CFD-BM-241-235-N.jpg","1","1","1","0","0","0","0.537463899701834","0.56128399958834","0.604441599454731","1","1","1","1","1","1","1","1","1"
"250001","img/neutralC/CFD-BM-241-235-N.jpg","img/neutralC/CFD-LM-213-061-N.jpg","img/neutralC/CFD-BF-027-002-N.jpg","1","1","1","0","0","1","0.604441599454731","0.537463899701834","0.469797399360687","1","1","1","1","1","1","1","1","1"
"250001","img/neutralC/CFD-BF-027-002-N.jpg","img/neutralC/CFD-BM-241-235-N.jpg","img/neutralC/CFD-WF-234-086-N.jpg","1","1","1","1","0","1","0.469797399360687","0.604441599454731","0.403372299391776","1","1","1","1","1","1","1","1","1"
"250001","img/neutralC/CFD-WF-234-086-N.jpg","img/neutralC/CFD-BF-027-002-N.jpg","img/neutralC/CFD-BM-036-003-N.jpg","1","1","1","1","1","1","0.403372299391776","0.469797399360687","0.393938299734145","1","1","1","1","1","1","1","1","1"
"250001","img/neutralC/CFD-BM-036-003-N.jpg","img/neutralC/CFD-WF-234-086-N.jpg","img/neutralC/CFD-WF-029-002-N.jpg","1","1","1","1","1","0","0.393938299734145","0.403372299391776","0.386165699455887","1","1","1","1","1","1","1","1","1"
"250001","img/neutralC/CFD-WF-029-002-N.jpg","img/neutralC/CFD-BM-036-003-N.jpg","img/neutralC/CFD-WM-014-002-N.jpg","1","1","1","0","1","0","0.386165699455887","0.393938299734145","0.452225699555129","1","1","1","1","1","1","1","1","1"
"250001","img/neutralC/CFD-WM-014-002-N.jpg","img/neutralC/CFD-WF-029-002-N.jpg","img/neutralC/CFD-BF-214-308-N.jpg","1","1","1","0","0","1","0.452225699555129","0.386165699455887","0.398800799623132","1","1","1","1","1","1","1","1","1"
"250001","img/neutralC/CFD-BF-214-308-N.jpg","img/neutralC/CFD-WM-014-002-N.jpg","img/neutralC/CFD-WF-233-112-N.jpg","1","1","1","1","0","1","0.398800799623132","0.452225699555129","0.470647099427879","1","1","1","1","1","1","1","1","1"
"250001","img/neutralC/CFD-WF-233-112-N.jpg","img/neutralC/CFD-BF-214-308-N.jpg","img/neutralC/CFD-IF-729-393-N.jpg","1","1","1","1","1","0","0.470647099427879","0.398800799623132","0.427313899621367","1","1","1","1","1","1","1","1","1"
"250001","img/neutralC/CFD-IF-729-393-N.jpg","img/neutralC/CFD-WF-233-112-N.jpg","img/neutralC/CFD-BF-036-027-N.jpg","1","1","1","0","1","0","0.427313899621367","0.470647099427879","0.391510399524122","1","1","1","1","1","1","1","1","1"
"250001","img/neutralC/CFD-BF-036-027-N.jpg","img/neutralC/CFD-IF-729-393-N.jpg","img/neutralC/CFD-MF-301-024-N.jpg","1","1","1","0","0","0","0.391510399524122","0.427313899621367","0.497608399484307","1","1","1","1","1","1","1","1","1"
"250001","img/neutralC/CFD-MF-301-024-N.jpg","img/neutralC/CFD-BF-036-027-N.jpg",NA,"1","1",NA,"0","0",NA,"0.497608399484307","0.391510399524122",NA,"1","1",NA,"1","1",NA,"1","1",NA
