"participant_id","current_trial_face","pre_trial_face","post_trial_face","current_trial_accuracy","pre_trial_accuracy","post_trial_accuracy","current_trial_congruency","pre_trial_congruency","post_trial_congruency","current_trial_rt","pre_trial_rt","post_trial_rt","current_trial_responded","pre_trial_responded","post_trial_responded","current_trial_legitResponse","pre_trial_legitResponse","post_trial_legitResponse","current_trial_resp_nums","pre_trial_resp_nums","post_trial_resp_nums"
"250005","img/neutralC/CFD-BF-255-140-N.jpg",NA,"img/neutralC/CFD-BM-015-015-N.jpg","1",NA,"1","1",NA,"0","0.419947399990633",NA,"0.508876900014002","1",NA,"1","1",NA,"1","1",NA,"1"
"250005","img/neutralC/CFD-BM-015-015-N.jpg","img/neutralC/CFD-BF-255-140-N.jpg","img/neutralC/CFD-WM-225-127-N.jpg","1","1","1","0","1","0","0.508876900014002","0.419947399990633","0.502681899990421","1","1","1","1","1","1","1","1","1"
"250005","img/neutralC/CFD-WM-225-127-N.jpg","img/neutralC/CFD-BM-015-015-N.jpg","img/neutralC/CFD-LF-236-221-N.jpg","1","1","1","0","0","1","0.502681899990421","0.508876900014002","0.418667099962477","1","1","1","1","1","1","1","1","1"
"250005","img/neutralC/CFD-LF-236-221-N.jpg","img/neutralC/CFD-WM-225-127-N.jpg","img/neutralC/CFD-AM-235-241-N.jpg","1","1","1","1","0","0","0.418667099962477","0.502681899990421","0.487621599982958","1","1","1","1","1","1","1","1","1"
"250005","img/neutralC/CFD-AM-235-241-N.jpg","img/neutralC/CFD-LF-236-221-N.jpg","img/neutralC/CFD-IF-718-001-N.jpg","1","1","1","0","1","1","0.487621599982958","0.418667099962477","0.383296999963932","1","1","1","1","1","1","1","1","1"
"250005","img/neutralC/CFD-IF-718-001-N.jpg","img/neutralC/CFD-AM-235-241-N.jpg","img/neutralC/CFD-BM-247-240-N.jpg","1","1","1","1","0","0","0.383296999963932","0.487621599982958","0.366535000037402","1","1","1","1","1","1","1","1","1"
"250005","img/neutralC/CFD-BM-247-240-N.jpg","img/neutralC/CFD-IF-718-001-N.jpg","img/neutralC/CFD-MM-319-052-N.jpg","1","1","1","0","1","1","0.366535000037402","0.383296999963932","0.40193759999238","1","1","1","1","1","1","1","1","1"
"250005","img/neutralC/CFD-MM-319-052-N.jpg","img/neutralC/CFD-BM-247-240-N.jpg","img/neutralC/CFD-BF-023-010-N.jpg","1","1","1","1","0","1","0.40193759999238","0.366535000037402","0.407545100024436","1","1","1","1","1","1","1","1","1"
"250005","img/neutralC/CFD-BF-023-010-N.jpg","img/neutralC/CFD-MM-319-052-N.jpg","img/neutralC/CFD-AM-217-085-N.jpg","1","1","1","1","1","0","0.407545100024436","0.40193759999238","0.461598800029606","1","1","1","1","1","1","1","1","1"
"250005","img/neutralC/CFD-AM-217-085-N.jpg","img/neutralC/CFD-BF-023-010-N.jpg","img/neutralC/CFD-BF-003-003-N.jpg","1","1","1","0","1","0","0.461598800029606","0.407545100024436","0.511294200026896","1","1","1","1","1","1","1","1","1"
"250005","img/neutralC/CFD-BF-003-003-N.jpg","img/neutralC/CFD-AM-217-085-N.jpg","img/neutralC/CFD-LF-216-121-N.jpg","1","1","1","0","0","1","0.511294200026896","0.461598800029606","0.359806800028309","1","1","1","1","1","1","1","1","1"
"250005","img/neutralC/CFD-LF-216-121-N.jpg","img/neutralC/CFD-BF-003-003-N.jpg","img/neutralC/CFD-IM-639-263-N.jpg","1","1","1","1","0","1","0.359806800028309","0.511294200026896","0.421524900011718","1","1","1","1","1","1","1","1","1"
"250005","img/neutralC/CFD-IM-639-263-N.jpg","img/neutralC/CFD-LF-216-121-N.jpg","img/neutralC/CFD-BF-204-189-N.jpg","1","1","1","1","1","1","0.421524900011718","0.359806800028309","0.376026800018735","1","1","1","1","1","1","1","1","1"
"250005","img/neutralC/CFD-BF-204-189-N.jpg","img/neutralC/CFD-IM-639-263-N.jpg","img/neutralC/CFD-BM-027-001-N.jpg","1","1","0","1","1","0","0.376026800018735","0.421524900011718","0.376033500011545","1","1","1","1","1","1","1","1","1"
"250005","img/neutralC/CFD-BM-027-001-N.jpg","img/neutralC/CFD-BF-204-189-N.jpg","img/neutralC/CFD-WM-038-003-N.jpg","0","1","1","0","1","0","0.376033500011545","0.376026800018735","0.41284220002126","1","1","1","1","1","1","1","1","1"
"250005","img/neutralC/CFD-WM-038-003-N.jpg","img/neutralC/CFD-BM-027-001-N.jpg","img/neutralC/CFD-WM-002-009-N.jpg","1","0","1","0","0","0","0.41284220002126","0.376033500011545","0.485487399972044","1","1","1","1","1","1","1","1","1"
"250005","img/neutralC/CFD-WM-002-009-N.jpg","img/neutralC/CFD-WM-038-003-N.jpg","img/neutralC/CFD-WF-002-004-N.jpg","1","1","1","0","0","0","0.485487399972044","0.41284220002126","0.406811999971978","1","1","1","1","1","1","1","1","1"
"250005","img/neutralC/CFD-WF-002-004-N.jpg","img/neutralC/CFD-WM-002-009-N.jpg","img/neutralC/CFD-BM-211-174-N.jpg","1","1","1","0","0","0","0.406811999971978","0.485487399972044","0.512735600001179","1","1","1","1","1","1","1","1","1"
"250005","img/neutralC/CFD-BM-211-174-N.jpg","img/neutralC/CFD-WF-002-004-N.jpg","img/neutralC/CFD-BF-201-080-N.jpg","1","1","1","0","0","1","0.512735600001179","0.406811999971978","0.409080900019035","1","1","1","1","1","1","1","1","1"
"250005","img/neutralC/CFD-BF-201-080-N.jpg","img/neutralC/CFD-BM-211-174-N.jpg","img/neutralC/CFD-AM-215-120-N.jpg","1","1","1","1","0","1","0.409080900019035","0.512735600001179","0.517402300029062","1","1","1","1","1","1","1","1","1"
"250005","img/neutralC/CFD-AM-215-120-N.jpg","img/neutralC/CFD-BF-201-080-N.jpg","img/neutralC/CFD-WF-026-002-N.jpg","1","1","1","1","1","1","0.517402300029062","0.409080900019035","0.392053599993233","1","1","1","1","1","1","1","1","1"
"250005","img/neutralC/CFD-WF-026-002-N.jpg","img/neutralC/CFD-AM-215-120-N.jpg","img/neutralC/CFD-LM-252-076-N.jpg","1","1","1","1","1","1","0.392053599993233","0.517402300029062","0.414122699992731","1","1","1","1","1","1","1","1","1"
"250005","img/neutralC/CFD-LM-252-076-N.jpg","img/neutralC/CFD-WF-026-002-N.jpg","img/neutralC/CFD-IM-674-281-N.jpg","1","1","1","1","1","1","0.414122699992731","0.392053599993233","0.410222599981353","1","1","1","1","1","1","1","1","1"
"250005","img/neutralC/CFD-IM-674-281-N.jpg","img/neutralC/CFD-LM-252-076-N.jpg","img/neutralC/CFD-WM-040-022-N.jpg","1","1","1","1","1","0","0.410222599981353","0.414122699992731","0.455720100027975","1","1","1","1","1","1","1","1","1"
"250005","img/neutralC/CFD-WM-040-022-N.jpg","img/neutralC/CFD-IM-674-281-N.jpg","img/neutralC/CFD-BF-028-001-N.jpg","1","1","1","0","1","1","0.455720100027975","0.410222599981353","0.461466900014784","1","1","1","1","1","1","1","1","1"
"250005","img/neutralC/CFD-BF-028-001-N.jpg","img/neutralC/CFD-WM-040-022-N.jpg","img/neutralC/CFD-BF-208-266-N.jpg","1","1","1","1","0","0","0.461466900014784","0.455720100027975","0.547624600003473","1","1","1","1","1","1","1","1","1"
"250005","img/neutralC/CFD-BF-208-266-N.jpg","img/neutralC/CFD-BF-028-001-N.jpg","img/neutralC/CFD-BM-029-024-N.jpg","1","1","1","0","1","1","0.547624600003473","0.461466900014784","0.615983799973037","1","1","1","1","1","1","1","1","1"
"250005","img/neutralC/CFD-BM-029-024-N.jpg","img/neutralC/CFD-BF-208-266-N.jpg","img/neutralC/CFD-IM-728-041-N.jpg","1","1","0","1","0","0","0.615983799973037","0.547624600003473","0.416403500013985","1","1","1","1","1","1","1","1","1"
"250005","img/neutralC/CFD-IM-728-041-N.jpg","img/neutralC/CFD-BM-029-024-N.jpg","img/neutralC/CFD-IF-672-305-N.jpg","0","1","1","0","1","0","0.416403500013985","0.615983799973037","0.516331799968611","1","1","1","1","1","1","1","1","1"
"250005","img/neutralC/CFD-IF-672-305-N.jpg","img/neutralC/CFD-IM-728-041-N.jpg","img/neutralC/CFD-WF-022-017-N.jpg","1","0","1","0","0","0","0.516331799968611","0.416403500013985","0.533771299989894","1","1","1","1","1","1","1","1","1"
"250005","img/neutralC/CFD-WF-022-017-N.jpg","img/neutralC/CFD-IF-672-305-N.jpg","img/neutralC/CFD-WM-257-161-N.jpg","1","1","1","0","0","1","0.533771299989894","0.516331799968611","0.405878199962899","1","1","1","1","1","1","1","1","1"
"250005","img/neutralC/CFD-WM-257-161-N.jpg","img/neutralC/CFD-WF-022-017-N.jpg",NA,"1","1",NA,"1","0",NA,"0.405878199962899","0.533771299989894",NA,"1","1",NA,"1","1",NA,"1","1",NA
"250005","img/neutralC/CFD-BM-241-235-N.jpg",NA,"img/neutralC/CFD-BF-036-027-N.jpg","1",NA,"1","0",NA,"0","0.450577899988275",NA,"0.487767300044652","1",NA,"1","1",NA,"1","1",NA,"1"
"250005","img/neutralC/CFD-BF-036-027-N.jpg","img/neutralC/CFD-BM-241-235-N.jpg","img/neutralC/CFD-BM-238-242-N.jpg","1","1","0","0","0","0","0.487767300044652","0.450577899988275","0.383319200016558","1","1","1","1","1","1","1","1","1"
"250005","img/neutralC/CFD-BM-238-242-N.jpg","img/neutralC/CFD-BF-036-027-N.jpg","img/neutralC/CFD-IF-742-103-N.jpg","0","1","1","0","0","1","0.383319200016558","0.487767300044652","0.353047700016759","1","1","1","1","1","1","1","1","1"
"250005","img/neutralC/CFD-IF-742-103-N.jpg","img/neutralC/CFD-BM-238-242-N.jpg","img/neutralC/CFD-WM-014-002-N.jpg","1","0","1","1","0","0","0.353047700016759","0.383319200016558","0.489852499973495","1","1","1","1","1","1","1","1","1"
"250005","img/neutralC/CFD-WM-014-002-N.jpg","img/neutralC/CFD-IF-742-103-N.jpg","img/neutralC/CFD-IM-707-105-N.jpg","1","1","1","0","1","1","0.489852499973495","0.353047700016759","0.363299999968149","1","1","1","1","1","1","1","1","1"
"250005","img/neutralC/CFD-IM-707-105-N.jpg","img/neutralC/CFD-WM-014-002-N.jpg","img/neutralC/CFD-BF-214-308-N.jpg","1","1","1","1","0","1","0.363299999968149","0.489852499973495","0.405057900003158","1","1","1","1","1","1","1","1","1"
"250005","img/neutralC/CFD-BF-214-308-N.jpg","img/neutralC/CFD-IM-707-105-N.jpg","img/neutralC/CFD-BF-247-179-N.jpg","1","1","1","1","1","0","0.405057900003158","0.363299999968149","0.43658839998534","1","1","1","1","1","1","1","1","1"
"250005","img/neutralC/CFD-BF-247-179-N.jpg","img/neutralC/CFD-BF-214-308-N.jpg","img/neutralC/CFD-IF-677-452-1-N.jpg","1","1","1","0","1","1","0.43658839998534","0.405057900003158","0.502139899996109","1","1","1","1","1","1","1","1","1"
"250005","img/neutralC/CFD-IF-677-452-1-N.jpg","img/neutralC/CFD-BF-247-179-N.jpg","img/neutralC/CFD-BF-006-017-N.jpg","1","1","1","1","0","0","0.502139899996109","0.43658839998534","0.381676500022877","1","1","1","1","1","1","1","1","1"
"250005","img/neutralC/CFD-BF-006-017-N.jpg","img/neutralC/CFD-IF-677-452-1-N.jpg","img/neutralC/CFD-BF-236-177-N.jpg","1","1","1","0","1","0","0.381676500022877","0.502139899996109","0.436491800006479","1","1","1","1","1","1","1","1","1"
"250005","img/neutralC/CFD-BF-236-177-N.jpg","img/neutralC/CFD-BF-006-017-N.jpg","img/neutralC/CFD-WM-248-036-N.jpg","1","1","1","0","0","1","0.436491800006479","0.381676500022877","0.385640399996191","1","1","1","1","1","1","1","1","1"
"250005","img/neutralC/CFD-WM-248-036-N.jpg","img/neutralC/CFD-BF-236-177-N.jpg","img/neutralC/CFD-WF-029-002-N.jpg","1","1","1","1","0","0","0.385640399996191","0.436491800006479","0.415205500030425","1","1","1","1","1","1","1","1","1"
"250005","img/neutralC/CFD-WF-029-002-N.jpg","img/neutralC/CFD-WM-248-036-N.jpg","img/neutralC/CFD-IM-696-001-N.jpg","1","1","1","0","1","0","0.415205500030425","0.385640399996191","0.380376099958085","1","1","1","1","1","1","1","1","1"
"250005","img/neutralC/CFD-IM-696-001-N.jpg","img/neutralC/CFD-WF-029-002-N.jpg","img/neutralC/CFD-AM-230-150-N.jpg","1","1","1","0","0","0","0.380376099958085","0.415205500030425","0.459995300043374","1","1","1","1","1","1","1","1","1"
"250005","img/neutralC/CFD-AM-230-150-N.jpg","img/neutralC/CFD-IM-696-001-N.jpg","img/neutralC/CFD-BF-044-034-N.jpg","1","1","1","0","0","0","0.459995300043374","0.380376099958085","0.460620299971197","1","1","1","1","1","1","1","1","1"
"250005","img/neutralC/CFD-BF-044-034-N.jpg","img/neutralC/CFD-AM-230-150-N.jpg","img/neutralC/CFD-IF-729-393-N.jpg","1","1","1","0","0","0","0.460620299971197","0.459995300043374","0.365906500024721","1","1","1","1","1","1","1","1","1"
"250005","img/neutralC/CFD-IF-729-393-N.jpg","img/neutralC/CFD-BF-044-034-N.jpg","img/neutralC/CFD-BM-207-024-N.jpg","1","1","1","0","0","1","0.365906500024721","0.460620299971197","0.375507899967488","1","1","1","1","1","1","1","1","1"
"250005","img/neutralC/CFD-BM-207-024-N.jpg","img/neutralC/CFD-IF-729-393-N.jpg","img/neutralC/CFD-BF-002-001-N.jpg","1","1","1","1","0","0","0.375507899967488","0.365906500024721","0.439294900046661","1","1","1","1","1","1","1","1","1"
"250005","img/neutralC/CFD-BF-002-001-N.jpg","img/neutralC/CFD-BM-207-024-N.jpg","img/neutralC/CFD-BM-036-003-N.jpg","1","1","1","0","1","1","0.439294900046661","0.375507899967488","0.418424499977846","1","1","1","1","1","1","1","1","1"
"250005","img/neutralC/CFD-BM-036-003-N.jpg","img/neutralC/CFD-BF-002-001-N.jpg","img/neutralC/CFD-LM-213-061-N.jpg","1","1","1","1","0","0","0.418424499977846","0.439294900046661","0.524402700015344","1","1","1","1","1","1","1","1","1"
"250005","img/neutralC/CFD-LM-213-061-N.jpg","img/neutralC/CFD-BM-036-003-N.jpg","img/neutralC/CFD-WM-034-030-N.jpg","1","1","1","0","1","1","0.524402700015344","0.418424499977846","0.407974300032947","1","1","1","1","1","1","1","1","1"
"250005","img/neutralC/CFD-WM-034-030-N.jpg","img/neutralC/CFD-LM-213-061-N.jpg","img/neutralC/CFD-IM-721-341-N.jpg","1","1","1","1","0","1","0.407974300032947","0.524402700015344","0.399345300043933","1","1","1","1","1","1","1","1","1"
"250005","img/neutralC/CFD-IM-721-341-N.jpg","img/neutralC/CFD-WM-034-030-N.jpg","img/neutralC/CFD-IM-726-248-N.jpg","1","1","1","1","1","0","0.399345300043933","0.407974300032947","0.441954000038095","1","1","1","1","1","1","1","1","1"
"250005","img/neutralC/CFD-IM-726-248-N.jpg","img/neutralC/CFD-IM-721-341-N.jpg","img/neutralC/CFD-MF-301-024-N.jpg","1","1","1","0","1","0","0.441954000038095","0.399345300043933","0.340182299958542","1","1","1","1","1","1","1","1","1"
"250005","img/neutralC/CFD-MF-301-024-N.jpg","img/neutralC/CFD-IM-726-248-N.jpg","img/neutralC/CFD-BF-011-002-N.jpg","1","1","1","0","0","1","0.340182299958542","0.441954000038095","0.286327200010419","1","1","1","1","1","1","1","1","1"
"250005","img/neutralC/CFD-BF-011-002-N.jpg","img/neutralC/CFD-MF-301-024-N.jpg","img/neutralC/CFD-BF-027-002-N.jpg","1","1","1","1","0","1","0.286327200010419","0.340182299958542","0.307857599982526","1","1","1","1","1","1","1","1","1"
"250005","img/neutralC/CFD-BF-027-002-N.jpg","img/neutralC/CFD-BF-011-002-N.jpg","img/neutralC/CFD-WF-208-068-N.jpg","1","1","1","1","1","1","0.307857599982526","0.286327200010419","0.402125200023875","1","1","1","1","1","1","1","1","1"
"250005","img/neutralC/CFD-WF-208-068-N.jpg","img/neutralC/CFD-BF-027-002-N.jpg","img/neutralC/CFD-WF-233-112-N.jpg","1","1","1","1","1","1","0.402125200023875","0.307857599982526","0.432228500023484","1","1","1","1","1","1","1","1","1"
"250005","img/neutralC/CFD-WF-233-112-N.jpg","img/neutralC/CFD-WF-208-068-N.jpg","img/neutralC/CFD-WF-234-086-N.jpg","1","1","1","1","1","1","0.432228500023484","0.402125200023875","0.343767199956346","1","1","1","1","1","1","1","1","1"
"250005","img/neutralC/CFD-WF-234-086-N.jpg","img/neutralC/CFD-WF-233-112-N.jpg","img/neutralC/CFD-LF-204-133-N.jpg","1","1","1","1","1","1","0.343767199956346","0.432228500023484","0.392288299975917","1","1","1","1","1","1","1","1","1"
"250005","img/neutralC/CFD-LF-204-133-N.jpg","img/neutralC/CFD-WF-234-086-N.jpg","img/neutralC/CFD-BF-207-004-N.jpg","1","1","1","1","1","1","0.392288299975917","0.343767199956346","0.370692300028168","1","1","1","1","1","1","1","1","1"
"250005","img/neutralC/CFD-BF-207-004-N.jpg","img/neutralC/CFD-LF-204-133-N.jpg",NA,"1","1",NA,"1","1",NA,"0.370692300028168","0.392288299975917",NA,"1","1",NA,"1","1",NA,"1","1",NA
"250005","img/neutralC/CFD-WF-214-122-N.jpg",NA,"img/neutralC/CFD-WM-235-147-N.jpg","1",NA,"1","1",NA,"0","0.360224600008223",NA,"0.511345499951858","1",NA,"1","1",NA,"1","1",NA,"1"
"250005","img/neutralC/CFD-WM-235-147-N.jpg","img/neutralC/CFD-WF-214-122-N.jpg","img/neutralC/CFD-IM-743-006-N.jpg","1","1","1","0","1","1","0.511345499951858","0.360224600008223","0.454755499958992","1","1","1","1","1","1","1","1","1"
"250005","img/neutralC/CFD-IM-743-006-N.jpg","img/neutralC/CFD-WM-235-147-N.jpg","img/neutralC/CFD-WM-219-008-N.jpg","1","1","0","1","0","0","0.454755499958992","0.511345499951858","0.361956700042356","1","1","1","1","1","1","1","1","2"
"250005","img/neutralC/CFD-WM-219-008-N.jpg","img/neutralC/CFD-IM-743-006-N.jpg","img/neutralC/CFD-MF-359-019-N.jpg","0","1","1","0","1","0","0.361956700042356","0.454755499958992","0.464127299957909","1","1","1","1","1","1","2","1","1"
"250005","img/neutralC/CFD-MF-359-019-N.jpg","img/neutralC/CFD-WM-219-008-N.jpg","img/neutralC/CFD-WF-001-003-N.jpg","1","0","1","0","0","1","0.464127299957909","0.361956700042356","0.387498900003266","1","1","1","1","1","1","1","2","1"
"250005","img/neutralC/CFD-WF-001-003-N.jpg","img/neutralC/CFD-MF-359-019-N.jpg","img/neutralC/CFD-WF-036-023-N.jpg","1","1","0","1","0","0","0.387498900003266","0.464127299957909","0.343283900001552","1","1","1","1","1","1","1","1","1"
"250005","img/neutralC/CFD-WF-036-023-N.jpg","img/neutralC/CFD-WF-001-003-N.jpg","img/neutralC/CFD-BM-253-004-N.jpg","0","1","1","0","1","1","0.343283900001552","0.387498900003266","0.499084800016135","1","1","1","1","1","1","1","1","1"
"250005","img/neutralC/CFD-BM-253-004-N.jpg","img/neutralC/CFD-WF-036-023-N.jpg","img/neutralC/CFD-IF-650-315-N.jpg","1","0","0","1","0","0","0.499084800016135","0.343283900001552","0.393957699998282","1","1","1","1","1","1","1","1","1"
"250005","img/neutralC/CFD-IF-650-315-N.jpg","img/neutralC/CFD-BM-253-004-N.jpg","img/neutralC/CFD-BF-038-037-N.jpg","0","1","1","0","1","1","0.393957699998282","0.499084800016135","0.446578899980523","1","1","1","1","1","1","1","1","1"
"250005","img/neutralC/CFD-BF-038-037-N.jpg","img/neutralC/CFD-IF-650-315-N.jpg","img/neutralC/CFD-WM-004-010-N.jpg","1","0","1","1","0","0","0.446578899980523","0.393957699998282","0.48215870000422","1","1","1","1","1","1","1","1","1"
"250005","img/neutralC/CFD-WM-004-010-N.jpg","img/neutralC/CFD-BF-038-037-N.jpg","img/neutralC/CFD-IM-645-001-N.jpg","1","1","0","0","1","0","0.48215870000422","0.446578899980523","0.408380300039425","1","1","1","1","1","1","1","1","1"
"250005","img/neutralC/CFD-IM-645-001-N.jpg","img/neutralC/CFD-WM-004-010-N.jpg","img/neutralC/CFD-AM-251-124-N.jpg","0","1","1","0","0","0","0.408380300039425","0.48215870000422","0.502677999960724","1","1","1","1","1","1","1","1","1"
"250005","img/neutralC/CFD-AM-251-124-N.jpg","img/neutralC/CFD-IM-645-001-N.jpg","img/neutralC/CFD-BF-226-119-N.jpg","1","0","1","0","0","1","0.502677999960724","0.408380300039425","0.459141800005455","1","1","1","1","1","1","1","1","1"
"250005","img/neutralC/CFD-BF-226-119-N.jpg","img/neutralC/CFD-AM-251-124-N.jpg","img/neutralC/CFD-IM-703-182-N.jpg","1","1","1","1","0","1","0.459141800005455","0.502677999960724","0.41103119996842","1","1","1","1","1","1","1","1","1"
"250005","img/neutralC/CFD-IM-703-182-N.jpg","img/neutralC/CFD-BF-226-119-N.jpg","img/neutralC/CFD-MF-333-012-N.jpg","1","1","1","1","1","0","0.41103119996842","0.459141800005455","0.395300399977714","1","1","1","1","1","1","1","1","1"
"250005","img/neutralC/CFD-MF-333-012-N.jpg","img/neutralC/CFD-IM-703-182-N.jpg","img/neutralC/CFD-IM-616-214-N.jpg","1","1","1","0","1","0","0.395300399977714","0.41103119996842","0.542342600005213","1","1","1","1","1","1","1","1","1"
"250005","img/neutralC/CFD-IM-616-214-N.jpg","img/neutralC/CFD-MF-333-012-N.jpg","img/neutralC/CFD-MF-352-054-N.jpg","1","1","1","0","0","0","0.542342600005213","0.395300399977714","0.439740100002382","1","1","1","1","1","1","1","1","1"
"250005","img/neutralC/CFD-MF-352-054-N.jpg","img/neutralC/CFD-IM-616-214-N.jpg","img/neutralC/CFD-LF-220-120-N.jpg","1","1","1","0","0","1","0.439740100002382","0.542342600005213","0.458450900041498","1","1","1","1","1","1","1","1","1"
"250005","img/neutralC/CFD-LF-220-120-N.jpg","img/neutralC/CFD-MF-352-054-N.jpg","img/neutralC/CFD-BM-225-154-N.jpg","1","1","1","1","0","1","0.458450900041498","0.439740100002382","0.522330100007821","1","1","1","1","1","1","1","1","1"
"250005","img/neutralC/CFD-BM-225-154-N.jpg","img/neutralC/CFD-LF-220-120-N.jpg","img/neutralC/CFD-AM-242-176-N.jpg","1","1","1","1","1","1","0.522330100007821","0.458450900041498","0.34630139998626","1","1","1","1","1","1","1","1","1"
"250005","img/neutralC/CFD-AM-242-176-N.jpg","img/neutralC/CFD-BM-225-154-N.jpg","img/neutralC/CFD-IM-671-601-N.jpg","1","1","1","1","1","0","0.34630139998626","0.522330100007821","0.422058299998753","1","1","1","1","1","1","1","1","1"
"250005","img/neutralC/CFD-IM-671-601-N.jpg","img/neutralC/CFD-AM-242-176-N.jpg","img/neutralC/CFD-BF-232-187-N.jpg","1","1","1","0","1","1","0.422058299998753","0.34630139998626","0.413632599986158","1","1","1","1","1","1","1","1","1"
"250005","img/neutralC/CFD-BF-232-187-N.jpg","img/neutralC/CFD-IM-671-601-N.jpg","img/neutralC/CFD-BF-229-179-N.jpg","1","1","1","1","0","0","0.413632599986158","0.422058299998753","0.450360400020145","1","1","1","1","1","1","1","1","1"
"250005","img/neutralC/CFD-BF-229-179-N.jpg","img/neutralC/CFD-BF-232-187-N.jpg","img/neutralC/CFD-WM-033-025-N.jpg","1","1","1","0","1","1","0.450360400020145","0.413632599986158","0.401656400004867","1","1","1","1","1","1","1","1","1"
"250005","img/neutralC/CFD-WM-033-025-N.jpg","img/neutralC/CFD-BF-229-179-N.jpg","img/neutralC/CFD-WM-020-001-N.jpg","1","1","1","1","0","1","0.401656400004867","0.450360400020145","0.389367899973877","1","1","1","1","1","1","1","1","1"
"250005","img/neutralC/CFD-WM-020-001-N.jpg","img/neutralC/CFD-WM-033-025-N.jpg","img/neutralC/CFD-AM-211-052-N.jpg","1","1","1","1","1","1","0.389367899973877","0.401656400004867","0.3181273000082","1","1","1","1","1","1","1","1","1"
"250005","img/neutralC/CFD-AM-211-052-N.jpg","img/neutralC/CFD-WM-020-001-N.jpg","img/neutralC/CFD-IF-623-129-N.jpg","1","1","1","1","1","1","0.3181273000082","0.389367899973877","0.437472699966747","1","1","1","1","1","1","1","1","1"
"250005","img/neutralC/CFD-IF-623-129-N.jpg","img/neutralC/CFD-AM-211-052-N.jpg","img/neutralC/CFD-LM-237-264-N.jpg","1","1","1","1","1","0","0.437472699966747","0.3181273000082","0.431835800001863","1","1","1","1","1","1","1","1","1"
"250005","img/neutralC/CFD-LM-237-264-N.jpg","img/neutralC/CFD-IF-623-129-N.jpg","img/neutralC/CFD-LM-228-188-N.jpg","1","1","1","0","1","1","0.431835800001863","0.437472699966747","0.457085100002587","1","1","1","1","1","1","1","1","1"
"250005","img/neutralC/CFD-LM-228-188-N.jpg","img/neutralC/CFD-LM-237-264-N.jpg","img/neutralC/CFD-LF-218-072-N.jpg","1","1","1","1","0","0","0.457085100002587","0.431835800001863","0.481056700053159","1","1","1","1","1","1","1","1","1"
"250005","img/neutralC/CFD-LF-218-072-N.jpg","img/neutralC/CFD-LM-228-188-N.jpg","img/neutralC/CFD-WF-200-099-N.jpg","1","1","1","0","1","0","0.481056700053159","0.457085100002587","0.527117700024974","1","1","1","1","1","1","1","1","1"
"250005","img/neutralC/CFD-WF-200-099-N.jpg","img/neutralC/CFD-LF-218-072-N.jpg",NA,"1","1",NA,"0","0",NA,"0.527117700024974","0.481056700053159",NA,"1","1",NA,"1","1",NA,"1","1",NA
"250005","img/neutralC/CFD-MF-312-002-N.jpg",NA,"img/neutralC/CFD-BM-003-003-N.jpg","1",NA,"1","1",NA,"0","0.453751299995929",NA,"0.474571500031743","1",NA,"1","1",NA,"1","1",NA,"1"
"250005","img/neutralC/CFD-BM-003-003-N.jpg","img/neutralC/CFD-MF-312-002-N.jpg","img/neutralC/CFD-WM-254-152-N.jpg","1","1","1","0","1","1","0.474571500031743","0.453751299995929","0.349751200003084","1","1","1","1","1","1","1","1","1"
"250005","img/neutralC/CFD-WM-254-152-N.jpg","img/neutralC/CFD-BM-003-003-N.jpg","img/neutralC/CFD-BF-004-014-N.jpg","1","1","1","1","0","1","0.349751200003084","0.474571500031743","0.352648700005375","1","1","1","1","1","1","1","1","1"
"250005","img/neutralC/CFD-BF-004-014-N.jpg","img/neutralC/CFD-WM-254-152-N.jpg","img/neutralC/CFD-BM-010-003-N.jpg","1","1","1","1","1","0","0.352648700005375","0.349751200003084","0.527087900030892","1","1","1","1","1","1","1","1","1"
"250005","img/neutralC/CFD-BM-010-003-N.jpg","img/neutralC/CFD-BF-004-014-N.jpg","img/neutralC/CFD-IF-625-225-N.jpg","1","1","1","0","1","0","0.527087900030892","0.352648700005375","0.49885939998785","1","1","1","1","1","1","1","1","1"
"250005","img/neutralC/CFD-IF-625-225-N.jpg","img/neutralC/CFD-BM-010-003-N.jpg","img/neutralC/CFD-WM-228-065-N.jpg","1","1","1","0","0","0","0.49885939998785","0.527087900030892","0.390017299971078","1","1","1","1","1","1","1","1","1"
"250005","img/neutralC/CFD-WM-228-065-N.jpg","img/neutralC/CFD-IF-625-225-N.jpg","img/neutralC/CFD-LF-225-164-N.jpg","1","1","1","0","0","1","0.390017299971078","0.49885939998785","0.45198299997719","1","1","1","1","1","1","1","1","1"
"250005","img/neutralC/CFD-LF-225-164-N.jpg","img/neutralC/CFD-WM-228-065-N.jpg","img/neutralC/CFD-LM-247-095-N.jpg","1","1","1","1","0","0","0.45198299997719","0.390017299971078","0.478509699983988","1","1","1","1","1","1","1","1","1"
"250005","img/neutralC/CFD-LM-247-095-N.jpg","img/neutralC/CFD-LF-225-164-N.jpg","img/neutralC/CFD-LF-208-127-N.jpg","1","1","1","0","1","0","0.478509699983988","0.45198299997719","0.47048590000486","1","1","1","1","1","1","1","1","1"
"250005","img/neutralC/CFD-LF-208-127-N.jpg","img/neutralC/CFD-LM-247-095-N.jpg","img/neutralC/CFD-AM-221-184-N.jpg","1","1","1","0","0","1","0.47048590000486","0.478509699983988","0.406775299983565","1","1","1","1","1","1","1","1","1"
"250005","img/neutralC/CFD-AM-221-184-N.jpg","img/neutralC/CFD-LF-208-127-N.jpg","img/neutralC/CFD-LF-210-220-N.jpg","1","1","1","1","0","1","0.406775299983565","0.47048590000486","0.392711899999995","1","1","1","1","1","1","1","1","1"
"250005","img/neutralC/CFD-LF-210-220-N.jpg","img/neutralC/CFD-AM-221-184-N.jpg","img/neutralC/CFD-WF-006-002-N.jpg","1","1","1","1","1","0","0.392711899999995","0.406775299983565","0.487177300034091","1","1","1","1","1","1","1","1","1"
"250005","img/neutralC/CFD-WF-006-002-N.jpg","img/neutralC/CFD-LF-210-220-N.jpg","img/neutralC/CFD-IM-659-359-N.jpg","1","1","1","0","1","0","0.487177300034091","0.392711899999995","0.497096599952783","1","1","1","1","1","1","1","1","1"
"250005","img/neutralC/CFD-IM-659-359-N.jpg","img/neutralC/CFD-WF-006-002-N.jpg","img/neutralC/CFD-BF-222-240-N.jpg","1","1","1","0","0","0","0.497096599952783","0.487177300034091","0.361546400003135","1","1","1","1","1","1","1","1","1"
"250005","img/neutralC/CFD-BF-222-240-N.jpg","img/neutralC/CFD-IM-659-359-N.jpg","img/neutralC/CFD-BF-045-003-N.jpg","1","1","1","0","0","0","0.361546400003135","0.497096599952783","0.499145600013435","1","1","1","1","1","1","1","1","1"
"250005","img/neutralC/CFD-BF-045-003-N.jpg","img/neutralC/CFD-BF-222-240-N.jpg","img/neutralC/CFD-LF-241-188-N.jpg","1","1","1","0","0","0","0.499145600013435","0.361546400003135","0.484706599963829","1","1","1","1","1","1","1","1","1"
"250005","img/neutralC/CFD-LF-241-188-N.jpg","img/neutralC/CFD-BF-045-003-N.jpg","img/neutralC/CFD-AF-239-171-N.jpg","1","1","1","0","0","1","0.484706599963829","0.499145600013435","0.319809000007808","1","1","1","1","1","1","1","1","1"
"250005","img/neutralC/CFD-AF-239-171-N.jpg","img/neutralC/CFD-LF-241-188-N.jpg","img/neutralC/CFD-WM-202-107-N.jpg","1","1","1","1","0","1","0.319809000007808","0.484706599963829","0.348638200026471","1","1","1","1","1","1","1","1","1"
"250005","img/neutralC/CFD-WM-202-107-N.jpg","img/neutralC/CFD-AF-239-171-N.jpg","img/neutralC/CFD-LM-238-129-N.jpg","1","1","1","1","1","1","0.348638200026471","0.319809000007808","0.390276599966455","1","1","1","1","1","1","1","1","1"
"250005","img/neutralC/CFD-LM-238-129-N.jpg","img/neutralC/CFD-WM-202-107-N.jpg","img/neutralC/CFD-MF-336-016-N.jpg","1","1","1","1","1","1","0.390276599966455","0.348638200026471","0.435503699991386","1","1","1","1","1","1","1","1","1"
"250005","img/neutralC/CFD-MF-336-016-N.jpg","img/neutralC/CFD-LM-238-129-N.jpg","img/neutralC/CFD-IF-673-389-N.jpg","1","1","0","1","1","0","0.435503699991386","0.390276599966455","0.430661500024144","1","1","1","1","1","1","1","1","1"
"250005","img/neutralC/CFD-IF-673-389-N.jpg","img/neutralC/CFD-MF-336-016-N.jpg","img/neutralC/CFD-AF-210-050-N.jpg","0","1","1","0","1","1","0.430661500024144","0.435503699991386","0.402969000046142","1","1","1","1","1","1","1","1","1"
"250005","img/neutralC/CFD-AF-210-050-N.jpg","img/neutralC/CFD-IF-673-389-N.jpg","img/neutralC/CFD-IF-744-114-N.jpg","1","0","1","1","0","0","0.402969000046142","0.430661500024144","0.504460699972697","1","1","1","1","1","1","1","1","1"
"250005","img/neutralC/CFD-IF-744-114-N.jpg","img/neutralC/CFD-AF-210-050-N.jpg","img/neutralC/CFD-BM-213-134-N.jpg","1","1","1","0","1","1","0.504460699972697","0.402969000046142","0.41291309997905","1","1","1","1","1","1","1","1","1"
"250005","img/neutralC/CFD-BM-213-134-N.jpg","img/neutralC/CFD-IF-744-114-N.jpg","img/neutralC/CFD-WF-223-133-N.jpg","1","1","0","1","0","0","0.41291309997905","0.504460699972697","0.430357500037644","1","1","1","1","1","1","1","1","1"
"250005","img/neutralC/CFD-WF-223-133-N.jpg","img/neutralC/CFD-BM-213-134-N.jpg","img/neutralC/CFD-BM-028-002-N.jpg","0","1","1","0","1","1","0.430357500037644","0.41291309997905","0.415499499998987","1","1","1","1","1","1","1","1","1"
"250005","img/neutralC/CFD-BM-028-002-N.jpg","img/neutralC/CFD-WF-223-133-N.jpg","img/neutralC/CFD-WF-033-002-N.jpg","1","0","1","1","0","1","0.415499499998987","0.430357500037644","0.381868599972222","1","1","1","1","1","1","1","1","1"
"250005","img/neutralC/CFD-WF-033-002-N.jpg","img/neutralC/CFD-BM-028-002-N.jpg","img/neutralC/CFD-BM-013-002-N.jpg","1","1","1","1","1","1","0.381868599972222","0.415499499998987","0.583591200003866","1","1","1","1","1","1","1","1","1"
"250005","img/neutralC/CFD-BM-013-002-N.jpg","img/neutralC/CFD-WF-033-002-N.jpg","img/neutralC/CFD-IM-738-191-N.jpg","1","1","0","1","1","0","0.583591200003866","0.381868599972222","0.336082900001202","1","1","1","1","1","1","1","1","1"
"250005","img/neutralC/CFD-IM-738-191-N.jpg","img/neutralC/CFD-BM-013-002-N.jpg","img/neutralC/CFD-IM-701-312-N.jpg","0","1","1","0","1","0","0.336082900001202","0.583591200003866","0.432504100026563","1","1","1","1","1","1","1","1","1"
"250005","img/neutralC/CFD-IM-701-312-N.jpg","img/neutralC/CFD-IM-738-191-N.jpg","img/neutralC/CFD-AF-227-207-N.jpg","1","0","1","0","0","1","0.432504100026563","0.336082900001202","0.50702130002901","1","1","1","1","1","1","1","1","1"
"250005","img/neutralC/CFD-AF-227-207-N.jpg","img/neutralC/CFD-IM-701-312-N.jpg",NA,"1","1",NA,"1","0",NA,"0.50702130002901","0.432504100026563",NA,"1","1",NA,"1","1",NA,"1","1",NA
"250005","img/neutralC/CFD-AM-201-076-N.jpg",NA,"img/neutralC/CFD-WM-011-002-N.jpg","1",NA,"1","1",NA,"0","0.404898599954322",NA,"0.592737799976021","1",NA,"1","1",NA,"1","1",NA,"1"
"250005","img/neutralC/CFD-WM-011-002-N.jpg","img/neutralC/CFD-AM-201-076-N.jpg","img/neutralC/CFD-WF-224-099-N.jpg","1","1","1","0","1","0","0.592737799976021","0.404898599954322","0.396643999963999","1","1","1","1","1","1","1","1","1"
"250005","img/neutralC/CFD-WF-224-099-N.jpg","img/neutralC/CFD-WM-011-002-N.jpg","img/neutralC/CFD-LF-203-066-N.jpg","1","1","1","0","0","0","0.396643999963999","0.592737799976021","0.491948699986096","1","1","1","1","1","1","1","1","1"
"250005","img/neutralC/CFD-LF-203-066-N.jpg","img/neutralC/CFD-WF-224-099-N.jpg","img/neutralC/CFD-MM-316-156-N.jpg","1","1","1","0","0","1","0.491948699986096","0.396643999963999","0.400050299998838","1","1","1","1","1","1","1","1","1"
"250005","img/neutralC/CFD-MM-316-156-N.jpg","img/neutralC/CFD-LF-203-066-N.jpg","img/neutralC/CFD-BF-039-031-N.jpg","1","1","1","1","0","1","0.400050299998838","0.491948699986096","0.338724599976558","1","1","1","1","1","1","1","1","1"
"250005","img/neutralC/CFD-BF-039-031-N.jpg","img/neutralC/CFD-MM-316-156-N.jpg","img/neutralC/CFD-IM-651-308-N.jpg","1","1","1","1","1","0","0.338724599976558","0.400050299998838","0.350813099998049","1","1","1","1","1","1","1","1","1"
"250005","img/neutralC/CFD-IM-651-308-N.jpg","img/neutralC/CFD-BF-039-031-N.jpg","img/neutralC/CFD-LF-224-176-N.jpg","1","1","0","0","1","0","0.350813099998049","0.338724599976558","0.381177100003697","1","1","1","1","1","1","1","1","2"
"250005","img/neutralC/CFD-LF-224-176-N.jpg","img/neutralC/CFD-IM-651-308-N.jpg","img/neutralC/CFD-AM-212-050-N.jpg","0","1","1","0","0","1","0.381177100003697","0.350813099998049","0.33897690003505","1","1","1","1","1","1","2","1","1"
"250005","img/neutralC/CFD-AM-212-050-N.jpg","img/neutralC/CFD-LF-224-176-N.jpg","img/neutralC/CFD-IF-634-382-N.jpg","1","0","1","1","0","1","0.33897690003505","0.381177100003697","0.407864900014829","1","1","1","1","1","1","1","2","1"
"250005","img/neutralC/CFD-IF-634-382-N.jpg","img/neutralC/CFD-AM-212-050-N.jpg","img/neutralC/CFD-BF-253-202-N.jpg","1","1","1","1","1","0","0.407864900014829","0.33897690003505","0.39328039996326","1","1","1","1","1","1","1","1","1"
"250005","img/neutralC/CFD-BF-253-202-N.jpg","img/neutralC/CFD-IF-634-382-N.jpg","img/neutralC/CFD-BM-033-003-N.jpg","1","1","1","0","1","0","0.39328039996326","0.407864900014829","0.350334000017028","1","1","1","1","1","1","1","1","1"
"250005","img/neutralC/CFD-BM-033-003-N.jpg","img/neutralC/CFD-BF-253-202-N.jpg","img/neutralC/CFD-AF-231-357-N.jpg","1","1","1","0","0","1","0.350334000017028","0.39328039996326","0.352590800030157","1","1","1","1","1","1","1","1","1"
"250005","img/neutralC/CFD-AF-231-357-N.jpg","img/neutralC/CFD-BM-033-003-N.jpg","img/neutralC/CFD-IM-684-008-N.jpg","1","1","1","1","0","1","0.352590800030157","0.350334000017028","0.463203800027259","1","1","1","1","1","1","1","1","1"
"250005","img/neutralC/CFD-IM-684-008-N.jpg","img/neutralC/CFD-AF-231-357-N.jpg","img/neutralC/CFD-IF-693-172-N.jpg","1","1","1","1","1","0","0.463203800027259","0.352590800030157","0.458483800000977","1","1","1","1","1","1","1","1","1"
"250005","img/neutralC/CFD-IF-693-172-N.jpg","img/neutralC/CFD-IM-684-008-N.jpg","img/neutralC/CFD-BM-041-035-N.jpg","1","1","1","0","1","0","0.458483800000977","0.463203800027259","0.435027400031686","1","1","1","1","1","1","1","1","1"
"250005","img/neutralC/CFD-BM-041-035-N.jpg","img/neutralC/CFD-IF-693-172-N.jpg","img/neutralC/CFD-LM-215-247-N.jpg","1","1","1","0","0","0","0.435027400031686","0.458483800000977","0.408491600013804","1","1","1","1","1","1","1","1","1"
"250005","img/neutralC/CFD-LM-215-247-N.jpg","img/neutralC/CFD-BM-041-035-N.jpg","img/neutralC/CFD-LF-230-203-N.jpg","1","1","0","0","0","0","0.408491600013804","0.435027400031686","0.367739300010726","1","1","1","1","1","1","1","1","1"
"250005","img/neutralC/CFD-LF-230-203-N.jpg","img/neutralC/CFD-LM-215-247-N.jpg","img/neutralC/CFD-WF-213-031-N.jpg","0","1","1","0","0","1","0.367739300010726","0.408491600013804","0.27463290002197","1","1","1","1","1","1","1","1","1"
"250005","img/neutralC/CFD-WF-213-031-N.jpg","img/neutralC/CFD-LF-230-203-N.jpg","img/neutralC/CFD-BF-029-031-N.jpg","1","0","1","1","0","1","0.27463290002197","0.367739300010726","0.320744000026025","1","1","1","1","1","1","1","1","1"
"250005","img/neutralC/CFD-BF-029-031-N.jpg","img/neutralC/CFD-WF-213-031-N.jpg","img/neutralC/CFD-WF-250-167-N.jpg","1","1","1","1","1","1","0.320744000026025","0.27463290002197","0.268351699982304","1","1","1","1","1","1","1","1","1"
"250005","img/neutralC/CFD-WF-250-167-N.jpg","img/neutralC/CFD-BF-029-031-N.jpg","img/neutralC/CFD-LF-214-090-N.jpg","1","1","1","1","1","0","0.268351699982304","0.320744000026025","0.307340200000908","1","1","1","1","1","1","1","1","1"
"250005","img/neutralC/CFD-LF-214-090-N.jpg","img/neutralC/CFD-WF-250-167-N.jpg","img/neutralC/CFD-BF-205-141-N.jpg","1","1","1","0","1","0","0.307340200000908","0.268351699982304","0.468155800015666","1","1","1","1","1","1","1","1","1"
"250005","img/neutralC/CFD-BF-205-141-N.jpg","img/neutralC/CFD-LF-214-090-N.jpg","img/neutralC/CFD-MF-337-026-N.jpg","1","1","1","0","0","1","0.468155800015666","0.307340200000908","0.377786200027913","1","1","1","1","1","1","1","1","1"
"250005","img/neutralC/CFD-MF-337-026-N.jpg","img/neutralC/CFD-BF-205-141-N.jpg","img/neutralC/CFD-BF-213-188-N.jpg","1","1","1","1","0","1","0.377786200027913","0.468155800015666","0.366492500004824","1","1","1","1","1","1","1","1","1"
"250005","img/neutralC/CFD-BF-213-188-N.jpg","img/neutralC/CFD-MF-337-026-N.jpg","img/neutralC/CFD-WM-041-021-N.jpg","1","1","1","1","1","0","0.366492500004824","0.377786200027913","0.574461799988057","1","1","1","1","1","1","1","1","1"
"250005","img/neutralC/CFD-WM-041-021-N.jpg","img/neutralC/CFD-BF-213-188-N.jpg","img/neutralC/CFD-WM-021-001-N.jpg","1","1","1","0","1","1","0.574461799988057","0.366492500004824","0.350951800006442","1","1","1","1","1","1","1","1","1"
"250005","img/neutralC/CFD-WM-021-001-N.jpg","img/neutralC/CFD-WM-041-021-N.jpg","img/neutralC/CFD-IF-710-016-N.jpg","1","1","1","1","0","0","0.350951800006442","0.574461799988057","0.267662099970039","1","1","1","1","1","1","1","1","1"
"250005","img/neutralC/CFD-IF-710-016-N.jpg","img/neutralC/CFD-WM-021-001-N.jpg","img/neutralC/CFD-BM-019-002-N.jpg","1","1","1","0","1","0","0.267662099970039","0.350951800006442","0.305881899956148","1","1","1","1","1","1","1","1","1"
"250005","img/neutralC/CFD-BM-019-002-N.jpg","img/neutralC/CFD-IF-710-016-N.jpg","img/neutralC/CFD-LF-205-100-N.jpg","1","1","0","0","0","1","0.305881899956148","0.267662099970039","0.369379199983086","1","1","1","1","1","1","1","1","1"
"250005","img/neutralC/CFD-LF-205-100-N.jpg","img/neutralC/CFD-BM-019-002-N.jpg","img/neutralC/CFD-BM-239-136-N.jpg","0","1","1","1","0","1","0.369379199983086","0.305881899956148","0.374703700013924","1","1","1","1","1","1","1","1","1"
"250005","img/neutralC/CFD-BM-239-136-N.jpg","img/neutralC/CFD-LF-205-100-N.jpg","img/neutralC/CFD-LM-218-183-N.jpg","1","0","1","1","1","1","0.374703700013924","0.369379199983086","0.3783469000482","1","1","1","1","1","1","1","1","1"
"250005","img/neutralC/CFD-LM-218-183-N.jpg","img/neutralC/CFD-BM-239-136-N.jpg",NA,"1","1",NA,"1","1",NA,"0.3783469000482","0.374703700013924",NA,"1","1",NA,"1","1",NA,"1","1",NA
"250005","img/neutralC/CFD-IM-685-004-N.jpg",NA,"img/neutralC/CFD-WF-217-085-N.jpg","1",NA,"1","1",NA,"1","0.415356000012252",NA,"0.379647399997339","1",NA,"1","1",NA,"1","1",NA,"1"
"250005","img/neutralC/CFD-WF-217-085-N.jpg","img/neutralC/CFD-IM-685-004-N.jpg","img/neutralC/CFD-MF-340-026-N.jpg","1","1","1","1","1","1","0.379647399997339","0.415356000012252","0.400528100028168","1","1","1","1","1","1","1","1","1"
"250005","img/neutralC/CFD-MF-340-026-N.jpg","img/neutralC/CFD-WF-217-085-N.jpg","img/neutralC/CFD-MF-329-001-N.jpg","1","1","1","1","1","0","0.400528100028168","0.379647399997339","0.602461999980733","1","1","1","1","1","1","1","1","1"
"250005","img/neutralC/CFD-MF-329-001-N.jpg","img/neutralC/CFD-MF-340-026-N.jpg","img/neutralC/CFD-LF-226-174-N.jpg","1","1","0","0","1","0","0.602461999980733","0.400528100028168","0.379433800000697","1","1","1","1","1","1","1","1","1"
"250005","img/neutralC/CFD-LF-226-174-N.jpg","img/neutralC/CFD-MF-329-001-N.jpg","img/neutralC/CFD-IM-709-103-N.jpg","0","1","1","0","0","0","0.379433800000697","0.602461999980733","0.465463500004262","1","1","1","1","1","1","1","1","1"
"250005","img/neutralC/CFD-IM-709-103-N.jpg","img/neutralC/CFD-LF-226-174-N.jpg","img/neutralC/CFD-WM-024-015-N.jpg","1","0","1","0","0","1","0.465463500004262","0.379433800000697","0.340422300039791","1","1","1","1","1","1","1","1","1"
"250005","img/neutralC/CFD-WM-024-015-N.jpg","img/neutralC/CFD-IM-709-103-N.jpg","img/neutralC/CFD-BM-243-218-N.jpg","1","1","0","1","0","1","0.340422300039791","0.465463500004262","0.36194729997078","1","1","1","1","1","1","1","1","2"
"250005","img/neutralC/CFD-BM-243-218-N.jpg","img/neutralC/CFD-WM-024-015-N.jpg","img/neutralC/CFD-WF-212-050-N.jpg","0","1","1","1","1","0","0.36194729997078","0.340422300039791","0.448476600053255","1","1","1","1","1","1","2","1","1"
"250005","img/neutralC/CFD-WF-212-050-N.jpg","img/neutralC/CFD-BM-243-218-N.jpg","img/neutralC/CFD-WF-012-002-N.jpg","1","0","1","0","1","1","0.448476600053255","0.36194729997078","0.382947100035381","1","1","1","1","1","1","1","2","1"
"250005","img/neutralC/CFD-WF-012-002-N.jpg","img/neutralC/CFD-WF-212-050-N.jpg","img/neutralC/CFD-MF-327-002-N.jpg","1","1","0","1","0","0","0.382947100035381","0.448476600053255","0.384795799967833","1","1","1","1","1","1","1","1","1"
"250005","img/neutralC/CFD-MF-327-002-N.jpg","img/neutralC/CFD-WF-012-002-N.jpg","img/neutralC/CFD-LF-201-035-N.jpg","0","1","0","0","1","1","0.384795799967833","0.382947100035381","0.498115699971095","1","1","1","1","1","1","1","1","1"
"250005","img/neutralC/CFD-LF-201-035-N.jpg","img/neutralC/CFD-MF-327-002-N.jpg","img/neutralC/CFD-IM-604-014-N.jpg","0","0","0","1","0","0","0.498115699971095","0.384795799967833","0.371764999988955","1","1","1","1","1","1","1","1","1"
"250005","img/neutralC/CFD-IM-604-014-N.jpg","img/neutralC/CFD-LF-201-035-N.jpg","img/neutralC/CFD-BF-224-002-N.jpg","0","0","1","0","1","1","0.371764999988955","0.498115699971095","0.497304400021676","1","1","1","1","1","1","1","1","1"
"250005","img/neutralC/CFD-BF-224-002-N.jpg","img/neutralC/CFD-IM-604-014-N.jpg","img/neutralC/CFD-AF-215-70-N.jpg","1","0","1","1","0","0","0.497304400021676","0.371764999988955","0.55058929999359","1","1","1","1","1","1","1","1","1"
"250005","img/neutralC/CFD-AF-215-70-N.jpg","img/neutralC/CFD-BF-224-002-N.jpg","img/neutralC/CFD-BF-043-003-N.jpg","1","1","1","0","1","0","0.55058929999359","0.497304400021676","0.487959499994759","1","1","1","1","1","1","1","1","1"
"250005","img/neutralC/CFD-BF-043-003-N.jpg","img/neutralC/CFD-AF-215-70-N.jpg","img/neutralC/CFD-IF-619-197-N.jpg","1","1","1","0","0","0","0.487959499994759","0.55058929999359","0.6209247999941","1","1","1","1","1","1","1","1","1"
"250005","img/neutralC/CFD-IF-619-197-N.jpg","img/neutralC/CFD-BF-043-003-N.jpg","img/neutralC/CFD-WF-248-129-N.jpg","1","1","1","0","0","0","0.6209247999941","0.487959499994759","0.398635599995032","1","1","1","1","1","1","1","1","1"
"250005","img/neutralC/CFD-WF-248-129-N.jpg","img/neutralC/CFD-IF-619-197-N.jpg","img/neutralC/CFD-BM-039-029-N.jpg","1","1","1","0","0","1","0.398635599995032","0.6209247999941","0.33893630001694","1","1","1","1","1","1","1","1","1"
"250005","img/neutralC/CFD-BM-039-029-N.jpg","img/neutralC/CFD-WF-248-129-N.jpg","img/neutralC/CFD-LM-217-162-N.jpg","1","1","1","1","0","0","0.33893630001694","0.398635599995032","0.559253199957311","1","1","1","1","1","1","1","1","1"
"250005","img/neutralC/CFD-LM-217-162-N.jpg","img/neutralC/CFD-BM-039-029-N.jpg","img/neutralC/CFD-AM-236-090-N.jpg","1","1","1","0","1","1","0.559253199957311","0.33893630001694","0.4815139999846","1","1","1","1","1","1","1","1","1"
"250005","img/neutralC/CFD-AM-236-090-N.jpg","img/neutralC/CFD-LM-217-162-N.jpg","img/neutralC/CFD-MM-304-002-N.jpg","1","1","1","1","0","1","0.4815139999846","0.559253199957311","0.432055800047237","1","1","1","1","1","1","1","1","1"
"250005","img/neutralC/CFD-MM-304-002-N.jpg","img/neutralC/CFD-AM-236-090-N.jpg","img/neutralC/CFD-AF-229-160-N.jpg","1","1","1","1","1","0","0.432055800047237","0.4815139999846","0.414177300001029","1","1","1","1","1","1","1","1","1"
"250005","img/neutralC/CFD-AF-229-160-N.jpg","img/neutralC/CFD-MM-304-002-N.jpg","img/neutralC/CFD-BF-051-035-N.jpg","1","1","1","0","1","0","0.414177300001029","0.432055800047237","0.506325100024696","1","1","1","1","1","1","1","1","1"
"250005","img/neutralC/CFD-BF-051-035-N.jpg","img/neutralC/CFD-AF-229-160-N.jpg","img/neutralC/CFD-IF-608-390-N.jpg","1","1","1","0","0","1","0.506325100024696","0.414177300001029","0.424181600043084","1","1","1","1","1","1","1","1","1"
"250005","img/neutralC/CFD-IF-608-390-N.jpg","img/neutralC/CFD-BF-051-035-N.jpg","img/neutralC/CFD-AF-254-167-N.jpg","1","1","1","1","0","1","0.424181600043084","0.506325100024696","0.464290200034156","1","1","1","1","1","1","1","1","1"
"250005","img/neutralC/CFD-AF-254-167-N.jpg","img/neutralC/CFD-IF-608-390-N.jpg","img/neutralC/CFD-WM-213-076-N.jpg","1","1","1","1","1","1","0.464290200034156","0.424181600043084","0.553928700042889","1","1","1","1","1","1","1","1","1"
"250005","img/neutralC/CFD-WM-213-076-N.jpg","img/neutralC/CFD-AF-254-167-N.jpg","img/neutralC/CFD-WF-008-002-N.jpg","1","1","1","1","1","1","0.553928700042889","0.464290200034156","0.387545800011139","1","1","1","1","1","1","1","1","1"
"250005","img/neutralC/CFD-WF-008-002-N.jpg","img/neutralC/CFD-WM-213-076-N.jpg","img/neutralC/CFD-IM-675-015-N.jpg","1","1","1","1","1","1","0.387545800011139","0.553928700042889","0.421289300022181","1","1","1","1","1","1","1","1","1"
"250005","img/neutralC/CFD-IM-675-015-N.jpg","img/neutralC/CFD-WF-008-002-N.jpg","img/neutralC/CFD-WM-232-070-N.jpg","1","1","1","1","1","0","0.421289300022181","0.387545800011139","0.512821200012695","1","1","1","1","1","1","1","1","1"
"250005","img/neutralC/CFD-WM-232-070-N.jpg","img/neutralC/CFD-IM-675-015-N.jpg","img/neutralC/CFD-MF-300-002-N.jpg","1","1","1","0","1","0","0.512821200012695","0.421289300022181","0.551317500008736","1","1","1","1","1","1","1","1","1"
"250005","img/neutralC/CFD-MF-300-002-N.jpg","img/neutralC/CFD-WM-232-070-N.jpg","img/neutralC/CFD-IM-637-007-N.jpg","1","1","1","0","0","0","0.551317500008736","0.512821200012695","0.46896490000654","1","1","1","1","1","1","1","1","1"
"250005","img/neutralC/CFD-IM-637-007-N.jpg","img/neutralC/CFD-MF-300-002-N.jpg",NA,"1","1",NA,"0","0",NA,"0.46896490000654","0.551317500008736",NA,"1","1",NA,"1","1",NA,"1","1",NA
"250005","img/neutralC/CFD-IM-627-178-N.jpg",NA,"img/neutralC/CFD-AF-221-147-N.jpg","1",NA,"0","1",NA,"0","0.332811100000981",NA,"0.382943300006445","1",NA,"1","1",NA,"1","1",NA,"1"
"250005","img/neutralC/CFD-AF-221-147-N.jpg","img/neutralC/CFD-IM-627-178-N.jpg","img/neutralC/CFD-AF-232-078-N.jpg","0","1","1","0","1","1","0.382943300006445","0.332811100000981","0.396993600006681","1","1","1","1","1","1","1","1","1"
"250005","img/neutralC/CFD-AF-232-078-N.jpg","img/neutralC/CFD-AF-221-147-N.jpg","img/neutralC/CFD-MF-321-003-N.jpg","1","0","1","1","0","0","0.396993600006681","0.382943300006445","0.435708400036674","1","1","1","1","1","1","1","1","1"
"250005","img/neutralC/CFD-MF-321-003-N.jpg","img/neutralC/CFD-AF-232-078-N.jpg","img/neutralC/CFD-IM-700-009-N.jpg","1","1","1","0","1","1","0.435708400036674","0.396993600006681","0.44891820003977","1","1","1","1","1","1","1","1","1"
"250005","img/neutralC/CFD-IM-700-009-N.jpg","img/neutralC/CFD-MF-321-003-N.jpg","img/neutralC/CFD-WF-018-017-N.jpg","1","1","1","1","0","1","0.44891820003977","0.435708400036674","0.422107999969739","1","1","1","1","1","1","1","1","1"
"250005","img/neutralC/CFD-WF-018-017-N.jpg","img/neutralC/CFD-IM-700-009-N.jpg","img/neutralC/CFD-IM-719-221-N.jpg","1","1","1","1","1","0","0.422107999969739","0.44891820003977","0.656889799982309","1","1","1","1","1","1","1","1","1"
"250005","img/neutralC/CFD-IM-719-221-N.jpg","img/neutralC/CFD-WF-018-017-N.jpg","img/neutralC/CFD-BM-200-046-N.jpg","1","1","1","0","1","0","0.656889799982309","0.422107999969739","0.489769599982537","1","1","1","1","1","1","1","1","1"
"250005","img/neutralC/CFD-BM-200-046-N.jpg","img/neutralC/CFD-IM-719-221-N.jpg","img/neutralC/CFD-WF-027-003-N.jpg","1","1","1","0","0","1","0.489769599982537","0.656889799982309","0.34913680003956","1","1","1","1","1","1","1","1","1"
"250005","img/neutralC/CFD-WF-027-003-N.jpg","img/neutralC/CFD-BM-200-046-N.jpg","img/neutralC/CFD-LF-211-003-N.jpg","1","1","0","1","0","0","0.34913680003956","0.489769599982537","0.387753500021063","1","1","1","1","1","1","1","1","1"
"250005","img/neutralC/CFD-LF-211-003-N.jpg","img/neutralC/CFD-WF-027-003-N.jpg","img/neutralC/CFD-LF-215-157-N.jpg","0","1","1","0","1","0","0.387753500021063","0.34913680003956","0.893371000012849","1","1","1","1","1","1","1","1","1"
"250005","img/neutralC/CFD-LF-215-157-N.jpg","img/neutralC/CFD-LF-211-003-N.jpg","img/neutralC/CFD-WM-201-063-N.jpg","1","0","1","0","0","1","0.893371000012849","0.387753500021063","0.44845660001738","1","1","1","1","1","1","1","1","1"
"250005","img/neutralC/CFD-WM-201-063-N.jpg","img/neutralC/CFD-LF-215-157-N.jpg","img/neutralC/CFD-BF-218-207-N.jpg","1","1","1","1","0","1","0.44845660001738","0.893371000012849","0.414275899995118","1","1","1","1","1","1","1","1","1"
"250005","img/neutralC/CFD-BF-218-207-N.jpg","img/neutralC/CFD-WM-201-063-N.jpg","img/neutralC/CFD-WM-013-001-N.jpg","1","1","1","1","1","1","0.414275899995118","0.44845660001738","0.423295000044163","1","1","1","1","1","1","1","1","1"
"250005","img/neutralC/CFD-WM-013-001-N.jpg","img/neutralC/CFD-BF-218-207-N.jpg","img/neutralC/CFD-MM-321-021-N.jpg","1","1","1","1","1","0","0.423295000044163","0.414275899995118","0.429896999965422","1","1","1","1","1","1","1","1","1"
"250005","img/neutralC/CFD-MM-321-021-N.jpg","img/neutralC/CFD-WM-013-001-N.jpg","img/neutralC/CFD-WM-009-002-N.jpg","1","1","1","0","1","0","0.429896999965422","0.423295000044163","0.419061499997042","1","1","1","1","1","1","1","1","1"
"250005","img/neutralC/CFD-WM-009-002-N.jpg","img/neutralC/CFD-MM-321-021-N.jpg","img/neutralC/CFD-WF-245-084-N.jpg","1","1","1","0","0","1","0.419061499997042","0.429896999965422","0.377253999991808","1","1","1","1","1","1","1","1","1"
"250005","img/neutralC/CFD-WF-245-084-N.jpg","img/neutralC/CFD-WM-009-002-N.jpg","img/neutralC/CFD-MF-318-022-N.jpg","1","1","1","1","0","1","0.377253999991808","0.419061499997042","0.386836499965284","1","1","1","1","1","1","1","1","1"
"250005","img/neutralC/CFD-MF-318-022-N.jpg","img/neutralC/CFD-WF-245-084-N.jpg","img/neutralC/CFD-WM-255-219-N.jpg","1","1","1","1","1","0","0.386836499965284","0.377253999991808","0.551071399997454","1","1","1","1","1","1","1","1","1"
"250005","img/neutralC/CFD-WM-255-219-N.jpg","img/neutralC/CFD-MF-318-022-N.jpg","img/neutralC/CFD-WF-023-003-N.jpg","1","1","1","0","1","1","0.551071399997454","0.386836499965284","0.412516399985179","1","1","1","1","1","1","1","1","1"
"250005","img/neutralC/CFD-WF-023-003-N.jpg","img/neutralC/CFD-WM-255-219-N.jpg","img/neutralC/CFD-IF-629-234-N.jpg","1","1","1","1","0","0","0.412516399985179","0.551071399997454","0.487817700020969","1","1","1","1","1","1","1","1","1"
"250005","img/neutralC/CFD-IF-629-234-N.jpg","img/neutralC/CFD-WF-023-003-N.jpg","img/neutralC/CFD-BF-254-201-N.jpg","1","1","1","0","1","0","0.487817700020969","0.412516399985179","0.602106400008779","1","1","1","1","1","1","1","1","1"
"250005","img/neutralC/CFD-BF-254-201-N.jpg","img/neutralC/CFD-IF-629-234-N.jpg","img/neutralC/CFD-MF-342-022-N.jpg","1","1","1","0","0","1","0.602106400008779","0.487817700020969","0.397612200002186","1","1","1","1","1","1","1","1","1"
"250005","img/neutralC/CFD-MF-342-022-N.jpg","img/neutralC/CFD-BF-254-201-N.jpg","img/neutralC/CFD-WM-221-091-N.jpg","1","1","1","1","0","0","0.397612200002186","0.602106400008779","0.553860700048972","1","1","1","1","1","1","1","1","1"
"250005","img/neutralC/CFD-WM-221-091-N.jpg","img/neutralC/CFD-MF-342-022-N.jpg","img/neutralC/CFD-WF-226-095-N.jpg","1","1","1","0","1","1","0.553860700048972","0.397612200002186","0.422591299982741","1","1","1","1","1","1","1","1","1"
"250005","img/neutralC/CFD-WF-226-095-N.jpg","img/neutralC/CFD-WM-221-091-N.jpg","img/neutralC/CFD-BM-204-003-N.jpg","1","1","1","1","0","0","0.422591299982741","0.553860700048972","0.508178399992175","1","1","1","1","1","1","1","1","1"
"250005","img/neutralC/CFD-BM-204-003-N.jpg","img/neutralC/CFD-WF-226-095-N.jpg","img/neutralC/CFD-WM-237-052-N.jpg","1","1","1","0","1","1","0.508178399992175","0.422591299982741","0.563115400029346","1","1","1","1","1","1","1","1","1"
"250005","img/neutralC/CFD-WM-237-052-N.jpg","img/neutralC/CFD-BM-204-003-N.jpg","img/neutralC/CFD-BM-023-029-N.jpg","1","1","1","1","0","1","0.563115400029346","0.508178399992175","0.379818700021133","1","1","1","1","1","1","1","1","1"
"250005","img/neutralC/CFD-BM-023-029-N.jpg","img/neutralC/CFD-WM-237-052-N.jpg","img/neutralC/CFD-WF-238-023-N.jpg","1","1","1","1","1","0","0.379818700021133","0.563115400029346","0.511956300004385","1","1","1","1","1","1","1","1","1"
"250005","img/neutralC/CFD-WF-238-023-N.jpg","img/neutralC/CFD-BM-023-029-N.jpg","img/neutralC/CFD-AM-244-222-N.jpg","1","1","1","0","1","0","0.511956300004385","0.379818700021133","0.581009000015911","1","1","1","1","1","1","1","1","1"
"250005","img/neutralC/CFD-AM-244-222-N.jpg","img/neutralC/CFD-WF-238-023-N.jpg","img/neutralC/CFD-LM-253-075-N.jpg","1","1","1","0","0","0","0.581009000015911","0.511956300004385","0.460400399984792","1","1","1","1","1","1","1","1","1"
"250005","img/neutralC/CFD-LM-253-075-N.jpg","img/neutralC/CFD-AM-244-222-N.jpg","img/neutralC/CFD-BF-018-039-N.jpg","1","1","1","0","0","1","0.460400399984792","0.581009000015911","0.41767890000483","1","1","1","1","1","1","1","1","1"
"250005","img/neutralC/CFD-BF-018-039-N.jpg","img/neutralC/CFD-LM-253-075-N.jpg",NA,"1","1",NA,"1","0",NA,"0.41767890000483","0.460400399984792",NA,"1","1",NA,"1","1",NA,"1","1",NA
"250005","img/neutralC/CFD-BM-205-001-N.jpg",NA,"img/neutralC/CFD-LM-214-165-N.jpg","1",NA,"1","0",NA,"1","0.479070600005798",NA,"0.420770399970934","1",NA,"1","1",NA,"1","1",NA,"1"
"250005","img/neutralC/CFD-LM-214-165-N.jpg","img/neutralC/CFD-BM-205-001-N.jpg","img/neutralC/CFD-MM-317-061-N.jpg","1","1","1","1","0","1","0.420770399970934","0.479070600005798","0.429642500006594","1","1","1","1","1","1","1","1","1"
"250005","img/neutralC/CFD-MM-317-061-N.jpg","img/neutralC/CFD-LM-214-165-N.jpg","img/neutralC/CFD-WF-228-196-N.jpg","1","1","1","1","1","0","0.429642500006594","0.420770399970934","0.421736999996938","1","1","1","1","1","1","1","1","1"
"250005","img/neutralC/CFD-WF-228-196-N.jpg","img/neutralC/CFD-MM-317-061-N.jpg","img/neutralC/CFD-BF-025-002-N.jpg","1","1","1","0","1","0","0.421736999996938","0.429642500006594","0.446433900040574","1","1","1","1","1","1","1","1","1"
"250005","img/neutralC/CFD-BF-025-002-N.jpg","img/neutralC/CFD-WF-228-196-N.jpg","img/neutralC/CFD-MF-309-002-N.jpg","1","1","1","0","0","0","0.446433900040574","0.421736999996938","0.346308200038038","1","1","1","1","1","1","1","1","1"
"250005","img/neutralC/CFD-MF-309-002-N.jpg","img/neutralC/CFD-BF-025-002-N.jpg","img/neutralC/CFD-LM-244-068-N.jpg","1","1","1","0","0","1","0.346308200038038","0.446433900040574","0.462198299996089","1","1","1","1","1","1","1","1","1"
"250005","img/neutralC/CFD-LM-244-068-N.jpg","img/neutralC/CFD-MF-309-002-N.jpg","img/neutralC/CFD-AF-240-206-N.jpg","1","1","1","1","0","0","0.462198299996089","0.346308200038038","0.424284100008663","1","1","1","1","1","1","1","1","1"
"250005","img/neutralC/CFD-AF-240-206-N.jpg","img/neutralC/CFD-LM-244-068-N.jpg","img/neutralC/CFD-BF-228-212-N.jpg","1","1","1","0","1","0","0.424284100008663","0.462198299996089","0.332175800052937","1","1","1","1","1","1","1","1","1"
"250005","img/neutralC/CFD-BF-228-212-N.jpg","img/neutralC/CFD-AF-240-206-N.jpg","img/neutralC/CFD-AM-247-165-N.jpg","1","1","1","0","0","1","0.332175800052937","0.424284100008663","0.370093300007284","1","1","1","1","1","1","1","1","1"
"250005","img/neutralC/CFD-AM-247-165-N.jpg","img/neutralC/CFD-BF-228-212-N.jpg","img/neutralC/CFD-WM-026-001-N.jpg","1","1","1","1","0","1","0.370093300007284","0.332175800052937","0.371906799962744","1","1","1","1","1","1","1","1","1"
"250005","img/neutralC/CFD-WM-026-001-N.jpg","img/neutralC/CFD-AM-247-165-N.jpg","img/neutralC/CFD-LM-216-082-N.jpg","1","1","1","1","1","0","0.371906799962744","0.370093300007284","0.455796299967915","1","1","1","1","1","1","1","1","1"
"250005","img/neutralC/CFD-LM-216-082-N.jpg","img/neutralC/CFD-WM-026-001-N.jpg","img/neutralC/CFD-WF-005-010-N.jpg","1","1","0","0","1","0","0.455796299967915","0.371906799962744","0.364261900016572","1","1","1","1","1","1","1","1","1"
"250005","img/neutralC/CFD-WF-005-010-N.jpg","img/neutralC/CFD-LM-216-082-N.jpg","img/neutralC/CFD-WF-240-083-N.jpg","0","1","1","0","0","0","0.364261900016572","0.455796299967915","0.439548900001682","1","1","1","1","1","1","1","1","1"
"250005","img/neutralC/CFD-WF-240-083-N.jpg","img/neutralC/CFD-WF-005-010-N.jpg","img/neutralC/CFD-LM-243-075-N.jpg","1","0","0","0","0","0","0.439548900001682","0.364261900016572","0.305423900019377","1","1","1","1","1","1","1","1","1"
"250005","img/neutralC/CFD-LM-243-075-N.jpg","img/neutralC/CFD-WF-240-083-N.jpg","img/neutralC/CFD-WM-006-002-N.jpg","0","1","1","0","0","0","0.305423900019377","0.439548900001682","0.608491199964192","1","1","1","1","1","1","1","1","1"
"250005","img/neutralC/CFD-WM-006-002-N.jpg","img/neutralC/CFD-LM-243-075-N.jpg","img/neutralC/CFD-BF-212-315-N.jpg","1","0","1","0","0","1","0.608491199964192","0.305423900019377","0.381746600032784","1","1","1","1","1","1","1","1","1"
"250005","img/neutralC/CFD-BF-212-315-N.jpg","img/neutralC/CFD-WM-006-002-N.jpg","img/neutralC/CFD-WF-017-003-N.jpg","1","1","1","1","0","1","0.381746600032784","0.608491199964192","0.390597500023432","1","1","1","1","1","1","1","1","1"
"250005","img/neutralC/CFD-WF-017-003-N.jpg","img/neutralC/CFD-BF-212-315-N.jpg","img/neutralC/CFD-WM-019-003-N.jpg","1","1","1","1","1","1","0.390597500023432","0.381746600032784","0.502407399995718","1","1","1","1","1","1","1","1","1"
"250005","img/neutralC/CFD-WM-019-003-N.jpg","img/neutralC/CFD-WF-017-003-N.jpg","img/neutralC/CFD-BF-041-001-N.jpg","1","1","1","1","1","1","0.502407399995718","0.390597500023432","0.370057900028769","1","1","1","1","1","1","1","1","1"
"250005","img/neutralC/CFD-BF-041-001-N.jpg","img/neutralC/CFD-WM-019-003-N.jpg","img/neutralC/CFD-BM-251-013-N.jpg","1","1","1","1","1","1","0.370057900028769","0.502407399995718","0.387415600009263","1","1","1","1","1","1","1","1","1"
"250005","img/neutralC/CFD-BM-251-013-N.jpg","img/neutralC/CFD-BF-041-001-N.jpg","img/neutralC/CFD-LM-201-057-N.jpg","1","1","1","1","1","1","0.387415600009263","0.370057900028769","0.326944999978878","1","1","1","1","1","1","1","1","1"
"250005","img/neutralC/CFD-LM-201-057-N.jpg","img/neutralC/CFD-BM-251-013-N.jpg","img/neutralC/CFD-WM-249-239-N.jpg","1","1","1","1","1","1","0.326944999978878","0.387415600009263","0.402750400011428","1","1","1","1","1","1","1","1","1"
"250005","img/neutralC/CFD-WM-249-239-N.jpg","img/neutralC/CFD-LM-201-057-N.jpg","img/neutralC/CFD-WM-215-041-N.jpg","1","1","1","1","1","0","0.402750400011428","0.326944999978878","0.491351700038649","1","1","1","1","1","1","1","1","1"
"250005","img/neutralC/CFD-WM-215-041-N.jpg","img/neutralC/CFD-WM-249-239-N.jpg","img/neutralC/CFD-IF-642-295-N.jpg","1","1","1","0","1","1","0.491351700038649","0.402750400011428","0.359839299984742","1","1","1","1","1","1","1","1","1"
"250005","img/neutralC/CFD-IF-642-295-N.jpg","img/neutralC/CFD-WM-215-041-N.jpg","img/neutralC/CFD-WM-012-001-N.jpg","1","1","1","1","0","1","0.359839299984742","0.491351700038649","0.306538199947681","1","1","1","1","1","1","1","1","1"
"250005","img/neutralC/CFD-WM-012-001-N.jpg","img/neutralC/CFD-IF-642-295-N.jpg","img/neutralC/CFD-IM-646-023-N.jpg","1","1","1","1","1","1","0.306538199947681","0.359839299984742","0.408093500009272","1","1","1","1","1","1","1","1","1"
"250005","img/neutralC/CFD-IM-646-023-N.jpg","img/neutralC/CFD-WM-012-001-N.jpg","img/neutralC/CFD-BF-202-109-N.jpg","1","1","1","1","1","1","0.408093500009272","0.306538199947681","0.502538300002925","1","1","1","1","1","1","1","1","1"
"250005","img/neutralC/CFD-BF-202-109-N.jpg","img/neutralC/CFD-IM-646-023-N.jpg","img/neutralC/CFD-MF-335-002-N.jpg","1","1","1","1","1","0","0.502538300002925","0.408093500009272","0.559895600017626","1","1","1","1","1","1","1","1","1"
"250005","img/neutralC/CFD-MF-335-002-N.jpg","img/neutralC/CFD-BF-202-109-N.jpg","img/neutralC/CFD-IM-648-337-N.jpg","1","1","1","0","1","0","0.559895600017626","0.502538300002925","0.521718100004364","1","1","1","1","1","1","1","1","1"
"250005","img/neutralC/CFD-IM-648-337-N.jpg","img/neutralC/CFD-MF-335-002-N.jpg","img/neutralC/CFD-BM-248-128-N.jpg","1","1","1","0","0","0","0.521718100004364","0.559895600017626","0.43630130001111","1","1","1","1","1","1","1","1","1"
"250005","img/neutralC/CFD-BM-248-128-N.jpg","img/neutralC/CFD-IM-648-337-N.jpg","img/neutralC/CFD-WM-212-097-N.jpg","1","1","1","0","0","0","0.43630130001111","0.521718100004364","0.475152600032743","1","1","1","1","1","1","1","1","1"
"250005","img/neutralC/CFD-WM-212-097-N.jpg","img/neutralC/CFD-BM-248-128-N.jpg",NA,"1","1",NA,"0","0",NA,"0.475152600032743","0.43630130001111",NA,"1","1",NA,"1","1",NA,"1","1",NA
"250005","img/neutralC/CFD-AF-244-168-N.jpg",NA,"img/neutralC/CFD-BF-217-189-N.jpg","1",NA,"1","0",NA,"0","0.494721099967137",NA,"0.564869299996644","1",NA,"1","1",NA,"1","1",NA,"1"
"250005","img/neutralC/CFD-BF-217-189-N.jpg","img/neutralC/CFD-AF-244-168-N.jpg","img/neutralC/CFD-LM-204-001-N.jpg","1","1","0","0","0","0","0.564869299996644","0.494721099967137","0.344951100007165","1","1","1","1","1","1","1","1","1"
"250005","img/neutralC/CFD-LM-204-001-N.jpg","img/neutralC/CFD-BF-217-189-N.jpg","img/neutralC/CFD-BM-004-002-N.jpg","0","1","0","0","0","0","0.344951100007165","0.564869299996644","0.372321500035468","1","1","1","1","1","1","1","1","1"
"250005","img/neutralC/CFD-BM-004-002-N.jpg","img/neutralC/CFD-LM-204-001-N.jpg","img/neutralC/CFD-IM-632-097-N.jpg","0","0","0","0","0","0","0.372321500035468","0.344951100007165","0.33367060002638","1","1","1","1","1","1","1","1","1"
"250005","img/neutralC/CFD-IM-632-097-N.jpg","img/neutralC/CFD-BM-004-002-N.jpg","img/neutralC/CFD-LM-241-125-N.jpg","0","0","1","0","0","1","0.33367060002638","0.372321500035468","0.410284399986267","1","1","1","1","1","1","1","1","1"
"250005","img/neutralC/CFD-LM-241-125-N.jpg","img/neutralC/CFD-IM-632-097-N.jpg","img/neutralC/CFD-AF-234-208-N.jpg","1","0","1","1","0","1","0.410284399986267","0.33367060002638","0.425919200002682","1","1","1","1","1","1","1","1","1"
"250005","img/neutralC/CFD-AF-234-208-N.jpg","img/neutralC/CFD-LM-241-125-N.jpg","img/neutralC/CFD-IM-669-111-N.jpg","1","1","1","1","1","1","0.425919200002682","0.410284399986267","0.318533100013155","1","1","1","1","1","1","1","1","1"
"250005","img/neutralC/CFD-IM-669-111-N.jpg","img/neutralC/CFD-AF-234-208-N.jpg","img/neutralC/CFD-IF-636-011-N.jpg","1","1","1","1","1","1","0.318533100013155","0.425919200002682","0.355250900029205","1","1","1","1","1","1","1","1","1"
"250005","img/neutralC/CFD-IF-636-011-N.jpg","img/neutralC/CFD-IM-669-111-N.jpg","img/neutralC/CFD-WM-018-002-N.jpg","1","1","1","1","1","0","0.355250900029205","0.318533100013155","0.399739800021052","1","1","1","1","1","1","1","1","1"
"250005","img/neutralC/CFD-WM-018-002-N.jpg","img/neutralC/CFD-IF-636-011-N.jpg","img/neutralC/CFD-WM-253-119-N.jpg","1","1","1","0","1","1","0.399739800021052","0.355250900029205","0.374789699970279","1","1","1","1","1","1","1","1","1"
"250005","img/neutralC/CFD-WM-253-119-N.jpg","img/neutralC/CFD-WM-018-002-N.jpg","img/neutralC/CFD-BF-206-143-N.jpg","1","1","1","1","0","1","0.374789699970279","0.399739800021052","0.402389900002163","1","1","1","1","1","1","1","1","1"
"250005","img/neutralC/CFD-BF-206-143-N.jpg","img/neutralC/CFD-WM-253-119-N.jpg","img/neutralC/CFD-AF-250-200-N.jpg","1","1","1","1","1","1","0.402389900002163","0.374789699970279","0.326497100002598","1","1","1","1","1","1","1","1","1"
"250005","img/neutralC/CFD-AF-250-200-N.jpg","img/neutralC/CFD-BF-206-143-N.jpg","img/neutralC/CFD-BF-235-168-N.jpg","1","1","1","1","1","1","0.326497100002598","0.402389900002163","0.342931299994234","1","1","1","1","1","1","1","1","1"
"250005","img/neutralC/CFD-BF-235-168-N.jpg","img/neutralC/CFD-AF-250-200-N.jpg","img/neutralC/CFD-WF-235-121-N.jpg","1","1","1","1","1","0","0.342931299994234","0.326497100002598","0.375608099973761","1","1","1","1","1","1","1","1","1"
"250005","img/neutralC/CFD-WF-235-121-N.jpg","img/neutralC/CFD-BF-235-168-N.jpg","img/neutralC/CFD-IM-635-010-N.jpg","1","1","1","0","1","1","0.375608099973761","0.342931299994234","0.38189970003441","1","1","1","1","1","1","1","1","1"
"250005","img/neutralC/CFD-IM-635-010-N.jpg","img/neutralC/CFD-WF-235-121-N.jpg","img/neutralC/CFD-AF-205-155-N.jpg","1","1","1","1","0","0","0.38189970003441","0.375608099973761","0.609575600014068","1","1","1","1","1","1","1","1","1"
"250005","img/neutralC/CFD-AF-205-155-N.jpg","img/neutralC/CFD-IM-635-010-N.jpg","img/neutralC/CFD-BF-042-026-N.jpg","1","1","0","0","1","1","0.609575600014068","0.38189970003441","0.275767699989956","1","1","1","1","1","1","1","1","1"
"250005","img/neutralC/CFD-BF-042-026-N.jpg","img/neutralC/CFD-AF-205-155-N.jpg","img/neutralC/CFD-WF-210-086-N.jpg","0","1","1","1","0","0","0.275767699989956","0.609575600014068","0.386596600001212","1","1","1","1","1","1","1","1","1"
"250005","img/neutralC/CFD-WF-210-086-N.jpg","img/neutralC/CFD-BF-042-026-N.jpg","img/neutralC/CFD-BM-215-155-N.jpg","1","0","1","0","1","0","0.386596600001212","0.275767699989956","0.379833100014366","1","1","1","1","1","1","1","1","1"
"250005","img/neutralC/CFD-BM-215-155-N.jpg","img/neutralC/CFD-WF-210-086-N.jpg","img/neutralC/CFD-BF-040-003-N.jpg","1","1","1","0","0","1","0.379833100014366","0.386596600001212","0.367413299973123","1","1","1","1","1","1","1","1","1"
"250005","img/neutralC/CFD-BF-040-003-N.jpg","img/neutralC/CFD-BM-215-155-N.jpg","img/neutralC/CFD-AM-245-111-N.jpg","1","1","1","1","0","1","0.367413299973123","0.379833100014366","0.543862099992111","1","1","1","1","1","1","1","1","1"
"250005","img/neutralC/CFD-AM-245-111-N.jpg","img/neutralC/CFD-BF-040-003-N.jpg","img/neutralC/CFD-AF-246-242-N.jpg","1","1","1","1","1","0","0.543862099992111","0.367413299973123","0.460161599970888","1","1","1","1","1","1","1","1","1"
"250005","img/neutralC/CFD-AF-246-242-N.jpg","img/neutralC/CFD-AM-245-111-N.jpg","img/neutralC/CFD-MF-307-002-N.jpg","1","1","1","0","1","1","0.460161599970888","0.543862099992111","0.470288899959996","1","1","1","1","1","1","1","1","1"
"250005","img/neutralC/CFD-MF-307-002-N.jpg","img/neutralC/CFD-AF-246-242-N.jpg","img/neutralC/CFD-BF-020-002-N.jpg","1","1","1","1","0","1","0.470288899959996","0.460161599970888","0.359315400011837","1","1","1","1","1","1","1","1","1"
"250005","img/neutralC/CFD-BF-020-002-N.jpg","img/neutralC/CFD-MF-307-002-N.jpg","img/neutralC/CFD-IF-732-260-N.jpg","1","1","1","1","1","0","0.359315400011837","0.470288899959996","0.383922200009692","1","1","1","1","1","1","1","1","1"
"250005","img/neutralC/CFD-IF-732-260-N.jpg","img/neutralC/CFD-BF-020-002-N.jpg","img/neutralC/CFD-AM-233-236-N.jpg","1","1","1","0","1","1","0.383922200009692","0.359315400011837","0.581509100040421","1","1","1","1","1","1","1","1","1"
"250005","img/neutralC/CFD-AM-233-236-N.jpg","img/neutralC/CFD-IF-732-260-N.jpg","img/neutralC/CFD-MF-302-027-N.jpg","1","1","1","1","0","0","0.581509100040421","0.383922200009692","0.548833500011824","1","1","1","1","1","1","1","1","1"
"250005","img/neutralC/CFD-MF-302-027-N.jpg","img/neutralC/CFD-AM-233-236-N.jpg","img/neutralC/CFD-AM-225-102-N.jpg","1","1","1","0","1","0","0.548833500011824","0.581509100040421","0.489117599965539","1","1","1","1","1","1","1","1","1"
"250005","img/neutralC/CFD-AM-225-102-N.jpg","img/neutralC/CFD-MF-302-027-N.jpg","img/neutralC/CFD-IM-678-482-N.jpg","1","1","1","0","0","0","0.489117599965539","0.548833500011824","0.421559300040826","1","1","1","1","1","1","1","1","1"
"250005","img/neutralC/CFD-IM-678-482-N.jpg","img/neutralC/CFD-AM-225-102-N.jpg","img/neutralC/CFD-LF-239-148-N.jpg","1","1","1","0","0","0","0.421559300040826","0.489117599965539","0.449701600009575","1","1","1","1","1","1","1","1","1"
"250005","img/neutralC/CFD-LF-239-148-N.jpg","img/neutralC/CFD-IM-678-482-N.jpg","img/neutralC/CFD-AF-213-126-N.jpg","1","1","1","0","0","1","0.449701600009575","0.421559300040826","0.452978899993468","1","1","1","1","1","1","1","1","1"
"250005","img/neutralC/CFD-AF-213-126-N.jpg","img/neutralC/CFD-LF-239-148-N.jpg",NA,"1","1",NA,"1","0",NA,"0.452978899993468","0.449701600009575",NA,"1","1",NA,"1","1",NA,"1","1",NA
"250005","img/neutralC/CFD-IM-615-167-N.jpg",NA,"img/neutralC/CFD-AF-237-223-N.jpg","1",NA,"1","0",NA,"0","0.463867300015409",NA,"0.356040999991819","1",NA,"1","1",NA,"1","1",NA,"1"
"250005","img/neutralC/CFD-AF-237-223-N.jpg","img/neutralC/CFD-IM-615-167-N.jpg","img/neutralC/CFD-MF-328-020-N.jpg","1","1","0","0","0","0","0.356040999991819","0.463867300015409","0.324224499985576","1","1","1","1","1","1","1","1","1"
"250005","img/neutralC/CFD-MF-328-020-N.jpg","img/neutralC/CFD-AF-237-223-N.jpg","img/neutralC/CFD-LM-240-013-N.jpg","0","1","1","0","0","1","0.324224499985576","0.356040999991819","0.395245499967132","1","1","1","1","1","1","1","1","1"
"250005","img/neutralC/CFD-LM-240-013-N.jpg","img/neutralC/CFD-MF-328-020-N.jpg","img/neutralC/CFD-AM-205-153-N.jpg","1","0","1","1","0","1","0.395245499967132","0.324224499985576","0.323943900002632","1","1","1","1","1","1","1","1","1"
"250005","img/neutralC/CFD-AM-205-153-N.jpg","img/neutralC/CFD-LM-240-013-N.jpg","img/neutralC/CFD-LF-222-147-N.jpg","1","1","1","1","1","0","0.323943900002632","0.395245499967132","0.382227199967019","1","1","1","1","1","1","1","1","1"
"250005","img/neutralC/CFD-LF-222-147-N.jpg","img/neutralC/CFD-AM-205-153-N.jpg","img/neutralC/CFD-LF-238-154-N.jpg","1","1","1","0","1","1","0.382227199967019","0.323943900002632","0.360556899977382","1","1","1","1","1","1","1","1","1"
"250005","img/neutralC/CFD-LF-238-154-N.jpg","img/neutralC/CFD-LF-222-147-N.jpg","img/neutralC/CFD-BM-043-071-N.jpg","1","1","1","1","0","0","0.360556899977382","0.382227199967019","0.371498199994676","1","1","1","1","1","1","1","1","1"
"250005","img/neutralC/CFD-BM-043-071-N.jpg","img/neutralC/CFD-LF-238-154-N.jpg","img/neutralC/CFD-BM-227-191-N.jpg","1","1","1","0","1","1","0.371498199994676","0.360556899977382","0.420526800036896","1","1","1","1","1","1","1","1","1"
"250005","img/neutralC/CFD-BM-227-191-N.jpg","img/neutralC/CFD-BM-043-071-N.jpg","img/neutralC/CFD-WM-028-003-N.jpg","1","1","1","1","0","1","0.420526800036896","0.371498199994676","0.369359700009227","1","1","1","1","1","1","1","1","1"
"250005","img/neutralC/CFD-WM-028-003-N.jpg","img/neutralC/CFD-BM-227-191-N.jpg","img/neutralC/CFD-BM-030-003-N.jpg","1","1","1","1","1","0","0.369359700009227","0.420526800036896","0.431068699981552","1","1","1","1","1","1","1","1","1"
"250005","img/neutralC/CFD-BM-030-003-N.jpg","img/neutralC/CFD-WM-028-003-N.jpg","img/neutralC/CFD-WM-023-001-N.jpg","1","1","1","0","1","0","0.431068699981552","0.369359700009227","0.43248440005118","1","1","1","1","1","1","1","1","1"
"250005","img/neutralC/CFD-WM-023-001-N.jpg","img/neutralC/CFD-BM-030-003-N.jpg","img/neutralC/CFD-IM-606-008-N.jpg","1","1","1","0","0","0","0.43248440005118","0.431068699981552","0.392449599981774","1","1","1","1","1","1","1","1","1"
"250005","img/neutralC/CFD-IM-606-008-N.jpg","img/neutralC/CFD-WM-023-001-N.jpg","img/neutralC/CFD-BM-021-021-N.jpg","1","1","1","0","0","1","0.392449599981774","0.43248440005118","0.469492000003811","1","1","1","1","1","1","1","1","1"
"250005","img/neutralC/CFD-BM-021-021-N.jpg","img/neutralC/CFD-IM-606-008-N.jpg","img/neutralC/CFD-WF-243-148-N.jpg","1","1","0","1","0","0","0.469492000003811","0.392449599981774","0.353055600018706","1","1","1","1","1","1","1","1","1"
"250005","img/neutralC/CFD-WF-243-148-N.jpg","img/neutralC/CFD-BM-021-021-N.jpg","img/neutralC/CFD-LF-212-066-N.jpg","0","1","1","0","1","1","0.353055600018706","0.469492000003811","0.362673700030427","1","1","1","1","1","1","1","1","1"
"250005","img/neutralC/CFD-LF-212-066-N.jpg","img/neutralC/CFD-WF-243-148-N.jpg","img/neutralC/CFD-BM-009-002-N.jpg","1","0","1","1","0","1","0.362673700030427","0.353055600018706","0.561955600045621","1","1","1","1","1","1","1","1","1"
"250005","img/neutralC/CFD-BM-009-002-N.jpg","img/neutralC/CFD-LF-212-066-N.jpg","img/neutralC/CFD-IM-697-015-N.jpg","1","1","1","1","1","1","0.561955600045621","0.362673700030427","0.425640699977521","1","1","1","1","1","1","1","1","1"
"250005","img/neutralC/CFD-IM-697-015-N.jpg","img/neutralC/CFD-BM-009-002-N.jpg","img/neutralC/CFD-AM-219-101-N.jpg","1","1","1","1","1","0","0.425640699977521","0.561955600045621","0.402288300043438","1","1","1","1","1","1","1","1","1"
"250005","img/neutralC/CFD-AM-219-101-N.jpg","img/neutralC/CFD-IM-697-015-N.jpg","img/neutralC/CFD-WM-025-002-N.jpg","1","1","1","0","1","0","0.402288300043438","0.425640699977521","0.501379800029099","1","1","1","1","1","1","1","1","1"
"250005","img/neutralC/CFD-WM-025-002-N.jpg","img/neutralC/CFD-AM-219-101-N.jpg","img/neutralC/CFD-AM-249-163-N.jpg","1","1","1","0","0","1","0.501379800029099","0.402288300043438","0.350881400052458","1","1","1","1","1","1","1","1","1"
"250005","img/neutralC/CFD-AM-249-163-N.jpg","img/neutralC/CFD-WM-025-002-N.jpg","img/neutralC/CFD-MM-306-010-N.jpg","1","1","1","1","0","0","0.350881400052458","0.501379800029099","0.519334500015248","1","1","1","1","1","1","1","1","1"
"250005","img/neutralC/CFD-MM-306-010-N.jpg","img/neutralC/CFD-AM-249-163-N.jpg","img/neutralC/CFD-WF-241-210-N.jpg","1","1","1","0","1","0","0.519334500015248","0.350881400052458","0.494623799982946","1","1","1","1","1","1","1","1","1"
"250005","img/neutralC/CFD-WF-241-210-N.jpg","img/neutralC/CFD-MM-306-010-N.jpg","img/neutralC/CFD-IF-676-017-N.jpg","1","1","1","0","0","1","0.494623799982946","0.519334500015248","0.388473400031216","1","1","1","1","1","1","1","1","1"
"250005","img/neutralC/CFD-IF-676-017-N.jpg","img/neutralC/CFD-WF-241-210-N.jpg","img/neutralC/CFD-WF-009-001-N.jpg","1","1","1","1","0","1","0.388473400031216","0.494623799982946","0.389112400007434","1","1","1","1","1","1","1","1","1"
"250005","img/neutralC/CFD-WF-009-001-N.jpg","img/neutralC/CFD-IF-676-017-N.jpg","img/neutralC/CFD-BF-244-231-N.jpg","1","1","1","1","1","1","0.389112400007434","0.388473400031216","0.383188400010113","1","1","1","1","1","1","1","1","1"
"250005","img/neutralC/CFD-BF-244-231-N.jpg","img/neutralC/CFD-WF-009-001-N.jpg","img/neutralC/CFD-WF-221-005-N.jpg","1","1","1","1","1","0","0.383188400010113","0.389112400007434","0.383782599994447","1","1","1","1","1","1","1","1","1"
"250005","img/neutralC/CFD-WF-221-005-N.jpg","img/neutralC/CFD-BF-244-231-N.jpg","img/neutralC/CFD-BM-020-001-N.jpg","1","1","1","0","1","0","0.383782599994447","0.383188400010113","0.4419043000089","1","1","1","1","1","1","1","1","1"
"250005","img/neutralC/CFD-BM-020-001-N.jpg","img/neutralC/CFD-WF-221-005-N.jpg","img/neutralC/CFD-WF-207-014-N.jpg","1","1","1","0","0","1","0.4419043000089","0.383782599994447","0.432081200007815","1","1","1","1","1","1","1","1","1"
"250005","img/neutralC/CFD-WF-207-014-N.jpg","img/neutralC/CFD-BM-020-001-N.jpg","img/neutralC/CFD-IM-689-263-N.jpg","1","1","1","1","0","1","0.432081200007815","0.4419043000089","0.37788260000525","1","1","1","1","1","1","1","1","1"
"250005","img/neutralC/CFD-IM-689-263-N.jpg","img/neutralC/CFD-WF-207-014-N.jpg","img/neutralC/CFD-BF-012-001-N.jpg","1","1","1","1","1","0","0.37788260000525","0.432081200007815","0.413057599973399","1","1","1","1","1","1","1","1","1"
"250005","img/neutralC/CFD-BF-012-001-N.jpg","img/neutralC/CFD-IM-689-263-N.jpg","img/neutralC/CFD-AM-243-212-N.jpg","1","1","1","0","1","1","0.413057599973399","0.37788260000525","0.408731499977876","1","1","1","1","1","1","1","1","1"
"250005","img/neutralC/CFD-AM-243-212-N.jpg","img/neutralC/CFD-BF-012-001-N.jpg",NA,"1","1",NA,"1","0",NA,"0.408731499977876","0.413057599973399",NA,"1","1",NA,"1","1",NA,"1","1",NA
"250005","img/neutralC/CFD-LM-219-295-N.jpg",NA,"img/neutralC/CFD-WM-017-002-N.jpg","1",NA,"1","1",NA,"0","0.384925400023349",NA,"0.430516900029033","1",NA,"1","1",NA,"1","1",NA,"1"
"250005","img/neutralC/CFD-WM-017-002-N.jpg","img/neutralC/CFD-LM-219-295-N.jpg","img/neutralC/CFD-AF-206-079-N.jpg","1","1","1","0","1","1","0.430516900029033","0.384925400023349","0.382182999979705","1","1","1","1","1","1","1","1","1"
"250005","img/neutralC/CFD-AF-206-079-N.jpg","img/neutralC/CFD-WM-017-002-N.jpg","img/neutralC/CFD-BM-212-117-N.jpg","1","1","0","1","0","0","0.382182999979705","0.430516900029033","0.347654999990482","1","1","1","1","1","1","1","1","1"
"250005","img/neutralC/CFD-BM-212-117-N.jpg","img/neutralC/CFD-AF-206-079-N.jpg","img/neutralC/CFD-WM-242-011-N.jpg","0","1","1","0","1","0","0.347654999990482","0.382182999979705","0.467030200001318","1","1","1","1","1","1","1","1","1"
"250005","img/neutralC/CFD-WM-242-011-N.jpg","img/neutralC/CFD-BM-212-117-N.jpg","img/neutralC/CFD-IM-727-195-N.jpg","1","0","1","0","0","1","0.467030200001318","0.347654999990482","0.386450299993157","1","1","1","1","1","1","1","1","1"
"250005","img/neutralC/CFD-IM-727-195-N.jpg","img/neutralC/CFD-WM-242-011-N.jpg","img/neutralC/CFD-WM-227-099-N.jpg","1","1","1","1","0","1","0.386450299993157","0.467030200001318","0.384770100004971","1","1","1","1","1","1","1","1","1"
"250005","img/neutralC/CFD-WM-227-099-N.jpg","img/neutralC/CFD-IM-727-195-N.jpg","img/neutralC/CFD-LF-245-166-N.jpg","1","1","1","1","1","1","0.384770100004971","0.386450299993157","0.351781099976506","1","1","1","1","1","1","1","1","1"
"250005","img/neutralC/CFD-LF-245-166-N.jpg","img/neutralC/CFD-WM-227-099-N.jpg","img/neutralC/CFD-IM-657-308-N.jpg","1","1","1","1","1","0","0.351781099976506","0.384770100004971","0.328387100016698","1","1","1","1","1","1","1","1","1"
"250005","img/neutralC/CFD-IM-657-308-N.jpg","img/neutralC/CFD-LF-245-166-N.jpg","img/neutralC/CFD-LF-242-121-N.jpg","1","1","1","0","1","0","0.328387100016698","0.351781099976506","0.31339789996855","1","1","1","1","1","1","1","1","1"
"250005","img/neutralC/CFD-LF-242-121-N.jpg","img/neutralC/CFD-IM-657-308-N.jpg","img/neutralC/CFD-AF-241-141-N.jpg","1","1","1","0","0","1","0.31339789996855","0.328387100016698","0.384218399995007","1","1","1","1","1","1","1","1","1"
"250005","img/neutralC/CFD-AF-241-141-N.jpg","img/neutralC/CFD-LF-242-121-N.jpg","img/neutralC/CFD-BM-026-002-N.jpg","1","1","1","1","0","0","0.384218399995007","0.31339789996855","0.420841600047424","1","1","1","1","1","1","1","1","1"
"250005","img/neutralC/CFD-BM-026-002-N.jpg","img/neutralC/CFD-AF-241-141-N.jpg","img/neutralC/CFD-IM-686-097-N.jpg","1","1","1","0","1","0","0.420841600047424","0.384218399995007","0.393929300014861","1","1","1","1","1","1","1","1","1"
"250005","img/neutralC/CFD-IM-686-097-N.jpg","img/neutralC/CFD-BM-026-002-N.jpg","img/neutralC/CFD-LF-250-169-N.jpg","1","1","1","0","0","1","0.393929300014861","0.420841600047424","0.36175749998074","1","1","1","1","1","1","1","1","1"
"250005","img/neutralC/CFD-LF-250-169-N.jpg","img/neutralC/CFD-IM-686-097-N.jpg","img/neutralC/CFD-WM-258-125-N.jpg","1","1","1","1","0","0","0.36175749998074","0.393929300014861","0.437530099996366","1","1","1","1","1","1","1","1","1"
"250005","img/neutralC/CFD-WM-258-125-N.jpg","img/neutralC/CFD-LF-250-169-N.jpg","img/neutralC/CFD-BM-005-003-N.jpg","1","1","1","0","1","1","0.437530099996366","0.36175749998074","0.380255299969576","1","1","1","1","1","1","1","1","1"
"250005","img/neutralC/CFD-BM-005-003-N.jpg","img/neutralC/CFD-WM-258-125-N.jpg","img/neutralC/CFD-IM-653-008-N.jpg","1","1","1","1","0","0","0.380255299969576","0.437530099996366","0.352789999975357","1","1","1","1","1","1","1","1","1"
"250005","img/neutralC/CFD-IM-653-008-N.jpg","img/neutralC/CFD-BM-005-003-N.jpg","img/neutralC/CFD-BF-010-001-N.jpg","1","1","1","0","1","1","0.352789999975357","0.380255299969576","0.370827300008386","1","1","1","1","1","1","1","1","1"
"250005","img/neutralC/CFD-BF-010-001-N.jpg","img/neutralC/CFD-IM-653-008-N.jpg","img/neutralC/CFD-WF-209-052-N.jpg","1","1","1","1","0","1","0.370827300008386","0.352789999975357","0.328299600048922","1","1","1","1","1","1","1","1","1"
"250005","img/neutralC/CFD-WF-209-052-N.jpg","img/neutralC/CFD-BF-010-001-N.jpg","img/neutralC/CFD-MF-313-002-N.jpg","1","1","0","1","1","0","0.328299600048922","0.370827300008386","0.304368900018744","1","1","1","1","1","1","1","1","1"
"250005","img/neutralC/CFD-MF-313-002-N.jpg","img/neutralC/CFD-WF-209-052-N.jpg","img/neutralC/CFD-IF-620-218-N.jpg","0","1","1","0","1","0","0.304368900018744","0.328299600048922","0.459883300005458","1","1","1","1","1","1","1","1","1"
"250005","img/neutralC/CFD-IF-620-218-N.jpg","img/neutralC/CFD-MF-313-002-N.jpg","img/neutralC/CFD-LM-226-175-N.jpg","1","0","1","0","0","0","0.459883300005458","0.304368900018744","0.500487199984491","1","1","1","1","1","1","1","1","1"
"250005","img/neutralC/CFD-LM-226-175-N.jpg","img/neutralC/CFD-IF-620-218-N.jpg","img/neutralC/CFD-BM-231-155-N.jpg","1","1","1","0","0","1","0.500487199984491","0.459883300005458","0.455164000042714","1","1","1","1","1","1","1","1","1"
"250005","img/neutralC/CFD-BM-231-155-N.jpg","img/neutralC/CFD-LM-226-175-N.jpg","img/neutralC/CFD-BF-033-028-N.jpg","1","1","1","1","0","0","0.455164000042714","0.500487199984491","0.528577600023709","1","1","1","1","1","1","1","1","1"
"250005","img/neutralC/CFD-BF-033-028-N.jpg","img/neutralC/CFD-BM-231-155-N.jpg","img/neutralC/CFD-BM-018-001-N.jpg","1","1","1","0","1","1","0.528577600023709","0.455164000042714","0.505835100018885","1","1","1","1","1","1","1","1","1"
"250005","img/neutralC/CFD-BM-018-001-N.jpg","img/neutralC/CFD-BF-033-028-N.jpg","img/neutralC/CFD-AF-202-122-N.jpg","1","1","1","1","0","1","0.505835100018885","0.528577600023709","0.448711299977731","1","1","1","1","1","1","1","1","1"
"250005","img/neutralC/CFD-AF-202-122-N.jpg","img/neutralC/CFD-BM-018-001-N.jpg","img/neutralC/CFD-BF-238-190-N.jpg","1","1","1","1","1","1","0.448711299977731","0.505835100018885","0.416228299960494","1","1","1","1","1","1","1","1","1"
"250005","img/neutralC/CFD-BF-238-190-N.jpg","img/neutralC/CFD-AF-202-122-N.jpg","img/neutralC/CFD-IM-617-174-N.jpg","1","1","1","1","1","0","0.416228299960494","0.448711299977731","0.443900999962352","1","1","1","1","1","1","1","1","1"
"250005","img/neutralC/CFD-IM-617-174-N.jpg","img/neutralC/CFD-BF-238-190-N.jpg","img/neutralC/CFD-LM-233-171-N.jpg","1","1","1","0","1","0","0.443900999962352","0.416228299960494","0.422748800017871","1","1","1","1","1","1","1","1","1"
"250005","img/neutralC/CFD-LM-233-171-N.jpg","img/neutralC/CFD-IM-617-174-N.jpg","img/neutralC/CFD-LF-247-051-N.jpg","1","1","1","0","0","1","0.422748800017871","0.443900999962352","0.500955299998168","1","1","1","1","1","1","1","1","1"
"250005","img/neutralC/CFD-LF-247-051-N.jpg","img/neutralC/CFD-LM-233-171-N.jpg","img/neutralC/CFD-IF-665-015-N.jpg","1","1","1","1","0","0","0.500955299998168","0.422748800017871","0.477774799976032","1","1","1","1","1","1","1","1","1"
"250005","img/neutralC/CFD-IF-665-015-N.jpg","img/neutralC/CFD-LF-247-051-N.jpg","img/neutralC/CFD-IM-638-250-1-N.jpg","1","1","1","0","1","1","0.477774799976032","0.500955299998168","0.375986600003671","1","1","1","1","1","1","1","1","1"
"250005","img/neutralC/CFD-IM-638-250-1-N.jpg","img/neutralC/CFD-IF-665-015-N.jpg",NA,"1","1",NA,"1","0",NA,"0.375986600003671","0.477774799976032",NA,"1","1",NA,"1","1",NA,"1","1",NA
"250005","img/neutralC/CFD-BM-250-170-N.jpg",NA,"img/neutralC/CFD-WF-222-092-N.jpg","1",NA,"1","1",NA,"1","0.302239699987695",NA,"0.442668300005607","1",NA,"1","1",NA,"1","1",NA,"1"
"250005","img/neutralC/CFD-WF-222-092-N.jpg","img/neutralC/CFD-BM-250-170-N.jpg","img/neutralC/CFD-BM-001-014-N.jpg","1","1","1","1","1","0","0.442668300005607","0.302239699987695","0.361711900040973","1","1","1","1","1","1","1","1","1"
"250005","img/neutralC/CFD-BM-001-014-N.jpg","img/neutralC/CFD-WF-222-092-N.jpg","img/neutralC/CFD-LF-255-088-N.jpg","1","1","0","0","1","0","0.361711900040973","0.442668300005607","0.487019099993631","1","1","1","1","1","1","1","1","1"
"250005","img/neutralC/CFD-LF-255-088-N.jpg","img/neutralC/CFD-BM-001-014-N.jpg","img/neutralC/CFD-WF-030-002-N.jpg","0","1","1","0","0","0","0.487019099993631","0.361711900040973","0.607294999994338","1","1","1","1","1","1","1","1","1"
"250005","img/neutralC/CFD-WF-030-002-N.jpg","img/neutralC/CFD-LF-255-088-N.jpg","img/neutralC/CFD-AF-253-130-N.jpg","1","0","1","0","0","1","0.607294999994338","0.487019099993631","0.548480800003745","1","1","1","1","1","1","1","1","1"
"250005","img/neutralC/CFD-AF-253-130-N.jpg","img/neutralC/CFD-WF-030-002-N.jpg","img/neutralC/CFD-LM-200-045-N.jpg","1","1","1","1","0","1","0.548480800003745","0.607294999994338","0.484340700029861","1","1","1","1","1","1","1","1","1"
"250005","img/neutralC/CFD-LM-200-045-N.jpg","img/neutralC/CFD-AF-253-130-N.jpg","img/neutralC/CFD-WF-244-163-N.jpg","1","1","1","1","1","1","0.484340700029861","0.548480800003745","0.47735850000754","1","1","1","1","1","1","1","1","1"
"250005","img/neutralC/CFD-WF-244-163-N.jpg","img/neutralC/CFD-LM-200-045-N.jpg","img/neutralC/CFD-BF-237-172-N.jpg","1","1","1","1","1","1","0.47735850000754","0.484340700029861","0.32678780000424","1","1","1","1","1","1","1","1","1"
"250005","img/neutralC/CFD-BF-237-172-N.jpg","img/neutralC/CFD-WF-244-163-N.jpg","img/neutralC/CFD-WF-007-001-N.jpg","1","1","1","1","1","1","0.32678780000424","0.47735850000754","0.395671500009485","1","1","1","1","1","1","1","1","1"
"250005","img/neutralC/CFD-WF-007-001-N.jpg","img/neutralC/CFD-BF-237-172-N.jpg","img/neutralC/CFD-LF-206-078-N.jpg","1","1","1","1","1","1","0.395671500009485","0.32678780000424","0.379220100003295","1","1","1","1","1","1","1","1","1"
"250005","img/neutralC/CFD-LF-206-078-N.jpg","img/neutralC/CFD-WF-007-001-N.jpg","img/neutralC/CFD-BM-217-082-N.jpg","1","1","1","1","1","0","0.379220100003295","0.395671500009485","0.48385070002405","1","1","1","1","1","1","1","1","1"
"250005","img/neutralC/CFD-BM-217-082-N.jpg","img/neutralC/CFD-LF-206-078-N.jpg","img/neutralC/CFD-MF-305-014-N.jpg","1","1","1","0","1","1","0.48385070002405","0.379220100003295","0.41417459998047","1","1","1","1","1","1","1","1","1"
"250005","img/neutralC/CFD-MF-305-014-N.jpg","img/neutralC/CFD-BM-217-082-N.jpg","img/neutralC/CFD-MF-357-002-N.jpg","1","1","1","1","0","0","0.41417459998047","0.48385070002405","0.485392100003082","1","1","1","1","1","1","1","1","1"
"250005","img/neutralC/CFD-MF-357-002-N.jpg","img/neutralC/CFD-MF-305-014-N.jpg","img/neutralC/CFD-LM-225-130-N.jpg","1","1","1","0","1","0","0.485392100003082","0.41417459998047","0.421587599965278","1","1","1","1","1","1","1","1","1"
"250005","img/neutralC/CFD-LM-225-130-N.jpg","img/neutralC/CFD-MF-357-002-N.jpg","img/neutralC/CFD-WM-209-038-N.jpg","1","1","1","0","0","0","0.421587599965278","0.485392100003082","0.396679500001483","1","1","1","1","1","1","1","1","1"
"250005","img/neutralC/CFD-WM-209-038-N.jpg","img/neutralC/CFD-LM-225-130-N.jpg","img/neutralC/CFD-WM-015-002-N.jpg","1","1","1","0","0","0","0.396679500001483","0.421587599965278","0.395123500027694","1","1","1","1","1","1","1","1","1"
"250005","img/neutralC/CFD-WM-015-002-N.jpg","img/neutralC/CFD-WM-209-038-N.jpg","img/neutralC/CFD-BF-014-002-N.jpg","1","1","0","0","0","1","0.395123500027694","0.396679500001483","0.388411500025541","1","1","1","1","1","1","1","1","1"
"250005","img/neutralC/CFD-BF-014-002-N.jpg","img/neutralC/CFD-WM-015-002-N.jpg","img/neutralC/CFD-IM-702-101-N.jpg","0","1","1","1","0","1","0.388411500025541","0.395123500027694","0.461051999998745","1","1","1","1","1","1","1","1","1"
"250005","img/neutralC/CFD-IM-702-101-N.jpg","img/neutralC/CFD-BF-014-002-N.jpg","img/neutralC/CFD-IF-660-464-N.jpg","1","0","1","1","1","0","0.461051999998745","0.388411500025541","0.54163689998677","1","1","1","1","1","1","1","1","1"
"250005","img/neutralC/CFD-IF-660-464-N.jpg","img/neutralC/CFD-IM-702-101-N.jpg","img/neutralC/CFD-MF-303-013-N.jpg","1","1","1","0","1","0","0.54163689998677","0.461051999998745","0.52937970001949","1","1","1","1","1","1","1","1","1"
"250005","img/neutralC/CFD-MF-303-013-N.jpg","img/neutralC/CFD-IF-660-464-N.jpg","img/neutralC/CFD-IF-626-375-N.jpg","1","1","1","0","0","0","0.52937970001949","0.54163689998677","0.469979699992109","1","1","1","1","1","1","1","1","1"
"250005","img/neutralC/CFD-IF-626-375-N.jpg","img/neutralC/CFD-MF-303-013-N.jpg","img/neutralC/CFD-IM-667-369-N.jpg","1","1","0","0","0","0","0.469979699992109","0.52937970001949","0.372301499999594","1","1","1","1","1","1","1","1","1"
"250005","img/neutralC/CFD-IM-667-369-N.jpg","img/neutralC/CFD-IF-626-375-N.jpg","img/neutralC/CFD-MF-316-001-N.jpg","0","1","1","0","0","0","0.372301499999594","0.469979699992109","0.487517800007481","1","1","1","1","1","1","1","1","1"
"250005","img/neutralC/CFD-MF-316-001-N.jpg","img/neutralC/CFD-IM-667-369-N.jpg","img/neutralC/CFD-AF-233-190-N.jpg","1","0","0","0","0","0","0.487517800007481","0.372301499999594","0.510975399985909","1","1","1","1","1","1","1","1","1"
"250005","img/neutralC/CFD-AF-233-190-N.jpg","img/neutralC/CFD-MF-316-001-N.jpg","img/neutralC/CFD-AM-220-134-N.jpg","0","1","1","0","0","0","0.510975399985909","0.487517800007481","0.425164700020105","1","1","1","1","1","1","1","1","1"
"250005","img/neutralC/CFD-AM-220-134-N.jpg","img/neutralC/CFD-AF-233-190-N.jpg","img/neutralC/CFD-IM-680-369-N.jpg","1","0","1","0","0","1","0.425164700020105","0.510975399985909","0.491391099989414","1","1","1","1","1","1","1","1","1"
"250005","img/neutralC/CFD-IM-680-369-N.jpg","img/neutralC/CFD-AM-220-134-N.jpg","img/neutralC/CFD-MF-343-001-N.jpg","1","1","1","1","0","1","0.491391099989414","0.425164700020105","0.431475599994883","1","1","1","1","1","1","1","1","1"
"250005","img/neutralC/CFD-MF-343-001-N.jpg","img/neutralC/CFD-IM-680-369-N.jpg","img/neutralC/CFD-MM-324-069-N.jpg","1","1","1","1","1","1","0.431475599994883","0.491391099989414","0.377188900019974","1","1","1","1","1","1","1","1","1"
"250005","img/neutralC/CFD-MM-324-069-N.jpg","img/neutralC/CFD-MF-343-001-N.jpg","img/neutralC/CFD-IM-706-002-N.jpg","1","1","1","1","1","0","0.377188900019974","0.431475599994883","0.443953999958467","1","1","1","1","1","1","1","1","1"
"250005","img/neutralC/CFD-IM-706-002-N.jpg","img/neutralC/CFD-MM-324-069-N.jpg","img/neutralC/CFD-IM-664-651-N.jpg","1","1","1","0","1","1","0.443953999958467","0.377188900019974","0.453948599984869","1","1","1","1","1","1","1","1","1"
"250005","img/neutralC/CFD-IM-664-651-N.jpg","img/neutralC/CFD-IM-706-002-N.jpg","img/neutralC/CFD-WM-218-074-N.jpg","1","1","1","1","0","1","0.453948599984869","0.443953999958467","0.440004200034309","1","1","1","1","1","1","1","1","1"
"250005","img/neutralC/CFD-WM-218-074-N.jpg","img/neutralC/CFD-IM-664-651-N.jpg",NA,"1","1",NA,"1","1",NA,"0.440004200034309","0.453948599984869",NA,"1","1",NA,"1","1",NA,"1","1",NA
