"participant_id","current_trial_face","pre_trial_face","post_trial_face","current_trial_accuracy","pre_trial_accuracy","post_trial_accuracy","current_trial_congruency","pre_trial_congruency","post_trial_congruency","current_trial_rt","pre_trial_rt","post_trial_rt","current_trial_responded","pre_trial_responded","post_trial_responded","current_trial_legitResponse","pre_trial_legitResponse","post_trial_legitResponse","current_trial_resp_nums","pre_trial_resp_nums","post_trial_resp_nums"
"250055","img/neutralC/CFD-IM-696-001-N.jpg",NA,"img/neutralC/CFD-WF-208-068-N.jpg","1",NA,"1","0",NA,"1","0.593507900019176",NA,"0.493760200042743","1",NA,"1","1",NA,"1","1",NA,"1"
"250055","img/neutralC/CFD-WF-208-068-N.jpg","img/neutralC/CFD-IM-696-001-N.jpg","img/neutralC/CFD-WM-034-030-N.jpg","1","1","1","1","0","1","0.493760200042743","0.593507900019176","0.464498699991964","1","1","1","1","1","1","1","1","1"
"250055","img/neutralC/CFD-WM-034-030-N.jpg","img/neutralC/CFD-WF-208-068-N.jpg","img/neutralC/CFD-IF-677-452-1-N.jpg","1","1","1","1","1","1","0.464498699991964","0.493760200042743","0.471592799993232","1","1","1","1","1","1","1","1","1"
"250055","img/neutralC/CFD-IF-677-452-1-N.jpg","img/neutralC/CFD-WM-034-030-N.jpg","img/neutralC/CFD-BM-207-024-N.jpg","1","1","1","1","1","1","0.471592799993232","0.464498699991964","0.479173099971376","1","1","1","1","1","1","1","1","1"
"250055","img/neutralC/CFD-BM-207-024-N.jpg","img/neutralC/CFD-IF-677-452-1-N.jpg","img/neutralC/CFD-IF-729-393-N.jpg","1","1","1","1","1","0","0.479173099971376","0.471592799993232","0.492755200015381","1","1","1","1","1","1","1","1","1"
"250055","img/neutralC/CFD-IF-729-393-N.jpg","img/neutralC/CFD-BM-207-024-N.jpg","img/neutralC/CFD-BF-006-017-N.jpg","1","1","1","0","1","0","0.492755200015381","0.479173099971376","0.541820599988569","1","1","1","1","1","1","1","1","1"
"250055","img/neutralC/CFD-BF-006-017-N.jpg","img/neutralC/CFD-IF-729-393-N.jpg","img/neutralC/CFD-BF-247-179-N.jpg","1","1","1","0","0","0","0.541820599988569","0.492755200015381","0.517332300019916","1","1","1","1","1","1","1","1","1"
"250055","img/neutralC/CFD-BF-247-179-N.jpg","img/neutralC/CFD-BF-006-017-N.jpg","img/neutralC/CFD-WF-029-002-N.jpg","1","1","1","0","0","0","0.517332300019916","0.541820599988569","0.515379399992526","1","1","1","1","1","1","1","1","1"
"250055","img/neutralC/CFD-WF-029-002-N.jpg","img/neutralC/CFD-BF-247-179-N.jpg","img/neutralC/CFD-WM-248-036-N.jpg","1","1","1","0","0","1","0.515379399992526","0.517332300019916","0.560910900007002","1","1","1","1","1","1","1","1","1"
"250055","img/neutralC/CFD-WM-248-036-N.jpg","img/neutralC/CFD-WF-029-002-N.jpg","img/neutralC/CFD-IM-726-248-N.jpg","1","1","1","1","0","0","0.560910900007002","0.515379399992526","0.567077399988193","1","1","1","1","1","1","1","1","1"
"250055","img/neutralC/CFD-IM-726-248-N.jpg","img/neutralC/CFD-WM-248-036-N.jpg","img/neutralC/CFD-BM-238-242-N.jpg","1","1","1","0","1","0","0.567077399988193","0.560910900007002","0.575506999972276","1","1","1","1","1","1","1","1","1"
"250055","img/neutralC/CFD-BM-238-242-N.jpg","img/neutralC/CFD-IM-726-248-N.jpg","img/neutralC/CFD-WF-234-086-N.jpg","1","1","1","0","0","1","0.575506999972276","0.567077399988193","0.472700499987695","1","1","1","1","1","1","1","1","1"
"250055","img/neutralC/CFD-WF-234-086-N.jpg","img/neutralC/CFD-BM-238-242-N.jpg","img/neutralC/CFD-BF-044-034-N.jpg","1","1","1","1","0","0","0.472700499987695","0.575506999972276","0.631099099991843","1","1","1","1","1","1","1","1","1"
"250055","img/neutralC/CFD-BF-044-034-N.jpg","img/neutralC/CFD-WF-234-086-N.jpg","img/neutralC/CFD-BF-027-002-N.jpg","1","1","1","0","1","1","0.631099099991843","0.472700499987695","0.462824799993541","1","1","1","1","1","1","1","1","1"
"250055","img/neutralC/CFD-BF-027-002-N.jpg","img/neutralC/CFD-BF-044-034-N.jpg","img/neutralC/CFD-BM-241-235-N.jpg","1","1","1","1","0","0","0.462824799993541","0.631099099991843","0.567049200006295","1","1","1","1","1","1","1","1","1"
"250055","img/neutralC/CFD-BM-241-235-N.jpg","img/neutralC/CFD-BF-027-002-N.jpg","img/neutralC/CFD-BF-236-177-N.jpg","1","1","1","0","1","0","0.567049200006295","0.462824799993541","0.525702599959914","1","1","1","1","1","1","1","1","1"
"250055","img/neutralC/CFD-BF-236-177-N.jpg","img/neutralC/CFD-BM-241-235-N.jpg","img/neutralC/CFD-IM-721-341-N.jpg","1","1","1","0","0","1","0.525702599959914","0.567049200006295","0.481458999973256","1","1","1","1","1","1","1","1","1"
"250055","img/neutralC/CFD-IM-721-341-N.jpg","img/neutralC/CFD-BF-236-177-N.jpg","img/neutralC/CFD-BF-214-308-N.jpg","1","1","1","1","0","1","0.481458999973256","0.525702599959914","0.528587300039362","1","1","1","1","1","1","1","1","1"
"250055","img/neutralC/CFD-BF-214-308-N.jpg","img/neutralC/CFD-IM-721-341-N.jpg","img/neutralC/CFD-BF-036-027-N.jpg","1","1","1","1","1","0","0.528587300039362","0.481458999973256","0.491585000010673","1","1","1","1","1","1","1","1","1"
"250055","img/neutralC/CFD-BF-036-027-N.jpg","img/neutralC/CFD-BF-214-308-N.jpg","img/neutralC/CFD-IM-707-105-N.jpg","1","1","1","0","1","1","0.491585000010673","0.528587300039362","0.496839600033127","1","1","1","1","1","1","1","1","1"
"250055","img/neutralC/CFD-IM-707-105-N.jpg","img/neutralC/CFD-BF-036-027-N.jpg","img/neutralC/CFD-IF-742-103-N.jpg","1","1","1","1","0","1","0.496839600033127","0.491585000010673","0.472249099984765","1","1","1","1","1","1","1","1","1"
"250055","img/neutralC/CFD-IF-742-103-N.jpg","img/neutralC/CFD-IM-707-105-N.jpg","img/neutralC/CFD-BF-207-004-N.jpg","1","1","1","1","1","1","0.472249099984765","0.496839600033127","0.468003299960401","1","1","1","1","1","1","1","1","1"
"250055","img/neutralC/CFD-BF-207-004-N.jpg","img/neutralC/CFD-IF-742-103-N.jpg","img/neutralC/CFD-WM-014-002-N.jpg","1","1","1","1","1","0","0.468003299960401","0.472249099984765","0.491287200013176","1","1","1","1","1","1","1","1","1"
"250055","img/neutralC/CFD-WM-014-002-N.jpg","img/neutralC/CFD-BF-207-004-N.jpg","img/neutralC/CFD-BF-002-001-N.jpg","1","1","1","0","1","0","0.491287200013176","0.468003299960401","0.533221499994397","1","1","1","1","1","1","1","1","1"
"250055","img/neutralC/CFD-BF-002-001-N.jpg","img/neutralC/CFD-WM-014-002-N.jpg","img/neutralC/CFD-BF-011-002-N.jpg","1","1","1","0","0","1","0.533221499994397","0.491287200013176","0.448232599999756","1","1","1","1","1","1","1","1","1"
"250055","img/neutralC/CFD-BF-011-002-N.jpg","img/neutralC/CFD-BF-002-001-N.jpg","img/neutralC/CFD-WF-233-112-N.jpg","1","1","1","1","0","1","0.448232599999756","0.533221499994397","0.515869299997576","1","1","1","1","1","1","1","1","1"
"250055","img/neutralC/CFD-WF-233-112-N.jpg","img/neutralC/CFD-BF-011-002-N.jpg","img/neutralC/CFD-MF-301-024-N.jpg","1","1","1","1","1","0","0.515869299997576","0.448232599999756","0.464927400054876","1","1","1","1","1","1","1","1","1"
"250055","img/neutralC/CFD-MF-301-024-N.jpg","img/neutralC/CFD-WF-233-112-N.jpg","img/neutralC/CFD-LM-213-061-N.jpg","1","1","1","0","1","0","0.464927400054876","0.515869299997576","0.761531699972693","1","1","1","1","1","1","1","1","1"
"250055","img/neutralC/CFD-LM-213-061-N.jpg","img/neutralC/CFD-MF-301-024-N.jpg","img/neutralC/CFD-BM-036-003-N.jpg","1","1","1","0","0","1","0.761531699972693","0.464927400054876","0.524717900028918","1","1","1","1","1","1","1","1","1"
"250055","img/neutralC/CFD-BM-036-003-N.jpg","img/neutralC/CFD-LM-213-061-N.jpg","img/neutralC/CFD-AM-230-150-N.jpg","1","1","1","1","0","0","0.524717900028918","0.761531699972693","0.489964499953203","1","1","1","1","1","1","1","1","1"
"250055","img/neutralC/CFD-AM-230-150-N.jpg","img/neutralC/CFD-BM-036-003-N.jpg","img/neutralC/CFD-LF-204-133-N.jpg","1","1","1","0","1","1","0.489964499953203","0.524717900028918","0.459417500009295","1","1","1","1","1","1","1","1","1"
"250055","img/neutralC/CFD-LF-204-133-N.jpg","img/neutralC/CFD-AM-230-150-N.jpg",NA,"1","1",NA,"1","0",NA,"0.459417500009295","0.489964499953203",NA,"1","1",NA,"1","1",NA,"1","1",NA
"250055","img/neutralC/CFD-BM-231-155-N.jpg",NA,"img/neutralC/CFD-LF-250-169-N.jpg","1",NA,"1","1",NA,"1","0.469910799991339",NA,"0.433001299970783","1",NA,"1","1",NA,"1","1",NA,"1"
"250055","img/neutralC/CFD-LF-250-169-N.jpg","img/neutralC/CFD-BM-231-155-N.jpg","img/neutralC/CFD-IF-620-218-N.jpg","1","1","1","1","1","0","0.433001299970783","0.469910799991339","0.430173699976876","1","1","1","1","1","1","1","1","1"
"250055","img/neutralC/CFD-IF-620-218-N.jpg","img/neutralC/CFD-LF-250-169-N.jpg","img/neutralC/CFD-IM-686-097-N.jpg","1","1","1","0","1","0","0.430173699976876","0.433001299970783","0.493103499989957","1","1","1","1","1","1","1","1","1"
"250055","img/neutralC/CFD-IM-686-097-N.jpg","img/neutralC/CFD-IF-620-218-N.jpg","img/neutralC/CFD-BF-238-190-N.jpg","1","1","1","0","0","1","0.493103499989957","0.430173699976876","0.468695499992464","1","1","1","1","1","1","1","1","1"
"250055","img/neutralC/CFD-BF-238-190-N.jpg","img/neutralC/CFD-IM-686-097-N.jpg","img/neutralC/CFD-WM-258-125-N.jpg","1","1","1","1","0","0","0.468695499992464","0.493103499989957","0.51173840003321","1","1","1","1","1","1","1","1","1"
"250055","img/neutralC/CFD-WM-258-125-N.jpg","img/neutralC/CFD-BF-238-190-N.jpg","img/neutralC/CFD-LM-226-175-N.jpg","1","1","1","0","1","0","0.51173840003321","0.468695499992464","0.477049500041176","1","1","1","1","1","1","1","1","1"
"250055","img/neutralC/CFD-LM-226-175-N.jpg","img/neutralC/CFD-WM-258-125-N.jpg","img/neutralC/CFD-WM-227-099-N.jpg","1","1","1","0","0","1","0.477049500041176","0.51173840003321","0.354633900045883","1","1","1","1","1","1","1","1","1"
"250055","img/neutralC/CFD-WM-227-099-N.jpg","img/neutralC/CFD-LM-226-175-N.jpg","img/neutralC/CFD-LF-245-166-N.jpg","1","1","1","1","0","1","0.354633900045883","0.477049500041176","0.392780199996196","1","1","1","1","1","1","1","1","1"
"250055","img/neutralC/CFD-LF-245-166-N.jpg","img/neutralC/CFD-WM-227-099-N.jpg","img/neutralC/CFD-AF-241-141-N.jpg","1","1","1","1","1","1","0.392780199996196","0.354633900045883","0.472290600009728","1","1","1","1","1","1","1","1","1"
"250055","img/neutralC/CFD-AF-241-141-N.jpg","img/neutralC/CFD-LF-245-166-N.jpg","img/neutralC/CFD-AF-202-122-N.jpg","1","1","1","1","1","1","0.472290600009728","0.392780199996196","0.34556899999734","1","1","1","1","1","1","1","1","1"
"250055","img/neutralC/CFD-AF-202-122-N.jpg","img/neutralC/CFD-AF-241-141-N.jpg","img/neutralC/CFD-LM-219-295-N.jpg","1","1","1","1","1","1","0.34556899999734","0.472290600009728","0.395368400029838","1","1","1","1","1","1","1","1","1"
"250055","img/neutralC/CFD-LM-219-295-N.jpg","img/neutralC/CFD-AF-202-122-N.jpg","img/neutralC/CFD-MF-313-002-N.jpg","1","1","1","1","1","0","0.395368400029838","0.34556899999734","0.565696600009687","1","1","1","1","1","1","1","1","1"
"250055","img/neutralC/CFD-MF-313-002-N.jpg","img/neutralC/CFD-LM-219-295-N.jpg","img/neutralC/CFD-BF-010-001-N.jpg","1","1","1","0","1","1","0.565696600009687","0.395368400029838","0.429237899952568","1","1","1","1","1","1","1","1","1"
"250055","img/neutralC/CFD-BF-010-001-N.jpg","img/neutralC/CFD-MF-313-002-N.jpg","img/neutralC/CFD-LF-242-121-N.jpg","1","1","1","1","0","0","0.429237899952568","0.565696600009687","0.374227099993732","1","1","1","1","1","1","1","1","1"
"250055","img/neutralC/CFD-LF-242-121-N.jpg","img/neutralC/CFD-BF-010-001-N.jpg","img/neutralC/CFD-IF-665-015-N.jpg","1","1","1","0","1","0","0.374227099993732","0.429237899952568","0.37992249999661","1","1","1","1","1","1","1","1","1"
"250055","img/neutralC/CFD-IF-665-015-N.jpg","img/neutralC/CFD-LF-242-121-N.jpg","img/neutralC/CFD-WF-209-052-N.jpg","1","1","1","0","0","1","0.37992249999661","0.374227099993732","0.384889199980535","1","1","1","1","1","1","1","1","1"
"250055","img/neutralC/CFD-WF-209-052-N.jpg","img/neutralC/CFD-IF-665-015-N.jpg","img/neutralC/CFD-AF-206-079-N.jpg","1","1","1","1","0","1","0.384889199980535","0.37992249999661","0.41533889999846","1","1","1","1","1","1","1","1","1"
"250055","img/neutralC/CFD-AF-206-079-N.jpg","img/neutralC/CFD-WF-209-052-N.jpg","img/neutralC/CFD-IM-638-250-1-N.jpg","1","1","1","1","1","1","0.41533889999846","0.384889199980535","0.442738999961875","1","1","1","1","1","1","1","1","1"
"250055","img/neutralC/CFD-IM-638-250-1-N.jpg","img/neutralC/CFD-AF-206-079-N.jpg","img/neutralC/CFD-BM-026-002-N.jpg","1","1","1","1","1","0","0.442738999961875","0.41533889999846","0.384773799974937","1","1","1","1","1","1","1","1","1"
"250055","img/neutralC/CFD-BM-026-002-N.jpg","img/neutralC/CFD-IM-638-250-1-N.jpg","img/neutralC/CFD-LF-247-051-N.jpg","1","1","1","0","1","1","0.384773799974937","0.442738999961875","0.470438399992418","1","1","1","1","1","1","1","1","1"
"250055","img/neutralC/CFD-LF-247-051-N.jpg","img/neutralC/CFD-BM-026-002-N.jpg","img/neutralC/CFD-WM-242-011-N.jpg","1","1","1","1","0","0","0.470438399992418","0.384773799974937","0.472512600012124","1","1","1","1","1","1","1","1","1"
"250055","img/neutralC/CFD-WM-242-011-N.jpg","img/neutralC/CFD-LF-247-051-N.jpg","img/neutralC/CFD-IM-617-174-N.jpg","1","1","1","0","1","0","0.472512600012124","0.470438399992418","0.449789700040128","1","1","1","1","1","1","1","1","1"
"250055","img/neutralC/CFD-IM-617-174-N.jpg","img/neutralC/CFD-WM-242-011-N.jpg","img/neutralC/CFD-BM-018-001-N.jpg","1","1","1","0","0","1","0.449789700040128","0.472512600012124","0.372226100007538","1","1","1","1","1","1","1","1","1"
"250055","img/neutralC/CFD-BM-018-001-N.jpg","img/neutralC/CFD-IM-617-174-N.jpg","img/neutralC/CFD-IM-657-308-N.jpg","1","1","1","1","0","0","0.372226100007538","0.449789700040128","0.294980499951635","1","1","1","1","1","1","1","1","1"
"250055","img/neutralC/CFD-IM-657-308-N.jpg","img/neutralC/CFD-BM-018-001-N.jpg","img/neutralC/CFD-BM-005-003-N.jpg","1","1","1","0","1","1","0.294980499951635","0.372226100007538","0.305353700008709","1","1","1","1","1","1","1","1","1"
"250055","img/neutralC/CFD-BM-005-003-N.jpg","img/neutralC/CFD-IM-657-308-N.jpg","img/neutralC/CFD-IM-727-195-N.jpg","1","1","1","1","0","1","0.305353700008709","0.294980499951635","0.41514440003084","1","1","1","1","1","1","1","1","1"
"250055","img/neutralC/CFD-IM-727-195-N.jpg","img/neutralC/CFD-BM-005-003-N.jpg","img/neutralC/CFD-BM-212-117-N.jpg","1","1","1","1","1","0","0.41514440003084","0.305353700008709","0.389308099984191","1","1","1","1","1","1","1","1","1"
"250055","img/neutralC/CFD-BM-212-117-N.jpg","img/neutralC/CFD-IM-727-195-N.jpg","img/neutralC/CFD-LM-233-171-N.jpg","1","1","1","0","1","0","0.389308099984191","0.41514440003084","0.386662700038869","1","1","1","1","1","1","1","1","1"
"250055","img/neutralC/CFD-LM-233-171-N.jpg","img/neutralC/CFD-BM-212-117-N.jpg","img/neutralC/CFD-IM-653-008-N.jpg","1","1","0","0","0","0","0.386662700038869","0.389308099984191","0.420991400023922","1","1","1","1","1","1","1","1","1"
"250055","img/neutralC/CFD-IM-653-008-N.jpg","img/neutralC/CFD-LM-233-171-N.jpg","img/neutralC/CFD-WM-017-002-N.jpg","0","1","1","0","0","0","0.420991400023922","0.386662700038869","0.43979059997946","1","1","1","1","1","1","1","1","1"
"250055","img/neutralC/CFD-WM-017-002-N.jpg","img/neutralC/CFD-IM-653-008-N.jpg","img/neutralC/CFD-BF-033-028-N.jpg","1","0","1","0","0","0","0.43979059997946","0.420991400023922","0.433495900011621","1","1","1","1","1","1","1","1","1"
"250055","img/neutralC/CFD-BF-033-028-N.jpg","img/neutralC/CFD-WM-017-002-N.jpg",NA,"1","1",NA,"0","0",NA,"0.433495900011621","0.43979059997946",NA,"1","1",NA,"1","1",NA,"1","1",NA
"250055","img/neutralC/CFD-AF-213-126-N.jpg",NA,"img/neutralC/CFD-BF-042-026-N.jpg","1",NA,"1","1",NA,"1","0.473742600006517",NA,"0.463202000013553","1",NA,"1","1",NA,"1","1",NA,"1"
"250055","img/neutralC/CFD-BF-042-026-N.jpg","img/neutralC/CFD-AF-213-126-N.jpg","img/neutralC/CFD-IM-632-097-N.jpg","1","1","1","1","1","0","0.463202000013553","0.473742600006517","0.525329700030852","1","1","1","1","1","1","1","1","1"
"250055","img/neutralC/CFD-IM-632-097-N.jpg","img/neutralC/CFD-BF-042-026-N.jpg","img/neutralC/CFD-IM-669-111-N.jpg","1","1","1","0","1","1","0.525329700030852","0.463202000013553","0.328107499983162","1","1","1","1","1","1","1","1","1"
"250055","img/neutralC/CFD-IM-669-111-N.jpg","img/neutralC/CFD-IM-632-097-N.jpg","img/neutralC/CFD-BF-040-003-N.jpg","1","1","1","1","0","1","0.328107499983162","0.525329700030852","0.392132499953732","1","1","1","1","1","1","1","1","1"
"250055","img/neutralC/CFD-BF-040-003-N.jpg","img/neutralC/CFD-IM-669-111-N.jpg","img/neutralC/CFD-BF-217-189-N.jpg","1","1","1","1","1","0","0.392132499953732","0.328107499983162","0.342498300014995","1","1","1","1","1","1","1","1","1"
"250055","img/neutralC/CFD-BF-217-189-N.jpg","img/neutralC/CFD-BF-040-003-N.jpg","img/neutralC/CFD-WM-018-002-N.jpg","1","1","1","0","1","0","0.342498300014995","0.392132499953732","0.451666400011163","1","1","1","1","1","1","1","1","1"
"250055","img/neutralC/CFD-WM-018-002-N.jpg","img/neutralC/CFD-BF-217-189-N.jpg","img/neutralC/CFD-IF-636-011-N.jpg","1","1","1","0","0","1","0.451666400011163","0.342498300014995","0.35427080001682","1","1","1","1","1","1","1","1","2"
"250055","img/neutralC/CFD-IF-636-011-N.jpg","img/neutralC/CFD-WM-018-002-N.jpg","img/neutralC/CFD-BF-206-143-N.jpg","1","1","1","1","0","1","0.35427080001682","0.451666400011163","0.422579700010829","1","1","1","1","1","1","2","1","1"
"250055","img/neutralC/CFD-BF-206-143-N.jpg","img/neutralC/CFD-IF-636-011-N.jpg","img/neutralC/CFD-IF-732-260-N.jpg","1","1","1","1","1","0","0.422579700010829","0.35427080001682","0.550908599980175","1","1","1","1","1","1","1","2","1"
"250055","img/neutralC/CFD-IF-732-260-N.jpg","img/neutralC/CFD-BF-206-143-N.jpg","img/neutralC/CFD-WF-210-086-N.jpg","1","1","1","0","1","0","0.550908599980175","0.422579700010829","0.361429299984593","1","1","1","1","1","1","1","1","1"
"250055","img/neutralC/CFD-WF-210-086-N.jpg","img/neutralC/CFD-IF-732-260-N.jpg","img/neutralC/CFD-LF-239-148-N.jpg","1","1","1","0","0","0","0.361429299984593","0.550908599980175","0.383458799973596","1","1","1","1","1","1","1","1","1"
"250055","img/neutralC/CFD-LF-239-148-N.jpg","img/neutralC/CFD-WF-210-086-N.jpg","img/neutralC/CFD-BF-020-002-N.jpg","1","1","1","0","0","1","0.383458799973596","0.361429299984593","0.425243899982888","1","1","1","1","1","1","1","1","1"
"250055","img/neutralC/CFD-BF-020-002-N.jpg","img/neutralC/CFD-LF-239-148-N.jpg","img/neutralC/CFD-WM-253-119-N.jpg","1","1","1","1","0","1","0.425243899982888","0.383458799973596","0.381930499977898","1","1","1","1","1","1","1","1","1"
"250055","img/neutralC/CFD-WM-253-119-N.jpg","img/neutralC/CFD-BF-020-002-N.jpg","img/neutralC/CFD-BF-235-168-N.jpg","1","1","1","1","1","1","0.381930499977898","0.425243899982888","0.408423300017603","1","1","1","1","1","1","1","1","1"
"250055","img/neutralC/CFD-BF-235-168-N.jpg","img/neutralC/CFD-WM-253-119-N.jpg","img/neutralC/CFD-IM-635-010-N.jpg","1","1","1","1","1","1","0.408423300017603","0.381930499977898","0.338022399984766","1","1","1","1","1","1","1","1","1"
"250055","img/neutralC/CFD-IM-635-010-N.jpg","img/neutralC/CFD-BF-235-168-N.jpg","img/neutralC/CFD-MF-307-002-N.jpg","1","1","1","1","1","1","0.338022399984766","0.408423300017603","0.404916200030129","1","1","1","1","1","1","1","1","1"
"250055","img/neutralC/CFD-MF-307-002-N.jpg","img/neutralC/CFD-IM-635-010-N.jpg","img/neutralC/CFD-LM-204-001-N.jpg","1","1","1","1","1","0","0.404916200030129","0.338022399984766","0.396647099987604","1","1","1","1","1","1","1","1","1"
"250055","img/neutralC/CFD-LM-204-001-N.jpg","img/neutralC/CFD-MF-307-002-N.jpg","img/neutralC/CFD-WF-235-121-N.jpg","1","1","1","0","1","0","0.396647099987604","0.404916200030129","0.369678800052498","1","1","1","1","1","1","1","1","1"
"250055","img/neutralC/CFD-WF-235-121-N.jpg","img/neutralC/CFD-LM-204-001-N.jpg","img/neutralC/CFD-AM-245-111-N.jpg","1","1","1","0","0","1","0.369678800052498","0.396647099987604","0.393534400034696","1","1","1","1","1","1","1","1","1"
"250055","img/neutralC/CFD-AM-245-111-N.jpg","img/neutralC/CFD-WF-235-121-N.jpg","img/neutralC/CFD-IM-678-482-N.jpg","1","1","1","1","0","0","0.393534400034696","0.369678800052498","0.51812650001375","1","1","1","1","1","1","1","1","1"
"250055","img/neutralC/CFD-IM-678-482-N.jpg","img/neutralC/CFD-AM-245-111-N.jpg","img/neutralC/CFD-AM-233-236-N.jpg","1","1","1","0","1","1","0.51812650001375","0.393534400034696","0.428574599965941","1","1","1","1","1","1","1","1","1"
"250055","img/neutralC/CFD-AM-233-236-N.jpg","img/neutralC/CFD-IM-678-482-N.jpg","img/neutralC/CFD-AF-244-168-N.jpg","1","1","1","1","0","0","0.428574599965941","0.51812650001375","0.453513199987356","1","1","1","1","1","1","1","1","1"
"250055","img/neutralC/CFD-AF-244-168-N.jpg","img/neutralC/CFD-AM-233-236-N.jpg","img/neutralC/CFD-LM-241-125-N.jpg","1","1","1","0","1","1","0.453513199987356","0.428574599965941","0.351809700019658","1","1","1","1","1","1","1","1","1"
"250055","img/neutralC/CFD-LM-241-125-N.jpg","img/neutralC/CFD-AF-244-168-N.jpg","img/neutralC/CFD-AF-205-155-N.jpg","1","1","1","1","0","0","0.351809700019658","0.453513199987356","0.326685999985784","1","1","1","1","1","1","1","1","1"
"250055","img/neutralC/CFD-AF-205-155-N.jpg","img/neutralC/CFD-LM-241-125-N.jpg","img/neutralC/CFD-BM-215-155-N.jpg","1","1","1","0","1","0","0.326685999985784","0.351809700019658","0.434076099947561","1","1","1","1","1","1","1","1","1"
"250055","img/neutralC/CFD-BM-215-155-N.jpg","img/neutralC/CFD-AF-205-155-N.jpg","img/neutralC/CFD-AF-250-200-N.jpg","1","1","1","0","0","1","0.434076099947561","0.326685999985784","0.389240699994843","1","1","1","1","1","1","1","1","1"
"250055","img/neutralC/CFD-AF-250-200-N.jpg","img/neutralC/CFD-BM-215-155-N.jpg","img/neutralC/CFD-BM-004-002-N.jpg","1","1","1","1","0","0","0.389240699994843","0.434076099947561","0.455835200031288","1","1","1","1","1","1","1","1","1"
"250055","img/neutralC/CFD-BM-004-002-N.jpg","img/neutralC/CFD-AF-250-200-N.jpg","img/neutralC/CFD-MF-302-027-N.jpg","1","1","1","0","1","0","0.455835200031288","0.389240699994843","0.372433100012131","1","1","1","1","1","1","1","1","1"
"250055","img/neutralC/CFD-MF-302-027-N.jpg","img/neutralC/CFD-BM-004-002-N.jpg","img/neutralC/CFD-AF-246-242-N.jpg","1","1","1","0","0","0","0.372433100012131","0.455835200031288","0.374286899983417","1","1","1","1","1","1","1","1","1"
"250055","img/neutralC/CFD-AF-246-242-N.jpg","img/neutralC/CFD-MF-302-027-N.jpg","img/neutralC/CFD-AF-234-208-N.jpg","1","1","1","0","0","1","0.374286899983417","0.372433100012131","0.435785999987274","1","1","1","1","1","1","1","1","1"
"250055","img/neutralC/CFD-AF-234-208-N.jpg","img/neutralC/CFD-AF-246-242-N.jpg","img/neutralC/CFD-AM-225-102-N.jpg","1","1","1","1","0","0","0.435785999987274","0.374286899983417","0.427055699983612","1","1","1","1","1","1","1","1","1"
"250055","img/neutralC/CFD-AM-225-102-N.jpg","img/neutralC/CFD-AF-234-208-N.jpg",NA,"1","1",NA,"0","1",NA,"0.427055699983612","0.435785999987274",NA,"1","1",NA,"1","1",NA,"1","1",NA
"250055","img/neutralC/CFD-AF-239-171-N.jpg",NA,"img/neutralC/CFD-BF-045-003-N.jpg","1",NA,"1","1",NA,"0","0.541892000008374",NA,"0.4618137999787","1",NA,"1","1",NA,"1","1",NA,"1"
"250055","img/neutralC/CFD-BF-045-003-N.jpg","img/neutralC/CFD-AF-239-171-N.jpg","img/neutralC/CFD-IF-744-114-N.jpg","1","1","1","0","1","0","0.4618137999787","0.541892000008374","0.493473099952098","1","1","1","1","1","1","1","1","1"
"250055","img/neutralC/CFD-IF-744-114-N.jpg","img/neutralC/CFD-BF-045-003-N.jpg","img/neutralC/CFD-WF-033-002-N.jpg","1","1","1","0","0","1","0.493473099952098","0.4618137999787","0.335495399951469","1","1","1","1","1","1","1","1","1"
"250055","img/neutralC/CFD-WF-033-002-N.jpg","img/neutralC/CFD-IF-744-114-N.jpg","img/neutralC/CFD-MF-312-002-N.jpg","1","1","1","1","0","1","0.335495399951469","0.493473099952098","0.354410200030543","1","1","1","1","1","1","1","1","1"
"250055","img/neutralC/CFD-MF-312-002-N.jpg","img/neutralC/CFD-WF-033-002-N.jpg","img/neutralC/CFD-BF-222-240-N.jpg","1","1","1","1","1","0","0.354410200030543","0.335495399951469","0.496177900000475","1","1","1","1","1","1","1","1","1"
"250055","img/neutralC/CFD-BF-222-240-N.jpg","img/neutralC/CFD-MF-312-002-N.jpg","img/neutralC/CFD-BM-003-003-N.jpg","1","1","1","0","1","0","0.496177900000475","0.354410200030543","0.72861799999373","1","1","1","1","1","1","1","1","1"
"250055","img/neutralC/CFD-BM-003-003-N.jpg","img/neutralC/CFD-BF-222-240-N.jpg","img/neutralC/CFD-LF-210-220-N.jpg","1","1","1","0","0","1","0.72861799999373","0.496177900000475","0.441555600031279","1","1","1","1","1","1","1","1","1"
"250055","img/neutralC/CFD-LF-210-220-N.jpg","img/neutralC/CFD-BM-003-003-N.jpg","img/neutralC/CFD-IM-738-191-N.jpg","1","1","1","1","0","0","0.441555600031279","0.72861799999373","0.427713700046297","1","1","1","1","1","1","1","1","1"
"250055","img/neutralC/CFD-IM-738-191-N.jpg","img/neutralC/CFD-LF-210-220-N.jpg","img/neutralC/CFD-WM-254-152-N.jpg","1","1","1","0","1","1","0.427713700046297","0.441555600031279","0.418473400000948","1","1","1","1","1","1","1","1","1"
"250055","img/neutralC/CFD-WM-254-152-N.jpg","img/neutralC/CFD-IM-738-191-N.jpg","img/neutralC/CFD-AM-221-184-N.jpg","1","1","1","1","0","1","0.418473400000948","0.427713700046297","0.398828899953514","1","1","1","1","1","1","1","1","1"
"250055","img/neutralC/CFD-AM-221-184-N.jpg","img/neutralC/CFD-WM-254-152-N.jpg","img/neutralC/CFD-BM-213-134-N.jpg","1","1","1","1","1","1","0.398828899953514","0.418473400000948","0.467846599989571","1","1","1","1","1","1","1","1","1"
"250055","img/neutralC/CFD-BM-213-134-N.jpg","img/neutralC/CFD-AM-221-184-N.jpg","img/neutralC/CFD-IF-673-389-N.jpg","1","1","1","1","1","0","0.467846599989571","0.398828899953514","0.406340999994427","1","1","1","1","1","1","1","1","1"
"250055","img/neutralC/CFD-IF-673-389-N.jpg","img/neutralC/CFD-BM-213-134-N.jpg","img/neutralC/CFD-LF-208-127-N.jpg","1","1","1","0","1","0","0.406340999994427","0.467846599989571","0.486257800017484","1","1","1","1","1","1","1","1","1"
"250055","img/neutralC/CFD-LF-208-127-N.jpg","img/neutralC/CFD-IF-673-389-N.jpg","img/neutralC/CFD-LF-241-188-N.jpg","1","1","1","0","0","0","0.486257800017484","0.406340999994427","0.390960599994287","1","1","1","1","1","1","1","1","1"
"250055","img/neutralC/CFD-LF-241-188-N.jpg","img/neutralC/CFD-LF-208-127-N.jpg","img/neutralC/CFD-LM-247-095-N.jpg","1","1","1","0","0","0","0.390960599994287","0.486257800017484","0.463823000027332","1","1","1","1","1","1","1","1","1"
"250055","img/neutralC/CFD-LM-247-095-N.jpg","img/neutralC/CFD-LF-241-188-N.jpg","img/neutralC/CFD-IF-625-225-N.jpg","1","1","1","0","0","0","0.463823000027332","0.390960599994287","0.429086399963126","1","1","1","1","1","1","1","1","1"
"250055","img/neutralC/CFD-IF-625-225-N.jpg","img/neutralC/CFD-LM-247-095-N.jpg","img/neutralC/CFD-LF-225-164-N.jpg","1","1","1","0","0","1","0.429086399963126","0.463823000027332","0.412741100008134","1","1","1","1","1","1","1","1","1"
"250055","img/neutralC/CFD-LF-225-164-N.jpg","img/neutralC/CFD-IF-625-225-N.jpg","img/neutralC/CFD-AF-227-207-N.jpg","1","1","1","1","0","1","0.412741100008134","0.429086399963126","0.382819799997378","1","1","1","1","1","1","1","1","1"
"250055","img/neutralC/CFD-AF-227-207-N.jpg","img/neutralC/CFD-LF-225-164-N.jpg","img/neutralC/CFD-WF-006-002-N.jpg","1","1","1","1","1","0","0.382819799997378","0.412741100008134","0.454931500018574","1","1","1","1","1","1","1","1","1"
"250055","img/neutralC/CFD-WF-006-002-N.jpg","img/neutralC/CFD-AF-227-207-N.jpg","img/neutralC/CFD-BM-028-002-N.jpg","1","1","1","0","1","1","0.454931500018574","0.382819799997378","0.443124099983834","1","1","1","1","1","1","1","1","1"
"250055","img/neutralC/CFD-BM-028-002-N.jpg","img/neutralC/CFD-WF-006-002-N.jpg","img/neutralC/CFD-BM-013-002-N.jpg","1","1","1","1","0","1","0.443124099983834","0.454931500018574","0.435184100002516","1","1","1","1","1","1","1","1","1"
"250055","img/neutralC/CFD-BM-013-002-N.jpg","img/neutralC/CFD-BM-028-002-N.jpg","img/neutralC/CFD-BF-004-014-N.jpg","1","1","1","1","1","1","0.435184100002516","0.443124099983834","0.411146499973256","1","1","1","1","1","1","1","1","1"
"250055","img/neutralC/CFD-BF-004-014-N.jpg","img/neutralC/CFD-BM-013-002-N.jpg","img/neutralC/CFD-IM-659-359-N.jpg","1","1","1","1","1","0","0.411146499973256","0.435184100002516","0.446454700024333","1","1","1","1","1","1","1","1","1"
"250055","img/neutralC/CFD-IM-659-359-N.jpg","img/neutralC/CFD-BF-004-014-N.jpg","img/neutralC/CFD-AF-210-050-N.jpg","1","1","1","0","1","1","0.446454700024333","0.411146499973256","0.333307900000364","1","1","1","1","1","1","1","1","1"
"250055","img/neutralC/CFD-AF-210-050-N.jpg","img/neutralC/CFD-IM-659-359-N.jpg","img/neutralC/CFD-IM-701-312-N.jpg","1","1","1","1","0","0","0.333307900000364","0.446454700024333","0.376093900005799","1","1","1","1","1","1","1","1","1"
"250055","img/neutralC/CFD-IM-701-312-N.jpg","img/neutralC/CFD-AF-210-050-N.jpg","img/neutralC/CFD-LM-238-129-N.jpg","1","1","1","0","1","1","0.376093900005799","0.333307900000364","0.421127500012517","1","1","1","1","1","1","1","1","1"
"250055","img/neutralC/CFD-LM-238-129-N.jpg","img/neutralC/CFD-IM-701-312-N.jpg","img/neutralC/CFD-WM-228-065-N.jpg","1","1","1","1","0","0","0.421127500012517","0.376093900005799","0.466464299999643","1","1","1","1","1","1","1","1","1"
"250055","img/neutralC/CFD-WM-228-065-N.jpg","img/neutralC/CFD-LM-238-129-N.jpg","img/neutralC/CFD-BM-010-003-N.jpg","1","1","1","0","1","0","0.466464299999643","0.421127500012517","0.484381899994332","1","1","1","1","1","1","1","1","1"
"250055","img/neutralC/CFD-BM-010-003-N.jpg","img/neutralC/CFD-WM-228-065-N.jpg","img/neutralC/CFD-WM-202-107-N.jpg","1","1","1","0","0","1","0.484381899994332","0.466464299999643","0.382889300002716","1","1","1","1","1","1","1","1","1"
"250055","img/neutralC/CFD-WM-202-107-N.jpg","img/neutralC/CFD-BM-010-003-N.jpg","img/neutralC/CFD-MF-336-016-N.jpg","1","1","1","1","0","1","0.382889300002716","0.484381899994332","0.427153800032102","1","1","1","1","1","1","1","1","1"
"250055","img/neutralC/CFD-MF-336-016-N.jpg","img/neutralC/CFD-WM-202-107-N.jpg","img/neutralC/CFD-WF-223-133-N.jpg","1","1","1","1","1","0","0.427153800032102","0.382889300002716","0.494143299991265","1","1","1","1","1","1","1","1","1"
"250055","img/neutralC/CFD-WF-223-133-N.jpg","img/neutralC/CFD-MF-336-016-N.jpg",NA,"1","1",NA,"0","1",NA,"0.494143299991265","0.427153800032102",NA,"1","1",NA,"1","1",NA,"1","1",NA
"250055","img/neutralC/CFD-WF-224-099-N.jpg",NA,"img/neutralC/CFD-LF-224-176-N.jpg","0",NA,"1","0",NA,"0",NA,NA,"0.680468200007454","0",NA,"1","0",NA,"1","0",NA,"1"
"250055","img/neutralC/CFD-LF-224-176-N.jpg","img/neutralC/CFD-WF-224-099-N.jpg","img/neutralC/CFD-AF-231-357-N.jpg","1","0","1","0","0","1","0.680468200007454",NA,"0.384723900002427","1","0","1","1","0","1","1","0","1"
"250055","img/neutralC/CFD-AF-231-357-N.jpg","img/neutralC/CFD-LF-224-176-N.jpg","img/neutralC/CFD-WF-250-167-N.jpg","1","1","1","1","0","1","0.384723900002427","0.680468200007454","0.382928800012451","1","1","1","1","1","1","1","1","1"
"250055","img/neutralC/CFD-WF-250-167-N.jpg","img/neutralC/CFD-AF-231-357-N.jpg","img/neutralC/CFD-BF-205-141-N.jpg","1","1","1","1","1","0","0.382928800012451","0.384723900002427","0.420243899978232","1","1","1","1","1","1","1","1","1"
"250055","img/neutralC/CFD-BF-205-141-N.jpg","img/neutralC/CFD-WF-250-167-N.jpg","img/neutralC/CFD-BF-029-031-N.jpg","1","1","1","0","1","1","0.420243899978232","0.382928800012451","0.376049699960276","1","1","1","1","1","1","1","1","1"
"250055","img/neutralC/CFD-BF-029-031-N.jpg","img/neutralC/CFD-BF-205-141-N.jpg","img/neutralC/CFD-IM-651-308-N.jpg","1","1","1","1","0","0","0.376049699960276","0.420243899978232","0.430840300046839","1","1","1","1","1","1","1","1","1"
"250055","img/neutralC/CFD-IM-651-308-N.jpg","img/neutralC/CFD-BF-029-031-N.jpg","img/neutralC/CFD-BF-039-031-N.jpg","1","1","1","0","1","1","0.430840300046839","0.376049699960276","0.475520299980417","1","1","1","1","1","1","1","1","1"
"250055","img/neutralC/CFD-BF-039-031-N.jpg","img/neutralC/CFD-IM-651-308-N.jpg","img/neutralC/CFD-LF-214-090-N.jpg","1","1","1","1","0","0","0.475520299980417","0.430840300046839","0.628054600034375","1","1","1","1","1","1","1","1","1"
"250055","img/neutralC/CFD-LF-214-090-N.jpg","img/neutralC/CFD-BF-039-031-N.jpg","img/neutralC/CFD-LF-203-066-N.jpg","1","1","1","0","1","0","0.628054600034375","0.475520299980417","0.436094700009562","1","1","1","1","1","1","1","1","1"
"250055","img/neutralC/CFD-LF-203-066-N.jpg","img/neutralC/CFD-LF-214-090-N.jpg","img/neutralC/CFD-WM-021-001-N.jpg","1","1","1","0","0","1","0.436094700009562","0.628054600034375","0.410616700013634","1","1","1","1","1","1","1","1","1"
"250055","img/neutralC/CFD-WM-021-001-N.jpg","img/neutralC/CFD-LF-203-066-N.jpg","img/neutralC/CFD-WM-011-002-N.jpg","1","1","1","1","0","0","0.410616700013634","0.436094700009562","0.459652099991217","1","1","1","1","1","1","1","1","1"
"250055","img/neutralC/CFD-WM-011-002-N.jpg","img/neutralC/CFD-WM-021-001-N.jpg","img/neutralC/CFD-IF-693-172-N.jpg","1","1","1","0","1","0","0.459652099991217","0.410616700013634","0.444629799982067","1","1","1","1","1","1","1","1","1"
"250055","img/neutralC/CFD-IF-693-172-N.jpg","img/neutralC/CFD-WM-011-002-N.jpg","img/neutralC/CFD-LF-205-100-N.jpg","1","1","1","0","0","1","0.444629799982067","0.459652099991217","0.442994299985003","1","1","1","1","1","1","1","1","1"
"250055","img/neutralC/CFD-LF-205-100-N.jpg","img/neutralC/CFD-IF-693-172-N.jpg","img/neutralC/CFD-MF-337-026-N.jpg","1","1","1","1","0","1","0.442994299985003","0.444629799982067","0.477412000007462","1","1","1","1","1","1","1","1","1"
"250055","img/neutralC/CFD-MF-337-026-N.jpg","img/neutralC/CFD-LF-205-100-N.jpg","img/neutralC/CFD-BF-213-188-N.jpg","1","1","1","1","1","1","0.477412000007462","0.442994299985003","0.445204599993303","1","1","1","1","1","1","1","1","1"
"250055","img/neutralC/CFD-BF-213-188-N.jpg","img/neutralC/CFD-MF-337-026-N.jpg","img/neutralC/CFD-MM-316-156-N.jpg","1","1","1","1","1","1","0.445204599993303","0.477412000007462","0.321254000009503","1","1","1","1","1","1","1","1","1"
"250055","img/neutralC/CFD-MM-316-156-N.jpg","img/neutralC/CFD-BF-213-188-N.jpg","img/neutralC/CFD-AM-212-050-N.jpg","1","1","1","1","1","1","0.321254000009503","0.445204599993303","0.42008710000664","1","1","1","1","1","1","1","1","1"
"250055","img/neutralC/CFD-AM-212-050-N.jpg","img/neutralC/CFD-MM-316-156-N.jpg","img/neutralC/CFD-BF-253-202-N.jpg","1","1","1","1","1","0","0.42008710000664","0.321254000009503","0.472180199983995","1","1","1","1","1","1","1","1","1"
"250055","img/neutralC/CFD-BF-253-202-N.jpg","img/neutralC/CFD-AM-212-050-N.jpg","img/neutralC/CFD-IF-634-382-N.jpg","1","1","1","0","1","1","0.472180199983995","0.42008710000664","0.373443600023165","1","1","1","1","1","1","1","1","1"
"250055","img/neutralC/CFD-IF-634-382-N.jpg","img/neutralC/CFD-BF-253-202-N.jpg","img/neutralC/CFD-LM-215-247-N.jpg","1","1","1","1","0","0","0.373443600023165","0.472180199983995","0.623792600003071","1","1","1","1","1","1","1","1","1"
"250055","img/neutralC/CFD-LM-215-247-N.jpg","img/neutralC/CFD-IF-634-382-N.jpg","img/neutralC/CFD-BM-239-136-N.jpg","1","1","1","0","1","1","0.623792600003071","0.373443600023165","0.42538530001184","1","1","1","1","1","1","1","1","1"
"250055","img/neutralC/CFD-BM-239-136-N.jpg","img/neutralC/CFD-LM-215-247-N.jpg","img/neutralC/CFD-BM-019-002-N.jpg","1","1","1","1","0","0","0.42538530001184","0.623792600003071","0.438842399977148","1","1","1","1","1","1","1","1","1"
"250055","img/neutralC/CFD-BM-019-002-N.jpg","img/neutralC/CFD-BM-239-136-N.jpg","img/neutralC/CFD-IM-684-008-N.jpg","1","1","1","0","1","1","0.438842399977148","0.42538530001184","0.396897399972659","1","1","1","1","1","1","1","1","1"
"250055","img/neutralC/CFD-IM-684-008-N.jpg","img/neutralC/CFD-BM-019-002-N.jpg","img/neutralC/CFD-WF-213-031-N.jpg","1","1","1","1","0","1","0.396897399972659","0.438842399977148","0.435514999961015","1","1","1","1","1","1","1","1","1"
"250055","img/neutralC/CFD-WF-213-031-N.jpg","img/neutralC/CFD-IM-684-008-N.jpg","img/neutralC/CFD-BM-033-003-N.jpg","1","1","1","1","1","0","0.435514999961015","0.396897399972659","0.614879600005224","1","1","1","1","1","1","1","1","1"
"250055","img/neutralC/CFD-BM-033-003-N.jpg","img/neutralC/CFD-WF-213-031-N.jpg","img/neutralC/CFD-BM-041-035-N.jpg","1","1","1","0","1","0","0.614879600005224","0.435514999961015","0.518626999983098","1","1","1","1","1","1","1","1","1"
"250055","img/neutralC/CFD-BM-041-035-N.jpg","img/neutralC/CFD-BM-033-003-N.jpg","img/neutralC/CFD-LM-218-183-N.jpg","1","1","1","0","0","1","0.518626999983098","0.614879600005224","0.453125","1","1","1","1","1","1","1","1","1"
"250055","img/neutralC/CFD-LM-218-183-N.jpg","img/neutralC/CFD-BM-041-035-N.jpg","img/neutralC/CFD-IF-710-016-N.jpg","1","1","1","1","0","0","0.453125","0.518626999983098","0.593539500026964","1","1","1","1","1","1","1","1","1"
"250055","img/neutralC/CFD-IF-710-016-N.jpg","img/neutralC/CFD-LM-218-183-N.jpg","img/neutralC/CFD-AM-201-076-N.jpg","1","1","1","0","1","1","0.593539500026964","0.453125","0.442090299970005","1","1","1","1","1","1","1","1","1"
"250055","img/neutralC/CFD-AM-201-076-N.jpg","img/neutralC/CFD-IF-710-016-N.jpg","img/neutralC/CFD-WM-041-021-N.jpg","1","1","1","1","0","0","0.442090299970005","0.593539500026964","0.373629300040193","1","1","1","1","1","1","1","1","1"
"250055","img/neutralC/CFD-WM-041-021-N.jpg","img/neutralC/CFD-AM-201-076-N.jpg","img/neutralC/CFD-LF-230-203-N.jpg","1","1","1","0","1","0","0.373629300040193","0.442090299970005","0.398442400037311","1","1","1","1","1","1","1","1","1"
"250055","img/neutralC/CFD-LF-230-203-N.jpg","img/neutralC/CFD-WM-041-021-N.jpg",NA,"1","1",NA,"0","0",NA,"0.398442400037311","0.373629300040193",NA,"1","1",NA,"1","1",NA,"1","1",NA
"250055","img/neutralC/CFD-BF-244-231-N.jpg",NA,"img/neutralC/CFD-WM-028-003-N.jpg","0",NA,"1","1",NA,"1","0.85854859999381",NA,"0.438882799993735","1",NA,"1","1",NA,"1","1",NA,"1"
"250055","img/neutralC/CFD-WM-028-003-N.jpg","img/neutralC/CFD-BF-244-231-N.jpg","img/neutralC/CFD-WF-241-210-N.jpg","1","0","1","1","1","0","0.438882799993735","0.85854859999381","0.536170199979097","1","1","1","1","1","1","1","1","1"
"250055","img/neutralC/CFD-WF-241-210-N.jpg","img/neutralC/CFD-WM-028-003-N.jpg","img/neutralC/CFD-AM-205-153-N.jpg","1","1","1","0","1","1","0.536170199979097","0.438882799993735","0.436132300004829","1","1","1","1","1","1","1","1","1"
"250055","img/neutralC/CFD-AM-205-153-N.jpg","img/neutralC/CFD-WF-241-210-N.jpg","img/neutralC/CFD-WF-009-001-N.jpg","1","1","1","1","0","1","0.436132300004829","0.536170199979097","0.45893939997768","1","1","1","1","1","1","1","1","1"
"250055","img/neutralC/CFD-WF-009-001-N.jpg","img/neutralC/CFD-AM-205-153-N.jpg","img/neutralC/CFD-WF-243-148-N.jpg","1","1","1","1","1","0","0.45893939997768","0.436132300004829","0.419576399959624","1","1","1","1","1","1","1","1","1"
"250055","img/neutralC/CFD-WF-243-148-N.jpg","img/neutralC/CFD-WF-009-001-N.jpg","img/neutralC/CFD-BF-012-001-N.jpg","1","1","1","0","1","0","0.419576399959624","0.45893939997768","0.34837039996637","1","1","1","1","1","1","1","1","1"
"250055","img/neutralC/CFD-BF-012-001-N.jpg","img/neutralC/CFD-WF-243-148-N.jpg","img/neutralC/CFD-MF-328-020-N.jpg","1","1","1","0","0","0","0.34837039996637","0.419576399959624","0.439218199986499","1","1","1","1","1","1","1","1","1"
"250055","img/neutralC/CFD-MF-328-020-N.jpg","img/neutralC/CFD-BF-012-001-N.jpg","img/neutralC/CFD-WF-221-005-N.jpg","1","1","1","0","0","0","0.439218199986499","0.34837039996637","0.464358199969865","1","1","1","1","1","1","1","1","1"
"250055","img/neutralC/CFD-WF-221-005-N.jpg","img/neutralC/CFD-MF-328-020-N.jpg","img/neutralC/CFD-BM-009-002-N.jpg","1","1","1","0","0","1","0.464358199969865","0.439218199986499","0.39504830003716","1","1","1","1","1","1","1","1","1"
"250055","img/neutralC/CFD-BM-009-002-N.jpg","img/neutralC/CFD-WF-221-005-N.jpg","img/neutralC/CFD-AF-237-223-N.jpg","1","1","1","1","0","0","0.39504830003716","0.464358199969865","0.371567099995446","1","1","1","1","1","1","1","1","1"
"250055","img/neutralC/CFD-AF-237-223-N.jpg","img/neutralC/CFD-BM-009-002-N.jpg","img/neutralC/CFD-IM-697-015-N.jpg","1","1","1","0","1","1","0.371567099995446","0.39504830003716","0.448767499998212","1","1","1","1","1","1","1","1","1"
"250055","img/neutralC/CFD-IM-697-015-N.jpg","img/neutralC/CFD-AF-237-223-N.jpg","img/neutralC/CFD-IM-689-263-N.jpg","1","1","1","1","0","1","0.448767499998212","0.371567099995446","0.440466499945614","1","1","1","1","1","1","1","1","1"
"250055","img/neutralC/CFD-IM-689-263-N.jpg","img/neutralC/CFD-IM-697-015-N.jpg","img/neutralC/CFD-WM-025-002-N.jpg","1","1","1","1","1","0","0.440466499945614","0.448767499998212","0.471561399986967","1","1","1","1","1","1","1","1","1"
"250055","img/neutralC/CFD-WM-025-002-N.jpg","img/neutralC/CFD-IM-689-263-N.jpg","img/neutralC/CFD-LF-238-154-N.jpg","1","1","1","0","1","1","0.471561399986967","0.440466499945614","0.399149800010491","1","1","1","1","1","1","1","1","1"
"250055","img/neutralC/CFD-LF-238-154-N.jpg","img/neutralC/CFD-WM-025-002-N.jpg","img/neutralC/CFD-BM-020-001-N.jpg","1","1","1","1","0","0","0.399149800010491","0.471561399986967","0.64454140001908","1","1","1","1","1","1","1","1","1"
"250055","img/neutralC/CFD-BM-020-001-N.jpg","img/neutralC/CFD-LF-238-154-N.jpg","img/neutralC/CFD-BM-043-071-N.jpg","1","1","1","0","1","0","0.64454140001908","0.399149800010491","0.678700799995568","1","1","1","1","1","1","1","1","1"
"250055","img/neutralC/CFD-BM-043-071-N.jpg","img/neutralC/CFD-BM-020-001-N.jpg","img/neutralC/CFD-WM-023-001-N.jpg","1","1","1","0","0","0","0.678700799995568","0.64454140001908","0.518527999985963","1","1","1","1","1","1","1","1","1"
"250055","img/neutralC/CFD-WM-023-001-N.jpg","img/neutralC/CFD-BM-043-071-N.jpg","img/neutralC/CFD-AM-249-163-N.jpg","1","1","1","0","0","1","0.518527999985963","0.678700799995568","0.399299999990035","1","1","1","1","1","1","1","1","1"
"250055","img/neutralC/CFD-AM-249-163-N.jpg","img/neutralC/CFD-WM-023-001-N.jpg","img/neutralC/CFD-LF-212-066-N.jpg","1","1","1","1","0","1","0.399299999990035","0.518527999985963","0.477542500011623","1","1","1","1","1","1","1","1","1"
"250055","img/neutralC/CFD-LF-212-066-N.jpg","img/neutralC/CFD-AM-249-163-N.jpg","img/neutralC/CFD-BM-030-003-N.jpg","1","1","1","1","1","0","0.477542500011623","0.399299999990035","0.473726700001862","1","1","1","1","1","1","1","1","1"
"250055","img/neutralC/CFD-BM-030-003-N.jpg","img/neutralC/CFD-LF-212-066-N.jpg","img/neutralC/CFD-LF-222-147-N.jpg","1","1","1","0","1","0","0.473726700001862","0.477542500011623","0.467308000021148","1","1","1","1","1","1","1","1","1"
"250055","img/neutralC/CFD-LF-222-147-N.jpg","img/neutralC/CFD-BM-030-003-N.jpg","img/neutralC/CFD-IM-615-167-N.jpg","1","1","1","0","0","0","0.467308000021148","0.473726700001862","0.484978199994657","1","1","1","1","1","1","1","1","1"
"250055","img/neutralC/CFD-IM-615-167-N.jpg","img/neutralC/CFD-LF-222-147-N.jpg","img/neutralC/CFD-AM-243-212-N.jpg","1","1","1","0","0","1","0.484978199994657","0.467308000021148","0.496164299955126","1","1","1","1","1","1","1","1","1"
"250055","img/neutralC/CFD-AM-243-212-N.jpg","img/neutralC/CFD-IM-615-167-N.jpg","img/neutralC/CFD-BM-021-021-N.jpg","1","1","1","1","0","1","0.496164299955126","0.484978199994657","0.480793799972162","1","1","1","1","1","1","1","1","1"
"250055","img/neutralC/CFD-BM-021-021-N.jpg","img/neutralC/CFD-AM-243-212-N.jpg","img/neutralC/CFD-AM-219-101-N.jpg","1","1","1","1","1","0","0.480793799972162","0.496164299955126","0.50881319999462","1","1","1","1","1","1","1","1","1"
"250055","img/neutralC/CFD-AM-219-101-N.jpg","img/neutralC/CFD-BM-021-021-N.jpg","img/neutralC/CFD-MM-306-010-N.jpg","1","1","1","0","1","0","0.50881319999462","0.480793799972162","0.493410199997015","1","1","1","1","1","1","1","1","1"
"250055","img/neutralC/CFD-MM-306-010-N.jpg","img/neutralC/CFD-AM-219-101-N.jpg","img/neutralC/CFD-WF-207-014-N.jpg","1","1","1","0","0","1","0.493410199997015","0.50881319999462","0.478025400021579","1","1","1","1","1","1","1","1","1"
"250055","img/neutralC/CFD-WF-207-014-N.jpg","img/neutralC/CFD-MM-306-010-N.jpg","img/neutralC/CFD-LM-240-013-N.jpg","1","1","1","1","0","1","0.478025400021579","0.493410199997015","0.361942599993199","1","1","1","1","1","1","1","1","1"
"250055","img/neutralC/CFD-LM-240-013-N.jpg","img/neutralC/CFD-WF-207-014-N.jpg","img/neutralC/CFD-IM-606-008-N.jpg","1","1","1","1","1","0","0.361942599993199","0.478025400021579","0.474661700020079","1","1","1","1","1","1","1","1","1"
"250055","img/neutralC/CFD-IM-606-008-N.jpg","img/neutralC/CFD-LM-240-013-N.jpg","img/neutralC/CFD-IF-676-017-N.jpg","1","1","1","0","1","1","0.474661700020079","0.361942599993199","0.443868800008204","1","1","1","1","1","1","1","1","1"
"250055","img/neutralC/CFD-IF-676-017-N.jpg","img/neutralC/CFD-IM-606-008-N.jpg","img/neutralC/CFD-BM-227-191-N.jpg","1","1","0","1","0","1","0.443868800008204","0.474661700020079","0.639237599971239","1","1","1","1","1","1","1","1","1"
"250055","img/neutralC/CFD-BM-227-191-N.jpg","img/neutralC/CFD-IF-676-017-N.jpg",NA,"0","1",NA,"1","1",NA,"0.639237599971239","0.443868800008204",NA,"1","1",NA,"1","1",NA,"1","1",NA
"250055","img/neutralC/CFD-WF-023-003-N.jpg",NA,"img/neutralC/CFD-LF-215-157-N.jpg","1",NA,"1","1",NA,"0","0.715095699997619",NA,"0.773212500032969","1",NA,"1","1",NA,"1","1",NA,"1"
"250055","img/neutralC/CFD-LF-215-157-N.jpg","img/neutralC/CFD-WF-023-003-N.jpg","img/neutralC/CFD-IM-627-178-N.jpg","1","1","1","0","1","1","0.773212500032969","0.715095699997619","0.46440719999373","1","1","1","1","1","1","1","1","1"
"250055","img/neutralC/CFD-IM-627-178-N.jpg","img/neutralC/CFD-LF-215-157-N.jpg","img/neutralC/CFD-MF-318-022-N.jpg","1","1","1","1","0","1","0.46440719999373","0.773212500032969","0.406062199966982","1","1","1","1","1","1","1","1","1"
"250055","img/neutralC/CFD-MF-318-022-N.jpg","img/neutralC/CFD-IM-627-178-N.jpg","img/neutralC/CFD-BM-023-029-N.jpg","1","1","1","1","1","1","0.406062199966982","0.46440719999373","0.477651299966965","1","1","1","1","1","1","1","1","1"
"250055","img/neutralC/CFD-BM-023-029-N.jpg","img/neutralC/CFD-MF-318-022-N.jpg","img/neutralC/CFD-WF-027-003-N.jpg","1","1","1","1","1","1","0.477651299966965","0.406062199966982","0.397587799991015","1","1","1","1","1","1","1","1","1"
"250055","img/neutralC/CFD-WF-027-003-N.jpg","img/neutralC/CFD-BM-023-029-N.jpg","img/neutralC/CFD-WM-237-052-N.jpg","1","1","1","1","1","1","0.397587799991015","0.477651299966965","0.431369500001893","1","1","1","1","1","1","1","1","1"
"250055","img/neutralC/CFD-WM-237-052-N.jpg","img/neutralC/CFD-WF-027-003-N.jpg","img/neutralC/CFD-WM-009-002-N.jpg","1","1","1","1","1","0","0.431369500001893","0.397587799991015","0.479581599996891","1","1","1","1","1","1","1","1","1"
"250055","img/neutralC/CFD-WM-009-002-N.jpg","img/neutralC/CFD-WM-237-052-N.jpg","img/neutralC/CFD-AF-221-147-N.jpg","1","1","1","0","1","0","0.479581599996891","0.431369500001893","0.534120700031053","1","1","1","1","1","1","1","1","1"
"250055","img/neutralC/CFD-AF-221-147-N.jpg","img/neutralC/CFD-WM-009-002-N.jpg","img/neutralC/CFD-WF-245-084-N.jpg","1","1","1","0","0","1","0.534120700031053","0.479581599996891","0.408790300018154","1","1","1","1","1","1","1","1","1"
"250055","img/neutralC/CFD-WF-245-084-N.jpg","img/neutralC/CFD-AF-221-147-N.jpg","img/neutralC/CFD-AM-244-222-N.jpg","1","1","1","1","0","0","0.408790300018154","0.534120700031053","0.442714900011197","1","1","1","1","1","1","1","1","1"
"250055","img/neutralC/CFD-AM-244-222-N.jpg","img/neutralC/CFD-WF-245-084-N.jpg","img/neutralC/CFD-LF-211-003-N.jpg","1","1","1","0","1","0","0.442714900011197","0.408790300018154","0.463033800013363","1","1","1","1","1","1","1","1","1"
"250055","img/neutralC/CFD-LF-211-003-N.jpg","img/neutralC/CFD-AM-244-222-N.jpg","img/neutralC/CFD-MM-321-021-N.jpg","1","1","1","0","0","0","0.463033800013363","0.442714900011197","0.392576300015207","1","1","1","1","1","1","1","1","1"
"250055","img/neutralC/CFD-MM-321-021-N.jpg","img/neutralC/CFD-LF-211-003-N.jpg","img/neutralC/CFD-AF-232-078-N.jpg","1","1","1","0","0","1","0.392576300015207","0.463033800013363","0.393898999958765","1","1","1","1","1","1","1","1","1"
"250055","img/neutralC/CFD-AF-232-078-N.jpg","img/neutralC/CFD-MM-321-021-N.jpg","img/neutralC/CFD-WF-238-023-N.jpg","1","1","1","1","0","0","0.393898999958765","0.392576300015207","0.545859200006817","1","1","1","1","1","1","1","1","1"
"250055","img/neutralC/CFD-WF-238-023-N.jpg","img/neutralC/CFD-AF-232-078-N.jpg","img/neutralC/CFD-BM-200-046-N.jpg","1","1","1","0","1","0","0.545859200006817","0.393898999958765","0.62795269995695","1","1","1","1","1","1","1","1","1"
"250055","img/neutralC/CFD-BM-200-046-N.jpg","img/neutralC/CFD-WF-238-023-N.jpg","img/neutralC/CFD-WM-013-001-N.jpg","1","1","1","0","0","1","0.62795269995695","0.545859200006817","0.497428099974059","1","1","1","1","1","1","1","1","1"
"250055","img/neutralC/CFD-WM-013-001-N.jpg","img/neutralC/CFD-BM-200-046-N.jpg","img/neutralC/CFD-BM-204-003-N.jpg","1","1","1","1","0","0","0.497428099974059","0.62795269995695","0.609504599997308","1","1","1","1","1","1","1","1","1"
"250055","img/neutralC/CFD-BM-204-003-N.jpg","img/neutralC/CFD-WM-013-001-N.jpg","img/neutralC/CFD-WM-255-219-N.jpg","1","1","1","0","1","0","0.609504599997308","0.497428099974059","0.510796900023706","1","1","1","1","1","1","1","1","1"
"250055","img/neutralC/CFD-WM-255-219-N.jpg","img/neutralC/CFD-BM-204-003-N.jpg","img/neutralC/CFD-LM-253-075-N.jpg","1","1","1","0","0","0","0.510796900023706","0.609504599997308","0.632114999985788","1","1","1","1","1","1","1","1","1"
"250055","img/neutralC/CFD-LM-253-075-N.jpg","img/neutralC/CFD-WM-255-219-N.jpg","img/neutralC/CFD-WF-226-095-N.jpg","1","1","1","0","0","1","0.632114999985788","0.510796900023706","0.44668150000507","1","1","1","1","1","1","1","1","1"
"250055","img/neutralC/CFD-WF-226-095-N.jpg","img/neutralC/CFD-LM-253-075-N.jpg","img/neutralC/CFD-WM-201-063-N.jpg","1","1","1","1","0","1","0.44668150000507","0.632114999985788","0.442678399966098","1","1","1","1","1","1","1","1","1"
"250055","img/neutralC/CFD-WM-201-063-N.jpg","img/neutralC/CFD-WF-226-095-N.jpg","img/neutralC/CFD-WF-018-017-N.jpg","1","1","1","1","1","1","0.442678399966098","0.44668150000507","0.447041700012051","1","1","1","1","1","1","1","1","1"
"250055","img/neutralC/CFD-WF-018-017-N.jpg","img/neutralC/CFD-WM-201-063-N.jpg","img/neutralC/CFD-MF-321-003-N.jpg","1","1","1","1","1","0","0.447041700012051","0.442678399966098","0.447639799967874","1","1","1","1","1","1","1","1","1"
"250055","img/neutralC/CFD-MF-321-003-N.jpg","img/neutralC/CFD-WF-018-017-N.jpg","img/neutralC/CFD-IM-719-221-N.jpg","1","1","1","0","1","0","0.447639799967874","0.447041700012051","0.434674599964637","1","1","1","1","1","1","1","1","1"
"250055","img/neutralC/CFD-IM-719-221-N.jpg","img/neutralC/CFD-MF-321-003-N.jpg","img/neutralC/CFD-BF-018-039-N.jpg","1","1","1","0","0","1","0.434674599964637","0.447639799967874","0.394920200051274","1","1","1","1","1","1","1","1","1"
"250055","img/neutralC/CFD-BF-018-039-N.jpg","img/neutralC/CFD-IM-719-221-N.jpg","img/neutralC/CFD-MF-342-022-N.jpg","1","1","1","1","0","1","0.394920200051274","0.434674599964637","0.461909599951468","1","1","1","1","1","1","1","1","1"
"250055","img/neutralC/CFD-MF-342-022-N.jpg","img/neutralC/CFD-BF-018-039-N.jpg","img/neutralC/CFD-BF-254-201-N.jpg","1","1","1","1","1","0","0.461909599951468","0.394920200051274","0.462710699997842","1","1","1","1","1","1","1","1","1"
"250055","img/neutralC/CFD-BF-254-201-N.jpg","img/neutralC/CFD-MF-342-022-N.jpg","img/neutralC/CFD-WM-221-091-N.jpg","1","1","1","0","1","0","0.462710699997842","0.461909599951468","0.568722500000149","1","1","1","1","1","1","1","1","1"
"250055","img/neutralC/CFD-WM-221-091-N.jpg","img/neutralC/CFD-BF-254-201-N.jpg","img/neutralC/CFD-BF-218-207-N.jpg","1","1","1","0","0","1","0.568722500000149","0.462710699997842","0.461508999986108","1","1","1","1","1","1","1","1","1"
"250055","img/neutralC/CFD-BF-218-207-N.jpg","img/neutralC/CFD-WM-221-091-N.jpg","img/neutralC/CFD-IF-629-234-N.jpg","1","1","1","1","0","0","0.461508999986108","0.568722500000149","0.52836140000727","1","1","1","1","1","1","1","1","1"
"250055","img/neutralC/CFD-IF-629-234-N.jpg","img/neutralC/CFD-BF-218-207-N.jpg","img/neutralC/CFD-IM-700-009-N.jpg","1","1","1","0","1","1","0.52836140000727","0.461508999986108","0.478815899987239","1","1","1","1","1","1","1","1","1"
"250055","img/neutralC/CFD-IM-700-009-N.jpg","img/neutralC/CFD-IF-629-234-N.jpg",NA,"1","1",NA,"1","0",NA,"0.478815899987239","0.52836140000727",NA,"1","1",NA,"1","1",NA,"1","1",NA
"250055","img/neutralC/CFD-BM-211-174-N.jpg",NA,"img/neutralC/CFD-IM-728-041-N.jpg","0",NA,"1","0",NA,"0","0.858563199988566",NA,"0.449985200015362","1",NA,"1","1",NA,"1","1",NA,"1"
"250055","img/neutralC/CFD-IM-728-041-N.jpg","img/neutralC/CFD-BM-211-174-N.jpg","img/neutralC/CFD-AM-215-120-N.jpg","1","0","1","0","0","1","0.449985200015362","0.858563199988566","0.404828800004907","1","1","1","1","1","1","1","1","1"
"250055","img/neutralC/CFD-AM-215-120-N.jpg","img/neutralC/CFD-IM-728-041-N.jpg","img/neutralC/CFD-LF-236-221-N.jpg","1","1","1","1","0","1","0.404828800004907","0.449985200015362","0.40721630002372","1","1","1","1","1","1","1","1","1"
"250055","img/neutralC/CFD-LF-236-221-N.jpg","img/neutralC/CFD-AM-215-120-N.jpg","img/neutralC/CFD-BM-027-001-N.jpg","1","1","1","1","1","0","0.40721630002372","0.404828800004907","0.473230100004003","1","1","1","1","1","1","1","1","1"
"250055","img/neutralC/CFD-BM-027-001-N.jpg","img/neutralC/CFD-LF-236-221-N.jpg","img/neutralC/CFD-WM-040-022-N.jpg","1","1","1","0","1","0","0.473230100004003","0.40721630002372","0.435691399965435","1","1","1","1","1","1","1","1","1"
"250055","img/neutralC/CFD-WM-040-022-N.jpg","img/neutralC/CFD-BM-027-001-N.jpg","img/neutralC/CFD-WM-038-003-N.jpg","1","1","1","0","0","0","0.435691399965435","0.473230100004003","0.395666399970651","1","1","1","1","1","1","1","1","1"
"250055","img/neutralC/CFD-WM-038-003-N.jpg","img/neutralC/CFD-WM-040-022-N.jpg","img/neutralC/CFD-WF-002-004-N.jpg","1","1","1","0","0","0","0.395666399970651","0.435691399965435","0.430621100007556","1","1","1","1","1","1","1","1","1"
"250055","img/neutralC/CFD-WF-002-004-N.jpg","img/neutralC/CFD-WM-038-003-N.jpg","img/neutralC/CFD-BF-201-080-N.jpg","1","1","1","0","0","1","0.430621100007556","0.395666399970651","0.39240199996857","1","1","1","1","1","1","1","1","1"
"250055","img/neutralC/CFD-BF-201-080-N.jpg","img/neutralC/CFD-WF-002-004-N.jpg","img/neutralC/CFD-AM-217-085-N.jpg","1","1","1","1","0","0","0.39240199996857","0.430621100007556","0.341867499984801","1","1","1","1","1","1","1","1","1"
"250055","img/neutralC/CFD-AM-217-085-N.jpg","img/neutralC/CFD-BF-201-080-N.jpg","img/neutralC/CFD-BF-003-003-N.jpg","1","1","1","0","1","0","0.341867499984801","0.39240199996857","0.360622200008947","1","1","1","1","1","1","1","1","1"
"250055","img/neutralC/CFD-BF-003-003-N.jpg","img/neutralC/CFD-AM-217-085-N.jpg","img/neutralC/CFD-WF-022-017-N.jpg","1","1","1","0","0","0","0.360622200008947","0.341867499984801","0.381561899965163","1","1","1","1","1","1","1","1","1"
"250055","img/neutralC/CFD-WF-022-017-N.jpg","img/neutralC/CFD-BF-003-003-N.jpg","img/neutralC/CFD-IF-718-001-N.jpg","1","1","1","0","0","1","0.381561899965163","0.360622200008947","0.459935799997766","1","1","1","1","1","1","1","1","1"
"250055","img/neutralC/CFD-IF-718-001-N.jpg","img/neutralC/CFD-WF-022-017-N.jpg","img/neutralC/CFD-MM-319-052-N.jpg","1","1","1","1","0","1","0.459935799997766","0.381561899965163","0.293497800012119","1","1","1","1","1","1","1","1","1"
"250055","img/neutralC/CFD-MM-319-052-N.jpg","img/neutralC/CFD-IF-718-001-N.jpg","img/neutralC/CFD-IM-639-263-N.jpg","1","1","1","1","1","1","0.293497800012119","0.459935799997766","0.355811599991284","1","1","1","1","1","1","1","1","1"
"250055","img/neutralC/CFD-IM-639-263-N.jpg","img/neutralC/CFD-MM-319-052-N.jpg","img/neutralC/CFD-BF-208-266-N.jpg","1","1","1","1","1","0","0.355811599991284","0.293497800012119","0.452633499982767","1","1","1","1","1","1","1","1","1"
"250055","img/neutralC/CFD-BF-208-266-N.jpg","img/neutralC/CFD-IM-639-263-N.jpg","img/neutralC/CFD-BM-247-240-N.jpg","1","1","1","0","1","0","0.452633499982767","0.355811599991284","0.358185499964748","1","1","1","1","1","1","1","1","1"
"250055","img/neutralC/CFD-BM-247-240-N.jpg","img/neutralC/CFD-BF-208-266-N.jpg","img/neutralC/CFD-AM-235-241-N.jpg","1","1","1","0","0","0","0.358185499964748","0.452633499982767","0.564167100004852","1","1","1","1","1","1","1","1","1"
"250055","img/neutralC/CFD-AM-235-241-N.jpg","img/neutralC/CFD-BM-247-240-N.jpg","img/neutralC/CFD-LM-252-076-N.jpg","1","1","1","0","0","1","0.564167100004852","0.358185499964748","0.392916399985552","1","1","1","1","1","1","1","1","1"
"250055","img/neutralC/CFD-LM-252-076-N.jpg","img/neutralC/CFD-AM-235-241-N.jpg","img/neutralC/CFD-WM-225-127-N.jpg","1","1","1","1","0","0","0.392916399985552","0.564167100004852","0.438137600023765","1","1","1","1","1","1","1","1","1"
"250055","img/neutralC/CFD-WM-225-127-N.jpg","img/neutralC/CFD-LM-252-076-N.jpg","img/neutralC/CFD-IF-672-305-N.jpg","1","1","1","0","1","0","0.438137600023765","0.392916399985552","0.429211399983615","1","1","1","1","1","1","1","1","1"
"250055","img/neutralC/CFD-IF-672-305-N.jpg","img/neutralC/CFD-WM-225-127-N.jpg","img/neutralC/CFD-WF-026-002-N.jpg","1","1","1","0","0","1","0.429211399983615","0.438137600023765","0.39912140002707","1","1","1","1","1","1","1","1","1"
"250055","img/neutralC/CFD-WF-026-002-N.jpg","img/neutralC/CFD-IF-672-305-N.jpg","img/neutralC/CFD-BF-204-189-N.jpg","1","1","1","1","0","1","0.39912140002707","0.429211399983615","0.432797899993602","1","1","1","1","1","1","1","1","1"
"250055","img/neutralC/CFD-BF-204-189-N.jpg","img/neutralC/CFD-WF-026-002-N.jpg","img/neutralC/CFD-BF-028-001-N.jpg","1","1","1","1","1","1","0.432797899993602","0.39912140002707","0.358196200046223","1","1","1","1","1","1","1","1","1"
"250055","img/neutralC/CFD-BF-028-001-N.jpg","img/neutralC/CFD-BF-204-189-N.jpg","img/neutralC/CFD-BM-029-024-N.jpg","1","1","1","1","1","1","0.358196200046223","0.432797899993602","0.366290499980096","1","1","1","1","1","1","1","1","1"
"250055","img/neutralC/CFD-BM-029-024-N.jpg","img/neutralC/CFD-BF-028-001-N.jpg","img/neutralC/CFD-IM-674-281-N.jpg","1","1","1","1","1","1","0.366290499980096","0.358196200046223","0.418587799998932","1","1","1","1","1","1","1","1","1"
"250055","img/neutralC/CFD-IM-674-281-N.jpg","img/neutralC/CFD-BM-029-024-N.jpg","img/neutralC/CFD-BF-023-010-N.jpg","1","1","1","1","1","1","0.418587799998932","0.366290499980096","0.347522499971092","1","1","1","1","1","1","1","1","1"
"250055","img/neutralC/CFD-BF-023-010-N.jpg","img/neutralC/CFD-IM-674-281-N.jpg","img/neutralC/CFD-WM-257-161-N.jpg","1","1","1","1","1","1","0.347522499971092","0.418587799998932","0.385658999963198","1","1","1","1","1","1","1","1","1"
"250055","img/neutralC/CFD-WM-257-161-N.jpg","img/neutralC/CFD-BF-023-010-N.jpg","img/neutralC/CFD-WM-002-009-N.jpg","1","1","1","1","1","0","0.385658999963198","0.347522499971092","0.44501039996976","1","1","1","1","1","1","1","1","1"
"250055","img/neutralC/CFD-WM-002-009-N.jpg","img/neutralC/CFD-WM-257-161-N.jpg","img/neutralC/CFD-BF-255-140-N.jpg","1","1","1","0","1","1","0.44501039996976","0.385658999963198","0.42616580001777","1","1","1","1","1","1","1","1","1"
"250055","img/neutralC/CFD-BF-255-140-N.jpg","img/neutralC/CFD-WM-002-009-N.jpg","img/neutralC/CFD-LF-216-121-N.jpg","1","1","1","1","0","1","0.42616580001777","0.44501039996976","0.417141199985053","1","1","1","1","1","1","1","1","1"
"250055","img/neutralC/CFD-LF-216-121-N.jpg","img/neutralC/CFD-BF-255-140-N.jpg","img/neutralC/CFD-BM-015-015-N.jpg","1","1","1","1","1","0","0.417141199985053","0.42616580001777","0.350618200027384","1","1","1","1","1","1","1","1","1"
"250055","img/neutralC/CFD-BM-015-015-N.jpg","img/neutralC/CFD-LF-216-121-N.jpg",NA,"1","1",NA,"0","1",NA,"0.350618200027384","0.417141199985053",NA,"1","1",NA,"1","1",NA,"1","1",NA
"250055","img/neutralC/CFD-MF-335-002-N.jpg",NA,"img/neutralC/CFD-WM-006-002-N.jpg","0",NA,"0","0",NA,"0","1.01103250001324",NA,"0.447022200038191","1",NA,"1","1",NA,"1","1",NA,"1"
"250055","img/neutralC/CFD-WM-006-002-N.jpg","img/neutralC/CFD-MF-335-002-N.jpg","img/neutralC/CFD-LM-214-165-N.jpg","0","0","1","0","0","1","0.447022200038191","1.01103250001324","0.470034300000407","1","1","1","1","1","1","1","1","1"
"250055","img/neutralC/CFD-LM-214-165-N.jpg","img/neutralC/CFD-WM-006-002-N.jpg","img/neutralC/CFD-BM-251-013-N.jpg","1","0","1","1","0","1","0.470034300000407","0.447022200038191","0.321805600018706","1","1","1","1","1","1","1","1","1"
"250055","img/neutralC/CFD-BM-251-013-N.jpg","img/neutralC/CFD-LM-214-165-N.jpg","img/neutralC/CFD-BM-205-001-N.jpg","1","1","1","1","1","0","0.321805600018706","0.470034300000407","0.593521000002511","1","1","1","1","1","1","1","1","1"
"250055","img/neutralC/CFD-BM-205-001-N.jpg","img/neutralC/CFD-BM-251-013-N.jpg","img/neutralC/CFD-WM-026-001-N.jpg","1","1","1","0","1","1","0.593521000002511","0.321805600018706","0.368014500010759","1","1","1","1","1","1","1","1","1"
"250055","img/neutralC/CFD-WM-026-001-N.jpg","img/neutralC/CFD-BM-205-001-N.jpg","img/neutralC/CFD-WM-212-097-N.jpg","1","1","0","1","0","0","0.368014500010759","0.593521000002511","0.446616399975028","1","1","1","1","1","1","1","1","1"
"250055","img/neutralC/CFD-WM-212-097-N.jpg","img/neutralC/CFD-WM-026-001-N.jpg","img/neutralC/CFD-WM-019-003-N.jpg","0","1","1","0","1","1","0.446616399975028","0.368014500010759","0.497473999974318","1","1","1","1","1","1","1","1","1"
"250055","img/neutralC/CFD-WM-019-003-N.jpg","img/neutralC/CFD-WM-212-097-N.jpg","img/neutralC/CFD-WF-240-083-N.jpg","1","0","1","1","0","0","0.497473999974318","0.446616399975028","0.696049399964977","1","1","1","1","1","1","1","1","1"
"250055","img/neutralC/CFD-WF-240-083-N.jpg","img/neutralC/CFD-WM-019-003-N.jpg","img/neutralC/CFD-LM-201-057-N.jpg","1","1","1","0","1","1","0.696049399964977","0.497473999974318","0.533494999981485","1","1","1","1","1","1","1","1","1"
"250055","img/neutralC/CFD-LM-201-057-N.jpg","img/neutralC/CFD-WF-240-083-N.jpg","img/neutralC/CFD-BF-041-001-N.jpg","1","1","1","1","0","1","0.533494999981485","0.696049399964977","0.343471500033047","1","1","1","1","1","1","1","1","1"
"250055","img/neutralC/CFD-BF-041-001-N.jpg","img/neutralC/CFD-LM-201-057-N.jpg","img/neutralC/CFD-IF-642-295-N.jpg","1","1","1","1","1","1","0.343471500033047","0.533494999981485","0.42893869994441","1","1","1","1","1","1","1","1","1"
"250055","img/neutralC/CFD-IF-642-295-N.jpg","img/neutralC/CFD-BF-041-001-N.jpg","img/neutralC/CFD-WM-249-239-N.jpg","1","1","1","1","1","1","0.42893869994441","0.343471500033047","0.378825499967206","1","1","1","1","1","1","1","1","1"
"250055","img/neutralC/CFD-WM-249-239-N.jpg","img/neutralC/CFD-IF-642-295-N.jpg","img/neutralC/CFD-WF-005-010-N.jpg","1","1","1","1","1","0","0.378825499967206","0.42893869994441","0.465138099971227","1","1","1","1","1","1","1","1","1"
"250055","img/neutralC/CFD-WF-005-010-N.jpg","img/neutralC/CFD-WM-249-239-N.jpg","img/neutralC/CFD-LM-244-068-N.jpg","1","1","1","0","1","1","0.465138099971227","0.378825499967206","0.356704300036654","1","1","1","1","1","1","1","1","1"
"250055","img/neutralC/CFD-LM-244-068-N.jpg","img/neutralC/CFD-WF-005-010-N.jpg","img/neutralC/CFD-BM-248-128-N.jpg","1","1","1","1","0","0","0.356704300036654","0.465138099971227","0.51560809998773","1","1","1","1","1","1","1","1","1"
"250055","img/neutralC/CFD-BM-248-128-N.jpg","img/neutralC/CFD-LM-244-068-N.jpg","img/neutralC/CFD-MF-309-002-N.jpg","1","1","1","0","1","0","0.51560809998773","0.356704300036654","0.641176900011487","1","1","1","1","1","1","1","1","1"
"250055","img/neutralC/CFD-MF-309-002-N.jpg","img/neutralC/CFD-BM-248-128-N.jpg","img/neutralC/CFD-IM-648-337-N.jpg","1","1","1","0","0","0","0.641176900011487","0.51560809998773","0.412105800001882","1","1","1","1","1","1","1","1","1"
"250055","img/neutralC/CFD-IM-648-337-N.jpg","img/neutralC/CFD-MF-309-002-N.jpg","img/neutralC/CFD-WF-017-003-N.jpg","1","1","1","0","0","1","0.412105800001882","0.641176900011487","0.455952499993146","1","1","1","1","1","1","1","1","1"
"250055","img/neutralC/CFD-WF-017-003-N.jpg","img/neutralC/CFD-IM-648-337-N.jpg","img/neutralC/CFD-WM-012-001-N.jpg","1","1","1","1","0","1","0.455952499993146","0.412105800001882","0.419837299967185","1","1","1","1","1","1","1","1","1"
"250055","img/neutralC/CFD-WM-012-001-N.jpg","img/neutralC/CFD-WF-017-003-N.jpg","img/neutralC/CFD-WF-228-196-N.jpg","1","1","1","1","1","0","0.419837299967185","0.455952499993146","0.442328399978578","1","1","1","1","1","1","1","1","1"
"250055","img/neutralC/CFD-WF-228-196-N.jpg","img/neutralC/CFD-WM-012-001-N.jpg","img/neutralC/CFD-BF-212-315-N.jpg","1","1","1","0","1","1","0.442328399978578","0.419837299967185","0.4177389999968","1","1","1","1","1","1","1","1","1"
"250055","img/neutralC/CFD-BF-212-315-N.jpg","img/neutralC/CFD-WF-228-196-N.jpg","img/neutralC/CFD-BF-202-109-N.jpg","1","1","1","1","0","1","0.4177389999968","0.442328399978578","0.340780799975619","1","1","1","1","1","1","1","1","1"
"250055","img/neutralC/CFD-BF-202-109-N.jpg","img/neutralC/CFD-BF-212-315-N.jpg","img/neutralC/CFD-AF-240-206-N.jpg","1","1","1","1","1","0","0.340780799975619","0.4177389999968","0.437141100002918","1","1","1","1","1","1","1","1","1"
"250055","img/neutralC/CFD-AF-240-206-N.jpg","img/neutralC/CFD-BF-202-109-N.jpg","img/neutralC/CFD-AM-247-165-N.jpg","1","1","1","0","1","1","0.437141100002918","0.340780799975619","0.511131300008856","1","1","1","1","1","1","1","1","1"
"250055","img/neutralC/CFD-AM-247-165-N.jpg","img/neutralC/CFD-AF-240-206-N.jpg","img/neutralC/CFD-BF-025-002-N.jpg","1","1","1","1","0","0","0.511131300008856","0.437141100002918","0.42662390001351","1","1","1","1","1","1","1","1","1"
"250055","img/neutralC/CFD-BF-025-002-N.jpg","img/neutralC/CFD-AM-247-165-N.jpg","img/neutralC/CFD-BF-228-212-N.jpg","1","1","1","0","1","0","0.42662390001351","0.511131300008856","0.403174100036267","1","1","1","1","1","1","1","1","1"
"250055","img/neutralC/CFD-BF-228-212-N.jpg","img/neutralC/CFD-BF-025-002-N.jpg","img/neutralC/CFD-WM-215-041-N.jpg","1","1","1","0","0","0","0.403174100036267","0.42662390001351","0.428346899978351","1","1","1","1","1","1","1","1","1"
"250055","img/neutralC/CFD-WM-215-041-N.jpg","img/neutralC/CFD-BF-228-212-N.jpg","img/neutralC/CFD-LM-216-082-N.jpg","1","1","1","0","0","0","0.428346899978351","0.403174100036267","0.411510600009933","1","1","1","1","1","1","1","1","1"
"250055","img/neutralC/CFD-LM-216-082-N.jpg","img/neutralC/CFD-WM-215-041-N.jpg","img/neutralC/CFD-IM-646-023-N.jpg","1","1","1","0","0","1","0.411510600009933","0.428346899978351","0.352577699988615","1","1","1","1","1","1","1","1","1"
"250055","img/neutralC/CFD-IM-646-023-N.jpg","img/neutralC/CFD-LM-216-082-N.jpg","img/neutralC/CFD-MM-317-061-N.jpg","1","1","1","1","0","1","0.352577699988615","0.411510600009933","0.405408599996008","1","1","1","1","1","1","1","1","1"
"250055","img/neutralC/CFD-MM-317-061-N.jpg","img/neutralC/CFD-IM-646-023-N.jpg","img/neutralC/CFD-LM-243-075-N.jpg","1","1","1","1","1","0","0.405408599996008","0.352577699988615","0.468545100011397","1","1","1","1","1","1","1","1","1"
"250055","img/neutralC/CFD-LM-243-075-N.jpg","img/neutralC/CFD-MM-317-061-N.jpg",NA,"1","1",NA,"0","1",NA,"0.468545100011397","0.405408599996008",NA,"1","1",NA,"1","1",NA,"1","1",NA
"250055","img/neutralC/CFD-LF-226-174-N.jpg",NA,"img/neutralC/CFD-WF-012-002-N.jpg","0",NA,"1","0",NA,"1","0.959129099966958",NA,"0.493718200013973","1",NA,"1","1",NA,"1","1",NA,"1"
"250055","img/neutralC/CFD-WF-012-002-N.jpg","img/neutralC/CFD-LF-226-174-N.jpg","img/neutralC/CFD-MF-329-001-N.jpg","1","0","1","1","0","0","0.493718200013973","0.959129099966958","0.473049299966078","1","1","1","1","1","1","1","1","1"
"250055","img/neutralC/CFD-MF-329-001-N.jpg","img/neutralC/CFD-WF-012-002-N.jpg","img/neutralC/CFD-IF-619-197-N.jpg","1","1","1","0","1","0","0.473049299966078","0.493718200013973","0.489676399971358","1","1","1","1","1","1","1","1","1"
"250055","img/neutralC/CFD-IF-619-197-N.jpg","img/neutralC/CFD-MF-329-001-N.jpg","img/neutralC/CFD-WF-008-002-N.jpg","1","1","1","0","0","1","0.489676399971358","0.473049299966078","0.396667000022717","1","1","1","1","1","1","1","1","1"
"250055","img/neutralC/CFD-WF-008-002-N.jpg","img/neutralC/CFD-IF-619-197-N.jpg","img/neutralC/CFD-IM-685-004-N.jpg","1","1","1","1","0","1","0.396667000022717","0.489676399971358","0.358777999994345","1","1","1","1","1","1","1","1","1"
"250055","img/neutralC/CFD-IM-685-004-N.jpg","img/neutralC/CFD-WF-008-002-N.jpg","img/neutralC/CFD-BF-224-002-N.jpg","1","1","1","1","1","1","0.358777999994345","0.396667000022717","0.408207400003448","1","1","1","1","1","1","1","1","1"
"250055","img/neutralC/CFD-BF-224-002-N.jpg","img/neutralC/CFD-IM-685-004-N.jpg","img/neutralC/CFD-WF-212-050-N.jpg","1","1","1","1","1","0","0.408207400003448","0.358777999994345","0.373340599995572","1","1","1","1","1","1","1","1","1"
"250055","img/neutralC/CFD-WF-212-050-N.jpg","img/neutralC/CFD-BF-224-002-N.jpg","img/neutralC/CFD-WM-024-015-N.jpg","1","1","1","0","1","1","0.373340599995572","0.408207400003448","0.374696500017308","1","1","1","1","1","1","1","1","1"
"250055","img/neutralC/CFD-WM-024-015-N.jpg","img/neutralC/CFD-WF-212-050-N.jpg","img/neutralC/CFD-IM-604-014-N.jpg","1","1","1","1","0","0","0.374696500017308","0.373340599995572","0.560003400023561","1","1","1","1","1","1","1","1","1"
"250055","img/neutralC/CFD-IM-604-014-N.jpg","img/neutralC/CFD-WM-024-015-N.jpg","img/neutralC/CFD-AF-215-70-N.jpg","1","1","1","0","1","0","0.560003400023561","0.374696500017308","0.608404800004791","1","1","1","1","1","1","1","1","1"
"250055","img/neutralC/CFD-AF-215-70-N.jpg","img/neutralC/CFD-IM-604-014-N.jpg","img/neutralC/CFD-BF-043-003-N.jpg","1","1","1","0","0","0","0.608404800004791","0.560003400023561","0.428262000030372","1","1","1","1","1","1","1","1","1"
"250055","img/neutralC/CFD-BF-043-003-N.jpg","img/neutralC/CFD-AF-215-70-N.jpg","img/neutralC/CFD-WF-248-129-N.jpg","1","1","1","0","0","0","0.428262000030372","0.608404800004791","0.455691499984823","1","1","1","1","1","1","1","1","1"
"250055","img/neutralC/CFD-WF-248-129-N.jpg","img/neutralC/CFD-BF-043-003-N.jpg","img/neutralC/CFD-MF-340-026-N.jpg","1","1","1","0","0","1","0.455691499984823","0.428262000030372","0.585590399976354","1","1","1","1","1","1","1","1","1"
"250055","img/neutralC/CFD-MF-340-026-N.jpg","img/neutralC/CFD-WF-248-129-N.jpg","img/neutralC/CFD-AF-229-160-N.jpg","1","1","1","1","0","0","0.585590399976354","0.455691499984823","0.431875400012359","1","1","1","1","1","1","1","1","1"
"250055","img/neutralC/CFD-AF-229-160-N.jpg","img/neutralC/CFD-MF-340-026-N.jpg","img/neutralC/CFD-AF-254-167-N.jpg","1","1","1","0","1","1","0.431875400012359","0.585590399976354","0.383764200028963","1","1","1","1","1","1","1","1","1"
"250055","img/neutralC/CFD-AF-254-167-N.jpg","img/neutralC/CFD-AF-229-160-N.jpg","img/neutralC/CFD-IM-637-007-N.jpg","1","1","1","1","0","0","0.383764200028963","0.431875400012359","0.418477600032929","1","1","1","1","1","1","1","1","1"
"250055","img/neutralC/CFD-IM-637-007-N.jpg","img/neutralC/CFD-AF-254-167-N.jpg","img/neutralC/CFD-BM-243-218-N.jpg","1","1","1","0","1","1","0.418477600032929","0.383764200028963","0.469246900000144","1","1","1","1","1","1","1","1","1"
"250055","img/neutralC/CFD-BM-243-218-N.jpg","img/neutralC/CFD-IM-637-007-N.jpg","img/neutralC/CFD-IF-608-390-N.jpg","1","1","1","1","0","1","0.469246900000144","0.418477600032929","0.372272399952635","1","1","1","1","1","1","1","1","1"
"250055","img/neutralC/CFD-IF-608-390-N.jpg","img/neutralC/CFD-BM-243-218-N.jpg","img/neutralC/CFD-IM-675-015-N.jpg","1","1","1","1","1","1","0.372272399952635","0.469246900000144","0.411639899946749","1","1","1","1","1","1","1","1","1"
"250055","img/neutralC/CFD-IM-675-015-N.jpg","img/neutralC/CFD-IF-608-390-N.jpg","img/neutralC/CFD-WM-213-076-N.jpg","1","1","1","1","1","1","0.411639899946749","0.372272399952635","0.460276799974963","1","1","1","1","1","1","1","1","1"
"250055","img/neutralC/CFD-WM-213-076-N.jpg","img/neutralC/CFD-IM-675-015-N.jpg","img/neutralC/CFD-LM-217-162-N.jpg","1","1","1","1","1","0","0.460276799974963","0.411639899946749","0.478151499992236","1","1","1","1","1","1","1","1","1"
"250055","img/neutralC/CFD-LM-217-162-N.jpg","img/neutralC/CFD-WM-213-076-N.jpg","img/neutralC/CFD-WM-232-070-N.jpg","1","1","1","0","1","0","0.478151499992236","0.460276799974963","0.528683500015177","1","1","1","1","1","1","1","1","1"
"250055","img/neutralC/CFD-WM-232-070-N.jpg","img/neutralC/CFD-LM-217-162-N.jpg","img/neutralC/CFD-MF-300-002-N.jpg","1","1","1","0","0","0","0.528683500015177","0.478151499992236","0.514395199948922","1","1","1","1","1","1","1","1","1"
"250055","img/neutralC/CFD-MF-300-002-N.jpg","img/neutralC/CFD-WM-232-070-N.jpg","img/neutralC/CFD-MM-304-002-N.jpg","1","1","1","0","0","1","0.514395199948922","0.528683500015177","0.367877800017595","1","1","1","1","1","1","1","1","1"
"250055","img/neutralC/CFD-MM-304-002-N.jpg","img/neutralC/CFD-MF-300-002-N.jpg","img/neutralC/CFD-MF-327-002-N.jpg","1","1","0","1","0","0","0.367877800017595","0.514395199948922","0.390689700026996","1","1","1","1","1","1","1","1","1"
"250055","img/neutralC/CFD-MF-327-002-N.jpg","img/neutralC/CFD-MM-304-002-N.jpg","img/neutralC/CFD-IM-709-103-N.jpg","0","1","1","0","1","0","0.390689700026996","0.367877800017595","0.509030300017912","1","1","1","1","1","1","1","1","1"
"250055","img/neutralC/CFD-IM-709-103-N.jpg","img/neutralC/CFD-MF-327-002-N.jpg","img/neutralC/CFD-BF-051-035-N.jpg","1","0","1","0","0","0","0.509030300017912","0.390689700026996","0.492579200014006","1","1","1","1","1","1","1","1","1"
"250055","img/neutralC/CFD-BF-051-035-N.jpg","img/neutralC/CFD-IM-709-103-N.jpg","img/neutralC/CFD-AM-236-090-N.jpg","1","1","1","0","0","1","0.492579200014006","0.509030300017912","0.388562300009653","1","1","1","1","1","1","1","1","1"
"250055","img/neutralC/CFD-AM-236-090-N.jpg","img/neutralC/CFD-BF-051-035-N.jpg","img/neutralC/CFD-WF-217-085-N.jpg","1","1","1","1","0","1","0.388562300009653","0.492579200014006","0.356542300025467","1","1","1","1","1","1","1","1","1"
"250055","img/neutralC/CFD-WF-217-085-N.jpg","img/neutralC/CFD-AM-236-090-N.jpg","img/neutralC/CFD-BM-039-029-N.jpg","1","1","1","1","1","1","0.356542300025467","0.388562300009653","0.598776500031818","1","1","1","1","1","1","1","1","1"
"250055","img/neutralC/CFD-BM-039-029-N.jpg","img/neutralC/CFD-WF-217-085-N.jpg","img/neutralC/CFD-LF-201-035-N.jpg","1","1","1","1","1","1","0.598776500031818","0.356542300025467","0.396527700009756","1","1","1","1","1","1","1","1","1"
"250055","img/neutralC/CFD-LF-201-035-N.jpg","img/neutralC/CFD-BM-039-029-N.jpg",NA,"1","1",NA,"1","1",NA,"0.396527700009756","0.598776500031818",NA,"1","1",NA,"1","1",NA,"1","1",NA
"250055","img/neutralC/CFD-IF-623-129-N.jpg",NA,"img/neutralC/CFD-BM-253-004-N.jpg","1",NA,"1","1",NA,"1","0.483075700001791",NA,"0.38960529997712","1",NA,"1","1",NA,"1","1",NA,"1"
"250055","img/neutralC/CFD-BM-253-004-N.jpg","img/neutralC/CFD-IF-623-129-N.jpg","img/neutralC/CFD-LM-228-188-N.jpg","1","1","1","1","1","1","0.38960529997712","0.483075700001791","0.547705800039694","1","1","1","1","1","1","1","1","1"
"250055","img/neutralC/CFD-LM-228-188-N.jpg","img/neutralC/CFD-BM-253-004-N.jpg","img/neutralC/CFD-IM-743-006-N.jpg","1","1","1","1","1","1","0.547705800039694","0.38960529997712","0.389069599972572","1","1","1","1","1","1","1","1","1"
"250055","img/neutralC/CFD-IM-743-006-N.jpg","img/neutralC/CFD-LM-228-188-N.jpg","img/neutralC/CFD-IM-671-601-N.jpg","1","1","1","1","1","0","0.389069599972572","0.547705800039694","0.531940999964718","1","1","1","1","1","1","1","1","1"
"250055","img/neutralC/CFD-IM-671-601-N.jpg","img/neutralC/CFD-IM-743-006-N.jpg","img/neutralC/CFD-MF-359-019-N.jpg","1","1","1","0","1","0","0.531940999964718","0.389069599972572","0.444170900038444","1","1","1","1","1","1","1","1","1"
"250055","img/neutralC/CFD-MF-359-019-N.jpg","img/neutralC/CFD-IM-671-601-N.jpg","img/neutralC/CFD-IM-703-182-N.jpg","1","1","1","0","0","1","0.444170900038444","0.531940999964718","0.406995900033507","1","1","1","1","1","1","1","1","1"
"250055","img/neutralC/CFD-IM-703-182-N.jpg","img/neutralC/CFD-MF-359-019-N.jpg","img/neutralC/CFD-WM-020-001-N.jpg","1","1","1","1","0","1","0.406995900033507","0.444170900038444","0.429848400002811","1","1","1","1","1","1","1","1","1"
"250055","img/neutralC/CFD-WM-020-001-N.jpg","img/neutralC/CFD-IM-703-182-N.jpg","img/neutralC/CFD-IM-616-214-N.jpg","1","1","1","1","1","0","0.429848400002811","0.406995900033507","0.450112399994396","1","1","1","1","1","1","1","1","1"
"250055","img/neutralC/CFD-IM-616-214-N.jpg","img/neutralC/CFD-WM-020-001-N.jpg","img/neutralC/CFD-BF-229-179-N.jpg","1","1","1","0","1","0","0.450112399994396","0.429848400002811","0.351685300003737","1","1","1","1","1","1","1","1","1"
"250055","img/neutralC/CFD-BF-229-179-N.jpg","img/neutralC/CFD-IM-616-214-N.jpg","img/neutralC/CFD-WF-036-023-N.jpg","1","1","1","0","0","0","0.351685300003737","0.450112399994396","0.436055900005158","1","1","1","1","1","1","1","1","1"
"250055","img/neutralC/CFD-WF-036-023-N.jpg","img/neutralC/CFD-BF-229-179-N.jpg","img/neutralC/CFD-AM-211-052-N.jpg","1","1","1","0","0","1","0.436055900005158","0.351685300003737","0.442338799999561","1","1","1","1","1","1","1","1","1"
"250055","img/neutralC/CFD-AM-211-052-N.jpg","img/neutralC/CFD-WF-036-023-N.jpg","img/neutralC/CFD-LM-237-264-N.jpg","1","1","1","1","0","0","0.442338799999561","0.436055900005158","0.475296199962031","1","1","1","1","1","1","1","1","1"
"250055","img/neutralC/CFD-LM-237-264-N.jpg","img/neutralC/CFD-AM-211-052-N.jpg","img/neutralC/CFD-WF-214-122-N.jpg","1","1","1","0","1","1","0.475296199962031","0.442338799999561","0.520152100012638","1","1","1","1","1","1","1","1","1"
"250055","img/neutralC/CFD-WF-214-122-N.jpg","img/neutralC/CFD-LM-237-264-N.jpg","img/neutralC/CFD-WM-219-008-N.jpg","1","1","1","1","0","0","0.520152100012638","0.475296199962031","0.450258600001689","1","1","1","1","1","1","1","1","1"
"250055","img/neutralC/CFD-WM-219-008-N.jpg","img/neutralC/CFD-WF-214-122-N.jpg","img/neutralC/CFD-IM-645-001-N.jpg","1","1","1","0","1","0","0.450258600001689","0.520152100012638","0.456812600023113","1","1","1","1","1","1","1","1","1"
"250055","img/neutralC/CFD-IM-645-001-N.jpg","img/neutralC/CFD-WM-219-008-N.jpg","img/neutralC/CFD-BF-226-119-N.jpg","1","1","1","0","0","1","0.456812600023113","0.450258600001689","0.39692530001048","1","1","1","1","1","1","1","1","1"
"250055","img/neutralC/CFD-BF-226-119-N.jpg","img/neutralC/CFD-IM-645-001-N.jpg","img/neutralC/CFD-IF-650-315-N.jpg","1","1","1","1","0","0","0.39692530001048","0.456812600023113","0.378225299995393","1","1","1","1","1","1","1","1","1"
"250055","img/neutralC/CFD-IF-650-315-N.jpg","img/neutralC/CFD-BF-226-119-N.jpg","img/neutralC/CFD-LF-218-072-N.jpg","1","1","1","0","1","0","0.378225299995393","0.39692530001048","0.353113799996208","1","1","1","1","1","1","1","1","1"
"250055","img/neutralC/CFD-LF-218-072-N.jpg","img/neutralC/CFD-IF-650-315-N.jpg","img/neutralC/CFD-MF-352-054-N.jpg","1","1","1","0","0","0","0.353113799996208","0.378225299995393","0.446784200030379","1","1","1","1","1","1","1","1","1"
"250055","img/neutralC/CFD-MF-352-054-N.jpg","img/neutralC/CFD-LF-218-072-N.jpg","img/neutralC/CFD-BF-038-037-N.jpg","1","1","1","0","0","1","0.446784200030379","0.353113799996208","0.386305799998809","1","1","1","1","1","1","1","1","1"
"250055","img/neutralC/CFD-BF-038-037-N.jpg","img/neutralC/CFD-MF-352-054-N.jpg","img/neutralC/CFD-BF-232-187-N.jpg","1","1","1","1","0","1","0.386305799998809","0.446784200030379","0.458122999989428","1","1","1","1","1","1","1","1","1"
"250055","img/neutralC/CFD-BF-232-187-N.jpg","img/neutralC/CFD-BF-038-037-N.jpg","img/neutralC/CFD-WM-235-147-N.jpg","1","1","1","1","1","0","0.458122999989428","0.386305799998809","0.481528799980879","1","1","1","1","1","1","1","1","1"
"250055","img/neutralC/CFD-WM-235-147-N.jpg","img/neutralC/CFD-BF-232-187-N.jpg","img/neutralC/CFD-AM-251-124-N.jpg","1","1","1","0","1","0","0.481528799980879","0.458122999989428","0.382540200022049","1","1","1","1","1","1","1","1","1"
"250055","img/neutralC/CFD-AM-251-124-N.jpg","img/neutralC/CFD-WM-235-147-N.jpg","img/neutralC/CFD-WM-033-025-N.jpg","1","1","1","0","0","1","0.382540200022049","0.481528799980879","0.381941100000404","1","1","1","1","1","1","1","1","1"
"250055","img/neutralC/CFD-WM-033-025-N.jpg","img/neutralC/CFD-AM-251-124-N.jpg","img/neutralC/CFD-LF-220-120-N.jpg","1","1","1","1","0","1","0.381941100000404","0.382540200022049","0.394369700050447","1","1","1","1","1","1","1","1","1"
"250055","img/neutralC/CFD-LF-220-120-N.jpg","img/neutralC/CFD-WM-033-025-N.jpg","img/neutralC/CFD-WF-001-003-N.jpg","1","1","1","1","1","1","0.394369700050447","0.381941100000404","0.32062259997474","1","1","1","1","1","1","1","1","1"
"250055","img/neutralC/CFD-WF-001-003-N.jpg","img/neutralC/CFD-LF-220-120-N.jpg","img/neutralC/CFD-WM-004-010-N.jpg","1","1","1","1","1","0","0.32062259997474","0.394369700050447","0.332452400005423","1","1","1","1","1","1","1","1","1"
"250055","img/neutralC/CFD-WM-004-010-N.jpg","img/neutralC/CFD-WF-001-003-N.jpg","img/neutralC/CFD-WF-200-099-N.jpg","1","1","1","0","1","0","0.332452400005423","0.32062259997474","0.388645999948494","1","1","1","1","1","1","1","1","1"
"250055","img/neutralC/CFD-WF-200-099-N.jpg","img/neutralC/CFD-WM-004-010-N.jpg","img/neutralC/CFD-AM-242-176-N.jpg","1","1","1","0","0","1","0.388645999948494","0.332452400005423","0.414639399969019","1","1","1","1","1","1","1","1","1"
"250055","img/neutralC/CFD-AM-242-176-N.jpg","img/neutralC/CFD-WF-200-099-N.jpg","img/neutralC/CFD-MF-333-012-N.jpg","1","1","1","1","0","0","0.414639399969019","0.388645999948494","0.377571400022134","1","1","1","1","1","1","1","1","1"
"250055","img/neutralC/CFD-MF-333-012-N.jpg","img/neutralC/CFD-AM-242-176-N.jpg","img/neutralC/CFD-BM-225-154-N.jpg","1","1","1","0","1","1","0.377571400022134","0.414639399969019","0.416047799983062","1","1","1","1","1","1","1","1","1"
"250055","img/neutralC/CFD-BM-225-154-N.jpg","img/neutralC/CFD-MF-333-012-N.jpg",NA,"1","1",NA,"1","0",NA,"0.416047799983062","0.377571400022134",NA,"1","1",NA,"1","1",NA,"1","1",NA
"250055","img/neutralC/CFD-LM-225-130-N.jpg",NA,"img/neutralC/CFD-WF-222-092-N.jpg","0",NA,"1","0",NA,"1","0.646778299997095",NA,"0.415443500038236","1",NA,"1","1",NA,"1","1",NA,"1"
"250055","img/neutralC/CFD-WF-222-092-N.jpg","img/neutralC/CFD-LM-225-130-N.jpg","img/neutralC/CFD-IF-626-375-N.jpg","1","0","1","1","0","0","0.415443500038236","0.646778299997095","0.35407750000013","1","1","1","1","1","1","1","1","1"
"250055","img/neutralC/CFD-IF-626-375-N.jpg","img/neutralC/CFD-WF-222-092-N.jpg","img/neutralC/CFD-WF-244-163-N.jpg","1","1","1","0","1","1","0.35407750000013","0.415443500038236","0.389972999983002","1","1","1","1","1","1","1","1","1"
"250055","img/neutralC/CFD-WF-244-163-N.jpg","img/neutralC/CFD-IF-626-375-N.jpg","img/neutralC/CFD-AF-233-190-N.jpg","1","1","1","1","0","0","0.389972999983002","0.35407750000013","0.462851600022986","1","1","1","1","1","1","1","1","1"
"250055","img/neutralC/CFD-AF-233-190-N.jpg","img/neutralC/CFD-WF-244-163-N.jpg","img/neutralC/CFD-WF-030-002-N.jpg","1","1","1","0","1","0","0.462851600022986","0.389972999983002","0.56313379999483","1","1","1","1","1","1","1","1","1"
"250055","img/neutralC/CFD-WF-030-002-N.jpg","img/neutralC/CFD-AF-233-190-N.jpg","img/neutralC/CFD-BM-250-170-N.jpg","1","1","1","0","0","1","0.56313379999483","0.462851600022986","0.387378800020088","1","1","1","1","1","1","1","1","1"
"250055","img/neutralC/CFD-BM-250-170-N.jpg","img/neutralC/CFD-WF-030-002-N.jpg","img/neutralC/CFD-MM-324-069-N.jpg","1","1","1","1","0","1","0.387378800020088","0.56313379999483","0.413194900029339","1","1","1","1","1","1","1","1","1"
"250055","img/neutralC/CFD-MM-324-069-N.jpg","img/neutralC/CFD-BM-250-170-N.jpg","img/neutralC/CFD-IM-702-101-N.jpg","1","1","1","1","1","1","0.413194900029339","0.387378800020088","0.436493400018662","1","1","1","1","1","1","1","1","1"
"250055","img/neutralC/CFD-IM-702-101-N.jpg","img/neutralC/CFD-MM-324-069-N.jpg","img/neutralC/CFD-MF-343-001-N.jpg","1","1","1","1","1","1","0.436493400018662","0.413194900029339","0.423703600012232","1","1","1","1","1","1","1","1","1"
"250055","img/neutralC/CFD-MF-343-001-N.jpg","img/neutralC/CFD-IM-702-101-N.jpg","img/neutralC/CFD-LF-206-078-N.jpg","1","1","1","1","1","1","0.423703600012232","0.436493400018662","0.330847000004724","1","1","1","1","1","1","1","1","1"
"250055","img/neutralC/CFD-LF-206-078-N.jpg","img/neutralC/CFD-MF-343-001-N.jpg","img/neutralC/CFD-MF-357-002-N.jpg","1","1","1","1","1","0","0.330847000004724","0.423703600012232","0.533242799981963","1","1","1","1","1","1","1","1","1"
"250055","img/neutralC/CFD-MF-357-002-N.jpg","img/neutralC/CFD-LF-206-078-N.jpg","img/neutralC/CFD-BF-237-172-N.jpg","1","1","1","0","1","1","0.533242799981963","0.330847000004724","0.440267199999653","1","1","1","1","1","1","1","1","1"
"250055","img/neutralC/CFD-BF-237-172-N.jpg","img/neutralC/CFD-MF-357-002-N.jpg","img/neutralC/CFD-AM-220-134-N.jpg","1","1","1","1","0","0","0.440267199999653","0.533242799981963","0.363930799998343","1","1","1","1","1","1","1","1","1"
"250055","img/neutralC/CFD-AM-220-134-N.jpg","img/neutralC/CFD-BF-237-172-N.jpg","img/neutralC/CFD-IM-680-369-N.jpg","1","1","1","0","1","1","0.363930799998343","0.440267199999653","0.447041100007482","1","1","1","1","1","1","1","1","1"
"250055","img/neutralC/CFD-IM-680-369-N.jpg","img/neutralC/CFD-AM-220-134-N.jpg","img/neutralC/CFD-MF-305-014-N.jpg","1","1","1","1","0","1","0.447041100007482","0.363930799998343","0.330836299981456","1","1","1","1","1","1","1","1","1"
"250055","img/neutralC/CFD-MF-305-014-N.jpg","img/neutralC/CFD-IM-680-369-N.jpg","img/neutralC/CFD-MF-303-013-N.jpg","1","1","1","1","1","0","0.330836299981456","0.447041100007482","0.565958900027908","1","1","1","1","1","1","1","1","1"
"250055","img/neutralC/CFD-MF-303-013-N.jpg","img/neutralC/CFD-MF-305-014-N.jpg","img/neutralC/CFD-IM-667-369-N.jpg","1","1","1","0","1","0","0.565958900027908","0.330836299981456","0.408832599991001","1","1","1","1","1","1","1","1","1"
"250055","img/neutralC/CFD-IM-667-369-N.jpg","img/neutralC/CFD-MF-303-013-N.jpg","img/neutralC/CFD-MF-316-001-N.jpg","1","1","1","0","0","0","0.408832599991001","0.565958900027908","0.415354500000831","1","1","1","1","1","1","1","1","1"
"250055","img/neutralC/CFD-MF-316-001-N.jpg","img/neutralC/CFD-IM-667-369-N.jpg","img/neutralC/CFD-IF-660-464-N.jpg","1","1","1","0","0","0","0.415354500000831","0.408832599991001","0.523924999986775","1","1","1","1","1","1","1","1","1"
"250055","img/neutralC/CFD-IF-660-464-N.jpg","img/neutralC/CFD-MF-316-001-N.jpg","img/neutralC/CFD-LF-255-088-N.jpg","1","1","0","0","0","0","0.523924999986775","0.415354500000831","0.37300810002489","1","1","1","1","1","1","1","1","1"
"250055","img/neutralC/CFD-LF-255-088-N.jpg","img/neutralC/CFD-IF-660-464-N.jpg","img/neutralC/CFD-IM-706-002-N.jpg","0","1","1","0","0","0","0.37300810002489","0.523924999986775","0.384950599982403","1","1","1","1","1","1","1","1","1"
"250055","img/neutralC/CFD-IM-706-002-N.jpg","img/neutralC/CFD-LF-255-088-N.jpg","img/neutralC/CFD-BF-014-002-N.jpg","1","0","1","0","0","1","0.384950599982403","0.37300810002489","0.417632199998479","1","1","1","1","1","1","1","1","1"
"250055","img/neutralC/CFD-BF-014-002-N.jpg","img/neutralC/CFD-IM-706-002-N.jpg","img/neutralC/CFD-WF-007-001-N.jpg","1","1","1","1","0","1","0.417632199998479","0.384950599982403","0.39130680001108","1","1","1","1","1","1","1","1","1"
"250055","img/neutralC/CFD-WF-007-001-N.jpg","img/neutralC/CFD-BF-014-002-N.jpg","img/neutralC/CFD-LM-200-045-N.jpg","1","1","1","1","1","1","0.39130680001108","0.417632199998479","0.461213400005363","1","1","1","1","1","1","1","1","1"
"250055","img/neutralC/CFD-LM-200-045-N.jpg","img/neutralC/CFD-WF-007-001-N.jpg","img/neutralC/CFD-IM-664-651-N.jpg","1","1","1","1","1","1","0.461213400005363","0.39130680001108","0.441964700003155","1","1","1","1","1","1","1","1","1"
"250055","img/neutralC/CFD-IM-664-651-N.jpg","img/neutralC/CFD-LM-200-045-N.jpg","img/neutralC/CFD-WM-218-074-N.jpg","1","1","1","1","1","1","0.441964700003155","0.461213400005363","0.371198299981188","1","1","1","1","1","1","1","1","1"
"250055","img/neutralC/CFD-WM-218-074-N.jpg","img/neutralC/CFD-IM-664-651-N.jpg","img/neutralC/CFD-BM-217-082-N.jpg","1","1","1","1","1","0","0.371198299981188","0.441964700003155","0.462760200025514","1","1","1","1","1","1","1","1","1"
"250055","img/neutralC/CFD-BM-217-082-N.jpg","img/neutralC/CFD-WM-218-074-N.jpg","img/neutralC/CFD-WM-209-038-N.jpg","1","1","1","0","1","0","0.462760200025514","0.371198299981188","0.33410489995731","1","1","1","1","1","1","1","1","1"
"250055","img/neutralC/CFD-WM-209-038-N.jpg","img/neutralC/CFD-BM-217-082-N.jpg","img/neutralC/CFD-AF-253-130-N.jpg","1","1","1","0","0","1","0.33410489995731","0.462760200025514","0.439948399958666","1","1","1","1","1","1","1","1","1"
"250055","img/neutralC/CFD-AF-253-130-N.jpg","img/neutralC/CFD-WM-209-038-N.jpg","img/neutralC/CFD-WM-015-002-N.jpg","1","1","1","1","0","0","0.439948399958666","0.33410489995731","0.340867599996272","1","1","1","1","1","1","1","1","1"
"250055","img/neutralC/CFD-WM-015-002-N.jpg","img/neutralC/CFD-AF-253-130-N.jpg","img/neutralC/CFD-BM-001-014-N.jpg","1","1","1","0","1","0","0.340867599996272","0.439948399958666","0.471701400005259","1","1","1","1","1","1","1","1","1"
"250055","img/neutralC/CFD-BM-001-014-N.jpg","img/neutralC/CFD-WM-015-002-N.jpg",NA,"1","1",NA,"0","0",NA,"0.471701400005259","0.340867599996272",NA,"1","1",NA,"1","1",NA,"1","1",NA
