"participant_id","face","surpAcc","memory_surp_responses","memory_surp_rt","keep_surp_memory_trial_based_on_rt","surp_block_num","exclude_block","number_of_surp_resp_items_used","num_blocks_excluded"
"250014","img/neutralC/CFD-WF-002-004-N.jpg","1","k","2.54522290005116",1,1,0,2,0
"250014","img/neutralC/CFD-BF-207-004-N.jpg","0","k","8.25427309999941",1,1,0,2,0
"250014","img/neutralC/CFD-WF-228-196-N.jpg","0","s","1.83403590001399",1,1,0,2,0
"250014","img/neutralC/CFD-LM-252-076-N.jpg","0","k","3.28241059998982",1,1,0,2,0
"250014","img/neutralC/CFD-AM-220-134-N.jpg","1","s","1.75262510002358",1,1,0,2,0
"250014","img/neutralC/CFD-AM-221-184-N.jpg","0","k","1.34335859998828",1,1,0,2,0
"250014","img/neutralC/CFD-BM-027-001-N.jpg","0","s","1.39540340000531",1,1,0,2,0
"250014","img/neutralC/CFD-BM-010-003-N.jpg","1","s","2.41387649998069",1,1,0,2,0
"250014","img/neutralC/CFD-WF-029-002-N.jpg","1","s","1.28396969998721",1,1,0,2,0
"250014","img/neutralC/CFD-BF-217-189-N.jpg","0","s","3.87182039994514",1,1,0,2,0
"250014","img/neutralC/CFD-LF-239-148-N.jpg","1","s","1.6478175999946",1,1,0,2,0
"250014","img/neutralC/CFD-IF-642-295-N.jpg","1","s","3.02097529999446",1,1,0,2,0
"250014","img/neutralC/CFD-MF-328-020-N.jpg","0","s","1.51331459998619",1,1,0,2,0
"250014","img/neutralC/CFD-WM-021-001-N.jpg","0","k","1.22120809997432",1,1,0,2,0
"250014","img/neutralC/CFD-BF-236-177-N.jpg","0","s","1.16442280000774",1,1,0,2,0
"250014","img/neutralC/CFD-WM-249-239-N.jpg","1","k","2.40148330002557",1,1,0,2,0
"250014","img/neutralC/CFD-LM-244-068-N.jpg","1","k","3.02101470000343",1,1,0,2,0
"250014","img/neutralC/CFD-IM-638-250-1-N.jpg","1","s","1.86644990002969",1,1,0,2,0
"250014","img/neutralC/CFD-WF-245-084-N.jpg","1","k","1.78405560000101",1,1,0,2,0
"250014","img/neutralC/CFD-IM-606-008-N.jpg","0","k","0.960804599977564",1,1,0,2,0
"250014","img/neutralC/CFD-IM-684-008-N.jpg","1","k","1.04671249998501",1,1,0,2,0
"250014","img/neutralC/CFD-WM-221-091-N.jpg","1","s","1.5982010999578",1,1,0,2,0
"250014","img/neutralC/CFD-BF-201-080-N.jpg","0","k","3.2579239999759",1,1,0,2,0
"250014","img/neutralC/CFD-AM-236-090-N.jpg","1","s","1.25158189999638",1,1,0,2,0
"250014","img/neutralC/CFD-WF-207-014-N.jpg","1","k","1.34714740002528",1,1,0,2,0
"250014","img/neutralC/CFD-BF-237-172-N.jpg","0","s","1.61475559999235",1,1,0,2,0
"250014","img/neutralC/CFD-IM-635-010-N.jpg","1","s","1.23455340001965",1,1,0,2,0
"250014","img/neutralC/CFD-WF-221-005-N.jpg","1","s","1.42516859999159",1,1,0,2,0
"250014","img/neutralC/CFD-BF-014-002-N.jpg","1","k","1.00120829994557",1,1,0,2,0
"250014","img/neutralC/CFD-WF-224-099-N.jpg","1","k","1.14272459998028",1,1,0,2,0
"250014","img/neutralC/CFD-LF-203-066-N.jpg","0","k","1.01305500004673",1,1,0,2,0
"250014","img/neutralC/CFD-WF-027-003-N.jpg","0","s","1.17550419998588",1,1,0,2,0
"250014","img/neutralC/CFD-MF-340-026-N.jpg","1","k","1.65023799997289",1,1,0,2,0
"250014","img/neutralC/CFD-AF-254-167-N.jpg","1","k","1.00285619997885",1,1,0,2,0
"250014","img/neutralC/CFD-WF-243-148-N.jpg","1","k","0.947487600031309",1,1,0,2,0
"250014","img/neutralC/CFD-IM-743-006-N.jpg","0","s","1.32275740004843",1,1,0,2,0
"250014","img/neutralC/CFD-BF-041-001-N.jpg","1","k","1.0676364999963",1,1,0,2,0
"250014","img/neutralC/CFD-AF-205-155-N.jpg","0","k","0.937813399999868",1,1,0,2,0
"250014","img/neutralC/CFD-BM-029-024-N.jpg","0","s","1.21192839997821",1,1,0,2,0
"250014","img/neutralC/CFD-AF-233-190-N.jpg","1","s","0.847043399990071",1,1,0,2,0
"250014","img/neutralC/CFD-AF-240-206-N.jpg","0","k","2.23885480000172",1,1,0,2,0
"250014","img/neutralC/CFD-LF-211-003-N.jpg","0","k","2.40749930002494",1,1,0,2,0
"250014","img/neutralC/CFD-WF-005-010-N.jpg","1","k","1.73143919999711",1,1,0,2,0
"250014","img/neutralC/CFD-IF-625-225-N.jpg","1","s","1.85341480001807",1,1,0,2,0
"250014","img/neutralC/CFD-LF-242-121-N.jpg","0","s","1.43358969996916",1,1,0,2,0
"250014","img/neutralC/CFD-WM-225-127-N.jpg","1","s","1.75959390000207",1,1,0,2,0
"250014","img/neutralC/CFD-MF-336-016-N.jpg","1","s","1.94951250002487",1,1,0,2,0
"250014","img/neutralC/CFD-BF-202-109-N.jpg","1","s","2.28216850000899",1,1,0,2,0
"250014","img/neutralC/CFD-LM-219-295-N.jpg","0","k","1.40633690002142",1,2,0,2,0
"250014","img/neutralC/CFD-BM-018-001-N.jpg","0","s","1.12835249997443",1,2,0,2,0
"250014","img/neutralC/CFD-BF-232-187-N.jpg","0","s","2.84021989995381",1,2,0,2,0
"250014","img/neutralC/CFD-BM-247-240-N.jpg","1","k","1.13656049995916",1,2,0,2,0
"250014","img/neutralC/CFD-BF-028-001-N.jpg","0","s","1.29549400001997",1,2,0,2,0
"250014","img/neutralC/CFD-MF-318-022-N.jpg","1","s","1.34245419997023",1,2,0,2,0
"250014","img/neutralC/CFD-BF-002-001-N.jpg","0","k","2.11660940002184",1,2,0,2,0
"250014","img/neutralC/CFD-IM-675-015-N.jpg","1","s","2.65042969997739",1,2,0,2,0
"250014","img/neutralC/CFD-AM-245-111-N.jpg","1","s","1.24787590000778",1,2,0,2,0
"250014","img/neutralC/CFD-BF-010-001-N.jpg","0","s","2.17496939998819",1,2,0,2,0
"250014","img/neutralC/CFD-LM-200-045-N.jpg","0","k","1.25751229998423",1,2,0,2,0
"250014","img/neutralC/CFD-BF-020-002-N.jpg","1","s","1.69410429999698",1,2,0,2,0
"250014","img/neutralC/CFD-BF-039-031-N.jpg","1","s","1.39020319998963",1,2,0,2,0
"250014","img/neutralC/CFD-LF-212-066-N.jpg","0","k","1.17069940001238",1,2,0,2,0
"250014","img/neutralC/CFD-IM-703-182-N.jpg","0","s","2.2929746999871",1,2,0,2,0
"250014","img/neutralC/CFD-WF-238-023-N.jpg","0","k","2.15897410002071",1,2,0,2,0
"250014","img/neutralC/CFD-WM-253-119-N.jpg","1","s","4.98099879996153",1,2,0,2,0
"250014","img/neutralC/CFD-WF-007-001-N.jpg","0","k","1.22393709997414",1,2,0,2,0
"250014","img/neutralC/CFD-WF-235-121-N.jpg","1","k","1.25577490002615",1,2,0,2,0
"250014","img/neutralC/CFD-LF-222-147-N.jpg","1","k","4.0743788999971",1,2,0,2,0
"250014","img/neutralC/CFD-BM-013-002-N.jpg","0","s","4.78599129995564",1,2,0,2,0
"250014","img/neutralC/CFD-MF-309-002-N.jpg","0","k","2.86795210000128",1,2,0,2,0
"250014","img/neutralC/CFD-AM-235-241-N.jpg","0","k","0.974083399982192",1,2,0,2,0
"250014","img/neutralC/CFD-LM-243-075-N.jpg","0","s","0.480533099966124",1,2,0,2,0
"250014","img/neutralC/CFD-WM-006-002-N.jpg","0","k","0.478438399964944",1,2,0,2,0
"250014","img/neutralC/CFD-AM-247-165-N.jpg","1","s","0.273152200039476",1,2,0,2,0
"250014","img/neutralC/CFD-WF-226-095-N.jpg","1","k","0.296207600040361",1,2,0,2,0
"250014","img/neutralC/CFD-LF-208-127-N.jpg","0","s","3.08291050000116",1,2,0,2,0
"250014","img/neutralC/CFD-AF-221-147-N.jpg","0","s","0.238857100019231",1,2,0,2,0
"250014","img/neutralC/CFD-AM-230-150-N.jpg","1","s","0.275331900047604",1,2,0,2,0
"250014","img/neutralC/CFD-BF-226-119-N.jpg","1","k","0.826733299996704",1,2,0,2,0
"250014","img/neutralC/CFD-WM-024-015-N.jpg","0","k","0.72938149998663",1,2,0,2,0
"250014","img/neutralC/CFD-BM-001-014-N.jpg","1","s","1.03730520000681",1,2,0,2,0
"250014","img/neutralC/CFD-LM-218-183-N.jpg","0","k","1.04148539999733",1,2,0,2,0
"250014","img/neutralC/CFD-AF-237-223-N.jpg","1","k","0.807361799990758",1,2,0,2,0
"250014","img/neutralC/CFD-MF-301-024-N.jpg","1","k","0.942423800006509",1,2,0,2,0
"250014","img/neutralC/CFD-BF-212-315-N.jpg","1","s","0.770962800015695",1,2,0,2,0
"250014","img/neutralC/CFD-LM-226-175-N.jpg","0","k","0.534486399963498",1,2,0,2,0
"250014","img/neutralC/CFD-MF-335-002-N.jpg","1","k","0.4453036999912",1,2,0,2,0
"250014","img/neutralC/CFD-AF-229-160-N.jpg","0","k","0.838566699996591",1,2,0,2,0
"250014","img/neutralC/CFD-WM-018-002-N.jpg","0","s","0.66971480002394",1,2,0,2,0
"250014","img/neutralC/CFD-AF-215-70-N.jpg","1","k","0.897044800047297",1,2,0,2,0
"250014","img/neutralC/CFD-WF-006-002-N.jpg","0","k","0.746238499996252",1,2,0,2,0
"250014","img/neutralC/CFD-BM-250-170-N.jpg","0","s","1.15637859998969",1,2,0,2,0
"250014","img/neutralC/CFD-LF-214-090-N.jpg","0","s","0.605376199993771",1,2,0,2,0
"250014","img/neutralC/CFD-IM-696-001-N.jpg","0","s","0.763901500031352",1,2,0,2,0
"250014","img/neutralC/CFD-LM-238-129-N.jpg","1","k","0.998850900039542",1,2,0,2,0
"250014","img/neutralC/CFD-WF-209-052-N.jpg","1","k","0.761093899956904",1,2,0,2,0
"250014","img/neutralC/CFD-IM-697-015-N.jpg","1","k","0.263579099962953",1,3,0,2,0
"250014","img/neutralC/CFD-WF-222-092-N.jpg","1","s","1.42303200002061",1,3,0,2,0
"250014","img/neutralC/CFD-LF-218-072-N.jpg","1","s","1.19108269998105",1,3,0,2,0
"250014","img/neutralC/CFD-BF-253-202-N.jpg","1","k","0.824593299999833",1,3,0,2,0
"250014","img/neutralC/CFD-BF-006-017-N.jpg","1","s","0.67445150000276",1,3,0,2,0
"250014","img/neutralC/CFD-IM-637-007-N.jpg","0","k","0.946209700021427",1,3,0,2,0
"250014","img/neutralC/CFD-IM-719-221-N.jpg","1","s","1.1736222000327",1,3,0,2,0
"250014","img/neutralC/CFD-LM-233-171-N.jpg","0","s","0.691267499991227",1,3,0,2,0
"250014","img/neutralC/CFD-LF-210-220-N.jpg","0","s","0.331047800020315",1,3,0,2,0
"250014","img/neutralC/CFD-BF-214-308-N.jpg","0","s","0.513028900022618",1,3,0,2,0
"250014","img/neutralC/CFD-AM-244-222-N.jpg","1","k","0.500026200024877",1,3,0,2,0
"250014","img/neutralC/CFD-LF-236-221-N.jpg","1","k","0.35512150003342",1,3,0,2,0
"250014","img/neutralC/CFD-WF-241-210-N.jpg","1","k","0.290306000038981",1,3,0,2,0
"250014","img/neutralC/CFD-LM-214-165-N.jpg","1","k","0.599136299977545",1,3,0,2,0
"250014","img/neutralC/CFD-IM-616-214-N.jpg","0","k","0.339980699995067",1,3,0,2,0
"250014","img/neutralC/CFD-WM-237-052-N.jpg","1","k","0.367421399976593",1,3,0,2,0
"250014","img/neutralC/CFD-IF-608-390-N.jpg","0","s","0.833952200016938",1,3,0,2,0
"250014","img/neutralC/CFD-WF-223-133-N.jpg","0","k","0.584139999991748",1,3,0,2,0
"250014","img/neutralC/CFD-BM-019-002-N.jpg","1","k","0.713218500022776",1,3,0,2,0
"250014","img/neutralC/CFD-WM-041-021-N.jpg","1","s","0.473084099998232",1,3,0,2,0
"250014","img/neutralC/CFD-LF-230-203-N.jpg","1","k","0.549556700047106",1,3,0,2,0
"250014","img/neutralC/CFD-BF-042-026-N.jpg","0","k","1.08928030001698",1,3,0,2,0
"250014","img/neutralC/CFD-IF-620-218-N.jpg","1","s","1.01717349997489",1,3,0,2,0
"250014","img/neutralC/CFD-IM-646-023-N.jpg","1","k","2.75617289997172",1,3,0,2,0
"250014","img/neutralC/CFD-IM-702-101-N.jpg","0","s","1.13748390000546",1,3,0,2,0
"250014","img/neutralC/CFD-BM-215-155-N.jpg","0","s","0.996944699960295",1,3,0,2,0
"250014","img/neutralC/CFD-LF-238-154-N.jpg","1","s","0.69594419997884",1,3,0,2,0
"250014","img/neutralC/CFD-WF-018-017-N.jpg","0","k","1.42173760000151",1,3,0,2,0
"250014","img/neutralC/CFD-LF-247-051-N.jpg","1","k","0.772294399968814",1,3,0,2,0
"250014","img/neutralC/CFD-IF-676-017-N.jpg","0","s","1.57161469996208",1,3,0,2,0
"250014","img/neutralC/CFD-AF-202-122-N.jpg","0","k","1.25949270004639",1,3,0,2,0
"250014","img/neutralC/CFD-LF-250-169-N.jpg","0","k","1.34888750000391",1,3,0,2,0
"250014","img/neutralC/CFD-BM-225-154-N.jpg","1","k","0.77616740000667",1,3,0,2,0
"250014","img/neutralC/CFD-MF-302-027-N.jpg","0","s","1.04893459996674",1,3,0,2,0
"250014","img/neutralC/CFD-BF-222-240-N.jpg","1","k","0.950224999978673",1,3,0,2,0
"250014","img/neutralC/CFD-IF-629-234-N.jpg","1","s","1.09403089998523",1,3,0,2,0
"250014","img/neutralC/CFD-BM-241-235-N.jpg","0","k","0.60292269999627",1,3,0,2,0
"250014","img/neutralC/CFD-IM-615-167-N.jpg","1","k","0.408397100050934",1,3,0,2,0
"250014","img/neutralC/CFD-WM-002-009-N.jpg","1","k","0.379649300011806",1,3,0,2,0
"250014","img/neutralC/CFD-LM-253-075-N.jpg","1","s","0.464578000013717",1,3,0,2,0
"250014","img/neutralC/CFD-AF-206-079-N.jpg","0","k","0.466992200003006",1,3,0,2,0
"250014","img/neutralC/CFD-MF-337-026-N.jpg","1","k","0.275803999975324",1,3,0,2,0
"250014","img/neutralC/CFD-BF-254-201-N.jpg","1","k","1.03607789997477",1,3,0,2,0
"250014","img/neutralC/CFD-LM-215-247-N.jpg","0","k","0.515339199977461",1,3,0,2,0
"250014","img/neutralC/CFD-IM-604-014-N.jpg","1","k","0.200191400013864",1,3,0,2,0
"250014","img/neutralC/CFD-BM-021-021-N.jpg","1","s","0.767934299947228",1,3,0,2,0
"250014","img/neutralC/CFD-MF-343-001-N.jpg","1","s","0.824215199972969",1,3,0,2,0
"250014","img/neutralC/CFD-BM-243-218-N.jpg","1","s","1.21868210000684",1,3,0,2,0
"250014","img/neutralC/CFD-IM-706-002-N.jpg","1","k","0.985081800026819",1,4,0,2,0
"250014","img/neutralC/CFD-WM-026-001-N.jpg","1","k","0.592066699988209",1,4,0,2,0
"250014","img/neutralC/CFD-IM-653-008-N.jpg","1","k","0.346027399995364",1,4,0,2,0
"250014","img/neutralC/CFD-MF-316-001-N.jpg","1","k","0.579717699962202",1,4,0,2,0
"250014","img/neutralC/CFD-MF-357-002-N.jpg","1","s","0.318316699995194",1,4,0,2,0
"250014","img/neutralC/CFD-LF-220-120-N.jpg","1","s","0.20941720000701",1,4,0,2,0
"250014","img/neutralC/CFD-LM-225-130-N.jpg","0","s","0.317904199997429",1,4,0,2,0
"250014","img/neutralC/CFD-IM-721-341-N.jpg","1","k","0.330349099996965",1,4,0,2,0
"250014","img/neutralC/CFD-AF-210-050-N.jpg","0","k","0.77004620002117",1,4,0,2,0
"250014","img/neutralC/CFD-IM-648-337-N.jpg","0","s","0.49592150002718",1,4,0,2,0
"250014","img/neutralC/CFD-IM-709-103-N.jpg","0","s","0.386452300008386",1,4,0,2,0
"250014","img/neutralC/CFD-BM-211-174-N.jpg","1","s","0.462015099998098",1,4,0,2,0
"250014","img/neutralC/CFD-MF-327-002-N.jpg","1","s","0.373208900040481",1,4,0,2,0
"250014","img/neutralC/CFD-AM-201-076-N.jpg","0","s","0.320263900037389",1,4,0,2,0
"250014","img/neutralC/CFD-WF-210-086-N.jpg","0","s","0.347634900012054",1,4,0,2,0
"250014","img/neutralC/CFD-BM-033-003-N.jpg","0","s","0.714002699998673",1,4,0,2,0
"250014","img/neutralC/CFD-IM-685-004-N.jpg","1","k","0.63726340001449",1,4,0,2,0
"250014","img/neutralC/CFD-WM-232-070-N.jpg","1","k","0.38605849997839",1,4,0,2,0
"250014","img/neutralC/CFD-AF-241-141-N.jpg","1","k","0.621920600009616",1,4,0,2,0
"250014","img/neutralC/CFD-IF-732-260-N.jpg","0","s","0.559005499992054",1,4,0,2,0
"250014","img/neutralC/CFD-WM-040-022-N.jpg","1","s","0.652799400035292",1,4,0,2,0
"250014","img/neutralC/CFD-BF-206-143-N.jpg","1","k","0.834024299983867",1,4,0,2,0
"250014","img/neutralC/CFD-BM-204-003-N.jpg","1","k","0.684662400046363",1,4,0,2,0
"250014","img/neutralC/CFD-BF-029-031-N.jpg","0","s","0.465887000027578",1,4,0,2,0
"250014","img/neutralC/CFD-WF-214-122-N.jpg","0","k","0.41477059997851",1,4,0,2,0
"250014","img/neutralC/CFD-AM-249-163-N.jpg","0","k","0.36615170002915",1,4,0,2,0
"250014","img/neutralC/CFD-AM-205-153-N.jpg","1","k","0.448081200011075",1,4,0,2,0
"250014","img/neutralC/CFD-WF-248-129-N.jpg","0","s","0.783922399976291",1,4,0,2,0
"250014","img/neutralC/CFD-AM-243-212-N.jpg","0","s","0.800536299997475",1,4,0,2,0
"250014","img/neutralC/CFD-IF-742-103-N.jpg","0","s","1.08187190000899",1,4,0,2,0
"250014","img/neutralC/CFD-WF-009-001-N.jpg","1","s","0.674597799952608",1,4,0,2,0
"250014","img/neutralC/CFD-LF-205-100-N.jpg","0","s","0.56695090001449",1,4,0,2,0
"250014","img/neutralC/CFD-IM-727-195-N.jpg","1","k","0.644589099974837",1,4,0,2,0
"250014","img/neutralC/CFD-BF-224-002-N.jpg","1","s","0.831037199997809",1,4,0,2,0
"250014","img/neutralC/CFD-BF-213-188-N.jpg","0","k","0.379284100024961",1,4,0,2,0
"250014","img/neutralC/CFD-IF-729-393-N.jpg","0","s","1.12050369998906",1,4,0,2,0
"250014","img/neutralC/CFD-BM-212-117-N.jpg","0","s","0.440508200030308",1,4,0,2,0
"250014","img/neutralC/CFD-WF-012-002-N.jpg","0","k","0.336609999998473",1,4,0,2,0
"250014","img/neutralC/CFD-IF-650-315-N.jpg","0","s","0.698067199962679",1,4,0,2,0
"250014","img/neutralC/CFD-BM-248-128-N.jpg","1","k","0.479560900013894",1,4,0,2,0
"250014","img/neutralC/CFD-BM-200-046-N.jpg","1","k","0.578165300015826",1,4,0,2,0
"250014","img/neutralC/CFD-MF-342-022-N.jpg","0","k","0.522827700013295",1,4,0,2,0
"250014","img/neutralC/CFD-MF-312-002-N.jpg","0","k","0.26362360001076",1,4,0,2,0
"250014","img/neutralC/CFD-LF-226-174-N.jpg","0","s","0.474334600032307",1,4,0,2,0
"250014","img/neutralC/CFD-MF-303-013-N.jpg","0","s","0.625528500007931",1,4,0,2,0
"250014","img/neutralC/CFD-WM-025-002-N.jpg","1","s","0.868024099967442",1,4,0,2,0
"250014","img/neutralC/CFD-MF-329-001-N.jpg","0","s","0.493942599976435",1,4,0,2,0
"250014","img/neutralC/CFD-WM-257-161-N.jpg","0","s","0.835167100012768",1,4,0,2,0
"250014","img/neutralC/CFD-WM-202-107-N.jpg","1","k","0.680358999990858",1,5,0,2,0
"250014","img/neutralC/CFD-BF-018-039-N.jpg","1","k","0.383821600000374",1,5,0,2,0
"250014","img/neutralC/CFD-IM-680-369-N.jpg","1","s","1.09845529997256",1,5,0,2,0
"250014","img/neutralC/CFD-WM-038-003-N.jpg","0","k","0.848819400009234",1,5,0,2,0
"250014","img/neutralC/CFD-BF-045-003-N.jpg","1","s","0.845718500029761",1,5,0,2,0
"250014","img/neutralC/CFD-AM-212-050-N.jpg","0","k","1.02242729999125",1,5,0,2,0
"250014","img/neutralC/CFD-AM-242-176-N.jpg","1","k","0.699847199954093",1,5,0,2,0
"250014","img/neutralC/CFD-AM-225-102-N.jpg","1","k","2.74217649997445",1,5,0,2,0
"250014","img/neutralC/CFD-IF-673-389-N.jpg","1","k","0.496374299982563",1,5,0,2,0
"250014","img/neutralC/CFD-MM-316-156-N.jpg","1","s","3.72275640000589",1,5,0,2,0
"250014","img/neutralC/CFD-AM-251-124-N.jpg","1","s","1.84084600000642",1,5,0,2,0
"250014","img/neutralC/CFD-IM-738-191-N.jpg","0","k","3.72078189998865",1,5,0,2,0
"250014","img/neutralC/CFD-WM-254-152-N.jpg","0","k","0.663019199972041",1,5,0,2,0
"250014","img/neutralC/CFD-BM-039-029-N.jpg","0","k","0.726749399967957",1,5,0,2,0
"250014","img/neutralC/CFD-WF-026-002-N.jpg","0","k","0.557008600037079",1,5,0,2,0
"250014","img/neutralC/CFD-LF-255-088-N.jpg","0","s","0.920367200043984",1,5,0,2,0
"250014","img/neutralC/CFD-MM-321-021-N.jpg","1","s","0.810387299978174",1,5,0,2,0
"250014","img/neutralC/CFD-LM-204-001-N.jpg","0","k","0.800838200026192",1,5,0,2,0
"250014","img/neutralC/CFD-WM-255-219-N.jpg","0","k","0.611950199992862",1,5,0,2,0
"250014","img/neutralC/CFD-WM-014-002-N.jpg","0","k","0.767357999982778",1,5,0,2,0
"250014","img/neutralC/CFD-IM-659-359-N.jpg","1","k","2.93826429999899",1,5,0,2,0
"250014","img/neutralC/CFD-LM-217-162-N.jpg","1","k","0.526315299968701",1,5,0,2,0
"250014","img/neutralC/CFD-BM-005-003-N.jpg","1","k","0.479180899972562",1,5,0,2,0
"250014","img/neutralC/CFD-LM-216-082-N.jpg","0","s","0.622664999973495",1,5,0,2,0
"250014","img/neutralC/CFD-IM-639-263-N.jpg","1","s","0.390844799985643",1,5,0,2,0
"250014","img/neutralC/CFD-AF-232-078-N.jpg","1","s","0.791789699986111",1,5,0,2,0
"250014","img/neutralC/CFD-BF-238-190-N.jpg","0","s","0.440624899987597",1,5,0,2,0
"250014","img/neutralC/CFD-BF-033-028-N.jpg","1","s","0.788378200028092",1,5,0,2,0
"250014","img/neutralC/CFD-WF-036-023-N.jpg","0","s","0.333862899977248",1,5,0,2,0
"250014","img/neutralC/CFD-BF-004-014-N.jpg","0","s","0.303406200022437",1,5,0,2,0
"250014","img/neutralC/CFD-WM-258-125-N.jpg","0","s","0.317939599975944",1,5,0,2,0
"250014","img/neutralC/CFD-WM-213-076-N.jpg","1","k","0.570740800001658",1,5,0,2,0
"250014","img/neutralC/CFD-BF-038-037-N.jpg","1","s","0.273338800005149",1,5,0,2,0
"250014","img/neutralC/CFD-AF-244-168-N.jpg","0","s","0.512124300003052",1,5,0,2,0
"250014","img/neutralC/CFD-AF-213-126-N.jpg","1","k","0.356289300019853",1,5,0,2,0
"250014","img/neutralC/CFD-BF-208-266-N.jpg","1","s","0.716158199997153",1,5,0,2,0
"250014","img/neutralC/CFD-LF-241-188-N.jpg","0","s","0.609807499975432",1,5,0,2,0
"250014","img/neutralC/CFD-IF-677-452-1-N.jpg","1","s","0.367889699991792",1,5,0,2,0
"250014","img/neutralC/CFD-WM-209-038-N.jpg","0","s","0.202673200052232",1,5,0,2,0
"250014","img/neutralC/CFD-WF-008-002-N.jpg","0","k","0.2050581999938",1,5,0,2,0
"250014","img/neutralC/CFD-BF-255-140-N.jpg","0","k","0.305286400020123",1,5,0,2,0
"250014","img/neutralC/CFD-BM-251-013-N.jpg","1","k","0.368052999954671",1,5,0,2,0
"250014","img/neutralC/CFD-LF-206-078-N.jpg","0","k","0.342825300002005",1,5,0,2,0
"250014","img/neutralC/CFD-BF-027-002-N.jpg","1","k","0.820856499951333",1,5,0,2,0
"250014","img/neutralC/CFD-BF-003-003-N.jpg","1","k","0.309061300009489",1,5,0,2,0
"250014","img/neutralC/CFD-IM-701-312-N.jpg","1","k","0.35324570001103",1,5,0,2,0
"250014","img/neutralC/CFD-AF-227-207-N.jpg","0","k","0.392532099969685",1,5,0,2,0
"250014","img/neutralC/CFD-BF-025-002-N.jpg","0","s","0.506901899992954",1,5,0,2,0
"250014","img/neutralC/CFD-WF-200-099-N.jpg","0","k","0.356185899989214",1,6,0,2,0
"250014","img/neutralC/CFD-BM-003-003-N.jpg","1","s","0.619187399977818",1,6,0,2,0
"250014","img/neutralC/CFD-WM-015-002-N.jpg","0","s","0.233671399997547",1,6,0,2,0
"250014","img/neutralC/CFD-LM-237-264-N.jpg","0","k","0.756744699960109",1,6,0,2,0
"250014","img/neutralC/CFD-AF-250-200-N.jpg","1","k","0.136189999990165",0,6,0,2,0
"250014","img/neutralC/CFD-BM-207-024-N.jpg","1","s","0.767258599982597",1,6,0,2,0
"250014","img/neutralC/CFD-MF-321-003-N.jpg","1","k","0.654396999976598",1,6,0,2,0
"250014","img/neutralC/CFD-AM-211-052-N.jpg","0","s","0.567895899992436",1,6,0,2,0
"250014","img/neutralC/CFD-IM-689-263-N.jpg","1","k","1.77330599998822",1,6,0,2,0
"250014","img/neutralC/CFD-WF-033-002-N.jpg","1","k","0.39891649998026",1,6,0,2,0
"250014","img/neutralC/CFD-BF-043-003-N.jpg","1","s","0.677219300006982",1,6,0,2,0
"250014","img/neutralC/CFD-IM-651-308-N.jpg","1","s","0.619482500012964",1,6,0,2,0
"250014","img/neutralC/CFD-IF-634-382-N.jpg","1","s","0.517650699999649",1,6,0,2,0
"250014","img/neutralC/CFD-WM-017-002-N.jpg","0","k","0.717600199976005",1,6,0,2,0
"250014","img/neutralC/CFD-IM-664-651-N.jpg","1","k","1.1255497999955",1,6,0,2,0
"250014","img/neutralC/CFD-LF-224-176-N.jpg","1","k","0.900758100033272",1,6,0,2,0
"250014","img/neutralC/CFD-IM-667-369-N.jpg","0","k","1.2758759999997",1,6,0,2,0
"250014","img/neutralC/CFD-BM-217-082-N.jpg","0","s","0.944240399985574",1,6,0,2,0
"250014","img/neutralC/CFD-WF-240-083-N.jpg","0","s","0.47385160002159",1,6,0,2,0
"250014","img/neutralC/CFD-BF-044-034-N.jpg","1","s","0.279446400003508",1,6,0,2,0
"250014","img/neutralC/CFD-IF-710-016-N.jpg","1","s","0.511566300003324",1,6,0,2,0
"250014","img/neutralC/CFD-BM-023-029-N.jpg","1","k","0.381112100032624",1,6,0,2,0
"250014","img/neutralC/CFD-BF-051-035-N.jpg","1","k","0.224764300044626",1,6,0,2,0
"250014","img/neutralC/CFD-WM-228-065-N.jpg","0","k","0.48458229994867",1,6,0,2,0
"250014","img/neutralC/CFD-BM-030-003-N.jpg","1","k","0.2906930000172",1,6,0,2,0
"250014","img/neutralC/CFD-IF-693-172-N.jpg","0","k","0.327994999999646",1,6,0,2,0
"250014","img/neutralC/CFD-WF-023-003-N.jpg","0","k","0.162431199976709",0,6,0,2,0
"250014","img/neutralC/CFD-WM-009-002-N.jpg","0","k","0.22940790001303",1,6,0,2,0
"250014","img/neutralC/CFD-WM-219-008-N.jpg","1","s","0.480268099985551",1,6,0,2,0
"250014","img/neutralC/CFD-IF-665-015-N.jpg","1","k","0.265452500025276",1,6,0,2,0
"250014","img/neutralC/CFD-IM-627-178-N.jpg","1","s","0.0682861999957822",0,6,0,2,0
"250014","img/neutralC/CFD-AF-239-171-N.jpg","1","k","0.536161999974865",1,6,0,2,0
"250014","img/neutralC/CFD-BM-015-015-N.jpg","0","k","0.0684894999722019",0,6,0,2,0
"250014","img/neutralC/CFD-IM-669-111-N.jpg","0","k","0.414491200004704",1,6,0,2,0
"250014","img/neutralC/CFD-IF-672-305-N.jpg","0","s","0.346763100009412",1,6,0,2,0
"250014","img/neutralC/CFD-MM-319-052-N.jpg","1","s","0.30391029996099",1,6,0,2,0
"250014","img/neutralC/CFD-WM-248-036-N.jpg","1","s","0.231491799990181",1,6,0,2,0
"250014","img/neutralC/CFD-BM-026-002-N.jpg","1","s","0.291304099955596",1,6,0,2,0
"250014","img/neutralC/CFD-BM-036-003-N.jpg","1","k","0.202482199994847",1,6,0,2,0
"250014","img/neutralC/CFD-LM-241-125-N.jpg","1","k","0.274136100022588",1,6,0,2,0
"250014","img/neutralC/CFD-IF-718-001-N.jpg","0","k","0.271262099966407",1,6,0,2,0
"250014","img/neutralC/CFD-BF-218-207-N.jpg","1","s","0.312504599976819",1,6,0,2,0
"250014","img/neutralC/CFD-WM-242-011-N.jpg","1","k","0.273268499993719",1,6,0,2,0
"250014","img/neutralC/CFD-WM-019-003-N.jpg","1","k","0.405120500014164",1,6,0,2,0
"250014","img/neutralC/CFD-MF-313-002-N.jpg","1","k","0.265646099986043",1,6,0,2,0
"250014","img/neutralC/CFD-MM-306-010-N.jpg","0","k","0.375593699980527",1,6,0,2,0
"250014","img/neutralC/CFD-LM-213-061-N.jpg","1","s","0.34359870001208",1,6,0,2,0
"250014","img/neutralC/CFD-WF-208-068-N.jpg","0","s","0.344664100033697",1,6,0,2,0
"250014","img/neutralC/CFD-WM-227-099-N.jpg","0","s","1.6260537999915",1,7,0,2,0
"250014","img/neutralC/CFD-WM-004-010-N.jpg","1","s","0.302809200016782",1,7,0,2,0
"250014","img/neutralC/CFD-WM-215-041-N.jpg","0","k","0.36972890002653",1,7,0,2,0
"250014","img/neutralC/CFD-BM-020-001-N.jpg","0","k","0.390353599970695",1,7,0,2,0
"250014","img/neutralC/CFD-BM-004-002-N.jpg","0","k","0.360884199966676",1,7,0,2,0
"250014","img/neutralC/CFD-LF-204-133-N.jpg","0","k","0.254019999993034",1,7,0,2,0
"250014","img/neutralC/CFD-WF-001-003-N.jpg","1","s","0.593738699972164",1,7,0,2,0
"250014","img/neutralC/CFD-BM-213-134-N.jpg","0","k","0.269032599986531",1,7,0,2,0
"250014","img/neutralC/CFD-MM-304-002-N.jpg","1","s","0.380881200020667",1,7,0,2,0
"250014","img/neutralC/CFD-BF-205-141-N.jpg","0","s","0.425126300018746",1,7,0,2,0
"250014","img/neutralC/CFD-LM-247-095-N.jpg","1","k","0.257352799992077",1,7,0,2,0
"250014","img/neutralC/CFD-MF-300-002-N.jpg","1","s","0.311250499973539",1,7,0,2,0
"250014","img/neutralC/CFD-IM-707-105-N.jpg","0","k","0.295402400020976",1,7,0,2,0
"250014","img/neutralC/CFD-WM-020-001-N.jpg","0","k","0.225231899996288",1,7,0,2,0
"250014","img/neutralC/CFD-WM-028-003-N.jpg","0","k","0.279943599947728",1,7,0,2,0
"250014","img/neutralC/CFD-WF-030-002-N.jpg","1","k","0.270691999990959",1,7,0,2,0
"250014","img/neutralC/CFD-WM-012-001-N.jpg","1","k","0.0432925000204705",0,7,0,2,0
"250014","img/neutralC/CFD-BM-238-242-N.jpg","1","k","0.318010299990419",1,7,0,2,0
"250014","img/neutralC/CFD-WF-233-112-N.jpg","0","k","0.348590200010221",1,7,0,2,0
"250014","img/neutralC/CFD-IM-700-009-N.jpg","0","k","0.27436719997786",1,7,0,2,0
"250014","img/neutralC/CFD-IM-671-601-N.jpg","0","s","0.300084899994545",1,7,0,2,0
"250014","img/neutralC/CFD-WM-023-001-N.jpg","1","s","0.659292600001208",1,7,0,2,0
"250014","img/neutralC/CFD-BM-239-136-N.jpg","0","k","0.326841300004162",1,7,0,2,0
"250014","img/neutralC/CFD-IM-617-174-N.jpg","1","s","0.339111500012223",1,7,0,2,0
"250014","img/neutralC/CFD-IM-674-281-N.jpg","1","k","0.29540200001793",1,7,0,2,0
"250014","img/neutralC/CFD-MF-305-014-N.jpg","0","s","0.304609499988146",1,7,0,2,0
"250014","img/neutralC/CFD-LF-245-166-N.jpg","1","k","0.256880900007673",1,7,0,2,0
"250014","img/neutralC/CFD-BF-012-001-N.jpg","0","s","0.668748399999458",1,7,0,2,0
"250014","img/neutralC/CFD-IF-744-114-N.jpg","1","s","0.608736899972428",1,7,0,2,0
"250014","img/neutralC/CFD-IF-660-464-N.jpg","0","s","1.2576424999861",1,7,0,2,0
"250014","img/neutralC/CFD-WF-234-086-N.jpg","0","k","0.645584599988069",1,7,0,2,0
"250014","img/neutralC/CFD-IM-657-308-N.jpg","1","s","0.793891599983908",1,7,0,2,0
"250014","img/neutralC/CFD-WF-213-031-N.jpg","1","s","0.798843000025954",1,7,0,2,0
"250014","img/neutralC/CFD-AF-253-130-N.jpg","0","s","0.612158400006592",1,7,0,2,0
"250014","img/neutralC/CFD-MF-307-002-N.jpg","1","s","1.15559030004079",1,7,0,2,0
"250014","img/neutralC/CFD-WM-033-025-N.jpg","1","k","0.686508700018749",1,7,0,2,0
"250014","img/neutralC/CFD-BM-253-004-N.jpg","0","s","0.927138700033538",1,7,0,2,0
"250014","img/neutralC/CFD-WF-250-167-N.jpg","1","s","1.04421219998039",1,7,0,2,0
"250014","img/neutralC/CFD-BM-009-002-N.jpg","0","k","1.01125079998747",1,7,0,2,0
"250014","img/neutralC/CFD-AF-246-242-N.jpg","0","s","1.38002539996523",1,7,0,2,0
"250014","img/neutralC/CFD-BM-227-191-N.jpg","0","k","1.05151000001933",1,7,0,2,0
"250014","img/neutralC/CFD-WM-212-097-N.jpg","1","s","1.0147121999762",1,7,0,2,0
"250014","img/neutralC/CFD-IM-632-097-N.jpg","0","s","1.06115030002547",1,7,0,2,0
"250014","img/neutralC/CFD-WF-244-163-N.jpg","1","k","1.08294950000709",1,7,0,2,0
"250014","img/neutralC/CFD-AM-233-236-N.jpg","0","k","0.938760099990759",1,7,0,2,0
"250014","img/neutralC/CFD-LF-225-164-N.jpg","1","k","1.47771880001528",1,7,0,2,0
"250014","img/neutralC/CFD-WM-034-030-N.jpg","0","k","1.32180460001109",1,7,0,2,0
"250014","img/neutralC/CFD-AM-219-101-N.jpg","1","k","0.777026000025216",1,7,0,2,0
"250014","img/neutralC/CFD-AF-234-208-N.jpg","1","s","0.743504400015809",1,8,0,2,0
"250014","img/neutralC/CFD-WM-011-002-N.jpg","1","k","0.768423400004394",1,8,0,2,0
"250014","img/neutralC/CFD-MF-352-054-N.jpg","1","k","0.73284860001877",1,8,0,2,0
"250014","img/neutralC/CFD-BF-040-003-N.jpg","0","k","0.381471200031228",1,8,0,2,0
"250014","img/neutralC/CFD-IM-726-248-N.jpg","0","s","0.473297899996396",1,8,0,2,0
"250014","img/neutralC/CFD-BF-244-231-N.jpg","1","k","0.740205500042066",1,8,0,2,0
"250014","img/neutralC/CFD-MF-359-019-N.jpg","1","s","0.455026600044221",1,8,0,2,0
"250014","img/neutralC/CFD-BM-028-002-N.jpg","1","k","0.892916900047567",1,8,0,2,0
"250014","img/neutralC/CFD-LM-240-013-N.jpg","1","k","0.854458799993154",1,8,0,2,0
"250014","img/neutralC/CFD-LM-201-057-N.jpg","0","k","0.828062700049486",1,8,0,2,0
"250014","img/neutralC/CFD-WF-022-017-N.jpg","0","k","0.906424399989191",1,8,0,2,0
"250014","img/neutralC/CFD-IM-678-482-N.jpg","0","k","1.43560440000147",1,8,0,2,0
"250014","img/neutralC/CFD-LF-216-121-N.jpg","0","k","0.94071029999759",1,8,0,2,0
"250014","img/neutralC/CFD-AF-231-357-N.jpg","1","k","0.374090400000568",1,8,0,2,0
"250014","img/neutralC/CFD-WM-201-063-N.jpg","1","s","0.541813799994998",1,8,0,2,0
"250014","img/neutralC/CFD-WF-217-085-N.jpg","1","s","0.514307399978861",1,8,0,2,0
"250014","img/neutralC/CFD-IF-623-129-N.jpg","1","s","0.439698099973612",1,8,0,2,0
"250014","img/neutralC/CFD-BF-011-002-N.jpg","0","s","0.717424799979199",1,8,0,2,0
"250014","img/neutralC/CFD-BF-036-027-N.jpg","1","s","0.378940700029489",1,8,0,2,0
"250014","img/neutralC/CFD-BM-231-155-N.jpg","1","s","0.978317700035404",1,8,0,2,0
"250014","img/neutralC/CFD-AM-217-085-N.jpg","1","s","0.561124200001359",1,8,0,2,0
"250014","img/neutralC/CFD-WF-017-003-N.jpg","0","k","0.869188100041356",1,8,0,2,0
"250014","img/neutralC/CFD-MM-317-061-N.jpg","1","k","0.43537419999484",1,8,0,2,0
"250014","img/neutralC/CFD-WM-235-147-N.jpg","0","k","0.731775399995968",1,8,0,2,0
"250014","img/neutralC/CFD-MM-324-069-N.jpg","0","k","0.626775700016879",1,8,0,2,0
"250014","img/neutralC/CFD-IM-728-041-N.jpg","1","k","0.817816200025845",1,8,0,2,0
"250014","img/neutralC/CFD-MF-333-012-N.jpg","0","k","0.876456999976654",1,8,0,2,0
"250014","img/neutralC/CFD-LM-228-188-N.jpg","1","k","3.70578610000666",1,8,0,2,0
"250014","img/neutralC/CFD-BF-247-179-N.jpg","0","k","1.16148519999115",1,8,0,2,0
"250014","img/neutralC/CFD-LF-215-157-N.jpg","1","s","0.982956000021659",1,8,0,2,0
"250014","img/neutralC/CFD-WF-212-050-N.jpg","0","k","1.14727259997744",1,8,0,2,0
"250014","img/neutralC/CFD-IM-645-001-N.jpg","1","k","0.721321600023657",1,8,0,2,0
"250014","img/neutralC/CFD-IM-686-097-N.jpg","0","k","0.779930399963632",1,8,0,2,0
"250014","img/neutralC/CFD-AM-215-120-N.jpg","0","k","1.11477949999971",1,8,0,2,0
"250014","img/neutralC/CFD-IF-626-375-N.jpg","1","k","0.268824199971277",1,8,0,2,0
"250014","img/neutralC/CFD-BF-204-189-N.jpg","1","s","0.575588500010781",1,8,0,2,0
"250014","img/neutralC/CFD-WM-013-001-N.jpg","0","s","0.11854769999627",0,8,0,2,0
"250014","img/neutralC/CFD-BM-043-071-N.jpg","1","k","1.93721060000826",1,8,0,2,0
"250014","img/neutralC/CFD-BM-041-035-N.jpg","0","k","1.24203250004211",1,8,0,2,0
"250014","img/neutralC/CFD-IF-619-197-N.jpg","0","s","0.397322599950712",1,8,0,2,0
"250014","img/neutralC/CFD-WM-218-074-N.jpg","0","s","0.465331699990202",1,8,0,2,0
"250014","img/neutralC/CFD-BM-205-001-N.jpg","1","s","0.36599230003776",1,8,0,2,0
"250014","img/neutralC/CFD-IF-636-011-N.jpg","1","k","0.535766599990893",1,8,0,2,0
"250014","img/neutralC/CFD-BF-228-212-N.jpg","0","k","0.322373599978164",1,8,0,2,0
"250014","img/neutralC/CFD-BF-023-010-N.jpg","1","k","1.13815449998947",1,8,0,2,0
"250014","img/neutralC/CFD-LF-201-035-N.jpg","0","k","0.372525899962056",1,8,0,2,0
"250014","img/neutralC/CFD-BF-235-168-N.jpg","0","k","0.303747300000396",1,8,0,2,0
"250014","img/neutralC/CFD-BF-229-179-N.jpg","0","s","0.839935800002422",1,8,0,2,0
