"participant_id","current_trial_face","pre_trial_face","post_trial_face","current_trial_accuracy","pre_trial_accuracy","post_trial_accuracy","current_trial_congruency","pre_trial_congruency","post_trial_congruency","current_trial_rt","pre_trial_rt","post_trial_rt","current_trial_responded","pre_trial_responded","post_trial_responded","current_trial_legitResponse","pre_trial_legitResponse","post_trial_legitResponse","current_trial_resp_nums","pre_trial_resp_nums","post_trial_resp_nums"
"250072","img/neutralC/CFD-WF-234-086-N.jpg",NA,"img/neutralC/CFD-BF-044-034-N.jpg","1",NA,"1","1",NA,"0","1.28810030012392",NA,"0.862850899808109","1",NA,"1","1",NA,"1","1",NA,"1"
"250072","img/neutralC/CFD-BF-044-034-N.jpg","img/neutralC/CFD-WF-234-086-N.jpg","img/neutralC/CFD-WF-029-002-N.jpg","1","1","1","0","1","0","0.862850899808109","1.28810030012392","0.65688779996708","1","1","1","1","1","1","1","1","1"
"250072","img/neutralC/CFD-WF-029-002-N.jpg","img/neutralC/CFD-BF-044-034-N.jpg","img/neutralC/CFD-WM-014-002-N.jpg","1","1","1","0","0","0","0.65688779996708","0.862850899808109","0.56318820011802","1","1","1","1","1","1","1","1","1"
"250072","img/neutralC/CFD-WM-014-002-N.jpg","img/neutralC/CFD-WF-029-002-N.jpg","img/neutralC/CFD-BM-036-003-N.jpg","1","1","1","0","0","1","0.56318820011802","0.65688779996708","0.379388900008053","1","1","1","1","1","1","1","1","1"
"250072","img/neutralC/CFD-BM-036-003-N.jpg","img/neutralC/CFD-WM-014-002-N.jpg","img/neutralC/CFD-LM-213-061-N.jpg","1","1","1","1","0","0","0.379388900008053","0.56318820011802","0.577640800038353","1","1","1","1","1","1","1","1","1"
"250072","img/neutralC/CFD-LM-213-061-N.jpg","img/neutralC/CFD-BM-036-003-N.jpg","img/neutralC/CFD-BF-011-002-N.jpg","1","1","1","0","1","1","0.577640800038353","0.379388900008053","0.490149500081316","1","1","1","1","1","1","1","1","1"
"250072","img/neutralC/CFD-BF-011-002-N.jpg","img/neutralC/CFD-LM-213-061-N.jpg","img/neutralC/CFD-BF-002-001-N.jpg","1","1","1","1","0","0","0.490149500081316","0.577640800038353","0.66329410020262","1","1","1","1","1","1","1","1","1"
"250072","img/neutralC/CFD-BF-002-001-N.jpg","img/neutralC/CFD-BF-011-002-N.jpg","img/neutralC/CFD-BM-238-242-N.jpg","1","1","1","0","1","0","0.66329410020262","0.490149500081316","0.605520100099966","1","1","1","1","1","1","1","1","1"
"250072","img/neutralC/CFD-BM-238-242-N.jpg","img/neutralC/CFD-BF-002-001-N.jpg","img/neutralC/CFD-AM-230-150-N.jpg","1","1","1","0","0","0","0.605520100099966","0.66329410020262","0.487372200004757","1","1","1","1","1","1","1","1","1"
"250072","img/neutralC/CFD-AM-230-150-N.jpg","img/neutralC/CFD-BM-238-242-N.jpg","img/neutralC/CFD-BM-241-235-N.jpg","1","1","1","0","0","0","0.487372200004757","0.605520100099966","0.665525400079787","1","1","1","1","1","1","1","1","1"
"250072","img/neutralC/CFD-BM-241-235-N.jpg","img/neutralC/CFD-AM-230-150-N.jpg","img/neutralC/CFD-WM-248-036-N.jpg","1","1","1","0","0","1","0.665525400079787","0.487372200004757","0.571533099981025","1","1","1","1","1","1","1","1","1"
"250072","img/neutralC/CFD-WM-248-036-N.jpg","img/neutralC/CFD-BM-241-235-N.jpg","img/neutralC/CFD-BF-236-177-N.jpg","1","1","1","1","0","0","0.571533099981025","0.665525400079787","0.557496400084347","1","1","1","1","1","1","1","1","1"
"250072","img/neutralC/CFD-BF-236-177-N.jpg","img/neutralC/CFD-WM-248-036-N.jpg","img/neutralC/CFD-BF-247-179-N.jpg","1","1","1","0","1","0","0.557496400084347","0.571533099981025","0.548813099972904","1","1","1","1","1","1","1","1","1"
"250072","img/neutralC/CFD-BF-247-179-N.jpg","img/neutralC/CFD-BF-236-177-N.jpg","img/neutralC/CFD-BM-207-024-N.jpg","1","1","1","0","0","1","0.548813099972904","0.557496400084347","0.526482500135899","1","1","1","1","1","1","1","1","1"
"250072","img/neutralC/CFD-BM-207-024-N.jpg","img/neutralC/CFD-BF-247-179-N.jpg","img/neutralC/CFD-IF-677-452-1-N.jpg","1","1","1","1","0","1","0.526482500135899","0.548813099972904","0.478592399973422","1","1","1","1","1","1","1","1","1"
"250072","img/neutralC/CFD-IF-677-452-1-N.jpg","img/neutralC/CFD-BM-207-024-N.jpg","img/neutralC/CFD-IM-721-341-N.jpg","1","1","1","1","1","1","0.478592399973422","0.526482500135899","0.46841249987483","1","1","1","1","1","1","1","1","1"
"250072","img/neutralC/CFD-IM-721-341-N.jpg","img/neutralC/CFD-IF-677-452-1-N.jpg","img/neutralC/CFD-BF-006-017-N.jpg","1","1","1","1","1","0","0.46841249987483","0.478592399973422","0.54336449992843","1","1","1","1","1","1","1","1","1"
"250072","img/neutralC/CFD-BF-006-017-N.jpg","img/neutralC/CFD-IM-721-341-N.jpg","img/neutralC/CFD-IM-696-001-N.jpg","1","1","1","0","1","0","0.54336449992843","0.46841249987483","0.624197899829596","1","1","1","1","1","1","1","1","1"
"250072","img/neutralC/CFD-IM-696-001-N.jpg","img/neutralC/CFD-BF-006-017-N.jpg","img/neutralC/CFD-BF-036-027-N.jpg","1","1","1","0","0","0","0.624197899829596","0.54336449992843","0.604166600154713","1","1","1","1","1","1","1","1","1"
"250072","img/neutralC/CFD-BF-036-027-N.jpg","img/neutralC/CFD-IM-696-001-N.jpg","img/neutralC/CFD-IM-726-248-N.jpg","1","1","1","0","0","0","0.604166600154713","0.624197899829596","0.532494300045073","1","1","1","1","1","1","1","1","1"
"250072","img/neutralC/CFD-IM-726-248-N.jpg","img/neutralC/CFD-BF-036-027-N.jpg","img/neutralC/CFD-WF-208-068-N.jpg","1","1","1","0","0","1","0.532494300045073","0.604166600154713","0.549817099934444","1","1","1","1","1","1","1","1","1"
"250072","img/neutralC/CFD-WF-208-068-N.jpg","img/neutralC/CFD-IM-726-248-N.jpg","img/neutralC/CFD-BF-027-002-N.jpg","1","1","1","1","0","1","0.549817099934444","0.532494300045073","0.442592700012028","1","1","1","1","1","1","1","1","1"
"250072","img/neutralC/CFD-BF-027-002-N.jpg","img/neutralC/CFD-WF-208-068-N.jpg","img/neutralC/CFD-IM-707-105-N.jpg","1","1","1","1","1","1","0.442592700012028","0.549817099934444","0.537984000053257","1","1","1","1","1","1","1","1","1"
"250072","img/neutralC/CFD-IM-707-105-N.jpg","img/neutralC/CFD-BF-027-002-N.jpg","img/neutralC/CFD-WF-233-112-N.jpg","1","1","1","1","1","1","0.537984000053257","0.442592700012028","0.42257359996438","1","1","1","1","1","1","1","1","1"
"250072","img/neutralC/CFD-WF-233-112-N.jpg","img/neutralC/CFD-IM-707-105-N.jpg","img/neutralC/CFD-MF-301-024-N.jpg","1","1","1","1","1","0","0.42257359996438","0.537984000053257","0.608620299957693","1","1","1","1","1","1","1","1","1"
"250072","img/neutralC/CFD-MF-301-024-N.jpg","img/neutralC/CFD-WF-233-112-N.jpg","img/neutralC/CFD-IF-729-393-N.jpg","1","1","1","0","1","0","0.608620299957693","0.42257359996438","0.566724000032991","1","1","1","1","1","1","1","1","1"
"250072","img/neutralC/CFD-IF-729-393-N.jpg","img/neutralC/CFD-MF-301-024-N.jpg","img/neutralC/CFD-WM-034-030-N.jpg","1","1","1","0","0","1","0.566724000032991","0.608620299957693","0.504413099959493","1","1","1","1","1","1","1","1","1"
"250072","img/neutralC/CFD-WM-034-030-N.jpg","img/neutralC/CFD-IF-729-393-N.jpg","img/neutralC/CFD-BF-214-308-N.jpg","1","1","1","1","0","1","0.504413099959493","0.566724000032991","0.499339999863878","1","1","1","1","1","1","1","1","1"
"250072","img/neutralC/CFD-BF-214-308-N.jpg","img/neutralC/CFD-WM-034-030-N.jpg","img/neutralC/CFD-BF-207-004-N.jpg","1","1","1","1","1","1","0.499339999863878","0.504413099959493","0.444616799941286","1","1","1","1","1","1","1","1","1"
"250072","img/neutralC/CFD-BF-207-004-N.jpg","img/neutralC/CFD-BF-214-308-N.jpg","img/neutralC/CFD-IF-742-103-N.jpg","1","1","1","1","1","1","0.444616799941286","0.499339999863878","0.495437099831179","1","1","1","1","1","1","1","1","1"
"250072","img/neutralC/CFD-IF-742-103-N.jpg","img/neutralC/CFD-BF-207-004-N.jpg","img/neutralC/CFD-LF-204-133-N.jpg","1","1","1","1","1","1","0.495437099831179","0.444616799941286","0.531955200014636","1","1","1","1","1","1","1","1","1"
"250072","img/neutralC/CFD-LF-204-133-N.jpg","img/neutralC/CFD-IF-742-103-N.jpg",NA,"1","1",NA,"1","1",NA,"0.531955200014636","0.495437099831179",NA,"1","1",NA,"1","1",NA,"1","1",NA
"250072","img/neutralC/CFD-LM-225-130-N.jpg",NA,"img/neutralC/CFD-WM-218-074-N.jpg","0",NA,"1","0",NA,"1","0.5471530999057",NA,"0.531194100156426","1",NA,"1","1",NA,"1","1",NA,"1"
"250072","img/neutralC/CFD-WM-218-074-N.jpg","img/neutralC/CFD-LM-225-130-N.jpg","img/neutralC/CFD-IM-702-101-N.jpg","1","0","1","1","0","1","0.531194100156426","0.5471530999057","0.421267899917439","1","1","1","1","1","1","1","1","1"
"250072","img/neutralC/CFD-IM-702-101-N.jpg","img/neutralC/CFD-WM-218-074-N.jpg","img/neutralC/CFD-WF-244-163-N.jpg","1","1","1","1","1","1","0.421267899917439","0.531194100156426","0.444357599830255","1","1","1","1","1","1","1","1","1"
"250072","img/neutralC/CFD-WF-244-163-N.jpg","img/neutralC/CFD-IM-702-101-N.jpg","img/neutralC/CFD-IM-706-002-N.jpg","1","1","0","1","1","0","0.444357599830255","0.421267899917439","0.422636999981478","1","1","1","1","1","1","1","1","1"
"250072","img/neutralC/CFD-IM-706-002-N.jpg","img/neutralC/CFD-WF-244-163-N.jpg","img/neutralC/CFD-BF-014-002-N.jpg","0","1","1","0","1","1","0.422636999981478","0.444357599830255","0.53951060003601","1","1","1","1","1","1","1","1","1"
"250072","img/neutralC/CFD-BF-014-002-N.jpg","img/neutralC/CFD-IM-706-002-N.jpg","img/neutralC/CFD-IF-660-464-N.jpg","1","0","1","1","0","0","0.53951060003601","0.422636999981478","0.566905499901623","1","1","1","1","1","1","1","1","1"
"250072","img/neutralC/CFD-IF-660-464-N.jpg","img/neutralC/CFD-BF-014-002-N.jpg","img/neutralC/CFD-BM-217-082-N.jpg","1","1","1","0","1","0","0.566905499901623","0.53951060003601","0.444019800052047","1","1","1","1","1","1","1","1","1"
"250072","img/neutralC/CFD-BM-217-082-N.jpg","img/neutralC/CFD-IF-660-464-N.jpg","img/neutralC/CFD-WM-015-002-N.jpg","1","1","1","0","0","0","0.444019800052047","0.566905499901623","0.520779500016943","1","1","1","1","1","1","1","1","1"
"250072","img/neutralC/CFD-WM-015-002-N.jpg","img/neutralC/CFD-BM-217-082-N.jpg","img/neutralC/CFD-WF-030-002-N.jpg","1","1","1","0","0","0","0.520779500016943","0.444019800052047","0.480417100014165","1","1","1","1","1","1","1","1","1"
"250072","img/neutralC/CFD-WF-030-002-N.jpg","img/neutralC/CFD-WM-015-002-N.jpg","img/neutralC/CFD-MF-316-001-N.jpg","1","1","1","0","0","0","0.480417100014165","0.520779500016943","0.528374700108543","1","1","1","1","1","1","1","1","1"
"250072","img/neutralC/CFD-MF-316-001-N.jpg","img/neutralC/CFD-WF-030-002-N.jpg","img/neutralC/CFD-LF-255-088-N.jpg","1","1","1","0","0","0","0.528374700108543","0.480417100014165","0.605745299952105","1","1","1","1","1","1","1","1","1"
"250072","img/neutralC/CFD-LF-255-088-N.jpg","img/neutralC/CFD-MF-316-001-N.jpg","img/neutralC/CFD-LF-206-078-N.jpg","1","1","1","0","0","1","0.605745299952105","0.528374700108543","0.42990759992972","1","1","1","1","1","1","1","1","1"
"250072","img/neutralC/CFD-LF-206-078-N.jpg","img/neutralC/CFD-LF-255-088-N.jpg","img/neutralC/CFD-IM-680-369-N.jpg","1","1","1","1","0","1","0.42990759992972","0.605745299952105","0.435404099989682","1","1","1","1","1","1","1","1","1"
"250072","img/neutralC/CFD-IM-680-369-N.jpg","img/neutralC/CFD-LF-206-078-N.jpg","img/neutralC/CFD-IM-667-369-N.jpg","1","1","1","1","1","0","0.435404099989682","0.42990759992972","0.526702100178227","1","1","1","1","1","1","1","1","1"
"250072","img/neutralC/CFD-IM-667-369-N.jpg","img/neutralC/CFD-IM-680-369-N.jpg","img/neutralC/CFD-AM-220-134-N.jpg","1","1","1","0","1","0","0.526702100178227","0.435404099989682","0.476451100083068","1","1","1","1","1","1","1","1","1"
"250072","img/neutralC/CFD-AM-220-134-N.jpg","img/neutralC/CFD-IM-667-369-N.jpg","img/neutralC/CFD-IF-626-375-N.jpg","1","1","1","0","0","0","0.476451100083068","0.526702100178227","0.391806999919936","1","1","1","1","1","1","1","1","1"
"250072","img/neutralC/CFD-IF-626-375-N.jpg","img/neutralC/CFD-AM-220-134-N.jpg","img/neutralC/CFD-AF-253-130-N.jpg","1","1","1","0","0","1","0.391806999919936","0.476451100083068","0.419156499905512","1","1","1","1","1","1","1","1","1"
"250072","img/neutralC/CFD-AF-253-130-N.jpg","img/neutralC/CFD-IF-626-375-N.jpg","img/neutralC/CFD-MF-303-013-N.jpg","1","1","1","1","0","0","0.419156499905512","0.391806999919936","0.439844300039113","1","1","1","1","1","1","1","1","1"
"250072","img/neutralC/CFD-MF-303-013-N.jpg","img/neutralC/CFD-AF-253-130-N.jpg","img/neutralC/CFD-MF-343-001-N.jpg","1","1","1","0","1","1","0.439844300039113","0.419156499905512","0.368411700008437","1","1","1","1","1","1","1","1","1"
"250072","img/neutralC/CFD-MF-343-001-N.jpg","img/neutralC/CFD-MF-303-013-N.jpg","img/neutralC/CFD-MF-305-014-N.jpg","1","1","1","1","0","1","0.368411700008437","0.439844300039113","0.431668699951842","1","1","1","1","1","1","1","1","1"
"250072","img/neutralC/CFD-MF-305-014-N.jpg","img/neutralC/CFD-MF-343-001-N.jpg","img/neutralC/CFD-BM-001-014-N.jpg","1","1","1","1","1","0","0.431668699951842","0.368411700008437","0.417744100093842","1","1","1","1","1","1","1","1","1"
"250072","img/neutralC/CFD-BM-001-014-N.jpg","img/neutralC/CFD-MF-305-014-N.jpg","img/neutralC/CFD-BM-250-170-N.jpg","1","1","1","0","1","1","0.417744100093842","0.431668699951842","0.412019999930635","1","1","1","1","1","1","1","1","1"
"250072","img/neutralC/CFD-BM-250-170-N.jpg","img/neutralC/CFD-BM-001-014-N.jpg","img/neutralC/CFD-WM-209-038-N.jpg","1","1","1","1","0","0","0.412019999930635","0.417744100093842","0.597390800016001","1","1","1","1","1","1","1","1","1"
"250072","img/neutralC/CFD-WM-209-038-N.jpg","img/neutralC/CFD-BM-250-170-N.jpg","img/neutralC/CFD-AF-233-190-N.jpg","1","1","1","0","1","0","0.597390800016001","0.412019999930635","0.764266600133851","1","1","1","1","1","1","1","1","1"
"250072","img/neutralC/CFD-AF-233-190-N.jpg","img/neutralC/CFD-WM-209-038-N.jpg","img/neutralC/CFD-BF-237-172-N.jpg","1","1","1","0","0","1","0.764266600133851","0.597390800016001","0.452435699990019","1","1","1","1","1","1","1","1","1"
"250072","img/neutralC/CFD-BF-237-172-N.jpg","img/neutralC/CFD-AF-233-190-N.jpg","img/neutralC/CFD-LM-200-045-N.jpg","1","1","1","1","0","1","0.452435699990019","0.764266600133851","0.530702700139955","1","1","1","1","1","1","1","1","1"
"250072","img/neutralC/CFD-LM-200-045-N.jpg","img/neutralC/CFD-BF-237-172-N.jpg","img/neutralC/CFD-IM-664-651-N.jpg","1","1","1","1","1","1","0.530702700139955","0.452435699990019","0.466315499972552","1","1","1","1","1","1","1","1","1"
"250072","img/neutralC/CFD-IM-664-651-N.jpg","img/neutralC/CFD-LM-200-045-N.jpg","img/neutralC/CFD-MF-357-002-N.jpg","1","1","1","1","1","0","0.466315499972552","0.530702700139955","0.504048600094393","1","1","1","1","1","1","1","1","1"
"250072","img/neutralC/CFD-MF-357-002-N.jpg","img/neutralC/CFD-IM-664-651-N.jpg","img/neutralC/CFD-MM-324-069-N.jpg","1","1","1","0","1","1","0.504048600094393","0.466315499972552","0.436445400118828","1","1","1","1","1","1","1","1","1"
"250072","img/neutralC/CFD-MM-324-069-N.jpg","img/neutralC/CFD-MF-357-002-N.jpg","img/neutralC/CFD-WF-222-092-N.jpg","1","1","1","1","0","1","0.436445400118828","0.504048600094393","0.494817399885505","1","1","1","1","1","1","1","1","1"
"250072","img/neutralC/CFD-WF-222-092-N.jpg","img/neutralC/CFD-MM-324-069-N.jpg","img/neutralC/CFD-WF-007-001-N.jpg","1","1","1","1","1","1","0.494817399885505","0.436445400118828","0.545858199940994","1","1","1","1","1","1","1","1","1"
"250072","img/neutralC/CFD-WF-007-001-N.jpg","img/neutralC/CFD-WF-222-092-N.jpg",NA,"1","1",NA,"1","1",NA,"0.545858199940994","0.494817399885505",NA,"1","1",NA,"1","1",NA,"1","1",NA
"250072","img/neutralC/CFD-LM-216-082-N.jpg",NA,"img/neutralC/CFD-WM-249-239-N.jpg","0",NA,"1","0",NA,"1","1.60955819999799",NA,"0.5965770999901","1",NA,"1","1",NA,"1","1",NA,"1"
"250072","img/neutralC/CFD-WM-249-239-N.jpg","img/neutralC/CFD-LM-216-082-N.jpg","img/neutralC/CFD-WF-240-083-N.jpg","1","0","1","1","0","0","0.5965770999901","1.60955819999799","0.48403950012289","1","1","1","1","1","1","1","1","1"
"250072","img/neutralC/CFD-WF-240-083-N.jpg","img/neutralC/CFD-WM-249-239-N.jpg","img/neutralC/CFD-BF-025-002-N.jpg","1","1","1","0","1","0","0.48403950012289","0.5965770999901","0.519763800082728","1","1","1","1","1","1","1","1","1"
"250072","img/neutralC/CFD-BF-025-002-N.jpg","img/neutralC/CFD-WF-240-083-N.jpg","img/neutralC/CFD-AM-247-165-N.jpg","1","1","0","0","0","1","0.519763800082728","0.48403950012289","0.663791800150648","1","1","1","1","1","1","1","1","1"
"250072","img/neutralC/CFD-AM-247-165-N.jpg","img/neutralC/CFD-BF-025-002-N.jpg","img/neutralC/CFD-LM-243-075-N.jpg","0","1","1","1","0","0","0.663791800150648","0.519763800082728","0.67932130000554","1","1","1","1","1","1","1","1","1"
"250072","img/neutralC/CFD-LM-243-075-N.jpg","img/neutralC/CFD-AM-247-165-N.jpg","img/neutralC/CFD-WM-212-097-N.jpg","1","0","1","0","1","0","0.67932130000554","0.663791800150648","0.623316699871793","1","1","1","1","1","1","1","1","1"
"250072","img/neutralC/CFD-WM-212-097-N.jpg","img/neutralC/CFD-LM-243-075-N.jpg","img/neutralC/CFD-WM-026-001-N.jpg","1","1","1","0","0","1","0.623316699871793","0.67932130000554","0.46822279994376","1","1","1","1","1","1","1","1","1"
"250072","img/neutralC/CFD-WM-026-001-N.jpg","img/neutralC/CFD-WM-212-097-N.jpg","img/neutralC/CFD-LM-214-165-N.jpg","1","1","1","1","0","1","0.46822279994376","0.623316699871793","0.621261700056493","1","1","1","1","1","1","1","1","1"
"250072","img/neutralC/CFD-LM-214-165-N.jpg","img/neutralC/CFD-WM-026-001-N.jpg","img/neutralC/CFD-BF-212-315-N.jpg","1","1","1","1","1","1","0.621261700056493","0.46822279994376","0.495319099863991","1","1","1","1","1","1","1","1","1"
"250072","img/neutralC/CFD-BF-212-315-N.jpg","img/neutralC/CFD-LM-214-165-N.jpg","img/neutralC/CFD-MM-317-061-N.jpg","1","1","1","1","1","1","0.495319099863991","0.621261700056493","0.531115300022066","1","1","1","1","1","1","1","1","1"
"250072","img/neutralC/CFD-MM-317-061-N.jpg","img/neutralC/CFD-BF-212-315-N.jpg","img/neutralC/CFD-IM-646-023-N.jpg","1","1","1","1","1","1","0.531115300022066","0.495319099863991","0.3920466999989","1","1","1","1","1","1","1","1","1"
"250072","img/neutralC/CFD-IM-646-023-N.jpg","img/neutralC/CFD-MM-317-061-N.jpg","img/neutralC/CFD-WM-019-003-N.jpg","1","1","1","1","1","1","0.3920466999989","0.531115300022066","0.503267499851063","1","1","1","1","1","1","1","1","1"
"250072","img/neutralC/CFD-WM-019-003-N.jpg","img/neutralC/CFD-IM-646-023-N.jpg","img/neutralC/CFD-LM-244-068-N.jpg","1","1","1","1","1","1","0.503267499851063","0.3920466999989","0.43051670002751","1","1","1","1","1","1","1","1","1"
"250072","img/neutralC/CFD-LM-244-068-N.jpg","img/neutralC/CFD-WM-019-003-N.jpg","img/neutralC/CFD-AF-240-206-N.jpg","1","1","1","1","1","0","0.43051670002751","0.503267499851063","0.537723500048742","1","1","1","1","1","1","1","1","1"
"250072","img/neutralC/CFD-AF-240-206-N.jpg","img/neutralC/CFD-LM-244-068-N.jpg","img/neutralC/CFD-BM-205-001-N.jpg","1","1","1","0","1","0","0.537723500048742","0.43051670002751","0.451127100037411","1","1","1","1","1","1","1","1","1"
"250072","img/neutralC/CFD-BM-205-001-N.jpg","img/neutralC/CFD-AF-240-206-N.jpg","img/neutralC/CFD-BF-228-212-N.jpg","1","1","1","0","0","0","0.451127100037411","0.537723500048742","0.577571200206876","1","1","1","1","1","1","1","1","1"
"250072","img/neutralC/CFD-BF-228-212-N.jpg","img/neutralC/CFD-BM-205-001-N.jpg","img/neutralC/CFD-WM-006-002-N.jpg","1","1","1","0","0","0","0.577571200206876","0.451127100037411","0.48780390014872","1","1","1","1","1","1","1","1","1"
"250072","img/neutralC/CFD-WM-006-002-N.jpg","img/neutralC/CFD-BF-228-212-N.jpg","img/neutralC/CFD-BF-041-001-N.jpg","1","1","1","0","0","1","0.48780390014872","0.577571200206876","0.410513800103217","1","1","1","1","1","1","1","1","1"
"250072","img/neutralC/CFD-BF-041-001-N.jpg","img/neutralC/CFD-WM-006-002-N.jpg","img/neutralC/CFD-IF-642-295-N.jpg","1","1","1","1","0","1","0.410513800103217","0.48780390014872","0.392639399971813","1","1","1","1","1","1","1","1","1"
"250072","img/neutralC/CFD-IF-642-295-N.jpg","img/neutralC/CFD-BF-041-001-N.jpg","img/neutralC/CFD-LM-201-057-N.jpg","1","1","1","1","1","1","0.392639399971813","0.410513800103217","0.495592300081626","1","1","1","1","1","1","1","1","1"
"250072","img/neutralC/CFD-LM-201-057-N.jpg","img/neutralC/CFD-IF-642-295-N.jpg","img/neutralC/CFD-WF-005-010-N.jpg","1","1","1","1","1","0","0.495592300081626","0.392639399971813","0.459803399862722","1","1","1","1","1","1","1","1","1"
"250072","img/neutralC/CFD-WF-005-010-N.jpg","img/neutralC/CFD-LM-201-057-N.jpg","img/neutralC/CFD-MF-309-002-N.jpg","1","1","1","0","1","0","0.459803399862722","0.495592300081626","0.448384399991482","1","1","1","1","1","1","1","1","1"
"250072","img/neutralC/CFD-MF-309-002-N.jpg","img/neutralC/CFD-WF-005-010-N.jpg","img/neutralC/CFD-WM-012-001-N.jpg","1","1","1","0","0","1","0.448384399991482","0.459803399862722","0.464065599953756","1","1","1","1","1","1","1","1","1"
"250072","img/neutralC/CFD-WM-012-001-N.jpg","img/neutralC/CFD-MF-309-002-N.jpg","img/neutralC/CFD-WM-215-041-N.jpg","1","1","1","1","0","0","0.464065599953756","0.448384399991482","0.456353300018236","1","1","1","1","1","1","1","1","1"
"250072","img/neutralC/CFD-WM-215-041-N.jpg","img/neutralC/CFD-WM-012-001-N.jpg","img/neutralC/CFD-IM-648-337-N.jpg","1","1","1","0","1","0","0.456353300018236","0.464065599953756","0.466296600177884","1","1","1","1","1","1","1","1","1"
"250072","img/neutralC/CFD-IM-648-337-N.jpg","img/neutralC/CFD-WM-215-041-N.jpg","img/neutralC/CFD-WF-228-196-N.jpg","1","1","1","0","0","0","0.466296600177884","0.456353300018236","0.464284999994561","1","1","1","1","1","1","1","1","1"
"250072","img/neutralC/CFD-WF-228-196-N.jpg","img/neutralC/CFD-IM-648-337-N.jpg","img/neutralC/CFD-BM-251-013-N.jpg","1","1","1","0","0","1","0.464284999994561","0.466296600177884","0.425834800116718","1","1","1","1","1","1","1","1","1"
"250072","img/neutralC/CFD-BM-251-013-N.jpg","img/neutralC/CFD-WF-228-196-N.jpg","img/neutralC/CFD-MF-335-002-N.jpg","1","1","1","1","0","0","0.425834800116718","0.464284999994561","0.527073099976406","1","1","1","1","1","1","1","1","1"
"250072","img/neutralC/CFD-MF-335-002-N.jpg","img/neutralC/CFD-BM-251-013-N.jpg","img/neutralC/CFD-BF-202-109-N.jpg","1","1","1","0","1","1","0.527073099976406","0.425834800116718","0.395929400110617","1","1","1","1","1","1","1","1","1"
"250072","img/neutralC/CFD-BF-202-109-N.jpg","img/neutralC/CFD-MF-335-002-N.jpg","img/neutralC/CFD-BM-248-128-N.jpg","1","1","1","1","0","0","0.395929400110617","0.527073099976406","0.320422900142148","1","1","1","1","1","1","1","1","1"
"250072","img/neutralC/CFD-BM-248-128-N.jpg","img/neutralC/CFD-BF-202-109-N.jpg","img/neutralC/CFD-WF-017-003-N.jpg","1","1","1","0","1","1","0.320422900142148","0.395929400110617","0.433131600031629","1","1","1","1","1","1","1","1","1"
"250072","img/neutralC/CFD-WF-017-003-N.jpg","img/neutralC/CFD-BM-248-128-N.jpg",NA,"1","1",NA,"1","0",NA,"0.433131600031629","0.320422900142148",NA,"1","1",NA,"1","1",NA,"1","1",NA
"250072","img/neutralC/CFD-IF-625-225-N.jpg",NA,"img/neutralC/CFD-BM-010-003-N.jpg","1",NA,"1","0",NA,"0","0.588602500036359",NA,"0.48778389999643","1",NA,"1","1",NA,"1","1",NA,"1"
"250072","img/neutralC/CFD-BM-010-003-N.jpg","img/neutralC/CFD-IF-625-225-N.jpg","img/neutralC/CFD-LM-247-095-N.jpg","1","1","1","0","0","0","0.48778389999643","0.588602500036359","0.335491199977696","1","1","1","1","1","1","1","1","1"
"250072","img/neutralC/CFD-LM-247-095-N.jpg","img/neutralC/CFD-BM-010-003-N.jpg","img/neutralC/CFD-AF-210-050-N.jpg","1","1","1","0","0","1","0.335491199977696","0.48778389999643","0.368907899828628","1","1","1","1","1","1","1","1","1"
"250072","img/neutralC/CFD-AF-210-050-N.jpg","img/neutralC/CFD-LM-247-095-N.jpg","img/neutralC/CFD-BF-004-014-N.jpg","1","1","1","1","0","1","0.368907899828628","0.335491199977696","0.345177700044587","1","1","1","1","1","1","1","1","1"
"250072","img/neutralC/CFD-BF-004-014-N.jpg","img/neutralC/CFD-AF-210-050-N.jpg","img/neutralC/CFD-AM-221-184-N.jpg","1","1","1","1","1","1","0.345177700044587","0.368907899828628","0.390972000081092","1","1","1","1","1","1","1","1","1"
"250072","img/neutralC/CFD-AM-221-184-N.jpg","img/neutralC/CFD-BF-004-014-N.jpg","img/neutralC/CFD-IF-744-114-N.jpg","1","1","1","1","1","0","0.390972000081092","0.345177700044587","0.368426800007001","1","1","1","1","1","1","1","1","1"
"250072","img/neutralC/CFD-IF-744-114-N.jpg","img/neutralC/CFD-AM-221-184-N.jpg","img/neutralC/CFD-LF-225-164-N.jpg","1","1","1","0","1","1","0.368426800007001","0.390972000081092","0.338412100216374","1","1","1","1","1","1","1","1","1"
"250072","img/neutralC/CFD-LF-225-164-N.jpg","img/neutralC/CFD-IF-744-114-N.jpg","img/neutralC/CFD-IM-738-191-N.jpg","1","1","1","1","0","0","0.338412100216374","0.368426800007001","0.356463699834421","1","1","1","1","1","1","1","1","1"
"250072","img/neutralC/CFD-IM-738-191-N.jpg","img/neutralC/CFD-LF-225-164-N.jpg","img/neutralC/CFD-AF-227-207-N.jpg","1","1","1","0","1","1","0.356463699834421","0.338412100216374","0.344316100003198","1","1","1","1","1","1","1","1","1"
"250072","img/neutralC/CFD-AF-227-207-N.jpg","img/neutralC/CFD-IM-738-191-N.jpg","img/neutralC/CFD-WF-223-133-N.jpg","1","1","0","1","0","0","0.344316100003198","0.356463699834421","0.23435979988426","1","1","1","1","1","1","1","1","1"
"250072","img/neutralC/CFD-WF-223-133-N.jpg","img/neutralC/CFD-AF-227-207-N.jpg","img/neutralC/CFD-LF-241-188-N.jpg","0","1","1","0","1","0","0.23435979988426","0.344316100003198","0.525870600016788","1","1","1","1","1","1","1","1","1"
"250072","img/neutralC/CFD-LF-241-188-N.jpg","img/neutralC/CFD-WF-223-133-N.jpg","img/neutralC/CFD-BM-003-003-N.jpg","1","0","1","0","0","0","0.525870600016788","0.23435979988426","0.49135209992528","1","1","1","1","1","1","1","1","1"
"250072","img/neutralC/CFD-BM-003-003-N.jpg","img/neutralC/CFD-LF-241-188-N.jpg","img/neutralC/CFD-BM-013-002-N.jpg","1","1","1","0","0","1","0.49135209992528","0.525870600016788","0.379778099944815","1","1","1","1","1","1","1","1","1"
"250072","img/neutralC/CFD-BM-013-002-N.jpg","img/neutralC/CFD-BM-003-003-N.jpg","img/neutralC/CFD-WF-033-002-N.jpg","1","1","1","1","0","1","0.379778099944815","0.49135209992528","0.453203300014138","1","1","1","1","1","1","1","1","1"
"250072","img/neutralC/CFD-WF-033-002-N.jpg","img/neutralC/CFD-BM-013-002-N.jpg","img/neutralC/CFD-WM-228-065-N.jpg","1","1","1","1","1","0","0.453203300014138","0.379778099944815","0.459213100140914","1","1","1","1","1","1","1","1","1"
"250072","img/neutralC/CFD-WM-228-065-N.jpg","img/neutralC/CFD-WF-033-002-N.jpg","img/neutralC/CFD-LM-238-129-N.jpg","1","1","1","0","1","1","0.459213100140914","0.453203300014138","0.481015200028196","1","1","1","1","1","1","1","1","1"
"250072","img/neutralC/CFD-LM-238-129-N.jpg","img/neutralC/CFD-WM-228-065-N.jpg","img/neutralC/CFD-IM-659-359-N.jpg","1","1","1","1","0","0","0.481015200028196","0.459213100140914","0.530755199957639","1","1","1","1","1","1","1","1","1"
"250072","img/neutralC/CFD-IM-659-359-N.jpg","img/neutralC/CFD-LM-238-129-N.jpg","img/neutralC/CFD-BM-028-002-N.jpg","1","1","1","0","1","1","0.530755199957639","0.481015200028196","0.487038200022653","1","1","1","1","1","1","1","1","1"
"250072","img/neutralC/CFD-BM-028-002-N.jpg","img/neutralC/CFD-IM-659-359-N.jpg","img/neutralC/CFD-WM-202-107-N.jpg","1","1","1","1","0","1","0.487038200022653","0.530755199957639","0.355730199953541","1","1","1","1","1","1","1","1","1"
"250072","img/neutralC/CFD-WM-202-107-N.jpg","img/neutralC/CFD-BM-028-002-N.jpg","img/neutralC/CFD-IM-701-312-N.jpg","1","1","1","1","1","0","0.355730199953541","0.487038200022653","0.483822599984706","1","1","1","1","1","1","1","1","1"
"250072","img/neutralC/CFD-IM-701-312-N.jpg","img/neutralC/CFD-WM-202-107-N.jpg","img/neutralC/CFD-AF-239-171-N.jpg","1","1","1","0","1","1","0.483822599984706","0.355730199953541","0.410442099906504","1","1","1","1","1","1","1","1","1"
"250072","img/neutralC/CFD-AF-239-171-N.jpg","img/neutralC/CFD-IM-701-312-N.jpg","img/neutralC/CFD-LF-210-220-N.jpg","1","1","1","1","0","1","0.410442099906504","0.483822599984706","0.417073199991137","1","1","1","1","1","1","1","1","1"
"250072","img/neutralC/CFD-LF-210-220-N.jpg","img/neutralC/CFD-AF-239-171-N.jpg","img/neutralC/CFD-MF-312-002-N.jpg","1","1","1","1","1","1","0.417073199991137","0.410442099906504","0.37072839983739","1","1","1","1","1","1","1","1","1"
"250072","img/neutralC/CFD-MF-312-002-N.jpg","img/neutralC/CFD-LF-210-220-N.jpg","img/neutralC/CFD-BF-045-003-N.jpg","1","1","1","1","1","0","0.37072839983739","0.417073199991137","0.407717399997637","1","1","1","1","1","1","1","1","1"
"250072","img/neutralC/CFD-BF-045-003-N.jpg","img/neutralC/CFD-MF-312-002-N.jpg","img/neutralC/CFD-WM-254-152-N.jpg","1","1","1","0","1","1","0.407717399997637","0.37072839983739","0.376346699893475","1","1","1","1","1","1","1","1","1"
"250072","img/neutralC/CFD-WM-254-152-N.jpg","img/neutralC/CFD-BF-045-003-N.jpg","img/neutralC/CFD-LF-208-127-N.jpg","1","1","1","1","0","0","0.376346699893475","0.407717399997637","0.394551000092179","1","1","1","1","1","1","1","1","1"
"250072","img/neutralC/CFD-LF-208-127-N.jpg","img/neutralC/CFD-WM-254-152-N.jpg","img/neutralC/CFD-IF-673-389-N.jpg","1","1","1","0","1","0","0.394551000092179","0.376346699893475","0.411915899952874","1","1","1","1","1","1","1","1","1"
"250072","img/neutralC/CFD-IF-673-389-N.jpg","img/neutralC/CFD-LF-208-127-N.jpg","img/neutralC/CFD-MF-336-016-N.jpg","1","1","1","0","0","1","0.411915899952874","0.394551000092179","0.372699399944395","1","1","1","1","1","1","1","1","1"
"250072","img/neutralC/CFD-MF-336-016-N.jpg","img/neutralC/CFD-IF-673-389-N.jpg","img/neutralC/CFD-BF-222-240-N.jpg","1","1","1","1","0","0","0.372699399944395","0.411915899952874","0.502187799895182","1","1","1","1","1","1","1","1","1"
"250072","img/neutralC/CFD-BF-222-240-N.jpg","img/neutralC/CFD-MF-336-016-N.jpg","img/neutralC/CFD-BM-213-134-N.jpg","1","1","1","0","1","1","0.502187799895182","0.372699399944395","0.417855199892074","1","1","1","1","1","1","1","1","1"
"250072","img/neutralC/CFD-BM-213-134-N.jpg","img/neutralC/CFD-BF-222-240-N.jpg","img/neutralC/CFD-WF-006-002-N.jpg","1","1","1","1","0","0","0.417855199892074","0.502187799895182","0.475608400069177","1","1","1","1","1","1","1","1","1"
"250072","img/neutralC/CFD-WF-006-002-N.jpg","img/neutralC/CFD-BM-213-134-N.jpg",NA,"1","1",NA,"0","1",NA,"0.475608400069177","0.417855199892074",NA,"1","1",NA,"1","1",NA,"1","1",NA
"250072","img/neutralC/CFD-LF-214-090-N.jpg",NA,"img/neutralC/CFD-BM-033-003-N.jpg","1",NA,"1","0",NA,"0","0.918488000053912",NA,"0.477495499886572","1",NA,"1","1",NA,"1","1",NA,"1"
"250072","img/neutralC/CFD-BM-033-003-N.jpg","img/neutralC/CFD-LF-214-090-N.jpg","img/neutralC/CFD-BF-213-188-N.jpg","1","1","1","0","0","1","0.477495499886572","0.918488000053912","0.389220800017938","1","1","1","1","1","1","1","1","1"
"250072","img/neutralC/CFD-BF-213-188-N.jpg","img/neutralC/CFD-BM-033-003-N.jpg","img/neutralC/CFD-MM-316-156-N.jpg","1","1","1","1","0","1","0.389220800017938","0.477495499886572","0.465306000085548","1","1","1","1","1","1","1","1","1"
"250072","img/neutralC/CFD-MM-316-156-N.jpg","img/neutralC/CFD-BF-213-188-N.jpg","img/neutralC/CFD-MF-337-026-N.jpg","1","1","1","1","1","1","0.465306000085548","0.389220800017938","0.432389599969611","1","1","1","1","1","1","1","1","1"
"250072","img/neutralC/CFD-MF-337-026-N.jpg","img/neutralC/CFD-MM-316-156-N.jpg","img/neutralC/CFD-LF-224-176-N.jpg","1","1","1","1","1","0","0.432389599969611","0.465306000085548","0.544008299941197","1","1","1","1","1","1","1","1","1"
"250072","img/neutralC/CFD-LF-224-176-N.jpg","img/neutralC/CFD-MF-337-026-N.jpg","img/neutralC/CFD-IF-634-382-N.jpg","1","1","1","0","1","1","0.544008299941197","0.432389599969611","0.491961699910462","1","1","1","1","1","1","1","1","1"
"250072","img/neutralC/CFD-IF-634-382-N.jpg","img/neutralC/CFD-LF-224-176-N.jpg","img/neutralC/CFD-IM-651-308-N.jpg","1","1","1","1","0","0","0.491961699910462","0.544008299941197","0.45095259998925","1","1","1","1","1","1","1","1","1"
"250072","img/neutralC/CFD-IM-651-308-N.jpg","img/neutralC/CFD-IF-634-382-N.jpg","img/neutralC/CFD-LM-215-247-N.jpg","1","1","1","0","1","0","0.45095259998925","0.491961699910462","0.441677500028163","1","1","1","1","1","1","1","1","1"
"250072","img/neutralC/CFD-LM-215-247-N.jpg","img/neutralC/CFD-IM-651-308-N.jpg","img/neutralC/CFD-WM-021-001-N.jpg","1","1","1","0","0","1","0.441677500028163","0.45095259998925","0.452540500089526","1","1","1","1","1","1","1","1","1"
"250072","img/neutralC/CFD-WM-021-001-N.jpg","img/neutralC/CFD-LM-215-247-N.jpg","img/neutralC/CFD-WF-250-167-N.jpg","1","1","1","1","0","1","0.452540500089526","0.441677500028163","0.366176399867982","1","1","1","1","1","1","1","1","1"
"250072","img/neutralC/CFD-WF-250-167-N.jpg","img/neutralC/CFD-WM-021-001-N.jpg","img/neutralC/CFD-WF-224-099-N.jpg","1","1","1","1","1","0","0.366176399867982","0.452540500089526","0.510686299996451","1","1","1","1","1","1","1","1","1"
"250072","img/neutralC/CFD-WF-224-099-N.jpg","img/neutralC/CFD-WF-250-167-N.jpg","img/neutralC/CFD-IM-684-008-N.jpg","1","1","1","0","1","1","0.510686299996451","0.366176399867982","0.406642200192437","1","1","1","1","1","1","1","1","1"
"250072","img/neutralC/CFD-IM-684-008-N.jpg","img/neutralC/CFD-WF-224-099-N.jpg","img/neutralC/CFD-BF-029-031-N.jpg","1","1","1","1","0","1","0.406642200192437","0.510686299996451","0.418024400016293","1","1","1","1","1","1","1","1","1"
"250072","img/neutralC/CFD-BF-029-031-N.jpg","img/neutralC/CFD-IM-684-008-N.jpg","img/neutralC/CFD-IF-710-016-N.jpg","1","1","1","1","1","0","0.418024400016293","0.406642200192437","0.549029499990866","1","1","1","1","1","1","1","1","1"
"250072","img/neutralC/CFD-IF-710-016-N.jpg","img/neutralC/CFD-BF-029-031-N.jpg","img/neutralC/CFD-BF-253-202-N.jpg","1","1","1","0","1","0","0.549029499990866","0.418024400016293","0.476953099947423","1","1","1","1","1","1","1","1","1"
"250072","img/neutralC/CFD-BF-253-202-N.jpg","img/neutralC/CFD-IF-710-016-N.jpg","img/neutralC/CFD-LF-230-203-N.jpg","1","1","1","0","0","0","0.476953099947423","0.549029499990866","0.432159000076354","1","1","1","1","1","1","1","1","1"
"250072","img/neutralC/CFD-LF-230-203-N.jpg","img/neutralC/CFD-BF-253-202-N.jpg","img/neutralC/CFD-BF-205-141-N.jpg","1","1","1","0","0","0","0.432159000076354","0.476953099947423","0.4511653999798","1","1","1","1","1","1","1","1","1"
"250072","img/neutralC/CFD-BF-205-141-N.jpg","img/neutralC/CFD-LF-230-203-N.jpg","img/neutralC/CFD-WM-011-002-N.jpg","1","1","1","0","0","0","0.4511653999798","0.432159000076354","0.418295399984345","1","1","1","1","1","1","1","1","1"
"250072","img/neutralC/CFD-WM-011-002-N.jpg","img/neutralC/CFD-BF-205-141-N.jpg","img/neutralC/CFD-IF-693-172-N.jpg","1","1","1","0","0","0","0.418295399984345","0.4511653999798","0.474578100023791","1","1","1","1","1","1","1","1","1"
"250072","img/neutralC/CFD-IF-693-172-N.jpg","img/neutralC/CFD-WM-011-002-N.jpg","img/neutralC/CFD-BM-239-136-N.jpg","1","1","1","0","0","1","0.474578100023791","0.418295399984345","0.446990400087088","1","1","1","1","1","1","1","1","1"
"250072","img/neutralC/CFD-BM-239-136-N.jpg","img/neutralC/CFD-IF-693-172-N.jpg","img/neutralC/CFD-LF-203-066-N.jpg","1","1","1","1","0","0","0.446990400087088","0.474578100023791","0.38734560017474","1","1","1","1","1","1","1","1","1"
"250072","img/neutralC/CFD-LF-203-066-N.jpg","img/neutralC/CFD-BM-239-136-N.jpg","img/neutralC/CFD-LM-218-183-N.jpg","1","1","1","0","1","1","0.38734560017474","0.446990400087088","0.382708099903539","1","1","1","1","1","1","1","1","1"
"250072","img/neutralC/CFD-LM-218-183-N.jpg","img/neutralC/CFD-LF-203-066-N.jpg","img/neutralC/CFD-AM-201-076-N.jpg","1","1","1","1","0","1","0.382708099903539","0.38734560017474","0.432862400077283","1","1","1","1","1","1","1","1","1"
"250072","img/neutralC/CFD-AM-201-076-N.jpg","img/neutralC/CFD-LM-218-183-N.jpg","img/neutralC/CFD-LF-205-100-N.jpg","1","1","1","1","1","1","0.432862400077283","0.382708099903539","0.447833999991417","1","1","1","1","1","1","1","1","1"
"250072","img/neutralC/CFD-LF-205-100-N.jpg","img/neutralC/CFD-AM-201-076-N.jpg","img/neutralC/CFD-WF-213-031-N.jpg","1","1","1","1","1","1","0.447833999991417","0.432862400077283","0.37265589996241","1","1","1","1","1","1","1","1","1"
"250072","img/neutralC/CFD-WF-213-031-N.jpg","img/neutralC/CFD-LF-205-100-N.jpg","img/neutralC/CFD-WM-041-021-N.jpg","1","1","1","1","1","0","0.37265589996241","0.447833999991417","0.469191299984232","1","1","1","1","1","1","1","1","1"
"250072","img/neutralC/CFD-WM-041-021-N.jpg","img/neutralC/CFD-WF-213-031-N.jpg","img/neutralC/CFD-BM-019-002-N.jpg","1","1","1","0","1","0","0.469191299984232","0.37265589996241","0.430641700048","1","1","1","1","1","1","1","1","1"
"250072","img/neutralC/CFD-BM-019-002-N.jpg","img/neutralC/CFD-WM-041-021-N.jpg","img/neutralC/CFD-BF-039-031-N.jpg","1","1","1","0","0","1","0.430641700048","0.469191299984232","0.390635299962014","1","1","1","1","1","1","1","1","1"
"250072","img/neutralC/CFD-BF-039-031-N.jpg","img/neutralC/CFD-BM-019-002-N.jpg","img/neutralC/CFD-AF-231-357-N.jpg","1","1","1","1","0","1","0.390635299962014","0.430641700048","0.418520900188014","1","1","1","1","1","1","1","1","1"
"250072","img/neutralC/CFD-AF-231-357-N.jpg","img/neutralC/CFD-BF-039-031-N.jpg","img/neutralC/CFD-AM-212-050-N.jpg","1","1","1","1","1","1","0.418520900188014","0.390635299962014","0.393775600008667","1","1","1","1","1","1","1","1","1"
"250072","img/neutralC/CFD-AM-212-050-N.jpg","img/neutralC/CFD-AF-231-357-N.jpg","img/neutralC/CFD-BM-041-035-N.jpg","1","1","1","1","1","0","0.393775600008667","0.418520900188014","0.503664199961349","1","1","1","1","1","1","1","1","1"
"250072","img/neutralC/CFD-BM-041-035-N.jpg","img/neutralC/CFD-AM-212-050-N.jpg",NA,"1","1",NA,"0","1",NA,"0.503664199961349","0.393775600008667",NA,"1","1",NA,"1","1",NA,"1","1",NA
"250072","img/neutralC/CFD-BM-227-191-N.jpg",NA,"img/neutralC/CFD-BM-021-021-N.jpg","1",NA,"1","1",NA,"1","0.457186599960551",NA,"0.351113500073552","1",NA,"1","1",NA,"1","1",NA,"1"
"250072","img/neutralC/CFD-BM-021-021-N.jpg","img/neutralC/CFD-BM-227-191-N.jpg","img/neutralC/CFD-WF-243-148-N.jpg","1","1","1","1","1","0","0.351113500073552","0.457186599960551","0.410966299939901","1","1","1","1","1","1","1","1","1"
"250072","img/neutralC/CFD-WF-243-148-N.jpg","img/neutralC/CFD-BM-021-021-N.jpg","img/neutralC/CFD-IM-615-167-N.jpg","1","1","1","0","1","0","0.410966299939901","0.351113500073552","0.393494900083169","1","1","1","1","1","1","1","1","1"
"250072","img/neutralC/CFD-IM-615-167-N.jpg","img/neutralC/CFD-WF-243-148-N.jpg","img/neutralC/CFD-AM-249-163-N.jpg","1","1","1","0","0","1","0.393494900083169","0.410966299939901","0.343058599857613","1","1","1","1","1","1","1","1","1"
"250072","img/neutralC/CFD-AM-249-163-N.jpg","img/neutralC/CFD-IM-615-167-N.jpg","img/neutralC/CFD-BF-244-231-N.jpg","1","1","1","1","0","1","0.343058599857613","0.393494900083169","0.36867930018343","1","1","1","1","1","1","1","1","1"
"250072","img/neutralC/CFD-BF-244-231-N.jpg","img/neutralC/CFD-AM-249-163-N.jpg","img/neutralC/CFD-AM-243-212-N.jpg","1","1","1","1","1","1","0.36867930018343","0.343058599857613","0.424960800213739","1","1","1","1","1","1","1","1","1"
"250072","img/neutralC/CFD-AM-243-212-N.jpg","img/neutralC/CFD-BF-244-231-N.jpg","img/neutralC/CFD-WF-009-001-N.jpg","1","1","1","1","1","1","0.424960800213739","0.36867930018343","0.503449999960139","1","1","1","1","1","1","1","1","1"
"250072","img/neutralC/CFD-WF-009-001-N.jpg","img/neutralC/CFD-AM-243-212-N.jpg","img/neutralC/CFD-BM-009-002-N.jpg","1","1","1","1","1","1","0.503449999960139","0.424960800213739","0.403659799834713","1","1","1","1","1","1","1","1","1"
"250072","img/neutralC/CFD-BM-009-002-N.jpg","img/neutralC/CFD-WF-009-001-N.jpg","img/neutralC/CFD-IF-676-017-N.jpg","1","1","1","1","1","1","0.403659799834713","0.503449999960139","0.377256300067529","1","1","1","1","1","1","1","1","1"
"250072","img/neutralC/CFD-IF-676-017-N.jpg","img/neutralC/CFD-BM-009-002-N.jpg","img/neutralC/CFD-AM-205-153-N.jpg","1","1","1","1","1","1","0.377256300067529","0.403659799834713","0.356042700121179","1","1","1","1","1","1","1","1","1"
"250072","img/neutralC/CFD-AM-205-153-N.jpg","img/neutralC/CFD-IF-676-017-N.jpg","img/neutralC/CFD-IM-606-008-N.jpg","1","1","1","1","1","0","0.356042700121179","0.377256300067529","0.565203300211579","1","1","1","1","1","1","1","1","1"
"250072","img/neutralC/CFD-IM-606-008-N.jpg","img/neutralC/CFD-AM-205-153-N.jpg","img/neutralC/CFD-AM-219-101-N.jpg","1","1","1","0","1","0","0.565203300211579","0.356042700121179","0.438497600145638","1","1","1","1","1","1","1","1","1"
"250072","img/neutralC/CFD-AM-219-101-N.jpg","img/neutralC/CFD-IM-606-008-N.jpg","img/neutralC/CFD-MM-306-010-N.jpg","1","1","1","0","0","0","0.438497600145638","0.565203300211579","0.45602159993723","1","1","1","1","1","1","1","1","1"
"250072","img/neutralC/CFD-MM-306-010-N.jpg","img/neutralC/CFD-AM-219-101-N.jpg","img/neutralC/CFD-WM-025-002-N.jpg","1","1","1","0","0","0","0.45602159993723","0.438497600145638","0.412283699959517","1","1","1","1","1","1","1","1","1"
"250072","img/neutralC/CFD-WM-025-002-N.jpg","img/neutralC/CFD-MM-306-010-N.jpg","img/neutralC/CFD-MF-328-020-N.jpg","1","1","1","0","0","0","0.412283699959517","0.45602159993723","0.468193800188601","1","1","1","1","1","1","1","1","1"
"250072","img/neutralC/CFD-MF-328-020-N.jpg","img/neutralC/CFD-WM-025-002-N.jpg","img/neutralC/CFD-BM-030-003-N.jpg","1","1","1","0","0","0","0.468193800188601","0.412283699959517","0.399795199977234","1","1","1","1","1","1","1","1","1"
"250072","img/neutralC/CFD-BM-030-003-N.jpg","img/neutralC/CFD-MF-328-020-N.jpg","img/neutralC/CFD-WF-221-005-N.jpg","1","1","1","0","0","0","0.399795199977234","0.468193800188601","0.466780800139531","1","1","1","1","1","1","1","1","1"
"250072","img/neutralC/CFD-WF-221-005-N.jpg","img/neutralC/CFD-BM-030-003-N.jpg","img/neutralC/CFD-BM-020-001-N.jpg","1","1","1","0","0","0","0.466780800139531","0.399795199977234","0.404202700126916","1","1","1","1","1","1","1","1","1"
"250072","img/neutralC/CFD-BM-020-001-N.jpg","img/neutralC/CFD-WF-221-005-N.jpg","img/neutralC/CFD-WF-241-210-N.jpg","1","1","1","0","0","0","0.404202700126916","0.466780800139531","0.447642599930987","1","1","1","1","1","1","1","1","1"
"250072","img/neutralC/CFD-WF-241-210-N.jpg","img/neutralC/CFD-BM-020-001-N.jpg","img/neutralC/CFD-LM-240-013-N.jpg","1","1","1","0","0","1","0.447642599930987","0.404202700126916","0.400048699928448","1","1","1","1","1","1","1","1","1"
"250072","img/neutralC/CFD-LM-240-013-N.jpg","img/neutralC/CFD-WF-241-210-N.jpg","img/neutralC/CFD-AF-237-223-N.jpg","1","1","1","1","0","0","0.400048699928448","0.447642599930987","0.437233200063929","1","1","1","1","1","1","1","1","1"
"250072","img/neutralC/CFD-AF-237-223-N.jpg","img/neutralC/CFD-LM-240-013-N.jpg","img/neutralC/CFD-LF-222-147-N.jpg","1","1","1","0","1","0","0.437233200063929","0.400048699928448","0.360132500063628","1","1","1","1","1","1","1","1","1"
"250072","img/neutralC/CFD-LF-222-147-N.jpg","img/neutralC/CFD-AF-237-223-N.jpg","img/neutralC/CFD-IM-689-263-N.jpg","1","1","1","0","0","1","0.360132500063628","0.437233200063929","0.380982299800962","1","1","1","1","1","1","1","1","1"
"250072","img/neutralC/CFD-IM-689-263-N.jpg","img/neutralC/CFD-LF-222-147-N.jpg","img/neutralC/CFD-WM-023-001-N.jpg","1","1","1","1","0","0","0.380982299800962","0.360132500063628","0.453356900019571","1","1","1","1","1","1","1","1","1"
"250072","img/neutralC/CFD-WM-023-001-N.jpg","img/neutralC/CFD-IM-689-263-N.jpg","img/neutralC/CFD-LF-212-066-N.jpg","1","1","1","0","1","1","0.453356900019571","0.380982299800962","0.394770100014284","1","1","1","1","1","1","1","1","1"
"250072","img/neutralC/CFD-LF-212-066-N.jpg","img/neutralC/CFD-WM-023-001-N.jpg","img/neutralC/CFD-BF-012-001-N.jpg","1","1","1","1","0","0","0.394770100014284","0.453356900019571","0.443425100063905","1","1","1","1","1","1","1","1","1"
"250072","img/neutralC/CFD-BF-012-001-N.jpg","img/neutralC/CFD-LF-212-066-N.jpg","img/neutralC/CFD-LF-238-154-N.jpg","1","1","1","0","1","1","0.443425100063905","0.394770100014284","0.389494800008833","1","1","1","1","1","1","1","1","1"
"250072","img/neutralC/CFD-LF-238-154-N.jpg","img/neutralC/CFD-BF-012-001-N.jpg","img/neutralC/CFD-IM-697-015-N.jpg","1","1","1","1","0","1","0.389494800008833","0.443425100063905","0.417106100125238","1","1","1","1","1","1","1","1","1"
"250072","img/neutralC/CFD-IM-697-015-N.jpg","img/neutralC/CFD-LF-238-154-N.jpg","img/neutralC/CFD-WM-028-003-N.jpg","1","1","1","1","1","1","0.417106100125238","0.389494800008833","0.333980700001121","1","1","1","1","1","1","1","1","1"
"250072","img/neutralC/CFD-WM-028-003-N.jpg","img/neutralC/CFD-IM-697-015-N.jpg","img/neutralC/CFD-BM-043-071-N.jpg","1","1","1","1","1","0","0.333980700001121","0.417106100125238","0.397462100023404","1","1","1","1","1","1","1","1","1"
"250072","img/neutralC/CFD-BM-043-071-N.jpg","img/neutralC/CFD-WM-028-003-N.jpg","img/neutralC/CFD-WF-207-014-N.jpg","1","1","1","0","1","1","0.397462100023404","0.333980700001121","0.403716100146994","1","1","1","1","1","1","1","1","1"
"250072","img/neutralC/CFD-WF-207-014-N.jpg","img/neutralC/CFD-BM-043-071-N.jpg",NA,"1","1",NA,"1","0",NA,"0.403716100146994","0.397462100023404",NA,"1","1",NA,"1","1",NA,"1","1",NA
"250072","img/neutralC/CFD-BF-232-187-N.jpg",NA,"img/neutralC/CFD-AM-211-052-N.jpg","1",NA,"1","1",NA,"1","0.401096499990672",NA,"0.358093299902976","1",NA,"1","1",NA,"1","1",NA,"1"
"250072","img/neutralC/CFD-AM-211-052-N.jpg","img/neutralC/CFD-BF-232-187-N.jpg","img/neutralC/CFD-BF-226-119-N.jpg","1","1","1","1","1","1","0.358093299902976","0.401096499990672","0.320897199911997","1","1","1","1","1","1","1","1","1"
"250072","img/neutralC/CFD-BF-226-119-N.jpg","img/neutralC/CFD-AM-211-052-N.jpg","img/neutralC/CFD-LM-237-264-N.jpg","1","1","1","1","1","0","0.320897199911997","0.358093299902976","0.365102499956265","1","1","1","1","1","1","1","1","1"
"250072","img/neutralC/CFD-LM-237-264-N.jpg","img/neutralC/CFD-BF-226-119-N.jpg","img/neutralC/CFD-IM-703-182-N.jpg","1","1","1","0","1","1","0.365102499956265","0.320897199911997","0.346905099926516","1","1","1","1","1","1","1","1","1"
"250072","img/neutralC/CFD-IM-703-182-N.jpg","img/neutralC/CFD-LM-237-264-N.jpg","img/neutralC/CFD-AM-251-124-N.jpg","1","1","1","1","0","0","0.346905099926516","0.365102499956265","0.451735300011933","1","1","1","1","1","1","1","1","1"
"250072","img/neutralC/CFD-AM-251-124-N.jpg","img/neutralC/CFD-IM-703-182-N.jpg","img/neutralC/CFD-WM-020-001-N.jpg","1","1","1","0","1","1","0.451735300011933","0.346905099926516","0.359648999990895","1","1","1","1","1","1","1","1","1"
"250072","img/neutralC/CFD-WM-020-001-N.jpg","img/neutralC/CFD-AM-251-124-N.jpg","img/neutralC/CFD-IM-616-214-N.jpg","1","1","1","1","0","0","0.359648999990895","0.451735300011933","0.492744700051844","1","1","1","1","1","1","1","1","1"
"250072","img/neutralC/CFD-IM-616-214-N.jpg","img/neutralC/CFD-WM-020-001-N.jpg","img/neutralC/CFD-WF-200-099-N.jpg","1","1","1","0","1","0","0.492744700051844","0.359648999990895","0.481207699980587","1","1","1","1","1","1","1","1","1"
"250072","img/neutralC/CFD-WF-200-099-N.jpg","img/neutralC/CFD-IM-616-214-N.jpg","img/neutralC/CFD-WM-004-010-N.jpg","1","1","1","0","0","0","0.481207699980587","0.492744700051844","0.326137199997902","1","1","1","1","1","1","1","1","1"
"250072","img/neutralC/CFD-WM-004-010-N.jpg","img/neutralC/CFD-WF-200-099-N.jpg","img/neutralC/CFD-LM-228-188-N.jpg","1","1","1","0","0","1","0.326137199997902","0.481207699980587","0.30472550005652","1","1","1","1","1","1","1","1","1"
"250072","img/neutralC/CFD-LM-228-188-N.jpg","img/neutralC/CFD-WM-004-010-N.jpg","img/neutralC/CFD-WM-033-025-N.jpg","1","1","1","1","0","1","0.30472550005652","0.326137199997902","0.31248930003494","1","1","1","1","1","1","1","1","1"
"250072","img/neutralC/CFD-WM-033-025-N.jpg","img/neutralC/CFD-LM-228-188-N.jpg","img/neutralC/CFD-WM-235-147-N.jpg","1","1","1","1","1","0","0.31248930003494","0.30472550005652","0.37463969993405","1","1","1","1","1","1","1","1","1"
"250072","img/neutralC/CFD-WM-235-147-N.jpg","img/neutralC/CFD-WM-033-025-N.jpg","img/neutralC/CFD-MF-359-019-N.jpg","1","1","1","0","1","0","0.37463969993405","0.31248930003494","0.397682999959216","1","1","1","1","1","1","1","1","1"
"250072","img/neutralC/CFD-MF-359-019-N.jpg","img/neutralC/CFD-WM-235-147-N.jpg","img/neutralC/CFD-MF-352-054-N.jpg","1","1","1","0","0","0","0.397682999959216","0.37463969993405","0.397527900058776","1","1","1","1","1","1","1","1","1"
"250072","img/neutralC/CFD-MF-352-054-N.jpg","img/neutralC/CFD-MF-359-019-N.jpg","img/neutralC/CFD-IF-650-315-N.jpg","1","1","1","0","0","0","0.397527900058776","0.397682999959216","0.386543599888682","1","1","1","1","1","1","1","1","1"
"250072","img/neutralC/CFD-IF-650-315-N.jpg","img/neutralC/CFD-MF-352-054-N.jpg","img/neutralC/CFD-MF-333-012-N.jpg","1","1","1","0","0","0","0.386543599888682","0.397527900058776","0.4455812999513","1","1","1","1","1","1","1","1","1"
"250072","img/neutralC/CFD-MF-333-012-N.jpg","img/neutralC/CFD-IF-650-315-N.jpg","img/neutralC/CFD-IF-623-129-N.jpg","1","1","1","0","0","1","0.4455812999513","0.386543599888682","0.398893499979749","1","1","1","1","1","1","1","1","1"
"250072","img/neutralC/CFD-IF-623-129-N.jpg","img/neutralC/CFD-MF-333-012-N.jpg","img/neutralC/CFD-IM-743-006-N.jpg","1","1","1","1","0","1","0.398893499979749","0.4455812999513","0.372178900055587","1","1","1","1","1","1","1","1","1"
"250072","img/neutralC/CFD-IM-743-006-N.jpg","img/neutralC/CFD-IF-623-129-N.jpg","img/neutralC/CFD-WF-214-122-N.jpg","1","1","1","1","1","1","0.372178900055587","0.398893499979749","0.327581800054759","1","1","1","1","1","1","1","1","1"
"250072","img/neutralC/CFD-WF-214-122-N.jpg","img/neutralC/CFD-IM-743-006-N.jpg","img/neutralC/CFD-IM-671-601-N.jpg","1","1","1","1","1","0","0.327581800054759","0.372178900055587","0.316232100129128","1","1","1","1","1","1","1","1","1"
"250072","img/neutralC/CFD-IM-671-601-N.jpg","img/neutralC/CFD-WF-214-122-N.jpg","img/neutralC/CFD-WF-036-023-N.jpg","1","1","1","0","1","0","0.316232100129128","0.327581800054759","0.512923900038004","1","1","1","1","1","1","1","1","1"
"250072","img/neutralC/CFD-WF-036-023-N.jpg","img/neutralC/CFD-IM-671-601-N.jpg","img/neutralC/CFD-BF-038-037-N.jpg","1","1","1","0","0","1","0.512923900038004","0.316232100129128","0.336144800065085","1","1","1","1","1","1","1","1","1"
"250072","img/neutralC/CFD-BF-038-037-N.jpg","img/neutralC/CFD-WF-036-023-N.jpg","img/neutralC/CFD-BM-253-004-N.jpg","1","1","1","1","0","1","0.336144800065085","0.512923900038004","0.363201000029221","1","1","1","1","1","1","1","1","1"
"250072","img/neutralC/CFD-BM-253-004-N.jpg","img/neutralC/CFD-BF-038-037-N.jpg","img/neutralC/CFD-WF-001-003-N.jpg","1","1","1","1","1","1","0.363201000029221","0.336144800065085","0.34644929994829","1","1","1","1","1","1","1","1","1"
"250072","img/neutralC/CFD-WF-001-003-N.jpg","img/neutralC/CFD-BM-253-004-N.jpg","img/neutralC/CFD-AM-242-176-N.jpg","1","1","1","1","1","1","0.34644929994829","0.363201000029221","0.518253799993545","1","1","1","1","1","1","1","1","1"
"250072","img/neutralC/CFD-AM-242-176-N.jpg","img/neutralC/CFD-WF-001-003-N.jpg","img/neutralC/CFD-BF-229-179-N.jpg","1","1","1","1","1","0","0.518253799993545","0.34644929994829","0.502513200044632","1","1","1","1","1","1","1","1","1"
"250072","img/neutralC/CFD-BF-229-179-N.jpg","img/neutralC/CFD-AM-242-176-N.jpg","img/neutralC/CFD-LF-220-120-N.jpg","1","1","1","0","1","1","0.502513200044632","0.518253799993545","0.400032799923792","1","1","1","1","1","1","1","1","1"
"250072","img/neutralC/CFD-LF-220-120-N.jpg","img/neutralC/CFD-BF-229-179-N.jpg","img/neutralC/CFD-WM-219-008-N.jpg","1","1","1","1","0","0","0.400032799923792","0.502513200044632","0.474655600031838","1","1","1","1","1","1","1","1","1"
"250072","img/neutralC/CFD-WM-219-008-N.jpg","img/neutralC/CFD-LF-220-120-N.jpg","img/neutralC/CFD-BM-225-154-N.jpg","1","1","1","0","1","1","0.474655600031838","0.400032799923792","0.35019539995119","1","1","1","1","1","1","1","1","1"
"250072","img/neutralC/CFD-BM-225-154-N.jpg","img/neutralC/CFD-WM-219-008-N.jpg","img/neutralC/CFD-IM-645-001-N.jpg","1","1","1","1","0","0","0.35019539995119","0.474655600031838","0.409881299827248","1","1","1","1","1","1","1","1","1"
"250072","img/neutralC/CFD-IM-645-001-N.jpg","img/neutralC/CFD-BM-225-154-N.jpg","img/neutralC/CFD-LF-218-072-N.jpg","1","1","1","0","1","0","0.409881299827248","0.35019539995119","0.424431899795309","1","1","1","1","1","1","1","1","1"
"250072","img/neutralC/CFD-LF-218-072-N.jpg","img/neutralC/CFD-IM-645-001-N.jpg",NA,"1","1",NA,"0","0",NA,"0.424431899795309","0.409881299827248",NA,"1","1",NA,"1","1",NA,"1","1",NA
"250072","img/neutralC/CFD-WM-225-127-N.jpg",NA,"img/neutralC/CFD-WM-040-022-N.jpg","1",NA,"1","0",NA,"0","0.648660000180826",NA,"0.434886500006542","1",NA,"1","1",NA,"1","1",NA,"1"
"250072","img/neutralC/CFD-WM-040-022-N.jpg","img/neutralC/CFD-WM-225-127-N.jpg","img/neutralC/CFD-BM-015-015-N.jpg","1","1","0","0","0","0","0.434886500006542","0.648660000180826","0.372805700171739","1","1","1","1","1","1","1","1","1"
"250072","img/neutralC/CFD-BM-015-015-N.jpg","img/neutralC/CFD-WM-040-022-N.jpg","img/neutralC/CFD-IF-718-001-N.jpg","0","1","1","0","0","1","0.372805700171739","0.434886500006542","0.40454740007408","1","1","1","1","1","1","1","1","1"
"250072","img/neutralC/CFD-IF-718-001-N.jpg","img/neutralC/CFD-BM-015-015-N.jpg","img/neutralC/CFD-BF-208-266-N.jpg","1","0","1","1","0","0","0.40454740007408","0.372805700171739","0.578930099960417","1","1","1","1","1","1","1","1","1"
"250072","img/neutralC/CFD-BF-208-266-N.jpg","img/neutralC/CFD-IF-718-001-N.jpg","img/neutralC/CFD-IM-728-041-N.jpg","1","1","1","0","1","0","0.578930099960417","0.40454740007408","0.551020300015807","1","1","1","1","1","1","1","1","1"
"250072","img/neutralC/CFD-IM-728-041-N.jpg","img/neutralC/CFD-BF-208-266-N.jpg","img/neutralC/CFD-LF-216-121-N.jpg","1","1","1","0","0","1","0.551020300015807","0.578930099960417","0.419817900052294","1","1","1","1","1","1","1","1","1"
"250072","img/neutralC/CFD-LF-216-121-N.jpg","img/neutralC/CFD-IM-728-041-N.jpg","img/neutralC/CFD-WM-038-003-N.jpg","1","1","1","1","0","0","0.419817900052294","0.551020300015807","0.466804699972272","1","1","1","1","1","1","1","1","1"
"250072","img/neutralC/CFD-WM-038-003-N.jpg","img/neutralC/CFD-LF-216-121-N.jpg","img/neutralC/CFD-BF-201-080-N.jpg","1","1","1","0","1","1","0.466804699972272","0.419817900052294","0.46963409986347","1","1","1","1","1","1","1","1","1"
"250072","img/neutralC/CFD-BF-201-080-N.jpg","img/neutralC/CFD-WM-038-003-N.jpg","img/neutralC/CFD-MM-319-052-N.jpg","1","1","1","1","0","1","0.46963409986347","0.466804699972272","0.35074819996953","1","1","1","1","1","1","1","1","1"
"250072","img/neutralC/CFD-MM-319-052-N.jpg","img/neutralC/CFD-BF-201-080-N.jpg","img/neutralC/CFD-IM-674-281-N.jpg","1","1","1","1","1","1","0.35074819996953","0.46963409986347","0.332992299925536","1","1","1","1","1","1","1","1","1"
"250072","img/neutralC/CFD-IM-674-281-N.jpg","img/neutralC/CFD-MM-319-052-N.jpg","img/neutralC/CFD-WM-002-009-N.jpg","1","1","0","1","1","0","0.332992299925536","0.35074819996953","0.299028699984774","1","1","1","1","1","1","1","1","1"
"250072","img/neutralC/CFD-WM-002-009-N.jpg","img/neutralC/CFD-IM-674-281-N.jpg","img/neutralC/CFD-BM-211-174-N.jpg","0","1","1","0","1","0","0.299028699984774","0.332992299925536","0.52668990008533","1","1","1","1","1","1","1","1","1"
"250072","img/neutralC/CFD-BM-211-174-N.jpg","img/neutralC/CFD-WM-002-009-N.jpg","img/neutralC/CFD-BF-023-010-N.jpg","1","0","1","0","0","1","0.52668990008533","0.299028699984774","0.356922199949622","1","1","1","1","1","1","1","1","1"
"250072","img/neutralC/CFD-BF-023-010-N.jpg","img/neutralC/CFD-BM-211-174-N.jpg","img/neutralC/CFD-WM-257-161-N.jpg","1","1","1","1","0","1","0.356922199949622","0.52668990008533","0.430648300098255","1","1","1","1","1","1","1","1","1"
"250072","img/neutralC/CFD-WM-257-161-N.jpg","img/neutralC/CFD-BF-023-010-N.jpg","img/neutralC/CFD-AM-217-085-N.jpg","1","1","1","1","1","0","0.430648300098255","0.356922199949622","0.470159100135788","1","1","1","1","1","1","1","1","1"
"250072","img/neutralC/CFD-AM-217-085-N.jpg","img/neutralC/CFD-WM-257-161-N.jpg","img/neutralC/CFD-BF-204-189-N.jpg","1","1","1","0","1","1","0.470159100135788","0.430648300098255","0.406438499921933","1","1","1","1","1","1","1","1","1"
"250072","img/neutralC/CFD-BF-204-189-N.jpg","img/neutralC/CFD-AM-217-085-N.jpg","img/neutralC/CFD-BM-027-001-N.jpg","1","1","1","1","0","0","0.406438499921933","0.470159100135788","0.526151699945331","1","1","1","1","1","1","1","1","1"
"250072","img/neutralC/CFD-BM-027-001-N.jpg","img/neutralC/CFD-BF-204-189-N.jpg","img/neutralC/CFD-IF-672-305-N.jpg","1","1","1","0","1","0","0.526151699945331","0.406438499921933","0.477368799969554","1","1","1","1","1","1","1","1","1"
"250072","img/neutralC/CFD-IF-672-305-N.jpg","img/neutralC/CFD-BM-027-001-N.jpg","img/neutralC/CFD-LF-236-221-N.jpg","1","1","1","0","0","1","0.477368799969554","0.526151699945331","0.471409199992195","1","1","1","1","1","1","1","1","1"
"250072","img/neutralC/CFD-LF-236-221-N.jpg","img/neutralC/CFD-IF-672-305-N.jpg","img/neutralC/CFD-AM-215-120-N.jpg","1","1","1","1","0","1","0.471409199992195","0.477368799969554","0.446165099972859","1","1","1","1","1","1","1","1","1"
"250072","img/neutralC/CFD-AM-215-120-N.jpg","img/neutralC/CFD-LF-236-221-N.jpg","img/neutralC/CFD-WF-002-004-N.jpg","1","1","1","1","1","0","0.446165099972859","0.471409199992195","0.486487300135195","1","1","1","1","1","1","1","1","1"
"250072","img/neutralC/CFD-WF-002-004-N.jpg","img/neutralC/CFD-AM-215-120-N.jpg","img/neutralC/CFD-WF-026-002-N.jpg","1","1","1","0","1","1","0.486487300135195","0.446165099972859","0.442050200188532","1","1","1","1","1","1","1","1","1"
"250072","img/neutralC/CFD-WF-026-002-N.jpg","img/neutralC/CFD-WF-002-004-N.jpg","img/neutralC/CFD-IM-639-263-N.jpg","1","1","1","1","0","1","0.442050200188532","0.486487300135195","0.456711600068957","1","1","1","1","1","1","1","1","1"
"250072","img/neutralC/CFD-IM-639-263-N.jpg","img/neutralC/CFD-WF-026-002-N.jpg","img/neutralC/CFD-BM-247-240-N.jpg","1","1","1","1","1","0","0.456711600068957","0.442050200188532","0.537533700000495","1","1","1","1","1","1","1","1","1"
"250072","img/neutralC/CFD-BM-247-240-N.jpg","img/neutralC/CFD-IM-639-263-N.jpg","img/neutralC/CFD-LM-252-076-N.jpg","1","1","1","0","1","1","0.537533700000495","0.456711600068957","0.404925599927083","1","1","1","1","1","1","1","1","1"
"250072","img/neutralC/CFD-LM-252-076-N.jpg","img/neutralC/CFD-BM-247-240-N.jpg","img/neutralC/CFD-AM-235-241-N.jpg","1","1","1","1","0","0","0.404925599927083","0.537533700000495","0.432961199898273","1","1","1","1","1","1","1","1","1"
"250072","img/neutralC/CFD-AM-235-241-N.jpg","img/neutralC/CFD-LM-252-076-N.jpg","img/neutralC/CFD-BM-029-024-N.jpg","1","1","1","0","1","1","0.432961199898273","0.404925599927083","0.431603800039738","1","1","1","1","1","1","1","1","1"
"250072","img/neutralC/CFD-BM-029-024-N.jpg","img/neutralC/CFD-AM-235-241-N.jpg","img/neutralC/CFD-BF-028-001-N.jpg","1","1","1","1","0","1","0.431603800039738","0.432961199898273","0.41325130010955","1","1","1","1","1","1","1","1","1"
"250072","img/neutralC/CFD-BF-028-001-N.jpg","img/neutralC/CFD-BM-029-024-N.jpg","img/neutralC/CFD-WF-022-017-N.jpg","1","1","0","1","1","0","0.41325130010955","0.431603800039738","0.4330169998575","1","1","1","1","1","1","1","1","1"
"250072","img/neutralC/CFD-WF-022-017-N.jpg","img/neutralC/CFD-BF-028-001-N.jpg","img/neutralC/CFD-BF-255-140-N.jpg","0","1","1","0","1","1","0.4330169998575","0.41325130010955","0.485789699945599","1","1","1","1","1","1","1","1","1"
"250072","img/neutralC/CFD-BF-255-140-N.jpg","img/neutralC/CFD-WF-022-017-N.jpg","img/neutralC/CFD-BF-003-003-N.jpg","1","0","1","1","0","0","0.485789699945599","0.4330169998575","0.518363300012425","1","1","1","1","1","1","1","1","1"
"250072","img/neutralC/CFD-BF-003-003-N.jpg","img/neutralC/CFD-BF-255-140-N.jpg",NA,"1","1",NA,"0","1",NA,"0.518363300012425","0.485789699945599",NA,"1","1",NA,"1","1",NA,"1","1",NA
"250072","img/neutralC/CFD-WF-226-095-N.jpg",NA,"img/neutralC/CFD-LF-215-157-N.jpg","1",NA,"1","1",NA,"0","1.00897739990614",NA,"0.444974899990484","1",NA,"1","1",NA,"1","1",NA,"1"
"250072","img/neutralC/CFD-LF-215-157-N.jpg","img/neutralC/CFD-WF-226-095-N.jpg","img/neutralC/CFD-IM-719-221-N.jpg","1","1","1","0","1","0","0.444974899990484","1.00897739990614","0.468310599913821","1","1","1","1","1","1","1","1","1"
"250072","img/neutralC/CFD-IM-719-221-N.jpg","img/neutralC/CFD-LF-215-157-N.jpg","img/neutralC/CFD-WM-255-219-N.jpg","1","1","1","0","0","0","0.468310599913821","0.444974899990484","0.453924900153652","1","1","1","1","1","1","1","1","1"
"250072","img/neutralC/CFD-WM-255-219-N.jpg","img/neutralC/CFD-IM-719-221-N.jpg","img/neutralC/CFD-WM-201-063-N.jpg","1","1","1","0","0","1","0.453924900153652","0.468310599913821","0.379967299988493","1","1","1","1","1","1","1","1","1"
"250072","img/neutralC/CFD-WM-201-063-N.jpg","img/neutralC/CFD-WM-255-219-N.jpg","img/neutralC/CFD-WM-013-001-N.jpg","1","1","1","1","0","1","0.379967299988493","0.453924900153652","0.340770799899474","1","1","1","1","1","1","1","1","1"
"250072","img/neutralC/CFD-WM-013-001-N.jpg","img/neutralC/CFD-WM-201-063-N.jpg","img/neutralC/CFD-IM-700-009-N.jpg","1","1","1","1","1","1","0.340770799899474","0.379967299988493","0.351625399896875","1","1","1","1","1","1","1","1","1"
"250072","img/neutralC/CFD-IM-700-009-N.jpg","img/neutralC/CFD-WM-013-001-N.jpg","img/neutralC/CFD-MF-321-003-N.jpg","1","1","1","1","1","0","0.351625399896875","0.340770799899474","0.437846299959347","1","1","1","1","1","1","1","1","1"
"250072","img/neutralC/CFD-MF-321-003-N.jpg","img/neutralC/CFD-IM-700-009-N.jpg","img/neutralC/CFD-IF-629-234-N.jpg","1","1","1","0","1","0","0.437846299959347","0.351625399896875","0.33267470006831","1","1","1","1","1","1","1","1","1"
"250072","img/neutralC/CFD-IF-629-234-N.jpg","img/neutralC/CFD-MF-321-003-N.jpg","img/neutralC/CFD-MF-342-022-N.jpg","1","1","1","0","0","1","0.33267470006831","0.437846299959347","0.404736400116235","1","1","1","1","1","1","1","1","1"
"250072","img/neutralC/CFD-MF-342-022-N.jpg","img/neutralC/CFD-IF-629-234-N.jpg","img/neutralC/CFD-WF-018-017-N.jpg","1","1","1","1","0","1","0.404736400116235","0.33267470006831","0.402435400057584","1","1","1","1","1","1","1","1","1"
"250072","img/neutralC/CFD-WF-018-017-N.jpg","img/neutralC/CFD-MF-342-022-N.jpg","img/neutralC/CFD-BM-023-029-N.jpg","1","1","1","1","1","1","0.402435400057584","0.404736400116235","0.367732600076124","1","1","1","1","1","1","1","1","1"
"250072","img/neutralC/CFD-BM-023-029-N.jpg","img/neutralC/CFD-WF-018-017-N.jpg","img/neutralC/CFD-WF-238-023-N.jpg","1","1","1","1","1","0","0.367732600076124","0.402435400057584","0.478317100089043","1","1","1","1","1","1","1","1","1"
"250072","img/neutralC/CFD-WF-238-023-N.jpg","img/neutralC/CFD-BM-023-029-N.jpg","img/neutralC/CFD-BF-254-201-N.jpg","1","1","1","0","1","0","0.478317100089043","0.367732600076124","0.458596999989823","1","1","1","1","1","1","1","1","1"
"250072","img/neutralC/CFD-BF-254-201-N.jpg","img/neutralC/CFD-WF-238-023-N.jpg","img/neutralC/CFD-IM-627-178-N.jpg","1","1","1","0","0","1","0.458596999989823","0.478317100089043","0.378814799943939","1","1","1","1","1","1","1","1","1"
"250072","img/neutralC/CFD-IM-627-178-N.jpg","img/neutralC/CFD-BF-254-201-N.jpg","img/neutralC/CFD-BF-218-207-N.jpg","1","1","1","1","0","1","0.378814799943939","0.458596999989823","0.347368200076744","1","1","1","1","1","1","1","1","1"
"250072","img/neutralC/CFD-BF-218-207-N.jpg","img/neutralC/CFD-IM-627-178-N.jpg","img/neutralC/CFD-BM-204-003-N.jpg","1","1","1","1","1","0","0.347368200076744","0.378814799943939","0.459276100154966","1","1","1","1","1","1","1","1","1"
"250072","img/neutralC/CFD-BM-204-003-N.jpg","img/neutralC/CFD-BF-218-207-N.jpg","img/neutralC/CFD-MM-321-021-N.jpg","1","1","1","0","1","0","0.459276100154966","0.347368200076744","0.402335199993104","1","1","1","1","1","1","1","1","1"
"250072","img/neutralC/CFD-MM-321-021-N.jpg","img/neutralC/CFD-BM-204-003-N.jpg","img/neutralC/CFD-WM-221-091-N.jpg","1","1","1","0","0","0","0.402335199993104","0.459276100154966","0.382968799909577","1","1","1","1","1","1","1","1","1"
"250072","img/neutralC/CFD-WM-221-091-N.jpg","img/neutralC/CFD-MM-321-021-N.jpg","img/neutralC/CFD-AF-232-078-N.jpg","1","1","1","0","0","1","0.382968799909577","0.402335199993104","0.33828579983674","1","1","1","1","1","1","1","1","1"
"250072","img/neutralC/CFD-AF-232-078-N.jpg","img/neutralC/CFD-WM-221-091-N.jpg","img/neutralC/CFD-MF-318-022-N.jpg","1","1","1","1","0","1","0.33828579983674","0.382968799909577","0.350786800030619","1","1","1","1","1","1","1","1","1"
"250072","img/neutralC/CFD-MF-318-022-N.jpg","img/neutralC/CFD-AF-232-078-N.jpg","img/neutralC/CFD-WM-237-052-N.jpg","1","1","1","1","1","1","0.350786800030619","0.33828579983674","0.364907900104299","1","1","1","1","1","1","1","1","1"
"250072","img/neutralC/CFD-WM-237-052-N.jpg","img/neutralC/CFD-MF-318-022-N.jpg","img/neutralC/CFD-AF-221-147-N.jpg","1","1","0","1","1","0","0.364907900104299","0.350786800030619","0.512448500143364","1","1","1","1","1","1","1","1","1"
"250072","img/neutralC/CFD-AF-221-147-N.jpg","img/neutralC/CFD-WM-237-052-N.jpg","img/neutralC/CFD-WF-245-084-N.jpg","0","1","1","0","1","1","0.512448500143364","0.364907900104299","0.398210800020024","1","1","1","1","1","1","1","1","1"
"250072","img/neutralC/CFD-WF-245-084-N.jpg","img/neutralC/CFD-AF-221-147-N.jpg","img/neutralC/CFD-WF-023-003-N.jpg","1","0","1","1","0","1","0.398210800020024","0.512448500143364","0.431288900086656","1","1","1","1","1","1","1","1","1"
"250072","img/neutralC/CFD-WF-023-003-N.jpg","img/neutralC/CFD-WF-245-084-N.jpg","img/neutralC/CFD-LF-211-003-N.jpg","1","1","1","1","1","0","0.431288900086656","0.398210800020024","0.369733400177211","1","1","1","1","1","1","1","1","1"
"250072","img/neutralC/CFD-LF-211-003-N.jpg","img/neutralC/CFD-WF-023-003-N.jpg","img/neutralC/CFD-BF-018-039-N.jpg","1","1","1","0","1","1","0.369733400177211","0.431288900086656","0.359284700127319","1","1","1","1","1","1","1","1","1"
"250072","img/neutralC/CFD-BF-018-039-N.jpg","img/neutralC/CFD-LF-211-003-N.jpg","img/neutralC/CFD-WF-027-003-N.jpg","1","1","1","1","0","1","0.359284700127319","0.369733400177211","0.34177209995687","1","1","1","1","1","1","1","1","1"
"250072","img/neutralC/CFD-WF-027-003-N.jpg","img/neutralC/CFD-BF-018-039-N.jpg","img/neutralC/CFD-LM-253-075-N.jpg","1","1","1","1","1","0","0.34177209995687","0.359284700127319","0.347214699955657","1","1","1","1","1","1","1","1","1"
"250072","img/neutralC/CFD-LM-253-075-N.jpg","img/neutralC/CFD-WF-027-003-N.jpg","img/neutralC/CFD-AM-244-222-N.jpg","1","1","1","0","1","0","0.347214699955657","0.34177209995687","0.44631029991433","1","1","1","1","1","1","1","1","1"
"250072","img/neutralC/CFD-AM-244-222-N.jpg","img/neutralC/CFD-LM-253-075-N.jpg","img/neutralC/CFD-BM-200-046-N.jpg","1","1","1","0","0","0","0.44631029991433","0.347214699955657","0.391508599976078","1","1","1","1","1","1","1","1","1"
"250072","img/neutralC/CFD-BM-200-046-N.jpg","img/neutralC/CFD-AM-244-222-N.jpg","img/neutralC/CFD-WM-009-002-N.jpg","1","1","0","0","0","0","0.391508599976078","0.44631029991433","0.360013999976218","1","1","1","1","1","1","1","1","1"
"250072","img/neutralC/CFD-WM-009-002-N.jpg","img/neutralC/CFD-BM-200-046-N.jpg",NA,"0","1",NA,"0","0",NA,"0.360013999976218","0.391508599976078",NA,"1","1",NA,"1","1",NA,"1","1",NA
"250072","img/neutralC/CFD-BF-033-028-N.jpg",NA,"img/neutralC/CFD-BM-212-117-N.jpg","1",NA,"1","0",NA,"0","0.663051499985158",NA,"0.462442700052634","1",NA,"1","1",NA,"1","1",NA,"1"
"250072","img/neutralC/CFD-BM-212-117-N.jpg","img/neutralC/CFD-BF-033-028-N.jpg","img/neutralC/CFD-LM-233-171-N.jpg","1","1","1","0","0","0","0.462442700052634","0.663051499985158","0.409958299947903","1","1","1","1","1","1","1","1","1"
"250072","img/neutralC/CFD-LM-233-171-N.jpg","img/neutralC/CFD-BM-212-117-N.jpg","img/neutralC/CFD-LM-219-295-N.jpg","1","1","1","0","0","1","0.409958299947903","0.462442700052634","0.364517899928614","1","1","1","1","1","1","1","1","1"
"250072","img/neutralC/CFD-LM-219-295-N.jpg","img/neutralC/CFD-LM-233-171-N.jpg","img/neutralC/CFD-IM-638-250-1-N.jpg","1","1","1","1","0","1","0.364517899928614","0.409958299947903","0.560565900057554","1","1","1","1","1","1","1","1","1"
"250072","img/neutralC/CFD-IM-638-250-1-N.jpg","img/neutralC/CFD-LM-219-295-N.jpg","img/neutralC/CFD-WM-227-099-N.jpg","1","1","1","1","1","1","0.560565900057554","0.364517899928614","0.415951699949801","1","1","1","1","1","1","1","1","1"
"250072","img/neutralC/CFD-WM-227-099-N.jpg","img/neutralC/CFD-IM-638-250-1-N.jpg","img/neutralC/CFD-IM-653-008-N.jpg","1","1","1","1","1","0","0.415951699949801","0.560565900057554","0.558207499794662","1","1","1","1","1","1","1","1","1"
"250072","img/neutralC/CFD-IM-653-008-N.jpg","img/neutralC/CFD-WM-227-099-N.jpg","img/neutralC/CFD-LF-250-169-N.jpg","1","1","1","0","1","1","0.558207499794662","0.415951699949801","0.470809699967504","1","1","1","1","1","1","1","1","1"
"250072","img/neutralC/CFD-LF-250-169-N.jpg","img/neutralC/CFD-IM-653-008-N.jpg","img/neutralC/CFD-IM-686-097-N.jpg","1","1","1","1","0","0","0.470809699967504","0.558207499794662","0.558075899956748","1","1","1","1","1","1","1","1","1"
"250072","img/neutralC/CFD-IM-686-097-N.jpg","img/neutralC/CFD-LF-250-169-N.jpg","img/neutralC/CFD-LF-245-166-N.jpg","1","1","1","0","1","1","0.558075899956748","0.470809699967504","0.417727899970487","1","1","1","1","1","1","1","1","1"
"250072","img/neutralC/CFD-LF-245-166-N.jpg","img/neutralC/CFD-IM-686-097-N.jpg","img/neutralC/CFD-LM-226-175-N.jpg","1","1","1","1","0","0","0.417727899970487","0.558075899956748","0.510311200050637","1","1","1","1","1","1","1","1","1"
"250072","img/neutralC/CFD-LM-226-175-N.jpg","img/neutralC/CFD-LF-245-166-N.jpg","img/neutralC/CFD-AF-202-122-N.jpg","1","1","1","0","1","1","0.510311200050637","0.417727899970487","0.414361899951473","1","1","1","1","1","1","1","1","1"
"250072","img/neutralC/CFD-AF-202-122-N.jpg","img/neutralC/CFD-LM-226-175-N.jpg","img/neutralC/CFD-IM-617-174-N.jpg","1","1","1","1","0","0","0.414361899951473","0.510311200050637","0.474170299945399","1","1","1","1","1","1","1","1","1"
"250072","img/neutralC/CFD-IM-617-174-N.jpg","img/neutralC/CFD-AF-202-122-N.jpg","img/neutralC/CFD-BM-231-155-N.jpg","1","1","1","0","1","1","0.474170299945399","0.414361899951473","0.44142679986544","1","1","1","1","1","1","1","1","1"
"250072","img/neutralC/CFD-BM-231-155-N.jpg","img/neutralC/CFD-IM-617-174-N.jpg","img/neutralC/CFD-BF-238-190-N.jpg","1","1","1","1","0","1","0.44142679986544","0.474170299945399","0.387314700055867","1","1","1","1","1","1","1","1","1"
"250072","img/neutralC/CFD-BF-238-190-N.jpg","img/neutralC/CFD-BM-231-155-N.jpg","img/neutralC/CFD-IF-620-218-N.jpg","1","1","1","1","1","0","0.387314700055867","0.44142679986544","0.480442799860612","1","1","1","1","1","1","1","1","1"
"250072","img/neutralC/CFD-IF-620-218-N.jpg","img/neutralC/CFD-BF-238-190-N.jpg","img/neutralC/CFD-LF-247-051-N.jpg","1","1","1","0","1","1","0.480442799860612","0.387314700055867","0.435167299816385","1","1","1","1","1","1","1","1","1"
"250072","img/neutralC/CFD-LF-247-051-N.jpg","img/neutralC/CFD-IF-620-218-N.jpg","img/neutralC/CFD-LF-242-121-N.jpg","1","1","1","1","0","0","0.435167299816385","0.480442799860612","0.403906800085679","1","1","1","1","1","1","1","1","1"
"250072","img/neutralC/CFD-LF-242-121-N.jpg","img/neutralC/CFD-LF-247-051-N.jpg","img/neutralC/CFD-AF-206-079-N.jpg","1","1","1","0","1","1","0.403906800085679","0.435167299816385","0.350584399886429","1","1","1","1","1","1","1","1","1"
"250072","img/neutralC/CFD-AF-206-079-N.jpg","img/neutralC/CFD-LF-242-121-N.jpg","img/neutralC/CFD-IM-657-308-N.jpg","1","1","1","1","0","0","0.350584399886429","0.403906800085679","0.418157699983567","1","1","1","1","1","1","1","1","1"
"250072","img/neutralC/CFD-IM-657-308-N.jpg","img/neutralC/CFD-AF-206-079-N.jpg","img/neutralC/CFD-BM-005-003-N.jpg","1","1","1","0","1","1","0.418157699983567","0.350584399886429","0.367610199842602","1","1","1","1","1","1","1","1","1"
"250072","img/neutralC/CFD-BM-005-003-N.jpg","img/neutralC/CFD-IM-657-308-N.jpg","img/neutralC/CFD-BM-026-002-N.jpg","1","1","1","1","0","0","0.367610199842602","0.418157699983567","0.462193300016224","1","1","1","1","1","1","1","1","1"
"250072","img/neutralC/CFD-BM-026-002-N.jpg","img/neutralC/CFD-BM-005-003-N.jpg","img/neutralC/CFD-BM-018-001-N.jpg","1","1","1","0","1","1","0.462193300016224","0.367610199842602","0.351089299889281","1","1","1","1","1","1","1","1","1"
"250072","img/neutralC/CFD-BM-018-001-N.jpg","img/neutralC/CFD-BM-026-002-N.jpg","img/neutralC/CFD-IM-727-195-N.jpg","1","1","1","1","0","1","0.351089299889281","0.462193300016224","0.553157200105488","1","1","1","1","1","1","1","1","1"
"250072","img/neutralC/CFD-IM-727-195-N.jpg","img/neutralC/CFD-BM-018-001-N.jpg","img/neutralC/CFD-WM-258-125-N.jpg","1","1","1","1","1","0","0.553157200105488","0.351089299889281","0.37449419987388","1","1","1","1","1","1","1","1","1"
"250072","img/neutralC/CFD-WM-258-125-N.jpg","img/neutralC/CFD-IM-727-195-N.jpg","img/neutralC/CFD-WF-209-052-N.jpg","1","1","1","0","1","1","0.37449419987388","0.553157200105488","0.450233299983665","1","1","1","1","1","1","1","1","1"
"250072","img/neutralC/CFD-WF-209-052-N.jpg","img/neutralC/CFD-WM-258-125-N.jpg","img/neutralC/CFD-WM-017-002-N.jpg","1","1","1","1","0","0","0.450233299983665","0.37449419987388","0.495681500062346","1","1","1","1","1","1","1","1","1"
"250072","img/neutralC/CFD-WM-017-002-N.jpg","img/neutralC/CFD-WF-209-052-N.jpg","img/neutralC/CFD-IF-665-015-N.jpg","1","1","1","0","1","0","0.495681500062346","0.450233299983665","0.557882300112396","1","1","1","1","1","1","1","1","1"
"250072","img/neutralC/CFD-IF-665-015-N.jpg","img/neutralC/CFD-WM-017-002-N.jpg","img/neutralC/CFD-AF-241-141-N.jpg","1","1","1","0","0","1","0.557882300112396","0.495681500062346","0.480320199858397","1","1","1","1","1","1","1","1","1"
"250072","img/neutralC/CFD-AF-241-141-N.jpg","img/neutralC/CFD-IF-665-015-N.jpg","img/neutralC/CFD-BF-010-001-N.jpg","1","1","1","1","0","1","0.480320199858397","0.557882300112396","0.425657699815929","1","1","1","1","1","1","1","1","1"
"250072","img/neutralC/CFD-BF-010-001-N.jpg","img/neutralC/CFD-AF-241-141-N.jpg","img/neutralC/CFD-WM-242-011-N.jpg","1","1","1","1","1","0","0.425657699815929","0.480320199858397","0.45480960002169","1","1","1","1","1","1","1","1","1"
"250072","img/neutralC/CFD-WM-242-011-N.jpg","img/neutralC/CFD-BF-010-001-N.jpg","img/neutralC/CFD-MF-313-002-N.jpg","1","1","1","0","1","0","0.45480960002169","0.425657699815929","0.399223600048572","1","1","1","1","1","1","1","1","1"
"250072","img/neutralC/CFD-MF-313-002-N.jpg","img/neutralC/CFD-WM-242-011-N.jpg",NA,"1","1",NA,"0","0",NA,"0.399223600048572","0.45480960002169",NA,"1","1",NA,"1","1",NA,"1","1",NA
"250072","img/neutralC/CFD-IM-632-097-N.jpg",NA,"img/neutralC/CFD-AF-246-242-N.jpg","0",NA,"1","0",NA,"0","1.31249419995584",NA,"0.473371699918061","1",NA,"1","1",NA,"1","1",NA,"1"
"250072","img/neutralC/CFD-AF-246-242-N.jpg","img/neutralC/CFD-IM-632-097-N.jpg","img/neutralC/CFD-BF-042-026-N.jpg","1","0","1","0","0","1","0.473371699918061","1.31249419995584","0.398838900029659","1","1","1","1","1","1","1","1","1"
"250072","img/neutralC/CFD-BF-042-026-N.jpg","img/neutralC/CFD-AF-246-242-N.jpg","img/neutralC/CFD-IM-669-111-N.jpg","1","1","1","1","0","1","0.398838900029659","0.473371699918061","0.464243500027806","1","1","1","1","1","1","1","1","1"
"250072","img/neutralC/CFD-IM-669-111-N.jpg","img/neutralC/CFD-BF-042-026-N.jpg","img/neutralC/CFD-IM-635-010-N.jpg","1","1","1","1","1","1","0.464243500027806","0.398838900029659","0.417866899864748","1","1","1","1","1","1","1","1","1"
"250072","img/neutralC/CFD-IM-635-010-N.jpg","img/neutralC/CFD-IM-669-111-N.jpg","img/neutralC/CFD-WF-235-121-N.jpg","1","1","1","1","1","0","0.417866899864748","0.464243500027806","0.415996599942446","1","1","1","1","1","1","1","1","1"
"250072","img/neutralC/CFD-WF-235-121-N.jpg","img/neutralC/CFD-IM-635-010-N.jpg","img/neutralC/CFD-BF-206-143-N.jpg","1","1","1","0","1","1","0.415996599942446","0.417866899864748","0.48560219979845","1","1","1","1","1","1","1","1","1"
"250072","img/neutralC/CFD-BF-206-143-N.jpg","img/neutralC/CFD-WF-235-121-N.jpg","img/neutralC/CFD-IF-732-260-N.jpg","1","1","1","1","0","0","0.48560219979845","0.415996599942446","0.368187200045213","1","1","1","1","1","1","1","1","1"
"250072","img/neutralC/CFD-IF-732-260-N.jpg","img/neutralC/CFD-BF-206-143-N.jpg","img/neutralC/CFD-AF-205-155-N.jpg","1","1","1","0","1","0","0.368187200045213","0.48560219979845","0.58683990011923","1","1","1","1","1","1","1","1","1"
"250072","img/neutralC/CFD-AF-205-155-N.jpg","img/neutralC/CFD-IF-732-260-N.jpg","img/neutralC/CFD-BF-020-002-N.jpg","1","1","1","0","0","1","0.58683990011923","0.368187200045213","0.401521100196987","1","1","1","1","1","1","1","1","1"
"250072","img/neutralC/CFD-BF-020-002-N.jpg","img/neutralC/CFD-AF-205-155-N.jpg","img/neutralC/CFD-AM-233-236-N.jpg","1","1","1","1","0","1","0.401521100196987","0.58683990011923","0.321030300110579","1","1","1","1","1","1","1","1","1"
"250072","img/neutralC/CFD-AM-233-236-N.jpg","img/neutralC/CFD-BF-020-002-N.jpg","img/neutralC/CFD-AF-244-168-N.jpg","1","1","1","1","1","0","0.321030300110579","0.401521100196987","0.617774999933317","1","1","1","1","1","1","1","1","1"
"250072","img/neutralC/CFD-AF-244-168-N.jpg","img/neutralC/CFD-AM-233-236-N.jpg","img/neutralC/CFD-IM-678-482-N.jpg","1","1","1","0","1","0","0.617774999933317","0.321030300110579","0.553164799930528","1","1","1","1","1","1","1","1","1"
"250072","img/neutralC/CFD-IM-678-482-N.jpg","img/neutralC/CFD-AF-244-168-N.jpg","img/neutralC/CFD-BF-235-168-N.jpg","1","1","1","0","0","1","0.553164799930528","0.617774999933317","0.388551300158724","1","1","1","1","1","1","1","1","1"
"250072","img/neutralC/CFD-BF-235-168-N.jpg","img/neutralC/CFD-IM-678-482-N.jpg","img/neutralC/CFD-WF-210-086-N.jpg","1","1","1","1","0","0","0.388551300158724","0.553164799930528","0.473727000178769","1","1","1","1","1","1","1","1","1"
"250072","img/neutralC/CFD-WF-210-086-N.jpg","img/neutralC/CFD-BF-235-168-N.jpg","img/neutralC/CFD-AM-245-111-N.jpg","1","1","1","0","1","1","0.473727000178769","0.388551300158724","0.397909000050277","1","1","1","1","1","1","1","1","1"
"250072","img/neutralC/CFD-AM-245-111-N.jpg","img/neutralC/CFD-WF-210-086-N.jpg","img/neutralC/CFD-AM-225-102-N.jpg","1","1","1","1","0","0","0.397909000050277","0.473727000178769","0.370913699967787","1","1","1","1","1","1","1","1","1"
"250072","img/neutralC/CFD-AM-225-102-N.jpg","img/neutralC/CFD-AM-245-111-N.jpg","img/neutralC/CFD-IF-636-011-N.jpg","1","1","1","0","1","1","0.370913699967787","0.397909000050277","0.433708399999887","1","1","1","1","1","1","1","1","1"
"250072","img/neutralC/CFD-IF-636-011-N.jpg","img/neutralC/CFD-AM-225-102-N.jpg","img/neutralC/CFD-WM-018-002-N.jpg","1","1","1","1","0","0","0.433708399999887","0.370913699967787","0.482992900069803","1","1","1","1","1","1","1","1","1"
"250072","img/neutralC/CFD-WM-018-002-N.jpg","img/neutralC/CFD-IF-636-011-N.jpg","img/neutralC/CFD-BM-215-155-N.jpg","1","1","1","0","1","0","0.482992900069803","0.433708399999887","0.460894100135192","1","1","1","1","1","1","1","1","1"
"250072","img/neutralC/CFD-BM-215-155-N.jpg","img/neutralC/CFD-WM-018-002-N.jpg","img/neutralC/CFD-LM-241-125-N.jpg","1","1","1","0","0","1","0.460894100135192","0.482992900069803","0.450432699872181","1","1","1","1","1","1","1","1","1"
"250072","img/neutralC/CFD-LM-241-125-N.jpg","img/neutralC/CFD-BM-215-155-N.jpg","img/neutralC/CFD-LF-239-148-N.jpg","1","1","1","1","0","0","0.450432699872181","0.460894100135192","0.494420199887827","1","1","1","1","1","1","1","1","1"
"250072","img/neutralC/CFD-LF-239-148-N.jpg","img/neutralC/CFD-LM-241-125-N.jpg","img/neutralC/CFD-AF-250-200-N.jpg","1","1","1","0","1","1","0.494420199887827","0.450432699872181","0.385921099921688","1","1","1","1","1","1","1","1","1"
"250072","img/neutralC/CFD-AF-250-200-N.jpg","img/neutralC/CFD-LF-239-148-N.jpg","img/neutralC/CFD-LM-204-001-N.jpg","1","1","1","1","0","0","0.385921099921688","0.494420199887827","0.450729799922556","1","1","1","1","1","1","1","1","1"
"250072","img/neutralC/CFD-LM-204-001-N.jpg","img/neutralC/CFD-AF-250-200-N.jpg","img/neutralC/CFD-WM-253-119-N.jpg","1","1","1","0","1","1","0.450729799922556","0.385921099921688","0.364218299975619","1","1","1","1","1","1","1","1","1"
"250072","img/neutralC/CFD-WM-253-119-N.jpg","img/neutralC/CFD-LM-204-001-N.jpg","img/neutralC/CFD-BF-217-189-N.jpg","1","1","1","1","0","0","0.364218299975619","0.450729799922556","0.370158799923956","1","1","1","1","1","1","1","1","1"
"250072","img/neutralC/CFD-BF-217-189-N.jpg","img/neutralC/CFD-WM-253-119-N.jpg","img/neutralC/CFD-BM-004-002-N.jpg","1","1","1","0","1","0","0.370158799923956","0.364218299975619","0.460549800191075","1","1","1","1","1","1","1","1","1"
"250072","img/neutralC/CFD-BM-004-002-N.jpg","img/neutralC/CFD-BF-217-189-N.jpg","img/neutralC/CFD-BF-040-003-N.jpg","1","1","1","0","0","1","0.460549800191075","0.370158799923956","0.393888299819082","1","1","1","1","1","1","1","1","1"
"250072","img/neutralC/CFD-BF-040-003-N.jpg","img/neutralC/CFD-BM-004-002-N.jpg","img/neutralC/CFD-MF-307-002-N.jpg","1","1","1","1","0","1","0.393888299819082","0.460549800191075","0.35700080008246","1","1","1","1","1","1","1","1","1"
"250072","img/neutralC/CFD-MF-307-002-N.jpg","img/neutralC/CFD-BF-040-003-N.jpg","img/neutralC/CFD-AF-234-208-N.jpg","1","1","1","1","1","1","0.35700080008246","0.393888299819082","0.497381599852815","1","1","1","1","1","1","1","1","1"
"250072","img/neutralC/CFD-AF-234-208-N.jpg","img/neutralC/CFD-MF-307-002-N.jpg","img/neutralC/CFD-AF-213-126-N.jpg","1","1","1","1","1","1","0.497381599852815","0.35700080008246","0.403704700060189","1","1","1","1","1","1","1","1","1"
"250072","img/neutralC/CFD-AF-213-126-N.jpg","img/neutralC/CFD-AF-234-208-N.jpg","img/neutralC/CFD-MF-302-027-N.jpg","1","1","0","1","1","0","0.403704700060189","0.497381599852815","0.363514899974689","1","1","1","1","1","1","1","1","1"
"250072","img/neutralC/CFD-MF-302-027-N.jpg","img/neutralC/CFD-AF-213-126-N.jpg",NA,"0","1",NA,"0","1",NA,"0.363514899974689","0.403704700060189",NA,"1","1",NA,"1","1",NA,"1","1",NA
"250072","img/neutralC/CFD-MF-340-026-N.jpg",NA,"img/neutralC/CFD-IM-685-004-N.jpg","1",NA,"1","1",NA,"1","0.433553599985316",NA,"0.365163200069219","1",NA,"1","1",NA,"1","1",NA,"1"
"250072","img/neutralC/CFD-IM-685-004-N.jpg","img/neutralC/CFD-MF-340-026-N.jpg","img/neutralC/CFD-AM-236-090-N.jpg","1","1","1","1","1","1","0.365163200069219","0.433553599985316","0.376165299909189","1","1","1","1","1","1","1","1","1"
"250072","img/neutralC/CFD-AM-236-090-N.jpg","img/neutralC/CFD-IM-685-004-N.jpg","img/neutralC/CFD-IM-604-014-N.jpg","1","1","1","1","1","0","0.376165299909189","0.365163200069219","0.323125099996105","1","1","1","1","1","1","1","1","1"
"250072","img/neutralC/CFD-IM-604-014-N.jpg","img/neutralC/CFD-AM-236-090-N.jpg","img/neutralC/CFD-IF-608-390-N.jpg","1","1","1","0","1","1","0.323125099996105","0.376165299909189","0.364933100063354","1","1","1","1","1","1","1","1","1"
"250072","img/neutralC/CFD-IF-608-390-N.jpg","img/neutralC/CFD-IM-604-014-N.jpg","img/neutralC/CFD-MF-300-002-N.jpg","1","1","1","1","0","0","0.364933100063354","0.323125099996105","0.375568399904296","1","1","1","1","1","1","1","1","1"
"250072","img/neutralC/CFD-MF-300-002-N.jpg","img/neutralC/CFD-IF-608-390-N.jpg","img/neutralC/CFD-WM-232-070-N.jpg","1","1","1","0","1","0","0.375568399904296","0.364933100063354","0.491722400067374","1","1","1","1","1","1","1","1","1"
"250072","img/neutralC/CFD-WM-232-070-N.jpg","img/neutralC/CFD-MF-300-002-N.jpg","img/neutralC/CFD-MF-327-002-N.jpg","1","1","1","0","0","0","0.491722400067374","0.375568399904296","0.396964200073853","1","1","1","1","1","1","1","1","1"
"250072","img/neutralC/CFD-MF-327-002-N.jpg","img/neutralC/CFD-WM-232-070-N.jpg","img/neutralC/CFD-LF-201-035-N.jpg","1","1","1","0","0","1","0.396964200073853","0.491722400067374","0.453557600034401","1","1","1","1","1","1","1","1","1"
"250072","img/neutralC/CFD-LF-201-035-N.jpg","img/neutralC/CFD-MF-327-002-N.jpg","img/neutralC/CFD-IF-619-197-N.jpg","1","1","1","1","0","0","0.453557600034401","0.396964200073853","0.445716000162065","1","1","1","1","1","1","1","1","1"
"250072","img/neutralC/CFD-IF-619-197-N.jpg","img/neutralC/CFD-LF-201-035-N.jpg","img/neutralC/CFD-WF-008-002-N.jpg","1","1","1","0","1","1","0.445716000162065","0.453557600034401","0.37467520008795","1","1","1","1","1","1","1","1","1"
"250072","img/neutralC/CFD-WF-008-002-N.jpg","img/neutralC/CFD-IF-619-197-N.jpg","img/neutralC/CFD-IM-675-015-N.jpg","1","1","1","1","0","1","0.37467520008795","0.445716000162065","0.377016999991611","1","1","1","1","1","1","1","1","1"
"250072","img/neutralC/CFD-IM-675-015-N.jpg","img/neutralC/CFD-WF-008-002-N.jpg","img/neutralC/CFD-MM-304-002-N.jpg","1","1","1","1","1","1","0.377016999991611","0.37467520008795","0.395280299941078","1","1","1","1","1","1","1","1","1"
"250072","img/neutralC/CFD-MM-304-002-N.jpg","img/neutralC/CFD-IM-675-015-N.jpg","img/neutralC/CFD-BF-051-035-N.jpg","1","1","1","1","1","0","0.395280299941078","0.377016999991611","0.412524400046095","1","1","1","1","1","1","1","1","1"
"250072","img/neutralC/CFD-BF-051-035-N.jpg","img/neutralC/CFD-MM-304-002-N.jpg","img/neutralC/CFD-WF-212-050-N.jpg","1","1","1","0","1","0","0.412524400046095","0.395280299941078","0.517233600141481","1","1","1","1","1","1","1","1","1"
"250072","img/neutralC/CFD-WF-212-050-N.jpg","img/neutralC/CFD-BF-051-035-N.jpg","img/neutralC/CFD-MF-329-001-N.jpg","1","1","1","0","0","0","0.517233600141481","0.412524400046095","0.496465399861336","1","1","1","1","1","1","1","1","1"
"250072","img/neutralC/CFD-MF-329-001-N.jpg","img/neutralC/CFD-WF-212-050-N.jpg","img/neutralC/CFD-WF-248-129-N.jpg","1","1","1","0","0","0","0.496465399861336","0.517233600141481","0.347012199927121","1","1","1","1","1","1","1","1","1"
"250072","img/neutralC/CFD-WF-248-129-N.jpg","img/neutralC/CFD-MF-329-001-N.jpg","img/neutralC/CFD-LF-226-174-N.jpg","1","1","1","0","0","0","0.347012199927121","0.496465399861336","0.368975299876183","1","1","1","1","1","1","1","1","1"
"250072","img/neutralC/CFD-LF-226-174-N.jpg","img/neutralC/CFD-WF-248-129-N.jpg","img/neutralC/CFD-WF-012-002-N.jpg","1","1","1","0","0","1","0.368975299876183","0.347012199927121","0.351171899819747","1","1","1","1","1","1","1","1","1"
"250072","img/neutralC/CFD-WF-012-002-N.jpg","img/neutralC/CFD-LF-226-174-N.jpg","img/neutralC/CFD-WM-024-015-N.jpg","1","1","1","1","0","1","0.351171899819747","0.368975299876183","0.308722499990836","1","1","1","1","1","1","1","1","1"
"250072","img/neutralC/CFD-WM-024-015-N.jpg","img/neutralC/CFD-WF-012-002-N.jpg","img/neutralC/CFD-WM-213-076-N.jpg","1","1","1","1","1","1","0.308722499990836","0.351171899819747","0.382715200074017","1","1","1","1","1","1","1","1","1"
"250072","img/neutralC/CFD-WM-213-076-N.jpg","img/neutralC/CFD-WM-024-015-N.jpg","img/neutralC/CFD-BM-243-218-N.jpg","1","1","1","1","1","1","0.382715200074017","0.308722499990836","0.374095399864018","1","1","1","1","1","1","1","1","1"
"250072","img/neutralC/CFD-BM-243-218-N.jpg","img/neutralC/CFD-WM-213-076-N.jpg","img/neutralC/CFD-BF-043-003-N.jpg","1","1","1","1","1","0","0.374095399864018","0.382715200074017","0.416559599805623","1","1","1","1","1","1","1","1","1"
"250072","img/neutralC/CFD-BF-043-003-N.jpg","img/neutralC/CFD-BM-243-218-N.jpg","img/neutralC/CFD-IM-709-103-N.jpg","1","1","1","0","1","0","0.416559599805623","0.374095399864018","0.356325299944729","1","1","1","1","1","1","1","1","1"
"250072","img/neutralC/CFD-IM-709-103-N.jpg","img/neutralC/CFD-BF-043-003-N.jpg","img/neutralC/CFD-IM-637-007-N.jpg","1","1","1","0","0","0","0.356325299944729","0.416559599805623","0.373080200050026","1","1","1","1","1","1","1","1","1"
"250072","img/neutralC/CFD-IM-637-007-N.jpg","img/neutralC/CFD-IM-709-103-N.jpg","img/neutralC/CFD-AF-254-167-N.jpg","1","1","1","0","0","1","0.373080200050026","0.356325299944729","0.337490699952468","1","1","1","1","1","1","1","1","1"
"250072","img/neutralC/CFD-AF-254-167-N.jpg","img/neutralC/CFD-IM-637-007-N.jpg","img/neutralC/CFD-LM-217-162-N.jpg","1","1","1","1","0","0","0.337490699952468","0.373080200050026","0.439613800030202","1","1","1","1","1","1","1","1","1"
"250072","img/neutralC/CFD-LM-217-162-N.jpg","img/neutralC/CFD-AF-254-167-N.jpg","img/neutralC/CFD-AF-229-160-N.jpg","1","1","1","0","1","0","0.439613800030202","0.337490699952468","0.372409499948844","1","1","1","1","1","1","1","1","1"
"250072","img/neutralC/CFD-AF-229-160-N.jpg","img/neutralC/CFD-LM-217-162-N.jpg","img/neutralC/CFD-AF-215-70-N.jpg","1","1","1","0","0","0","0.372409499948844","0.439613800030202","0.398244299925864","1","1","1","1","1","1","1","1","1"
"250072","img/neutralC/CFD-AF-215-70-N.jpg","img/neutralC/CFD-AF-229-160-N.jpg","img/neutralC/CFD-WF-217-085-N.jpg","1","1","1","0","0","1","0.398244299925864","0.372409499948844","0.362819799920544","1","1","1","1","1","1","1","1","1"
"250072","img/neutralC/CFD-WF-217-085-N.jpg","img/neutralC/CFD-AF-215-70-N.jpg","img/neutralC/CFD-BM-039-029-N.jpg","1","1","1","1","0","1","0.362819799920544","0.398244299925864","0.409331100061536","1","1","1","1","1","1","1","1","1"
"250072","img/neutralC/CFD-BM-039-029-N.jpg","img/neutralC/CFD-WF-217-085-N.jpg","img/neutralC/CFD-BF-224-002-N.jpg","1","1","1","1","1","1","0.409331100061536","0.362819799920544","0.382810800103471","1","1","1","1","1","1","1","1","1"
"250072","img/neutralC/CFD-BF-224-002-N.jpg","img/neutralC/CFD-BM-039-029-N.jpg",NA,"1","1",NA,"1","1",NA,"0.382810800103471","0.409331100061536",NA,"1","1",NA,"1","1",NA,"1","1",NA
