"participant_id","current_trial_face","pre_trial_face","post_trial_face","current_trial_accuracy","pre_trial_accuracy","post_trial_accuracy","current_trial_congruency","pre_trial_congruency","post_trial_congruency","current_trial_rt","pre_trial_rt","post_trial_rt","current_trial_responded","pre_trial_responded","post_trial_responded","current_trial_legitResponse","pre_trial_legitResponse","post_trial_legitResponse","current_trial_resp_nums","pre_trial_resp_nums","post_trial_resp_nums"
"250014","img/neutralC/CFD-WF-207-014-N.jpg",NA,"img/neutralC/CFD-AF-237-223-N.jpg","1",NA,"1","1",NA,"0","0.541746399947442",NA,"0.631369199953042","1",NA,"1","1",NA,"1","1",NA,"1"
"250014","img/neutralC/CFD-AF-237-223-N.jpg","img/neutralC/CFD-WF-207-014-N.jpg","img/neutralC/CFD-BM-030-003-N.jpg","1","1","1","0","1","0","0.631369199953042","0.541746399947442","0.57100850000279","1","1","1","1","1","1","1","1","1"
"250014","img/neutralC/CFD-BM-030-003-N.jpg","img/neutralC/CFD-AF-237-223-N.jpg","img/neutralC/CFD-BM-043-071-N.jpg","1","1","1","0","0","0","0.57100850000279","0.631369199953042","0.578591500001494","1","1","1","1","1","1","1","1","1"
"250014","img/neutralC/CFD-BM-043-071-N.jpg","img/neutralC/CFD-BM-030-003-N.jpg","img/neutralC/CFD-IM-697-015-N.jpg","1","1","1","0","0","1","0.578591500001494","0.57100850000279","0.729696199996397","1","1","1","1","1","1","1","1","1"
"250014","img/neutralC/CFD-IM-697-015-N.jpg","img/neutralC/CFD-BM-043-071-N.jpg","img/neutralC/CFD-IF-676-017-N.jpg","1","1","1","1","0","1","0.729696199996397","0.578591500001494","0.558354699984193","1","1","1","1","1","1","1","1","1"
"250014","img/neutralC/CFD-IF-676-017-N.jpg","img/neutralC/CFD-IM-697-015-N.jpg","img/neutralC/CFD-WF-241-210-N.jpg","1","1","1","1","1","0","0.558354699984193","0.729696199996397","1.04875670000911","1","1","1","1","1","1","1","1","1"
"250014","img/neutralC/CFD-WF-241-210-N.jpg","img/neutralC/CFD-IF-676-017-N.jpg","img/neutralC/CFD-WM-028-003-N.jpg","1","1","1","0","1","1","1.04875670000911","0.558354699984193","0.581458700005896","1","1","1","1","1","1","1","1","1"
"250014","img/neutralC/CFD-WM-028-003-N.jpg","img/neutralC/CFD-WF-241-210-N.jpg","img/neutralC/CFD-BM-021-021-N.jpg","1","1","1","1","0","1","0.581458700005896","1.04875670000911","0.575628400023561","1","1","1","1","1","1","1","1","1"
"250014","img/neutralC/CFD-BM-021-021-N.jpg","img/neutralC/CFD-WM-028-003-N.jpg","img/neutralC/CFD-WF-009-001-N.jpg","1","1","1","1","1","1","0.575628400023561","0.581458700005896","0.56533919996582","1","1","1","1","1","1","1","1","1"
"250014","img/neutralC/CFD-WF-009-001-N.jpg","img/neutralC/CFD-BM-021-021-N.jpg","img/neutralC/CFD-LF-212-066-N.jpg","1","1","1","1","1","1","0.56533919996582","0.575628400023561","0.566675499954727","1","1","1","1","1","1","1","1","1"
"250014","img/neutralC/CFD-LF-212-066-N.jpg","img/neutralC/CFD-WF-009-001-N.jpg","img/neutralC/CFD-IM-615-167-N.jpg","1","1","1","1","1","0","0.566675499954727","0.56533919996582","0.95713389996672","1","1","1","1","1","1","1","1","1"
"250014","img/neutralC/CFD-IM-615-167-N.jpg","img/neutralC/CFD-LF-212-066-N.jpg","img/neutralC/CFD-WF-243-148-N.jpg","1","1","1","0","1","0","0.95713389996672","0.566675499954727","0.742238899983931","1","1","1","1","1","1","1","1","1"
"250014","img/neutralC/CFD-WF-243-148-N.jpg","img/neutralC/CFD-IM-615-167-N.jpg","img/neutralC/CFD-WM-025-002-N.jpg","1","1","1","0","0","0","0.742238899983931","0.95713389996672","0.942987199989148","1","1","1","1","1","1","1","1","1"
"250014","img/neutralC/CFD-WM-025-002-N.jpg","img/neutralC/CFD-WF-243-148-N.jpg","img/neutralC/CFD-MF-328-020-N.jpg","1","1","0","0","0","0","0.942987199989148","0.742238899983931","0.989447299973108","1","1","1","1","1","1","1","1","1"
"250014","img/neutralC/CFD-MF-328-020-N.jpg","img/neutralC/CFD-WM-025-002-N.jpg","img/neutralC/CFD-MM-306-010-N.jpg","0","1","1","0","0","0","0.989447299973108","0.942987199989148","0.786602699954528","1","1","1","1","1","1","1","1","1"
"250014","img/neutralC/CFD-MM-306-010-N.jpg","img/neutralC/CFD-MF-328-020-N.jpg","img/neutralC/CFD-BM-009-002-N.jpg","1","0","1","0","0","1","0.786602699954528","0.989447299973108","0.705779000010807","1","1","1","1","1","1","1","1","1"
"250014","img/neutralC/CFD-BM-009-002-N.jpg","img/neutralC/CFD-MM-306-010-N.jpg","img/neutralC/CFD-IM-606-008-N.jpg","1","1","1","1","0","0","0.705779000010807","0.786602699954528","0.543922500044573","1","1","1","1","1","1","1","1","1"
"250014","img/neutralC/CFD-IM-606-008-N.jpg","img/neutralC/CFD-BM-009-002-N.jpg","img/neutralC/CFD-BF-012-001-N.jpg","1","1","1","0","1","0","0.543922500044573","0.705779000010807","0.578809500031639","1","1","1","1","1","1","1","1","1"
"250014","img/neutralC/CFD-BF-012-001-N.jpg","img/neutralC/CFD-IM-606-008-N.jpg","img/neutralC/CFD-BF-244-231-N.jpg","1","1","1","0","0","1","0.578809500031639","0.543922500044573","0.585054799972568","1","1","1","1","1","1","1","1","1"
"250014","img/neutralC/CFD-BF-244-231-N.jpg","img/neutralC/CFD-BF-012-001-N.jpg","img/neutralC/CFD-AM-243-212-N.jpg","1","1","1","1","0","1","0.585054799972568","0.578809500031639","0.554404700000305","1","1","1","1","1","1","1","1","1"
"250014","img/neutralC/CFD-AM-243-212-N.jpg","img/neutralC/CFD-BF-244-231-N.jpg","img/neutralC/CFD-AM-205-153-N.jpg","1","1","1","1","1","1","0.554404700000305","0.585054799972568","0.861237300036009","1","1","1","1","1","1","1","1","1"
"250014","img/neutralC/CFD-AM-205-153-N.jpg","img/neutralC/CFD-AM-243-212-N.jpg","img/neutralC/CFD-BM-020-001-N.jpg","1","1","1","1","1","0","0.861237300036009","0.554404700000305","0.943069200031459","1","1","1","1","1","1","1","1","1"
"250014","img/neutralC/CFD-BM-020-001-N.jpg","img/neutralC/CFD-AM-205-153-N.jpg","img/neutralC/CFD-IM-689-263-N.jpg","1","1","1","0","1","1","0.943069200031459","0.861237300036009","0.69880800001556","1","1","1","1","1","1","1","1","1"
"250014","img/neutralC/CFD-IM-689-263-N.jpg","img/neutralC/CFD-BM-020-001-N.jpg","img/neutralC/CFD-AM-219-101-N.jpg","1","1","1","1","0","0","0.69880800001556","0.943069200031459","0.874524699989706","1","1","1","1","1","1","1","1","1"
"250014","img/neutralC/CFD-AM-219-101-N.jpg","img/neutralC/CFD-IM-689-263-N.jpg","img/neutralC/CFD-LM-240-013-N.jpg","1","1","1","0","1","1","0.874524699989706","0.69880800001556","0.581458300002851","1","1","1","1","1","1","1","1","1"
"250014","img/neutralC/CFD-LM-240-013-N.jpg","img/neutralC/CFD-AM-219-101-N.jpg","img/neutralC/CFD-LF-222-147-N.jpg","1","1","1","1","0","0","0.581458300002851","0.874524699989706","0.539114099985454","1","1","1","1","1","1","1","1","1"
"250014","img/neutralC/CFD-LF-222-147-N.jpg","img/neutralC/CFD-LM-240-013-N.jpg","img/neutralC/CFD-AM-249-163-N.jpg","1","1","1","0","1","1","0.539114099985454","0.581458300002851","0.525279599998612","1","1","1","1","1","1","1","1","1"
"250014","img/neutralC/CFD-AM-249-163-N.jpg","img/neutralC/CFD-LF-222-147-N.jpg","img/neutralC/CFD-LF-238-154-N.jpg","1","1","1","1","0","1","0.525279599998612","0.539114099985454","0.469373500032816","1","1","1","1","1","1","1","1","1"
"250014","img/neutralC/CFD-LF-238-154-N.jpg","img/neutralC/CFD-AM-249-163-N.jpg","img/neutralC/CFD-WF-221-005-N.jpg","1","1","1","1","1","0","0.469373500032816","0.525279599998612","0.649508600006811","1","1","1","1","1","1","1","1","1"
"250014","img/neutralC/CFD-WF-221-005-N.jpg","img/neutralC/CFD-LF-238-154-N.jpg","img/neutralC/CFD-WM-023-001-N.jpg","1","1","1","0","1","0","0.649508600006811","0.469373500032816","0.622648399963509","1","1","1","1","1","1","1","1","1"
"250014","img/neutralC/CFD-WM-023-001-N.jpg","img/neutralC/CFD-WF-221-005-N.jpg","img/neutralC/CFD-BM-227-191-N.jpg","1","1","1","0","0","1","0.622648399963509","0.649508600006811","0.522594700043555","1","1","1","1","1","1","1","1","1"
"250014","img/neutralC/CFD-BM-227-191-N.jpg","img/neutralC/CFD-WM-023-001-N.jpg",NA,"1","1",NA,"1","0",NA,"0.522594700043555","0.622648399963509",NA,"1","1",NA,"1","1",NA,"1","1",NA
"250014","img/neutralC/CFD-IM-617-174-N.jpg",NA,"img/neutralC/CFD-IM-657-308-N.jpg","1",NA,"1","0",NA,"0","0.562814600009006",NA,"0.514821299992036","1",NA,"1","1",NA,"1","1",NA,"1"
"250014","img/neutralC/CFD-IM-657-308-N.jpg","img/neutralC/CFD-IM-617-174-N.jpg","img/neutralC/CFD-IF-665-015-N.jpg","1","1","1","0","0","0","0.514821299992036","0.562814600009006","0.561513199994806","1","1","1","1","1","1","1","1","1"
"250014","img/neutralC/CFD-IF-665-015-N.jpg","img/neutralC/CFD-IM-657-308-N.jpg","img/neutralC/CFD-LF-245-166-N.jpg","1","1","1","0","0","1","0.561513199994806","0.514821299992036","0.4977108000312","1","1","1","1","1","1","1","1","1"
"250014","img/neutralC/CFD-LF-245-166-N.jpg","img/neutralC/CFD-IF-665-015-N.jpg","img/neutralC/CFD-WM-258-125-N.jpg","1","1","1","1","0","0","0.4977108000312","0.561513199994806","0.513412599975709","1","1","1","1","1","1","1","1","1"
"250014","img/neutralC/CFD-WM-258-125-N.jpg","img/neutralC/CFD-LF-245-166-N.jpg","img/neutralC/CFD-BF-238-190-N.jpg","1","1","1","0","1","1","0.513412599975709","0.4977108000312","0.507453600002918","1","1","1","1","1","1","1","1","1"
"250014","img/neutralC/CFD-BF-238-190-N.jpg","img/neutralC/CFD-WM-258-125-N.jpg","img/neutralC/CFD-WM-242-011-N.jpg","1","1","0","1","0","0","0.507453600002918","0.513412599975709","0.519680300028995","1","1","1","1","1","1","1","1","2"
"250014","img/neutralC/CFD-WM-242-011-N.jpg","img/neutralC/CFD-BF-238-190-N.jpg","img/neutralC/CFD-BF-010-001-N.jpg","0","1","0","0","1","1","0.519680300028995","0.507453600002918","0.7688851999701","1","1","1","1","1","1","2","1","2"
"250014","img/neutralC/CFD-BF-010-001-N.jpg","img/neutralC/CFD-WM-242-011-N.jpg","img/neutralC/CFD-AF-241-141-N.jpg","0","0","1","1","0","1","0.7688851999701","0.519680300028995","0.641015100001823","1","1","1","1","1","1","2","2","1"
"250014","img/neutralC/CFD-AF-241-141-N.jpg","img/neutralC/CFD-BF-010-001-N.jpg","img/neutralC/CFD-IM-638-250-1-N.jpg","1","0","1","1","1","1","0.641015100001823","0.7688851999701","0.573624200013","1","1","1","1","1","1","1","2","1"
"250014","img/neutralC/CFD-IM-638-250-1-N.jpg","img/neutralC/CFD-AF-241-141-N.jpg","img/neutralC/CFD-BM-212-117-N.jpg","1","1","1","1","1","0","0.573624200013","0.641015100001823","0.694529399974272","1","1","1","1","1","1","1","1","1"
"250014","img/neutralC/CFD-BM-212-117-N.jpg","img/neutralC/CFD-IM-638-250-1-N.jpg","img/neutralC/CFD-LM-226-175-N.jpg","1","1","1","0","1","0","0.694529399974272","0.573624200013","0.495656399987638","1","1","1","1","1","1","1","1","1"
"250014","img/neutralC/CFD-LM-226-175-N.jpg","img/neutralC/CFD-BM-212-117-N.jpg","img/neutralC/CFD-LF-250-169-N.jpg","1","1","1","0","0","1","0.495656399987638","0.694529399974272","0.448483900050633","1","1","1","1","1","1","1","1","1"
"250014","img/neutralC/CFD-LF-250-169-N.jpg","img/neutralC/CFD-LM-226-175-N.jpg","img/neutralC/CFD-LM-219-295-N.jpg","1","1","1","1","0","1","0.448483900050633","0.495656399987638","0.427755599957891","1","1","1","1","1","1","1","1","1"
"250014","img/neutralC/CFD-LM-219-295-N.jpg","img/neutralC/CFD-LF-250-169-N.jpg","img/neutralC/CFD-BM-231-155-N.jpg","1","1","1","1","1","1","0.427755599957891","0.448483900050633","0.497029600024689","1","1","1","1","1","1","1","1","1"
"250014","img/neutralC/CFD-BM-231-155-N.jpg","img/neutralC/CFD-LM-219-295-N.jpg","img/neutralC/CFD-LF-247-051-N.jpg","1","1","1","1","1","1","0.497029600024689","0.427755599957891","0.536794700019527","1","1","1","1","1","1","1","1","1"
"250014","img/neutralC/CFD-LF-247-051-N.jpg","img/neutralC/CFD-BM-231-155-N.jpg","img/neutralC/CFD-MF-313-002-N.jpg","1","1","1","1","1","0","0.536794700019527","0.497029600024689","0.636283700005151","1","1","1","1","1","1","1","1","1"
"250014","img/neutralC/CFD-MF-313-002-N.jpg","img/neutralC/CFD-LF-247-051-N.jpg","img/neutralC/CFD-BF-033-028-N.jpg","1","1","1","0","1","0","0.636283700005151","0.536794700019527","0.60870869999053","1","1","1","1","1","1","1","1","1"
"250014","img/neutralC/CFD-BF-033-028-N.jpg","img/neutralC/CFD-MF-313-002-N.jpg","img/neutralC/CFD-LF-242-121-N.jpg","1","1","1","0","0","0","0.60870869999053","0.636283700005151","0.611317500006407","1","1","1","1","1","1","1","1","1"
"250014","img/neutralC/CFD-LF-242-121-N.jpg","img/neutralC/CFD-BF-033-028-N.jpg","img/neutralC/CFD-BM-026-002-N.jpg","1","1","1","0","0","0","0.611317500006407","0.60870869999053","0.520385699986946","1","1","1","1","1","1","1","1","1"
"250014","img/neutralC/CFD-BM-026-002-N.jpg","img/neutralC/CFD-LF-242-121-N.jpg","img/neutralC/CFD-IM-727-195-N.jpg","1","1","1","0","0","1","0.520385699986946","0.611317500006407","0.449900400009938","1","1","1","1","1","1","1","1","1"
"250014","img/neutralC/CFD-IM-727-195-N.jpg","img/neutralC/CFD-BM-026-002-N.jpg","img/neutralC/CFD-WM-227-099-N.jpg","1","1","1","1","0","1","0.449900400009938","0.520385699986946","0.602122600015718","1","1","1","1","1","1","1","1","1"
"250014","img/neutralC/CFD-WM-227-099-N.jpg","img/neutralC/CFD-IM-727-195-N.jpg","img/neutralC/CFD-IM-653-008-N.jpg","1","1","1","1","1","0","0.602122600015718","0.449900400009938","0.498939800017979","1","1","1","1","1","1","1","1","1"
"250014","img/neutralC/CFD-IM-653-008-N.jpg","img/neutralC/CFD-WM-227-099-N.jpg","img/neutralC/CFD-AF-202-122-N.jpg","1","1","1","0","1","1","0.498939800017979","0.602122600015718","0.43780799995875","1","1","1","1","1","1","1","1","1"
"250014","img/neutralC/CFD-AF-202-122-N.jpg","img/neutralC/CFD-IM-653-008-N.jpg","img/neutralC/CFD-LM-233-171-N.jpg","1","1","1","1","0","0","0.43780799995875","0.498939800017979","0.602350300003309","1","1","1","1","1","1","1","1","1"
"250014","img/neutralC/CFD-LM-233-171-N.jpg","img/neutralC/CFD-AF-202-122-N.jpg","img/neutralC/CFD-IF-620-218-N.jpg","1","1","1","0","1","0","0.602350300003309","0.43780799995875","0.589670100016519","1","1","1","1","1","1","1","1","1"
"250014","img/neutralC/CFD-IF-620-218-N.jpg","img/neutralC/CFD-LM-233-171-N.jpg","img/neutralC/CFD-AF-206-079-N.jpg","1","1","1","0","0","1","0.589670100016519","0.602350300003309","0.453009299992118","1","1","1","1","1","1","1","1","1"
"250014","img/neutralC/CFD-AF-206-079-N.jpg","img/neutralC/CFD-IF-620-218-N.jpg","img/neutralC/CFD-WF-209-052-N.jpg","1","1","1","1","0","1","0.453009299992118","0.589670100016519","0.630263499973807","1","1","1","1","1","1","1","1","1"
"250014","img/neutralC/CFD-WF-209-052-N.jpg","img/neutralC/CFD-AF-206-079-N.jpg","img/neutralC/CFD-IM-686-097-N.jpg","1","1","1","1","1","0","0.630263499973807","0.453009299992118","0.540067399968393","1","1","1","1","1","1","1","1","1"
"250014","img/neutralC/CFD-IM-686-097-N.jpg","img/neutralC/CFD-WF-209-052-N.jpg","img/neutralC/CFD-WM-017-002-N.jpg","1","1","1","0","1","0","0.540067399968393","0.630263499973807","0.551743199990597","1","1","1","1","1","1","1","1","1"
"250014","img/neutralC/CFD-WM-017-002-N.jpg","img/neutralC/CFD-IM-686-097-N.jpg","img/neutralC/CFD-BM-005-003-N.jpg","1","1","1","0","0","1","0.551743199990597","0.540067399968393","0.566088500025216","1","1","1","1","1","1","1","1","1"
"250014","img/neutralC/CFD-BM-005-003-N.jpg","img/neutralC/CFD-WM-017-002-N.jpg","img/neutralC/CFD-BM-018-001-N.jpg","1","1","1","1","0","1","0.566088500025216","0.551743199990597","0.524248400004581","1","1","1","1","1","1","1","1","1"
"250014","img/neutralC/CFD-BM-018-001-N.jpg","img/neutralC/CFD-BM-005-003-N.jpg",NA,"1","1",NA,"1","1",NA,"0.524248400004581","0.566088500025216",NA,"1","1",NA,"1","1",NA,"1","1",NA
"250014","img/neutralC/CFD-BF-029-031-N.jpg",NA,"img/neutralC/CFD-BF-253-202-N.jpg","1",NA,"1","1",NA,"0","0.55052180000348",NA,"0.513869200018235","1",NA,"1","1",NA,"1","1",NA,"1"
"250014","img/neutralC/CFD-BF-253-202-N.jpg","img/neutralC/CFD-BF-029-031-N.jpg","img/neutralC/CFD-LF-224-176-N.jpg","1","1","1","0","1","0","0.513869200018235","0.55052180000348","0.562836600001901","1","1","1","1","1","1","1","1","1"
"250014","img/neutralC/CFD-LF-224-176-N.jpg","img/neutralC/CFD-BF-253-202-N.jpg","img/neutralC/CFD-BM-239-136-N.jpg","1","1","1","0","0","1","0.562836600001901","0.513869200018235","0.465864799974952","1","1","1","1","1","1","1","1","1"
"250014","img/neutralC/CFD-BM-239-136-N.jpg","img/neutralC/CFD-LF-224-176-N.jpg","img/neutralC/CFD-IM-684-008-N.jpg","1","1","1","1","0","1","0.465864799974952","0.562836600001901","0.572310900024604","1","1","1","1","1","1","1","1","1"
"250014","img/neutralC/CFD-IM-684-008-N.jpg","img/neutralC/CFD-BM-239-136-N.jpg","img/neutralC/CFD-WM-021-001-N.jpg","1","1","1","1","1","1","0.572310900024604","0.465864799974952","0.466044600005262","1","1","1","1","1","1","1","1","1"
"250014","img/neutralC/CFD-WM-021-001-N.jpg","img/neutralC/CFD-IM-684-008-N.jpg","img/neutralC/CFD-LF-205-100-N.jpg","1","1","1","1","1","1","0.466044600005262","0.572310900024604","0.395336100016721","1","1","1","1","1","1","1","1","1"
"250014","img/neutralC/CFD-LF-205-100-N.jpg","img/neutralC/CFD-WM-021-001-N.jpg","img/neutralC/CFD-LF-214-090-N.jpg","1","1","1","1","1","0","0.395336100016721","0.466044600005262","0.535390499979258","1","1","1","1","1","1","1","1","1"
"250014","img/neutralC/CFD-LF-214-090-N.jpg","img/neutralC/CFD-LF-205-100-N.jpg","img/neutralC/CFD-BM-041-035-N.jpg","1","1","0","0","1","0","0.535390499979258","0.395336100016721","0.424396499991417","1","1","1","1","1","1","1","1","1"
"250014","img/neutralC/CFD-BM-041-035-N.jpg","img/neutralC/CFD-LF-214-090-N.jpg","img/neutralC/CFD-LM-218-183-N.jpg","0","1","1","0","0","1","0.424396499991417","0.535390499979258","0.442517800023779","1","1","1","1","1","1","1","1","1"
"250014","img/neutralC/CFD-LM-218-183-N.jpg","img/neutralC/CFD-BM-041-035-N.jpg","img/neutralC/CFD-AM-201-076-N.jpg","1","0","1","1","0","1","0.442517800023779","0.424396499991417","0.481131499982439","1","1","1","1","1","1","1","1","1"
"250014","img/neutralC/CFD-AM-201-076-N.jpg","img/neutralC/CFD-LM-218-183-N.jpg","img/neutralC/CFD-LF-230-203-N.jpg","1","1","1","1","1","0","0.481131499982439","0.442517800023779","0.697734799992759","1","1","1","1","1","1","1","1","1"
"250014","img/neutralC/CFD-LF-230-203-N.jpg","img/neutralC/CFD-AM-201-076-N.jpg","img/neutralC/CFD-WF-224-099-N.jpg","1","1","1","0","1","0","0.697734799992759","0.481131499982439","0.599626699986402","1","1","1","1","1","1","1","1","1"
"250014","img/neutralC/CFD-WF-224-099-N.jpg","img/neutralC/CFD-LF-230-203-N.jpg","img/neutralC/CFD-IF-634-382-N.jpg","1","1","1","0","0","1","0.599626699986402","0.697734799992759","0.515750900027342","1","1","1","1","1","1","1","1","1"
"250014","img/neutralC/CFD-IF-634-382-N.jpg","img/neutralC/CFD-WF-224-099-N.jpg","img/neutralC/CFD-MF-337-026-N.jpg","1","1","1","1","0","1","0.515750900027342","0.599626699986402","0.712722700031009","1","1","1","1","1","1","1","1","1"
"250014","img/neutralC/CFD-MF-337-026-N.jpg","img/neutralC/CFD-IF-634-382-N.jpg","img/neutralC/CFD-BF-205-141-N.jpg","1","1","1","1","1","0","0.712722700031009","0.515750900027342","0.624241699988488","1","1","1","1","1","1","1","1","1"
"250014","img/neutralC/CFD-BF-205-141-N.jpg","img/neutralC/CFD-MF-337-026-N.jpg","img/neutralC/CFD-AM-212-050-N.jpg","1","1","1","0","1","1","0.624241699988488","0.712722700031009","0.542327600007411","1","1","1","1","1","1","1","1","2"
"250014","img/neutralC/CFD-AM-212-050-N.jpg","img/neutralC/CFD-BF-205-141-N.jpg","img/neutralC/CFD-WF-213-031-N.jpg","1","1","1","1","0","1","0.542327600007411","0.624241699988488","0.519187500001863","1","1","1","1","1","1","2","1","1"
"250014","img/neutralC/CFD-WF-213-031-N.jpg","img/neutralC/CFD-AM-212-050-N.jpg","img/neutralC/CFD-IM-651-308-N.jpg","1","1","1","1","1","0","0.519187500001863","0.542327600007411","0.543062799959444","1","1","1","1","1","1","1","2","1"
"250014","img/neutralC/CFD-IM-651-308-N.jpg","img/neutralC/CFD-WF-213-031-N.jpg","img/neutralC/CFD-LF-203-066-N.jpg","1","1","1","0","1","0","0.543062799959444","0.519187500001863","0.531473699957132","1","1","1","1","1","1","1","1","1"
"250014","img/neutralC/CFD-LF-203-066-N.jpg","img/neutralC/CFD-IM-651-308-N.jpg","img/neutralC/CFD-BF-039-031-N.jpg","1","1","1","0","0","1","0.531473699957132","0.543062799959444","0.707925299997441","1","1","1","1","1","1","1","1","1"
"250014","img/neutralC/CFD-BF-039-031-N.jpg","img/neutralC/CFD-LF-203-066-N.jpg","img/neutralC/CFD-IF-710-016-N.jpg","1","1","1","1","0","0","0.707925299997441","0.531473699957132","0.618616099993233","1","1","1","1","1","1","1","1","1"
"250014","img/neutralC/CFD-IF-710-016-N.jpg","img/neutralC/CFD-BF-039-031-N.jpg","img/neutralC/CFD-WF-250-167-N.jpg","1","1","1","0","1","1","0.618616099993233","0.707925299997441","0.472507799975574","1","1","1","1","1","1","1","1","1"
"250014","img/neutralC/CFD-WF-250-167-N.jpg","img/neutralC/CFD-IF-710-016-N.jpg","img/neutralC/CFD-BM-033-003-N.jpg","1","1","1","1","0","0","0.472507799975574","0.618616099993233","0.59183580003446","1","1","1","1","1","1","1","1","1"
"250014","img/neutralC/CFD-BM-033-003-N.jpg","img/neutralC/CFD-WF-250-167-N.jpg","img/neutralC/CFD-IF-693-172-N.jpg","1","1","0","0","1","0","0.59183580003446","0.472507799975574","0.774524800013751","1","1","1","1","1","1","1","1","1"
"250014","img/neutralC/CFD-IF-693-172-N.jpg","img/neutralC/CFD-BM-033-003-N.jpg","img/neutralC/CFD-WM-041-021-N.jpg","0","1","1","0","0","0","0.774524800013751","0.59183580003446","0.577149500022642","1","1","1","1","1","1","1","1","1"
"250014","img/neutralC/CFD-WM-041-021-N.jpg","img/neutralC/CFD-IF-693-172-N.jpg","img/neutralC/CFD-MM-316-156-N.jpg","1","0","1","0","0","1","0.577149500022642","0.774524800013751","0.652389299997594","1","1","1","1","1","1","1","1","1"
"250014","img/neutralC/CFD-MM-316-156-N.jpg","img/neutralC/CFD-WM-041-021-N.jpg","img/neutralC/CFD-AF-231-357-N.jpg","1","1","1","1","0","1","0.652389299997594","0.577149500022642","0.461291700019501","1","1","1","1","1","1","1","1","1"
"250014","img/neutralC/CFD-AF-231-357-N.jpg","img/neutralC/CFD-MM-316-156-N.jpg","img/neutralC/CFD-WM-011-002-N.jpg","1","1","1","1","1","0","0.461291700019501","0.652389299997594","0.524944900011178","1","1","1","1","1","1","1","1","1"
"250014","img/neutralC/CFD-WM-011-002-N.jpg","img/neutralC/CFD-AF-231-357-N.jpg","img/neutralC/CFD-LM-215-247-N.jpg","1","1","0","0","1","0","0.524944900011178","0.461291700019501","0.670568700006697","1","1","1","1","1","1","1","1","1"
"250014","img/neutralC/CFD-LM-215-247-N.jpg","img/neutralC/CFD-WM-011-002-N.jpg","img/neutralC/CFD-BF-213-188-N.jpg","0","1","1","0","0","1","0.670568700006697","0.524944900011178","0.638288800022565","1","1","1","1","1","1","1","1","1"
"250014","img/neutralC/CFD-BF-213-188-N.jpg","img/neutralC/CFD-LM-215-247-N.jpg","img/neutralC/CFD-BM-019-002-N.jpg","1","0","1","1","0","0","0.638288800022565","0.670568700006697","0.604550599993672","1","1","1","1","1","1","1","1","1"
"250014","img/neutralC/CFD-BM-019-002-N.jpg","img/neutralC/CFD-BF-213-188-N.jpg",NA,"1","1",NA,"0","1",NA,"0.604550599993672","0.638288800022565",NA,"1","1",NA,"1","1",NA,"1","1",NA
"250014","img/neutralC/CFD-MF-300-002-N.jpg",NA,"img/neutralC/CFD-BM-243-218-N.jpg","1",NA,"1","0",NA,"1","0.570901800005231",NA,"0.670068800041918","1",NA,"1","1",NA,"1","1",NA,"1"
"250014","img/neutralC/CFD-BM-243-218-N.jpg","img/neutralC/CFD-MF-300-002-N.jpg","img/neutralC/CFD-IM-685-004-N.jpg","1","1","1","1","0","1","0.670068800041918","0.570901800005231","0.661260899971239","1","1","1","1","1","1","1","1","1"
"250014","img/neutralC/CFD-IM-685-004-N.jpg","img/neutralC/CFD-BM-243-218-N.jpg","img/neutralC/CFD-AF-229-160-N.jpg","1","1","1","1","1","0","0.661260899971239","0.670068800041918","0.58433890005108","1","1","1","1","1","1","1","1","1"
"250014","img/neutralC/CFD-AF-229-160-N.jpg","img/neutralC/CFD-IM-685-004-N.jpg","img/neutralC/CFD-WM-232-070-N.jpg","1","1","1","0","1","0","0.58433890005108","0.661260899971239","0.824894699966535","1","1","1","1","1","1","1","1","1"
"250014","img/neutralC/CFD-WM-232-070-N.jpg","img/neutralC/CFD-AF-229-160-N.jpg","img/neutralC/CFD-AF-254-167-N.jpg","1","1","1","0","0","1","0.824894699966535","0.58433890005108","0.464626800036058","1","1","1","1","1","1","1","1","1"
"250014","img/neutralC/CFD-AF-254-167-N.jpg","img/neutralC/CFD-WM-232-070-N.jpg","img/neutralC/CFD-MF-340-026-N.jpg","1","1","1","1","0","1","0.464626800036058","0.824894699966535","0.445961999997962","1","1","1","1","1","1","1","1","1"
"250014","img/neutralC/CFD-MF-340-026-N.jpg","img/neutralC/CFD-AF-254-167-N.jpg","img/neutralC/CFD-MF-329-001-N.jpg","1","1","1","1","1","0","0.445961999997962","0.464626800036058","0.526938599999994","1","1","1","1","1","1","1","1","1"
"250014","img/neutralC/CFD-MF-329-001-N.jpg","img/neutralC/CFD-MF-340-026-N.jpg","img/neutralC/CFD-WM-024-015-N.jpg","1","1","1","0","1","1","0.526938599999994","0.445961999997962","0.523855700041167","1","1","1","1","1","1","1","1","1"
"250014","img/neutralC/CFD-WM-024-015-N.jpg","img/neutralC/CFD-MF-329-001-N.jpg","img/neutralC/CFD-BM-039-029-N.jpg","1","1","1","1","0","1","0.523855700041167","0.526938599999994","0.725642999983393","1","1","1","1","1","1","1","1","1"
"250014","img/neutralC/CFD-BM-039-029-N.jpg","img/neutralC/CFD-WM-024-015-N.jpg","img/neutralC/CFD-BF-043-003-N.jpg","1","1","1","1","1","0","0.725642999983393","0.523855700041167","0.525134899944533","1","1","1","1","1","1","1","1","1"
"250014","img/neutralC/CFD-BF-043-003-N.jpg","img/neutralC/CFD-BM-039-029-N.jpg","img/neutralC/CFD-AF-215-70-N.jpg","1","1","1","0","1","0","0.525134899944533","0.725642999983393","0.521438100025989","1","1","1","1","1","1","1","1","1"
"250014","img/neutralC/CFD-AF-215-70-N.jpg","img/neutralC/CFD-BF-043-003-N.jpg","img/neutralC/CFD-IM-637-007-N.jpg","1","1","1","0","0","0","0.521438100025989","0.525134899944533","0.600800000014715","1","1","1","1","1","1","1","1","1"
"250014","img/neutralC/CFD-IM-637-007-N.jpg","img/neutralC/CFD-AF-215-70-N.jpg","img/neutralC/CFD-MM-304-002-N.jpg","1","1","1","0","0","1","0.600800000014715","0.521438100025989","0.610614200006239","1","1","1","1","1","1","1","1","1"
"250014","img/neutralC/CFD-MM-304-002-N.jpg","img/neutralC/CFD-IM-637-007-N.jpg","img/neutralC/CFD-AM-236-090-N.jpg","1","1","1","1","0","1","0.610614200006239","0.600800000014715","0.504523399984464","1","1","1","1","1","1","1","1","1"
"250014","img/neutralC/CFD-AM-236-090-N.jpg","img/neutralC/CFD-MM-304-002-N.jpg","img/neutralC/CFD-WF-217-085-N.jpg","1","1","1","1","1","1","0.504523399984464","0.610614200006239","0.720962299965322","1","1","1","1","1","1","1","1","1"
"250014","img/neutralC/CFD-WF-217-085-N.jpg","img/neutralC/CFD-AM-236-090-N.jpg","img/neutralC/CFD-WM-213-076-N.jpg","1","1","1","1","1","1","0.720962299965322","0.504523399984464","0.463963600050192","1","1","1","1","1","1","1","1","1"
"250014","img/neutralC/CFD-WM-213-076-N.jpg","img/neutralC/CFD-WF-217-085-N.jpg","img/neutralC/CFD-LF-226-174-N.jpg","1","1","1","1","1","0","0.463963600050192","0.720962299965322","0.519684200000484","1","1","1","1","1","1","1","1","1"
"250014","img/neutralC/CFD-LF-226-174-N.jpg","img/neutralC/CFD-WM-213-076-N.jpg","img/neutralC/CFD-WF-012-002-N.jpg","1","1","1","0","1","1","0.519684200000484","0.463963600050192","0.481825300026685","1","1","1","1","1","1","1","1","1"
"250014","img/neutralC/CFD-WF-012-002-N.jpg","img/neutralC/CFD-LF-226-174-N.jpg","img/neutralC/CFD-WF-248-129-N.jpg","1","1","1","1","0","0","0.481825300026685","0.519684200000484","0.512939300038852","1","1","1","1","1","1","1","1","1"
"250014","img/neutralC/CFD-WF-248-129-N.jpg","img/neutralC/CFD-WF-012-002-N.jpg","img/neutralC/CFD-LM-217-162-N.jpg","1","1","1","0","1","0","0.512939300038852","0.481825300026685","0.553777299996","1","1","1","1","1","1","1","1","1"
"250014","img/neutralC/CFD-LM-217-162-N.jpg","img/neutralC/CFD-WF-248-129-N.jpg","img/neutralC/CFD-BF-224-002-N.jpg","1","1","1","0","0","1","0.553777299996","0.512939300038852","0.392073500028346","1","1","1","1","1","1","1","1","1"
"250014","img/neutralC/CFD-BF-224-002-N.jpg","img/neutralC/CFD-LM-217-162-N.jpg","img/neutralC/CFD-IF-608-390-N.jpg","1","1","1","1","0","1","0.392073500028346","0.553777299996","0.477316800039262","1","1","1","1","1","1","1","1","1"
"250014","img/neutralC/CFD-IF-608-390-N.jpg","img/neutralC/CFD-BF-224-002-N.jpg","img/neutralC/CFD-IM-675-015-N.jpg","1","1","1","1","1","1","0.477316800039262","0.392073500028346","0.681387300021015","1","1","1","1","1","1","1","1","1"
"250014","img/neutralC/CFD-IM-675-015-N.jpg","img/neutralC/CFD-IF-608-390-N.jpg","img/neutralC/CFD-WF-008-002-N.jpg","1","1","1","1","1","1","0.681387300021015","0.477316800039262","0.530181799957063","1","1","1","1","1","1","1","1","1"
"250014","img/neutralC/CFD-WF-008-002-N.jpg","img/neutralC/CFD-IM-675-015-N.jpg","img/neutralC/CFD-IM-709-103-N.jpg","1","1","1","1","1","0","0.530181799957063","0.681387300021015","0.542445499973837","1","1","1","1","1","1","1","1","1"
"250014","img/neutralC/CFD-IM-709-103-N.jpg","img/neutralC/CFD-WF-008-002-N.jpg","img/neutralC/CFD-BF-051-035-N.jpg","1","1","1","0","1","0","0.542445499973837","0.530181799957063","0.546567899989896","1","1","1","1","1","1","1","1","1"
"250014","img/neutralC/CFD-BF-051-035-N.jpg","img/neutralC/CFD-IM-709-103-N.jpg","img/neutralC/CFD-WF-212-050-N.jpg","1","1","1","0","0","0","0.546567899989896","0.542445499973837","0.525253600033466","1","1","1","1","1","1","1","1","1"
"250014","img/neutralC/CFD-WF-212-050-N.jpg","img/neutralC/CFD-BF-051-035-N.jpg","img/neutralC/CFD-IF-619-197-N.jpg","1","1","0","0","0","0","0.525253600033466","0.546567899989896","0.707230900006834","1","1","1","1","1","1","1","1","1"
"250014","img/neutralC/CFD-IF-619-197-N.jpg","img/neutralC/CFD-WF-212-050-N.jpg","img/neutralC/CFD-MF-327-002-N.jpg","0","1","0","0","0","0","0.707230900006834","0.525253600033466","0.728024900017772","1","1","1","1","1","1","1","1","1"
"250014","img/neutralC/CFD-MF-327-002-N.jpg","img/neutralC/CFD-IF-619-197-N.jpg","img/neutralC/CFD-LF-201-035-N.jpg","0","0","1","0","0","1","0.728024900017772","0.707230900006834","0.675694799982011","1","1","1","1","1","1","1","1","1"
"250014","img/neutralC/CFD-LF-201-035-N.jpg","img/neutralC/CFD-MF-327-002-N.jpg","img/neutralC/CFD-IM-604-014-N.jpg","1","0","0","1","0","0","0.675694799982011","0.728024900017772","0.74188760004472","1","1","1","1","1","1","1","1","1"
"250014","img/neutralC/CFD-IM-604-014-N.jpg","img/neutralC/CFD-LF-201-035-N.jpg",NA,"0","1",NA,"0","1",NA,"0.74188760004472","0.675694799982011",NA,"1","1",NA,"1","1",NA,"1","1",NA
"250014","img/neutralC/CFD-IM-648-337-N.jpg",NA,"img/neutralC/CFD-BF-041-001-N.jpg","0",NA,"1","0",NA,"1","0.801762300019618",NA,"0.497347399999853","1",NA,"1","1",NA,"1","1",NA,"1"
"250014","img/neutralC/CFD-BF-041-001-N.jpg","img/neutralC/CFD-IM-648-337-N.jpg","img/neutralC/CFD-WM-249-239-N.jpg","1","0","1","1","0","1","0.497347399999853","0.801762300019618","0.611203900014516","1","1","1","1","1","1","1","1","1"
"250014","img/neutralC/CFD-WM-249-239-N.jpg","img/neutralC/CFD-BF-041-001-N.jpg","img/neutralC/CFD-LM-244-068-N.jpg","1","1","1","1","1","1","0.611203900014516","0.497347399999853","0.439658600022085","1","1","1","1","1","1","1","1","1"
"250014","img/neutralC/CFD-LM-244-068-N.jpg","img/neutralC/CFD-WM-249-239-N.jpg","img/neutralC/CFD-IF-642-295-N.jpg","1","1","1","1","1","1","0.439658600022085","0.611203900014516","0.411984100006521","1","1","1","1","1","1","1","1","1"
"250014","img/neutralC/CFD-IF-642-295-N.jpg","img/neutralC/CFD-LM-244-068-N.jpg","img/neutralC/CFD-LM-201-057-N.jpg","1","1","1","1","1","1","0.411984100006521","0.439658600022085","0.558345899975393","1","1","1","1","1","1","1","1","1"
"250014","img/neutralC/CFD-LM-201-057-N.jpg","img/neutralC/CFD-IF-642-295-N.jpg","img/neutralC/CFD-AF-240-206-N.jpg","1","1","1","1","1","0","0.558345899975393","0.411984100006521","0.475251199968625","1","1","1","1","1","1","1","1","1"
"250014","img/neutralC/CFD-AF-240-206-N.jpg","img/neutralC/CFD-LM-201-057-N.jpg","img/neutralC/CFD-WM-026-001-N.jpg","1","1","1","0","1","1","0.475251199968625","0.558345899975393","0.402893199992832","1","1","1","1","1","1","1","1","1"
"250014","img/neutralC/CFD-WM-026-001-N.jpg","img/neutralC/CFD-AF-240-206-N.jpg","img/neutralC/CFD-BM-248-128-N.jpg","1","1","1","1","0","0","0.402893199992832","0.475251199968625","0.554590199957602","1","1","1","1","1","1","1","1","1"
"250014","img/neutralC/CFD-BM-248-128-N.jpg","img/neutralC/CFD-WM-026-001-N.jpg","img/neutralC/CFD-MF-309-002-N.jpg","1","1","1","0","1","0","0.554590199957602","0.402893199992832","0.532232199970167","1","1","1","1","1","1","1","1","1"
"250014","img/neutralC/CFD-MF-309-002-N.jpg","img/neutralC/CFD-BM-248-128-N.jpg","img/neutralC/CFD-WF-228-196-N.jpg","1","1","1","0","0","0","0.532232199970167","0.554590199957602","0.537063200026751","1","1","1","1","1","1","1","1","1"
"250014","img/neutralC/CFD-WF-228-196-N.jpg","img/neutralC/CFD-MF-309-002-N.jpg","img/neutralC/CFD-BF-228-212-N.jpg","1","1","1","0","0","0","0.537063200026751","0.532232199970167","0.62592159997439","1","1","1","1","1","1","1","1","1"
"250014","img/neutralC/CFD-BF-228-212-N.jpg","img/neutralC/CFD-WF-228-196-N.jpg","img/neutralC/CFD-BF-202-109-N.jpg","1","1","1","0","0","1","0.62592159997439","0.537063200026751","0.538601999985985","1","1","1","1","1","1","1","1","1"
"250014","img/neutralC/CFD-BF-202-109-N.jpg","img/neutralC/CFD-BF-228-212-N.jpg","img/neutralC/CFD-WF-240-083-N.jpg","1","1","1","1","0","0","0.538601999985985","0.62592159997439","0.552568899991456","1","1","1","1","1","1","1","1","1"
"250014","img/neutralC/CFD-WF-240-083-N.jpg","img/neutralC/CFD-BF-202-109-N.jpg","img/neutralC/CFD-WM-215-041-N.jpg","1","1","1","0","1","0","0.552568899991456","0.538601999985985","0.575661099981517","1","1","1","1","1","1","1","1","1"
"250014","img/neutralC/CFD-WM-215-041-N.jpg","img/neutralC/CFD-WF-240-083-N.jpg","img/neutralC/CFD-WM-006-002-N.jpg","1","1","1","0","0","0","0.575661099981517","0.552568899991456","0.531849900027737","1","1","1","1","1","1","1","1","1"
"250014","img/neutralC/CFD-WM-006-002-N.jpg","img/neutralC/CFD-WM-215-041-N.jpg","img/neutralC/CFD-BM-251-013-N.jpg","1","1","1","0","0","1","0.531849900027737","0.575661099981517","0.405306399974506","1","1","1","1","1","1","1","1","1"
"250014","img/neutralC/CFD-BM-251-013-N.jpg","img/neutralC/CFD-WM-006-002-N.jpg","img/neutralC/CFD-LM-214-165-N.jpg","1","1","1","1","0","1","0.405306399974506","0.531849900027737","0.540279900014866","1","1","1","1","1","1","1","1","1"
"250014","img/neutralC/CFD-LM-214-165-N.jpg","img/neutralC/CFD-BM-251-013-N.jpg","img/neutralC/CFD-BF-025-002-N.jpg","1","1","1","1","1","0","0.540279900014866","0.405306399974506","0.564422099967487","1","1","1","1","1","1","1","1","1"
"250014","img/neutralC/CFD-BF-025-002-N.jpg","img/neutralC/CFD-LM-214-165-N.jpg","img/neutralC/CFD-WM-012-001-N.jpg","1","1","1","0","1","1","0.564422099967487","0.540279900014866","0.43993789999513","1","1","1","1","1","1","1","1","1"
"250014","img/neutralC/CFD-WM-012-001-N.jpg","img/neutralC/CFD-BF-025-002-N.jpg","img/neutralC/CFD-IM-646-023-N.jpg","1","1","1","1","0","1","0.43993789999513","0.564422099967487","0.455157699994743","1","1","1","1","1","1","1","1","1"
"250014","img/neutralC/CFD-IM-646-023-N.jpg","img/neutralC/CFD-WM-012-001-N.jpg","img/neutralC/CFD-AM-247-165-N.jpg","1","1","1","1","1","1","0.455157699994743","0.43993789999513","0.423257299989928","1","1","1","1","1","1","1","1","1"
"250014","img/neutralC/CFD-AM-247-165-N.jpg","img/neutralC/CFD-IM-646-023-N.jpg","img/neutralC/CFD-LM-243-075-N.jpg","1","1","1","1","1","0","0.423257299989928","0.455157699994743","0.470672599971294","1","1","1","1","1","1","1","1","1"
"250014","img/neutralC/CFD-LM-243-075-N.jpg","img/neutralC/CFD-AM-247-165-N.jpg","img/neutralC/CFD-LM-216-082-N.jpg","1","1","1","0","1","0","0.470672599971294","0.423257299989928","0.494067799998447","1","1","1","1","1","1","1","1","1"
"250014","img/neutralC/CFD-LM-216-082-N.jpg","img/neutralC/CFD-LM-243-075-N.jpg","img/neutralC/CFD-MF-335-002-N.jpg","1","1","1","0","0","0","0.494067799998447","0.470672599971294","0.530765799980145","1","1","1","1","1","1","1","1","1"
"250014","img/neutralC/CFD-MF-335-002-N.jpg","img/neutralC/CFD-LM-216-082-N.jpg","img/neutralC/CFD-MM-317-061-N.jpg","1","1","1","0","0","1","0.530765799980145","0.494067799998447","0.611969700024929","1","1","1","1","1","1","1","1","1"
"250014","img/neutralC/CFD-MM-317-061-N.jpg","img/neutralC/CFD-MF-335-002-N.jpg","img/neutralC/CFD-WF-005-010-N.jpg","1","1","0","1","0","0","0.611969700024929","0.530765799980145","0.535336699977051","1","1","1","1","1","1","1","1","1"
"250014","img/neutralC/CFD-WF-005-010-N.jpg","img/neutralC/CFD-MM-317-061-N.jpg","img/neutralC/CFD-BM-205-001-N.jpg","0","1","0","0","1","0","0.535336699977051","0.611969700024929","0.487801100010984","1","1","1","1","1","1","1","1","1"
"250014","img/neutralC/CFD-BM-205-001-N.jpg","img/neutralC/CFD-WF-005-010-N.jpg","img/neutralC/CFD-WM-212-097-N.jpg","0","0","1","0","0","0","0.487801100010984","0.535336699977051","0.584977500024252","1","1","1","1","1","1","1","1","1"
"250014","img/neutralC/CFD-WM-212-097-N.jpg","img/neutralC/CFD-BM-205-001-N.jpg","img/neutralC/CFD-WF-017-003-N.jpg","1","0","1","0","0","1","0.584977500024252","0.487801100010984","0.705674599972554","1","1","1","1","1","1","1","1","1"
"250014","img/neutralC/CFD-WF-017-003-N.jpg","img/neutralC/CFD-WM-212-097-N.jpg","img/neutralC/CFD-WM-019-003-N.jpg","1","1","1","1","0","1","0.705674599972554","0.584977500024252","0.520348699996248","1","1","1","1","1","1","1","1","1"
"250014","img/neutralC/CFD-WM-019-003-N.jpg","img/neutralC/CFD-WF-017-003-N.jpg","img/neutralC/CFD-BF-212-315-N.jpg","1","1","1","1","1","1","0.520348699996248","0.705674599972554","0.470296600018628","1","1","1","1","1","1","1","1","1"
"250014","img/neutralC/CFD-BF-212-315-N.jpg","img/neutralC/CFD-WM-019-003-N.jpg",NA,"1","1",NA,"1","1",NA,"0.470296600018628","0.520348699996248",NA,"1","1",NA,"1","1",NA,"1","1",NA
"250014","img/neutralC/CFD-MF-357-002-N.jpg",NA,"img/neutralC/CFD-AF-253-130-N.jpg","1",NA,"1","0",NA,"1","0.61731050000526",NA,"0.464838499960024","1",NA,"1","1",NA,"1","1",NA,"1"
"250014","img/neutralC/CFD-AF-253-130-N.jpg","img/neutralC/CFD-MF-357-002-N.jpg","img/neutralC/CFD-LF-206-078-N.jpg","1","1","1","1","0","1","0.464838499960024","0.61731050000526","0.495403100037947","1","1","1","1","1","1","1","1","1"
"250014","img/neutralC/CFD-LF-206-078-N.jpg","img/neutralC/CFD-AF-253-130-N.jpg","img/neutralC/CFD-IM-706-002-N.jpg","1","1","1","1","1","0","0.495403100037947","0.464838499960024","0.620475400006399","1","1","1","1","1","1","1","1","1"
"250014","img/neutralC/CFD-IM-706-002-N.jpg","img/neutralC/CFD-LF-206-078-N.jpg","img/neutralC/CFD-LF-255-088-N.jpg","1","1","0","0","1","0","0.620475400006399","0.495403100037947","0.464832000026945","1","1","1","1","1","1","1","1","1"
"250014","img/neutralC/CFD-LF-255-088-N.jpg","img/neutralC/CFD-IM-706-002-N.jpg","img/neutralC/CFD-AM-220-134-N.jpg","0","1","1","0","0","0","0.464832000026945","0.620475400006399","0.698873999994248","1","1","1","1","1","1","1","1","1"
"250014","img/neutralC/CFD-AM-220-134-N.jpg","img/neutralC/CFD-LF-255-088-N.jpg","img/neutralC/CFD-BF-237-172-N.jpg","1","0","1","0","0","1","0.698873999994248","0.464832000026945","0.478689500014298","1","1","1","1","1","1","1","1","1"
"250014","img/neutralC/CFD-BF-237-172-N.jpg","img/neutralC/CFD-AM-220-134-N.jpg","img/neutralC/CFD-IM-702-101-N.jpg","1","1","1","1","0","1","0.478689500014298","0.698873999994248","0.474047600000631","1","1","1","1","1","1","1","1","1"
"250014","img/neutralC/CFD-IM-702-101-N.jpg","img/neutralC/CFD-BF-237-172-N.jpg","img/neutralC/CFD-WM-015-002-N.jpg","1","1","1","1","1","0","0.474047600000631","0.478689500014298","0.645443200017326","1","1","1","1","1","1","1","1","1"
"250014","img/neutralC/CFD-WM-015-002-N.jpg","img/neutralC/CFD-IM-702-101-N.jpg","img/neutralC/CFD-IM-680-369-N.jpg","1","1","1","0","1","1","0.645443200017326","0.474047600000631","0.59918869996909","1","1","1","1","1","1","1","1","1"
"250014","img/neutralC/CFD-IM-680-369-N.jpg","img/neutralC/CFD-WM-015-002-N.jpg","img/neutralC/CFD-MF-305-014-N.jpg","1","1","1","1","0","1","0.59918869996909","0.645443200017326","0.450731699995231","1","1","1","1","1","1","1","1","1"
"250014","img/neutralC/CFD-MF-305-014-N.jpg","img/neutralC/CFD-IM-680-369-N.jpg","img/neutralC/CFD-IF-660-464-N.jpg","1","1","1","1","1","0","0.450731699995231","0.59918869996909","0.55713230004767","1","1","1","1","1","1","1","1","1"
"250014","img/neutralC/CFD-IF-660-464-N.jpg","img/neutralC/CFD-MF-305-014-N.jpg","img/neutralC/CFD-WF-222-092-N.jpg","1","1","1","0","1","1","0.55713230004767","0.450731699995231","0.571461300016381","1","1","1","1","1","1","1","1","1"
"250014","img/neutralC/CFD-WF-222-092-N.jpg","img/neutralC/CFD-IF-660-464-N.jpg","img/neutralC/CFD-MM-324-069-N.jpg","1","1","1","1","0","1","0.571461300016381","0.55713230004767","0.465342300012708","1","1","1","1","1","1","1","1","1"
"250014","img/neutralC/CFD-MM-324-069-N.jpg","img/neutralC/CFD-WF-222-092-N.jpg","img/neutralC/CFD-BM-001-014-N.jpg","1","1","1","1","1","0","0.465342300012708","0.571461300016381","0.471243099949788","1","1","1","1","1","1","1","1","1"
"250014","img/neutralC/CFD-BM-001-014-N.jpg","img/neutralC/CFD-MM-324-069-N.jpg","img/neutralC/CFD-LM-200-045-N.jpg","1","1","1","0","1","1","0.471243099949788","0.465342300012708","0.504144000005908","1","1","1","1","1","1","1","1","1"
"250014","img/neutralC/CFD-LM-200-045-N.jpg","img/neutralC/CFD-BM-001-014-N.jpg","img/neutralC/CFD-WM-218-074-N.jpg","1","1","1","1","0","1","0.504144000005908","0.471243099949788","0.419444400002249","1","1","1","1","1","1","1","1","1"
"250014","img/neutralC/CFD-WM-218-074-N.jpg","img/neutralC/CFD-LM-200-045-N.jpg","img/neutralC/CFD-MF-343-001-N.jpg","1","1","1","1","1","1","0.419444400002249","0.504144000005908","0.478294800035655","1","1","1","1","1","1","1","1","1"
"250014","img/neutralC/CFD-MF-343-001-N.jpg","img/neutralC/CFD-WM-218-074-N.jpg","img/neutralC/CFD-IM-667-369-N.jpg","1","1","1","1","1","0","0.478294800035655","0.419444400002249","0.549076900002547","1","1","1","1","1","1","1","1","1"
"250014","img/neutralC/CFD-IM-667-369-N.jpg","img/neutralC/CFD-MF-343-001-N.jpg","img/neutralC/CFD-BM-217-082-N.jpg","1","1","0","0","1","0","0.549076900002547","0.478294800035655","0.327936900022905","1","1","1","1","1","1","1","1","1"
"250014","img/neutralC/CFD-BM-217-082-N.jpg","img/neutralC/CFD-IM-667-369-N.jpg","img/neutralC/CFD-MF-303-013-N.jpg","0","1","1","0","0","0","0.327936900022905","0.549076900002547","0.604103100020438","1","1","1","1","1","1","1","1","1"
"250014","img/neutralC/CFD-MF-303-013-N.jpg","img/neutralC/CFD-BM-217-082-N.jpg","img/neutralC/CFD-AF-233-190-N.jpg","1","0","1","0","0","0","0.604103100020438","0.327936900022905","0.607648800010793","1","1","1","1","1","1","1","1","1"
"250014","img/neutralC/CFD-AF-233-190-N.jpg","img/neutralC/CFD-MF-303-013-N.jpg","img/neutralC/CFD-WM-209-038-N.jpg","1","1","1","0","0","0","0.607648800010793","0.604103100020438","0.577805900014937","1","1","1","1","1","1","1","1","1"
"250014","img/neutralC/CFD-WM-209-038-N.jpg","img/neutralC/CFD-AF-233-190-N.jpg","img/neutralC/CFD-WF-030-002-N.jpg","1","1","1","0","0","0","0.577805900014937","0.607648800010793","0.637543599994387","1","1","1","1","1","1","1","1","1"
"250014","img/neutralC/CFD-WF-030-002-N.jpg","img/neutralC/CFD-WM-209-038-N.jpg","img/neutralC/CFD-BF-014-002-N.jpg","1","1","1","0","0","1","0.637543599994387","0.577805900014937","0.58502589998534","1","1","1","1","1","1","1","1","1"
"250014","img/neutralC/CFD-BF-014-002-N.jpg","img/neutralC/CFD-WF-030-002-N.jpg","img/neutralC/CFD-LM-225-130-N.jpg","1","1","1","1","0","0","0.58502589998534","0.637543599994387","0.553855100006331","1","1","1","1","1","1","1","1","1"
"250014","img/neutralC/CFD-LM-225-130-N.jpg","img/neutralC/CFD-BF-014-002-N.jpg","img/neutralC/CFD-WF-007-001-N.jpg","1","1","1","0","1","1","0.553855100006331","0.58502589998534","0.431542200036347","1","1","1","1","1","1","1","1","1"
"250014","img/neutralC/CFD-WF-007-001-N.jpg","img/neutralC/CFD-LM-225-130-N.jpg","img/neutralC/CFD-WF-244-163-N.jpg","1","1","1","1","0","1","0.431542200036347","0.553855100006331","0.504664099949878","1","1","1","1","1","1","1","1","1"
"250014","img/neutralC/CFD-WF-244-163-N.jpg","img/neutralC/CFD-WF-007-001-N.jpg","img/neutralC/CFD-MF-316-001-N.jpg","1","1","1","1","1","0","0.504664099949878","0.431542200036347","0.583890300011262","1","1","1","1","1","1","1","1","1"
"250014","img/neutralC/CFD-MF-316-001-N.jpg","img/neutralC/CFD-WF-244-163-N.jpg","img/neutralC/CFD-IF-626-375-N.jpg","1","1","1","0","1","0","0.583890300011262","0.504664099949878","0.577831099973992","1","1","1","1","1","1","1","1","1"
"250014","img/neutralC/CFD-IF-626-375-N.jpg","img/neutralC/CFD-MF-316-001-N.jpg","img/neutralC/CFD-IM-664-651-N.jpg","1","1","1","0","0","1","0.577831099973992","0.583890300011262","0.74206239997875","1","1","1","1","1","1","1","1","1"
"250014","img/neutralC/CFD-IM-664-651-N.jpg","img/neutralC/CFD-IF-626-375-N.jpg","img/neutralC/CFD-BM-250-170-N.jpg","1","1","1","1","0","1","0.74206239997875","0.577831099973992","0.490507099952083","1","1","1","1","1","1","1","1","1"
"250014","img/neutralC/CFD-BM-250-170-N.jpg","img/neutralC/CFD-IM-664-651-N.jpg",NA,"1","1",NA,"1","1",NA,"0.490507099952083","0.74206239997875",NA,"1","1",NA,"1","1",NA,"1","1",NA
"250014","img/neutralC/CFD-WF-208-068-N.jpg",NA,"img/neutralC/CFD-BM-036-003-N.jpg","1",NA,"1","1",NA,"1","0.649450599972624",NA,"0.532378600037191","1",NA,"1","1",NA,"1","1",NA,"1"
"250014","img/neutralC/CFD-BM-036-003-N.jpg","img/neutralC/CFD-WF-208-068-N.jpg","img/neutralC/CFD-IM-707-105-N.jpg","1","1","1","1","1","1","0.532378600037191","0.649450599972624","0.426601700019091","1","1","1","1","1","1","1","1","1"
"250014","img/neutralC/CFD-IM-707-105-N.jpg","img/neutralC/CFD-BM-036-003-N.jpg","img/neutralC/CFD-WM-034-030-N.jpg","1","1","1","1","1","1","0.426601700019091","0.532378600037191","0.469491700001527","1","1","1","1","1","1","1","1","1"
"250014","img/neutralC/CFD-WM-034-030-N.jpg","img/neutralC/CFD-IM-707-105-N.jpg","img/neutralC/CFD-WF-029-002-N.jpg","1","1","1","1","1","0","0.469491700001527","0.426601700019091","0.544095300021581","1","1","1","1","1","1","1","1","1"
"250014","img/neutralC/CFD-WF-029-002-N.jpg","img/neutralC/CFD-WM-034-030-N.jpg","img/neutralC/CFD-AM-230-150-N.jpg","1","1","1","0","1","0","0.544095300021581","0.469491700001527","0.564600099984091","1","1","1","1","1","1","1","1","1"
"250014","img/neutralC/CFD-AM-230-150-N.jpg","img/neutralC/CFD-WF-029-002-N.jpg","img/neutralC/CFD-BF-236-177-N.jpg","1","1","0","0","0","0","0.564600099984091","0.544095300021581","0.543965699966066","1","1","1","1","1","1","1","1","1"
"250014","img/neutralC/CFD-BF-236-177-N.jpg","img/neutralC/CFD-AM-230-150-N.jpg","img/neutralC/CFD-IF-729-393-N.jpg","0","1","1","0","0","0","0.543965699966066","0.564600099984091","0.510277899971697","1","1","1","1","1","1","1","1","1"
"250014","img/neutralC/CFD-IF-729-393-N.jpg","img/neutralC/CFD-BF-236-177-N.jpg","img/neutralC/CFD-LF-204-133-N.jpg","1","0","1","0","0","1","0.510277899971697","0.543965699966066","0.474494000023697","1","1","1","1","1","1","1","1","1"
"250014","img/neutralC/CFD-LF-204-133-N.jpg","img/neutralC/CFD-IF-729-393-N.jpg","img/neutralC/CFD-MF-301-024-N.jpg","1","1","1","1","0","0","0.474494000023697","0.510277899971697","0.508063799992669","1","1","1","1","1","1","1","1","1"
"250014","img/neutralC/CFD-MF-301-024-N.jpg","img/neutralC/CFD-LF-204-133-N.jpg","img/neutralC/CFD-IF-742-103-N.jpg","1","1","1","0","1","1","0.508063799992669","0.474494000023697","0.535471800016239","1","1","1","1","1","1","1","1","1"
"250014","img/neutralC/CFD-IF-742-103-N.jpg","img/neutralC/CFD-MF-301-024-N.jpg","img/neutralC/CFD-IM-721-341-N.jpg","1","1","1","1","0","1","0.535471800016239","0.508063799992669","0.471683099982329","1","1","1","1","1","1","1","1","1"
"250014","img/neutralC/CFD-IM-721-341-N.jpg","img/neutralC/CFD-IF-742-103-N.jpg","img/neutralC/CFD-BF-011-002-N.jpg","1","1","1","1","1","1","0.471683099982329","0.535471800016239","0.598483900015708","1","1","1","1","1","1","1","1","1"
"250014","img/neutralC/CFD-BF-011-002-N.jpg","img/neutralC/CFD-IM-721-341-N.jpg","img/neutralC/CFD-LM-213-061-N.jpg","1","1","0","1","1","0","0.598483900015708","0.471683099982329","0.707306199998129","1","1","1","1","1","1","1","1","1"
"250014","img/neutralC/CFD-LM-213-061-N.jpg","img/neutralC/CFD-BF-011-002-N.jpg","img/neutralC/CFD-BM-207-024-N.jpg","0","1","1","0","1","1","0.707306199998129","0.598483900015708","0.445036199991591","1","1","1","1","1","1","1","1","1"
"250014","img/neutralC/CFD-BM-207-024-N.jpg","img/neutralC/CFD-LM-213-061-N.jpg","img/neutralC/CFD-WM-248-036-N.jpg","1","0","1","1","0","1","0.445036199991591","0.707306199998129","0.581275400007144","1","1","1","1","1","1","1","1","1"
"250014","img/neutralC/CFD-WM-248-036-N.jpg","img/neutralC/CFD-BM-207-024-N.jpg","img/neutralC/CFD-IF-677-452-1-N.jpg","1","1","1","1","1","1","0.581275400007144","0.445036199991591","0.472029099997599","1","1","1","1","1","1","1","1","1"
"250014","img/neutralC/CFD-IF-677-452-1-N.jpg","img/neutralC/CFD-WM-248-036-N.jpg","img/neutralC/CFD-WM-014-002-N.jpg","1","1","1","1","1","0","0.472029099997599","0.581275400007144","0.531812000030186","1","1","1","1","1","1","1","1","1"
"250014","img/neutralC/CFD-WM-014-002-N.jpg","img/neutralC/CFD-IF-677-452-1-N.jpg","img/neutralC/CFD-BF-044-034-N.jpg","1","1","0","0","1","0","0.531812000030186","0.472029099997599","0.433788700029254","1","1","1","1","1","1","1","1","1"
"250014","img/neutralC/CFD-BF-044-034-N.jpg","img/neutralC/CFD-WM-014-002-N.jpg","img/neutralC/CFD-BF-002-001-N.jpg","0","1","1","0","0","0","0.433788700029254","0.531812000030186","0.579412899969611","1","1","1","1","1","1","1","1","1"
"250014","img/neutralC/CFD-BF-002-001-N.jpg","img/neutralC/CFD-BF-044-034-N.jpg","img/neutralC/CFD-IM-726-248-N.jpg","1","0","0","0","0","0","0.579412899969611","0.433788700029254","0.581200300017372","1","1","1","1","1","1","1","1","1"
"250014","img/neutralC/CFD-IM-726-248-N.jpg","img/neutralC/CFD-BF-002-001-N.jpg","img/neutralC/CFD-BM-241-235-N.jpg","0","1","0","0","0","0","0.581200300017372","0.579412899969611","0.9790944000124","1","1","1","1","1","1","1","1","1"
"250014","img/neutralC/CFD-BM-241-235-N.jpg","img/neutralC/CFD-IM-726-248-N.jpg","img/neutralC/CFD-BF-036-027-N.jpg","0","0","1","0","0","0","0.9790944000124","0.581200300017372","0.610367799992673","1","1","1","1","1","1","1","1","1"
"250014","img/neutralC/CFD-BF-036-027-N.jpg","img/neutralC/CFD-BM-241-235-N.jpg","img/neutralC/CFD-BF-006-017-N.jpg","1","0","1","0","0","0","0.610367799992673","0.9790944000124","0.754012599994894","1","1","1","1","1","1","1","1","1"
"250014","img/neutralC/CFD-BF-006-017-N.jpg","img/neutralC/CFD-BF-036-027-N.jpg","img/neutralC/CFD-BF-027-002-N.jpg","1","1","1","0","0","1","0.754012599994894","0.610367799992673","0.714852300006896","1","1","1","1","1","1","1","1","1"
"250014","img/neutralC/CFD-BF-027-002-N.jpg","img/neutralC/CFD-BF-006-017-N.jpg","img/neutralC/CFD-BF-247-179-N.jpg","1","1","0","1","0","0","0.714852300006896","0.754012599994894","0.775114900025073","1","1","1","1","1","1","1","1","1"
"250014","img/neutralC/CFD-BF-247-179-N.jpg","img/neutralC/CFD-BF-027-002-N.jpg","img/neutralC/CFD-BM-238-242-N.jpg","0","1","1","0","1","0","0.775114900025073","0.714852300006896","0.598167499992996","1","1","1","1","1","1","1","1","1"
"250014","img/neutralC/CFD-BM-238-242-N.jpg","img/neutralC/CFD-BF-247-179-N.jpg","img/neutralC/CFD-WF-233-112-N.jpg","1","0","1","0","0","1","0.598167499992996","0.775114900025073","0.629526299948338","1","1","1","1","1","1","1","1","1"
"250014","img/neutralC/CFD-WF-233-112-N.jpg","img/neutralC/CFD-BM-238-242-N.jpg","img/neutralC/CFD-BF-214-308-N.jpg","1","1","1","1","0","1","0.629526299948338","0.598167499992996","0.451856200001203","1","1","1","1","1","1","1","1","1"
"250014","img/neutralC/CFD-BF-214-308-N.jpg","img/neutralC/CFD-WF-233-112-N.jpg","img/neutralC/CFD-WF-234-086-N.jpg","1","1","1","1","1","1","0.451856200001203","0.629526299948338","0.688290300022345","1","1","1","1","1","1","1","1","1"
"250014","img/neutralC/CFD-WF-234-086-N.jpg","img/neutralC/CFD-BF-214-308-N.jpg","img/neutralC/CFD-IM-696-001-N.jpg","1","1","1","1","1","0","0.688290300022345","0.451856200001203","0.601621599984355","1","1","1","1","1","1","1","1","1"
"250014","img/neutralC/CFD-IM-696-001-N.jpg","img/neutralC/CFD-WF-234-086-N.jpg","img/neutralC/CFD-BF-207-004-N.jpg","1","1","1","0","1","1","0.601621599984355","0.688290300022345","0.495786799991038","1","1","1","1","1","1","1","1","1"
"250014","img/neutralC/CFD-BF-207-004-N.jpg","img/neutralC/CFD-IM-696-001-N.jpg",NA,"1","1",NA,"1","0",NA,"0.495786799991038","0.601621599984355",NA,"1","1",NA,"1","1",NA,"1","1",NA
"250014","img/neutralC/CFD-AM-215-120-N.jpg",NA,"img/neutralC/CFD-BF-028-001-N.jpg","1",NA,"1","1",NA,"1","0.515537299972493",NA,"0.42357029998675","1",NA,"1","1",NA,"1","1",NA,"1"
"250014","img/neutralC/CFD-BF-028-001-N.jpg","img/neutralC/CFD-AM-215-120-N.jpg","img/neutralC/CFD-AM-235-241-N.jpg","1","1","1","1","1","0","0.42357029998675","0.515537299972493","0.48257500003092","1","1","1","1","1","1","1","1","1"
"250014","img/neutralC/CFD-AM-235-241-N.jpg","img/neutralC/CFD-BF-028-001-N.jpg","img/neutralC/CFD-BM-027-001-N.jpg","1","1","1","0","1","0","0.48257500003092","0.42357029998675","0.604812200006563","1","1","1","1","1","1","1","1","1"
"250014","img/neutralC/CFD-BM-027-001-N.jpg","img/neutralC/CFD-AM-235-241-N.jpg","img/neutralC/CFD-WF-022-017-N.jpg","1","1","0","0","0","0","0.604812200006563","0.48257500003092","0.729746200027876","1","1","1","1","1","1","1","1","1"
"250014","img/neutralC/CFD-WF-022-017-N.jpg","img/neutralC/CFD-BM-027-001-N.jpg","img/neutralC/CFD-IM-728-041-N.jpg","0","1","1","0","0","0","0.729746200027876","0.604812200006563","0.457953300036024","1","1","1","1","1","1","1","1","1"
"250014","img/neutralC/CFD-IM-728-041-N.jpg","img/neutralC/CFD-WF-022-017-N.jpg","img/neutralC/CFD-IM-674-281-N.jpg","1","0","1","0","0","1","0.457953300036024","0.729746200027876","0.622113700024784","1","1","1","1","1","1","1","1","1"
"250014","img/neutralC/CFD-IM-674-281-N.jpg","img/neutralC/CFD-IM-728-041-N.jpg","img/neutralC/CFD-AM-217-085-N.jpg","1","1","0","1","0","0","0.622113700024784","0.457953300036024","0.326907699985895","1","1","1","1","1","1","1","1","1"
"250014","img/neutralC/CFD-AM-217-085-N.jpg","img/neutralC/CFD-IM-674-281-N.jpg","img/neutralC/CFD-WM-038-003-N.jpg","0","1","0","0","1","0","0.326907699985895","0.622113700024784","0.472836199973244","1","1","1","1","1","1","1","1","1"
"250014","img/neutralC/CFD-WM-038-003-N.jpg","img/neutralC/CFD-AM-217-085-N.jpg","img/neutralC/CFD-WF-002-004-N.jpg","0","0","1","0","0","0","0.472836199973244","0.326907699985895","0.593303400033619","1","1","1","1","1","1","1","1","1"
"250014","img/neutralC/CFD-WF-002-004-N.jpg","img/neutralC/CFD-WM-038-003-N.jpg","img/neutralC/CFD-WM-257-161-N.jpg","1","0","1","0","0","1","0.593303400033619","0.472836199973244","0.438581599970348","1","1","1","1","1","1","1","1","1"
"250014","img/neutralC/CFD-WM-257-161-N.jpg","img/neutralC/CFD-WF-002-004-N.jpg","img/neutralC/CFD-LM-252-076-N.jpg","1","1","1","1","0","1","0.438581599970348","0.593303400033619","0.417883899994195","1","1","1","1","1","1","1","1","1"
"250014","img/neutralC/CFD-LM-252-076-N.jpg","img/neutralC/CFD-WM-257-161-N.jpg","img/neutralC/CFD-BM-211-174-N.jpg","1","1","1","1","1","0","0.417883899994195","0.438581599970348","0.539209000009578","1","1","1","1","1","1","1","1","1"
"250014","img/neutralC/CFD-BM-211-174-N.jpg","img/neutralC/CFD-LM-252-076-N.jpg","img/neutralC/CFD-IF-718-001-N.jpg","1","1","1","0","1","1","0.539209000009578","0.417883899994195","0.453838500019629","1","1","1","1","1","1","1","1","1"
"250014","img/neutralC/CFD-IF-718-001-N.jpg","img/neutralC/CFD-BM-211-174-N.jpg","img/neutralC/CFD-WM-002-009-N.jpg","1","1","1","1","0","0","0.453838500019629","0.539209000009578","0.543110100028571","1","1","1","1","1","1","1","1","1"
"250014","img/neutralC/CFD-WM-002-009-N.jpg","img/neutralC/CFD-IF-718-001-N.jpg","img/neutralC/CFD-BM-247-240-N.jpg","1","1","1","0","1","0","0.543110100028571","0.453838500019629","0.531143300002441","1","1","1","1","1","1","1","1","1"
"250014","img/neutralC/CFD-BM-247-240-N.jpg","img/neutralC/CFD-WM-002-009-N.jpg","img/neutralC/CFD-BF-003-003-N.jpg","1","1","0","0","0","0","0.531143300002441","0.543110100028571","0.465066800010391","1","1","1","1","1","1","1","1","1"
"250014","img/neutralC/CFD-BF-003-003-N.jpg","img/neutralC/CFD-BM-247-240-N.jpg","img/neutralC/CFD-LF-216-121-N.jpg","0","1","1","0","0","1","0.465066800010391","0.531143300002441","0.469616099959239","1","1","1","1","1","1","1","1","1"
"250014","img/neutralC/CFD-LF-216-121-N.jpg","img/neutralC/CFD-BF-003-003-N.jpg","img/neutralC/CFD-WF-026-002-N.jpg","1","0","1","1","0","1","0.469616099959239","0.465066800010391","0.441217699961271","1","1","1","1","1","1","1","1","1"
"250014","img/neutralC/CFD-WF-026-002-N.jpg","img/neutralC/CFD-LF-216-121-N.jpg","img/neutralC/CFD-BM-015-015-N.jpg","1","1","1","1","1","0","0.441217699961271","0.469616099959239","0.607108500029426","1","1","1","1","1","1","1","1","1"
"250014","img/neutralC/CFD-BM-015-015-N.jpg","img/neutralC/CFD-WF-026-002-N.jpg","img/neutralC/CFD-WM-225-127-N.jpg","1","1","0","0","1","0","0.607108500029426","0.441217699961271","0.610401300014928","1","1","1","1","1","1","1","1","1"
"250014","img/neutralC/CFD-WM-225-127-N.jpg","img/neutralC/CFD-BM-015-015-N.jpg","img/neutralC/CFD-IF-672-305-N.jpg","0","1","1","0","0","0","0.610401300014928","0.607108500029426","0.887037899985444","1","1","1","1","1","1","1","1","1"
"250014","img/neutralC/CFD-IF-672-305-N.jpg","img/neutralC/CFD-WM-225-127-N.jpg","img/neutralC/CFD-MM-319-052-N.jpg","1","0","1","0","0","1","0.887037899985444","0.610401300014928","0.438889100041706","1","1","1","1","1","1","1","1","1"
"250014","img/neutralC/CFD-MM-319-052-N.jpg","img/neutralC/CFD-IF-672-305-N.jpg","img/neutralC/CFD-BF-208-266-N.jpg","1","1","1","1","0","0","0.438889100041706","0.887037899985444","0.609798799967393","1","1","1","1","1","1","1","1","1"
"250014","img/neutralC/CFD-BF-208-266-N.jpg","img/neutralC/CFD-MM-319-052-N.jpg","img/neutralC/CFD-BF-204-189-N.jpg","1","1","1","0","1","1","0.609798799967393","0.438889100041706","0.590854799957015","1","1","1","1","1","1","1","1","1"
"250014","img/neutralC/CFD-BF-204-189-N.jpg","img/neutralC/CFD-BF-208-266-N.jpg","img/neutralC/CFD-LF-236-221-N.jpg","1","1","1","1","0","1","0.590854799957015","0.609798799967393","0.585498600034043","1","1","1","1","1","1","1","1","1"
"250014","img/neutralC/CFD-LF-236-221-N.jpg","img/neutralC/CFD-BF-204-189-N.jpg","img/neutralC/CFD-IM-639-263-N.jpg","1","1","1","1","1","1","0.585498600034043","0.590854799957015","0.441272599971853","1","1","1","1","1","1","1","1","1"
"250014","img/neutralC/CFD-IM-639-263-N.jpg","img/neutralC/CFD-LF-236-221-N.jpg","img/neutralC/CFD-BF-255-140-N.jpg","1","1","1","1","1","1","0.441272599971853","0.585498600034043","0.579893799964339","1","1","1","1","1","1","1","1","1"
"250014","img/neutralC/CFD-BF-255-140-N.jpg","img/neutralC/CFD-IM-639-263-N.jpg","img/neutralC/CFD-WM-040-022-N.jpg","1","1","0","1","1","0","0.579893799964339","0.441272599971853","0.629286900046282","1","1","1","1","1","1","1","1","1"
"250014","img/neutralC/CFD-WM-040-022-N.jpg","img/neutralC/CFD-BF-255-140-N.jpg","img/neutralC/CFD-BF-023-010-N.jpg","0","1","1","0","1","1","0.629286900046282","0.579893799964339","0.422273100004531","1","1","1","1","1","1","1","1","1"
"250014","img/neutralC/CFD-BF-023-010-N.jpg","img/neutralC/CFD-WM-040-022-N.jpg","img/neutralC/CFD-BM-029-024-N.jpg","1","0","1","1","0","1","0.422273100004531","0.629286900046282","0.442581399984192","1","1","1","1","1","1","1","1","1"
"250014","img/neutralC/CFD-BM-029-024-N.jpg","img/neutralC/CFD-BF-023-010-N.jpg","img/neutralC/CFD-BF-201-080-N.jpg","1","1","1","1","1","1","0.442581399984192","0.422273100004531","0.596959499991499","1","1","1","1","1","1","1","1","1"
"250014","img/neutralC/CFD-BF-201-080-N.jpg","img/neutralC/CFD-BM-029-024-N.jpg",NA,"1","1",NA,"1","1",NA,"0.596959499991499","0.442581399984192",NA,"1","1",NA,"1","1",NA,"1","1",NA
"250014","img/neutralC/CFD-MF-359-019-N.jpg",NA,"img/neutralC/CFD-BM-225-154-N.jpg","1",NA,"1","0",NA,"1","0.789640599978156",NA,"0.552151799958665","1",NA,"1","1",NA,"1","1",NA,"1"
"250014","img/neutralC/CFD-BM-225-154-N.jpg","img/neutralC/CFD-MF-359-019-N.jpg","img/neutralC/CFD-IM-671-601-N.jpg","1","1","1","1","0","0","0.552151799958665","0.789640599978156","0.619992899999488","1","1","1","1","1","1","1","1","1"
"250014","img/neutralC/CFD-IM-671-601-N.jpg","img/neutralC/CFD-BM-225-154-N.jpg","img/neutralC/CFD-IM-743-006-N.jpg","1","1","1","0","1","1","0.619992899999488","0.552151799958665","0.506261399947107","1","1","1","1","1","1","1","1","1"
"250014","img/neutralC/CFD-IM-743-006-N.jpg","img/neutralC/CFD-IM-671-601-N.jpg","img/neutralC/CFD-IM-616-214-N.jpg","1","1","1","1","0","0","0.506261399947107","0.619992899999488","0.515830899996217","1","1","1","1","1","1","1","1","1"
"250014","img/neutralC/CFD-IM-616-214-N.jpg","img/neutralC/CFD-IM-743-006-N.jpg","img/neutralC/CFD-BM-253-004-N.jpg","1","1","1","0","1","1","0.515830899996217","0.506261399947107","0.477215499966405","1","1","1","1","1","1","1","1","1"
"250014","img/neutralC/CFD-BM-253-004-N.jpg","img/neutralC/CFD-IM-616-214-N.jpg","img/neutralC/CFD-LM-228-188-N.jpg","1","1","1","1","0","1","0.477215499966405","0.515830899996217","0.462817599996924","1","1","1","1","1","1","1","1","1"
"250014","img/neutralC/CFD-LM-228-188-N.jpg","img/neutralC/CFD-BM-253-004-N.jpg","img/neutralC/CFD-IF-623-129-N.jpg","1","1","1","1","1","1","0.462817599996924","0.477215499966405","0.537321300012991","1","1","1","1","1","1","1","1","1"
"250014","img/neutralC/CFD-IF-623-129-N.jpg","img/neutralC/CFD-LM-228-188-N.jpg","img/neutralC/CFD-WM-033-025-N.jpg","1","1","1","1","1","1","0.537321300012991","0.462817599996924","0.478756299999077","1","1","1","1","1","1","1","1","1"
"250014","img/neutralC/CFD-WM-033-025-N.jpg","img/neutralC/CFD-IF-623-129-N.jpg","img/neutralC/CFD-WM-004-010-N.jpg","1","1","1","1","1","0","0.478756299999077","0.537321300012991","0.488530999980867","1","1","1","1","1","1","1","1","1"
"250014","img/neutralC/CFD-WM-004-010-N.jpg","img/neutralC/CFD-WM-033-025-N.jpg","img/neutralC/CFD-WF-036-023-N.jpg","1","1","1","0","1","0","0.488530999980867","0.478756299999077","0.615468000003602","1","1","1","1","1","1","1","1","1"
"250014","img/neutralC/CFD-WF-036-023-N.jpg","img/neutralC/CFD-WM-004-010-N.jpg","img/neutralC/CFD-WM-235-147-N.jpg","1","1","1","0","0","0","0.615468000003602","0.488530999980867","0.556545100000221","1","1","1","1","1","1","1","1","1"
"250014","img/neutralC/CFD-WM-235-147-N.jpg","img/neutralC/CFD-WF-036-023-N.jpg","img/neutralC/CFD-WM-020-001-N.jpg","1","1","1","0","0","1","0.556545100000221","0.615468000003602","0.642524199967738","1","1","1","1","1","1","1","1","1"
"250014","img/neutralC/CFD-WM-020-001-N.jpg","img/neutralC/CFD-WM-235-147-N.jpg","img/neutralC/CFD-WF-214-122-N.jpg","1","1","1","1","0","1","0.642524199967738","0.556545100000221","0.500907100038603","1","1","1","1","1","1","1","1","1"
"250014","img/neutralC/CFD-WF-214-122-N.jpg","img/neutralC/CFD-WM-020-001-N.jpg","img/neutralC/CFD-WM-219-008-N.jpg","1","1","0","1","1","0","0.500907100038603","0.642524199967738","0.596016399969812","1","1","1","1","1","1","1","1","1"
"250014","img/neutralC/CFD-WM-219-008-N.jpg","img/neutralC/CFD-WF-214-122-N.jpg","img/neutralC/CFD-BF-229-179-N.jpg","0","1","0","0","1","0","0.596016399969812","0.500907100038603","0.43737770000007","1","1","1","1","1","1","1","1","1"
"250014","img/neutralC/CFD-BF-229-179-N.jpg","img/neutralC/CFD-WM-219-008-N.jpg","img/neutralC/CFD-AM-251-124-N.jpg","0","0","1","0","0","0","0.43737770000007","0.596016399969812","0.518866500002332","1","1","1","1","1","1","1","1","1"
"250014","img/neutralC/CFD-AM-251-124-N.jpg","img/neutralC/CFD-BF-229-179-N.jpg","img/neutralC/CFD-LF-218-072-N.jpg","1","0","0","0","0","0","0.518866500002332","0.43737770000007","0.764526000013575","1","1","1","1","1","1","1","1","1"
"250014","img/neutralC/CFD-LF-218-072-N.jpg","img/neutralC/CFD-AM-251-124-N.jpg","img/neutralC/CFD-MF-352-054-N.jpg","0","1","1","0","0","0","0.764526000013575","0.518866500002332","0.582334300037473","1","1","1","1","1","1","1","1","1"
"250014","img/neutralC/CFD-MF-352-054-N.jpg","img/neutralC/CFD-LF-218-072-N.jpg","img/neutralC/CFD-IM-645-001-N.jpg","1","0","1","0","0","0","0.582334300037473","0.764526000013575","0.578947599977255","1","1","1","1","1","1","1","1","1"
"250014","img/neutralC/CFD-IM-645-001-N.jpg","img/neutralC/CFD-MF-352-054-N.jpg","img/neutralC/CFD-IM-703-182-N.jpg","1","1","1","0","0","1","0.578947599977255","0.582334300037473","0.603249399980996","1","1","1","1","1","1","1","1","1"
"250014","img/neutralC/CFD-IM-703-182-N.jpg","img/neutralC/CFD-IM-645-001-N.jpg","img/neutralC/CFD-BF-038-037-N.jpg","1","1","1","1","0","1","0.603249399980996","0.578947599977255","0.532256699982099","1","1","1","1","1","1","1","1","1"
"250014","img/neutralC/CFD-BF-038-037-N.jpg","img/neutralC/CFD-IM-703-182-N.jpg","img/neutralC/CFD-WF-001-003-N.jpg","1","1","1","1","1","1","0.532256699982099","0.603249399980996","0.553055299969856","1","1","1","1","1","1","1","1","1"
"250014","img/neutralC/CFD-WF-001-003-N.jpg","img/neutralC/CFD-BF-038-037-N.jpg","img/neutralC/CFD-MF-333-012-N.jpg","1","1","0","1","1","0","0.553055299969856","0.532256699982099","1.0056409999961","1","1","1","1","1","1","1","1","1"
"250014","img/neutralC/CFD-MF-333-012-N.jpg","img/neutralC/CFD-WF-001-003-N.jpg","img/neutralC/CFD-WF-200-099-N.jpg","0","1","1","0","1","0","1.0056409999961","0.553055299969856","0.506422400008887","1","1","1","1","1","1","1","1","1"
"250014","img/neutralC/CFD-WF-200-099-N.jpg","img/neutralC/CFD-MF-333-012-N.jpg","img/neutralC/CFD-BF-226-119-N.jpg","1","0","1","0","0","1","0.506422400008887","1.0056409999961","0.641724399989471","1","1","1","1","1","1","1","1","1"
"250014","img/neutralC/CFD-BF-226-119-N.jpg","img/neutralC/CFD-WF-200-099-N.jpg","img/neutralC/CFD-LM-237-264-N.jpg","1","1","0","1","0","0","0.641724399989471","0.506422400008887","0.560331100015901","1","1","1","1","1","1","1","1","1"
"250014","img/neutralC/CFD-LM-237-264-N.jpg","img/neutralC/CFD-BF-226-119-N.jpg","img/neutralC/CFD-AM-211-052-N.jpg","0","1","1","0","1","1","0.560331100015901","0.641724399989471","0.553043099993374","1","1","1","1","1","1","1","1","1"
"250014","img/neutralC/CFD-AM-211-052-N.jpg","img/neutralC/CFD-LM-237-264-N.jpg","img/neutralC/CFD-AM-242-176-N.jpg","1","0","1","1","0","1","0.553043099993374","0.560331100015901","0.47518280002987","1","1","1","1","1","1","1","1","1"
"250014","img/neutralC/CFD-AM-242-176-N.jpg","img/neutralC/CFD-AM-211-052-N.jpg","img/neutralC/CFD-BF-232-187-N.jpg","1","1","1","1","1","1","0.47518280002987","0.553043099993374","0.778730499965604","1","1","1","1","1","1","1","1","1"
"250014","img/neutralC/CFD-BF-232-187-N.jpg","img/neutralC/CFD-AM-242-176-N.jpg","img/neutralC/CFD-IF-650-315-N.jpg","1","1","1","1","1","0","0.778730499965604","0.47518280002987","0.732787200016901","1","1","1","1","1","1","1","1","1"
"250014","img/neutralC/CFD-IF-650-315-N.jpg","img/neutralC/CFD-BF-232-187-N.jpg","img/neutralC/CFD-LF-220-120-N.jpg","1","1","1","0","1","1","0.732787200016901","0.778730499965604","0.507077499991283","1","1","1","1","1","1","1","1","1"
"250014","img/neutralC/CFD-LF-220-120-N.jpg","img/neutralC/CFD-IF-650-315-N.jpg",NA,"1","1",NA,"1","0",NA,"0.507077499991283","0.732787200016901",NA,"1","1",NA,"1","1",NA,"1","1",NA
"250014","img/neutralC/CFD-AM-245-111-N.jpg",NA,"img/neutralC/CFD-BM-215-155-N.jpg","1",NA,"1","1",NA,"0","0.555911300005391",NA,"0.572006899979897","1",NA,"1","1",NA,"1","1",NA,"1"
"250014","img/neutralC/CFD-BM-215-155-N.jpg","img/neutralC/CFD-AM-245-111-N.jpg","img/neutralC/CFD-IM-632-097-N.jpg","1","1","1","0","1","0","0.572006899979897","0.555911300005391","0.551216299994849","1","1","1","1","1","1","1","1","1"
"250014","img/neutralC/CFD-IM-632-097-N.jpg","img/neutralC/CFD-BM-215-155-N.jpg","img/neutralC/CFD-WF-235-121-N.jpg","1","1","1","0","0","0","0.551216299994849","0.572006899979897","0.469948499987368","1","1","1","1","1","1","1","1","1"
"250014","img/neutralC/CFD-WF-235-121-N.jpg","img/neutralC/CFD-IM-632-097-N.jpg","img/neutralC/CFD-AF-213-126-N.jpg","1","1","1","0","0","1","0.469948499987368","0.551216299994849","0.469650200044271","1","1","1","1","1","1","1","1","1"
"250014","img/neutralC/CFD-AF-213-126-N.jpg","img/neutralC/CFD-WF-235-121-N.jpg","img/neutralC/CFD-WM-253-119-N.jpg","1","1","1","1","0","1","0.469650200044271","0.469948499987368","0.513693799963221","1","1","1","1","1","1","1","1","1"
"250014","img/neutralC/CFD-WM-253-119-N.jpg","img/neutralC/CFD-AF-213-126-N.jpg","img/neutralC/CFD-BF-040-003-N.jpg","1","1","1","1","1","1","0.513693799963221","0.469650200044271","0.438097699952777","1","1","1","1","1","1","1","1","1"
"250014","img/neutralC/CFD-BF-040-003-N.jpg","img/neutralC/CFD-WM-253-119-N.jpg","img/neutralC/CFD-AF-205-155-N.jpg","1","1","1","1","1","0","0.438097699952777","0.513693799963221","0.468502899981104","1","1","1","1","1","1","1","1","1"
"250014","img/neutralC/CFD-AF-205-155-N.jpg","img/neutralC/CFD-BF-040-003-N.jpg","img/neutralC/CFD-MF-307-002-N.jpg","1","1","1","0","1","1","0.468502899981104","0.438097699952777","0.541203900007531","1","1","1","1","1","1","1","1","1"
"250014","img/neutralC/CFD-MF-307-002-N.jpg","img/neutralC/CFD-AF-205-155-N.jpg","img/neutralC/CFD-WM-018-002-N.jpg","1","1","0","1","0","0","0.541203900007531","0.468502899981104","0.453573999984656","1","1","1","1","1","1","1","1","1"
"250014","img/neutralC/CFD-WM-018-002-N.jpg","img/neutralC/CFD-MF-307-002-N.jpg","img/neutralC/CFD-AF-234-208-N.jpg","0","1","1","0","1","1","0.453573999984656","0.541203900007531","0.427565000019968","1","1","1","1","1","1","1","1","1"
"250014","img/neutralC/CFD-AF-234-208-N.jpg","img/neutralC/CFD-WM-018-002-N.jpg","img/neutralC/CFD-AF-250-200-N.jpg","1","0","1","1","0","1","0.427565000019968","0.453573999984656","0.481455600005575","1","1","1","1","1","1","1","1","1"
"250014","img/neutralC/CFD-AF-250-200-N.jpg","img/neutralC/CFD-AF-234-208-N.jpg","img/neutralC/CFD-AM-233-236-N.jpg","1","1","1","1","1","1","0.481455600005575","0.427565000019968","0.660173700016458","1","1","1","1","1","1","1","1","1"
"250014","img/neutralC/CFD-AM-233-236-N.jpg","img/neutralC/CFD-AF-250-200-N.jpg","img/neutralC/CFD-IF-636-011-N.jpg","1","1","1","1","1","1","0.660173700016458","0.481455600005575","0.46791879995726","1","1","1","1","1","1","1","1","1"
"250014","img/neutralC/CFD-IF-636-011-N.jpg","img/neutralC/CFD-AM-233-236-N.jpg","img/neutralC/CFD-MF-302-027-N.jpg","1","1","1","1","1","0","0.46791879995726","0.660173700016458","0.614020699984394","1","1","1","1","1","1","1","1","1"
"250014","img/neutralC/CFD-MF-302-027-N.jpg","img/neutralC/CFD-IF-636-011-N.jpg","img/neutralC/CFD-IM-669-111-N.jpg","1","1","1","0","1","1","0.614020699984394","0.46791879995726","0.482244700018782","1","1","1","1","1","1","1","1","1"
"250014","img/neutralC/CFD-IM-669-111-N.jpg","img/neutralC/CFD-MF-302-027-N.jpg","img/neutralC/CFD-BM-004-002-N.jpg","1","1","1","1","0","0","0.482244700018782","0.614020699984394","0.592554000031669","1","1","1","1","1","1","1","1","1"
"250014","img/neutralC/CFD-BM-004-002-N.jpg","img/neutralC/CFD-IM-669-111-N.jpg","img/neutralC/CFD-LM-204-001-N.jpg","1","1","1","0","1","0","0.592554000031669","0.482244700018782","0.555459099996369","1","1","1","1","1","1","1","1","1"
"250014","img/neutralC/CFD-LM-204-001-N.jpg","img/neutralC/CFD-BM-004-002-N.jpg","img/neutralC/CFD-WF-210-086-N.jpg","1","1","1","0","0","0","0.555459099996369","0.592554000031669","0.549650400003884","1","1","1","1","1","1","1","1","1"
"250014","img/neutralC/CFD-WF-210-086-N.jpg","img/neutralC/CFD-LM-204-001-N.jpg","img/neutralC/CFD-IM-635-010-N.jpg","1","1","1","0","0","1","0.549650400003884","0.555459099996369","0.484750500007067","1","1","1","1","1","1","1","1","1"
"250014","img/neutralC/CFD-IM-635-010-N.jpg","img/neutralC/CFD-WF-210-086-N.jpg","img/neutralC/CFD-BF-042-026-N.jpg","1","1","1","1","0","1","0.484750500007067","0.549650400003884","0.483261700021103","1","1","1","1","1","1","1","1","1"
"250014","img/neutralC/CFD-BF-042-026-N.jpg","img/neutralC/CFD-IM-635-010-N.jpg","img/neutralC/CFD-AF-246-242-N.jpg","1","1","1","1","1","0","0.483261700021103","0.484750500007067","0.561848899989855","1","1","1","1","1","1","1","1","1"
"250014","img/neutralC/CFD-AF-246-242-N.jpg","img/neutralC/CFD-BF-042-026-N.jpg","img/neutralC/CFD-BF-206-143-N.jpg","1","1","1","0","1","1","0.561848899989855","0.483261700021103","0.433806199987885","1","1","1","1","1","1","1","1","1"
"250014","img/neutralC/CFD-BF-206-143-N.jpg","img/neutralC/CFD-AF-246-242-N.jpg","img/neutralC/CFD-AM-225-102-N.jpg","1","1","1","1","0","0","0.433806199987885","0.561848899989855","0.662757300015073","1","1","1","1","1","1","1","1","1"
"250014","img/neutralC/CFD-AM-225-102-N.jpg","img/neutralC/CFD-BF-206-143-N.jpg","img/neutralC/CFD-BF-235-168-N.jpg","1","1","1","0","1","1","0.662757300015073","0.433806199987885","0.457120799983386","1","1","1","1","1","1","1","1","1"
"250014","img/neutralC/CFD-BF-235-168-N.jpg","img/neutralC/CFD-AM-225-102-N.jpg","img/neutralC/CFD-LM-241-125-N.jpg","1","1","1","1","0","1","0.457120799983386","0.662757300015073","0.580830999999307","1","1","1","1","1","1","1","1","1"
"250014","img/neutralC/CFD-LM-241-125-N.jpg","img/neutralC/CFD-BF-235-168-N.jpg","img/neutralC/CFD-AF-244-168-N.jpg","1","1","1","1","1","0","0.580830999999307","0.457120799983386","0.568779800029006","1","1","1","1","1","1","1","1","1"
"250014","img/neutralC/CFD-AF-244-168-N.jpg","img/neutralC/CFD-LM-241-125-N.jpg","img/neutralC/CFD-IM-678-482-N.jpg","1","1","0","0","1","0","0.568779800029006","0.580830999999307","0.650680300022941","1","1","1","1","1","1","1","1","1"
"250014","img/neutralC/CFD-IM-678-482-N.jpg","img/neutralC/CFD-AF-244-168-N.jpg","img/neutralC/CFD-LF-239-148-N.jpg","0","1","1","0","0","0","0.650680300022941","0.568779800029006","0.577824199979659","1","1","1","1","1","1","1","1","1"
"250014","img/neutralC/CFD-LF-239-148-N.jpg","img/neutralC/CFD-IM-678-482-N.jpg","img/neutralC/CFD-BF-217-189-N.jpg","1","0","1","0","0","0","0.577824199979659","0.650680300022941","0.574271699995734","1","1","1","1","1","1","1","1","1"
"250014","img/neutralC/CFD-BF-217-189-N.jpg","img/neutralC/CFD-LF-239-148-N.jpg","img/neutralC/CFD-IF-732-260-N.jpg","1","1","1","0","0","0","0.574271699995734","0.577824199979659","0.575774899974931","1","1","1","1","1","1","1","1","1"
"250014","img/neutralC/CFD-IF-732-260-N.jpg","img/neutralC/CFD-BF-217-189-N.jpg","img/neutralC/CFD-BF-020-002-N.jpg","1","1","1","0","0","1","0.575774899974931","0.574271699995734","0.440148199966643","1","1","1","1","1","1","1","1","1"
"250014","img/neutralC/CFD-BF-020-002-N.jpg","img/neutralC/CFD-IF-732-260-N.jpg",NA,"1","1",NA,"1","0",NA,"0.440148199966643","0.575774899974931",NA,"1","1",NA,"1","1",NA,"1","1",NA
"250014","img/neutralC/CFD-WM-202-107-N.jpg",NA,"img/neutralC/CFD-LF-208-127-N.jpg","1",NA,"1","1",NA,"0","0.587550199998077",NA,"0.513214300037362","1",NA,"1","1",NA,"1","1",NA,"1"
"250014","img/neutralC/CFD-LF-208-127-N.jpg","img/neutralC/CFD-WM-202-107-N.jpg","img/neutralC/CFD-MF-312-002-N.jpg","1","1","1","0","1","1","0.513214300037362","0.587550199998077","0.607332099985797","1","1","1","1","1","1","1","1","1"
"250014","img/neutralC/CFD-MF-312-002-N.jpg","img/neutralC/CFD-LF-208-127-N.jpg","img/neutralC/CFD-IM-701-312-N.jpg","1","1","0","1","0","0","0.607332099985797","0.513214300037362","0.601776199997403","1","1","1","1","1","1","1","1","2"
"250014","img/neutralC/CFD-IM-701-312-N.jpg","img/neutralC/CFD-MF-312-002-N.jpg","img/neutralC/CFD-WF-223-133-N.jpg","0","1","0","0","1","0","0.601776199997403","0.607332099985797","0.471746399998665","1","1","1","1","1","1","2","1","1"
"250014","img/neutralC/CFD-WF-223-133-N.jpg","img/neutralC/CFD-IM-701-312-N.jpg","img/neutralC/CFD-WM-254-152-N.jpg","0","0","1","0","0","1","0.471746399998665","0.601776199997403","0.34156669996446","1","1","1","1","1","1","1","2","1"
"250014","img/neutralC/CFD-WM-254-152-N.jpg","img/neutralC/CFD-WF-223-133-N.jpg","img/neutralC/CFD-WF-006-002-N.jpg","1","0","1","1","0","0","0.34156669996446","0.471746399998665","0.541383700037841","1","1","1","1","1","1","1","1","1"
"250014","img/neutralC/CFD-WF-006-002-N.jpg","img/neutralC/CFD-WM-254-152-N.jpg","img/neutralC/CFD-IF-744-114-N.jpg","1","1","1","0","1","0","0.541383700037841","0.34156669996446","0.502650199981872","1","1","1","1","1","1","1","1","1"
"250014","img/neutralC/CFD-IF-744-114-N.jpg","img/neutralC/CFD-WF-006-002-N.jpg","img/neutralC/CFD-LF-225-164-N.jpg","1","1","1","0","0","1","0.502650199981872","0.541383700037841","0.667737600044347","1","1","1","1","1","1","1","1","1"
"250014","img/neutralC/CFD-LF-225-164-N.jpg","img/neutralC/CFD-IF-744-114-N.jpg","img/neutralC/CFD-MF-336-016-N.jpg","1","1","1","1","0","1","0.667737600044347","0.502650199981872","0.458541699976195","1","1","1","1","1","1","1","1","1"
"250014","img/neutralC/CFD-MF-336-016-N.jpg","img/neutralC/CFD-LF-225-164-N.jpg","img/neutralC/CFD-LM-247-095-N.jpg","1","1","1","1","1","0","0.458541699976195","0.667737600044347","0.517024100001436","1","1","1","1","1","1","1","1","1"
"250014","img/neutralC/CFD-LM-247-095-N.jpg","img/neutralC/CFD-MF-336-016-N.jpg","img/neutralC/CFD-BF-045-003-N.jpg","1","1","0","0","1","0","0.517024100001436","0.458541699976195","0.481849599978887","1","1","1","1","1","1","1","1","1"
"250014","img/neutralC/CFD-BF-045-003-N.jpg","img/neutralC/CFD-LM-247-095-N.jpg","img/neutralC/CFD-BM-010-003-N.jpg","0","1","0","0","0","0","0.481849599978887","0.517024100001436","0.761580699996557","1","1","1","1","1","1","1","1","1"
"250014","img/neutralC/CFD-BM-010-003-N.jpg","img/neutralC/CFD-BF-045-003-N.jpg","img/neutralC/CFD-AF-210-050-N.jpg","0","0","1","0","0","1","0.761580699996557","0.481849599978887","0.554614200023934","1","1","1","1","1","1","1","1","1"
"250014","img/neutralC/CFD-AF-210-050-N.jpg","img/neutralC/CFD-BM-010-003-N.jpg","img/neutralC/CFD-BF-004-014-N.jpg","1","0","1","1","0","1","0.554614200023934","0.761580699996557","0.39018779998878","1","1","1","1","1","1","1","1","1"
"250014","img/neutralC/CFD-BF-004-014-N.jpg","img/neutralC/CFD-AF-210-050-N.jpg","img/neutralC/CFD-IF-625-225-N.jpg","1","1","1","1","1","0","0.39018779998878","0.554614200023934","0.52114209998399","1","1","1","1","1","1","1","1","1"
"250014","img/neutralC/CFD-IF-625-225-N.jpg","img/neutralC/CFD-BF-004-014-N.jpg","img/neutralC/CFD-IF-673-389-N.jpg","1","1","1","0","1","0","0.52114209998399","0.39018779998878","0.613370199978817","1","1","1","1","1","1","1","1","1"
"250014","img/neutralC/CFD-IF-673-389-N.jpg","img/neutralC/CFD-IF-625-225-N.jpg","img/neutralC/CFD-BM-028-002-N.jpg","1","1","1","0","0","1","0.613370199978817","0.52114209998399","0.524236300028861","1","1","1","1","1","1","1","1","1"
"250014","img/neutralC/CFD-BM-028-002-N.jpg","img/neutralC/CFD-IF-673-389-N.jpg","img/neutralC/CFD-WM-228-065-N.jpg","1","1","0","1","0","0","0.524236300028861","0.613370199978817","0.79391280002892","1","1","1","1","1","1","1","1","1"
"250014","img/neutralC/CFD-WM-228-065-N.jpg","img/neutralC/CFD-BM-028-002-N.jpg","img/neutralC/CFD-IM-659-359-N.jpg","0","1","1","0","1","0","0.79391280002892","0.524236300028861","0.837199200002942","1","1","1","1","1","1","1","1","1"
"250014","img/neutralC/CFD-IM-659-359-N.jpg","img/neutralC/CFD-WM-228-065-N.jpg","img/neutralC/CFD-IM-738-191-N.jpg","1","0","1","0","0","0","0.837199200002942","0.79391280002892","0.559103100036737","1","1","1","1","1","1","1","1","1"
"250014","img/neutralC/CFD-IM-738-191-N.jpg","img/neutralC/CFD-IM-659-359-N.jpg","img/neutralC/CFD-LF-210-220-N.jpg","1","1","1","0","0","1","0.559103100036737","0.837199200002942","0.68874999997206","1","1","1","1","1","1","1","1","1"
"250014","img/neutralC/CFD-LF-210-220-N.jpg","img/neutralC/CFD-IM-738-191-N.jpg","img/neutralC/CFD-BM-003-003-N.jpg","1","1","1","1","0","0","0.68874999997206","0.559103100036737","0.585896300035529","1","1","1","1","1","1","1","1","1"
"250014","img/neutralC/CFD-BM-003-003-N.jpg","img/neutralC/CFD-LF-210-220-N.jpg","img/neutralC/CFD-BF-222-240-N.jpg","1","1","1","0","1","0","0.585896300035529","0.68874999997206","0.621933399990667","1","1","1","1","1","1","1","1","1"
"250014","img/neutralC/CFD-BF-222-240-N.jpg","img/neutralC/CFD-BM-003-003-N.jpg","img/neutralC/CFD-AM-221-184-N.jpg","1","1","1","0","0","1","0.621933399990667","0.585896300035529","0.477681100019254","1","1","1","1","1","1","1","1","2"
"250014","img/neutralC/CFD-AM-221-184-N.jpg","img/neutralC/CFD-BF-222-240-N.jpg","img/neutralC/CFD-BM-013-002-N.jpg","1","1","1","1","0","1","0.477681100019254","0.621933399990667","0.511499500018544","1","1","1","1","1","1","2","1","1"
"250014","img/neutralC/CFD-BM-013-002-N.jpg","img/neutralC/CFD-AM-221-184-N.jpg","img/neutralC/CFD-BM-213-134-N.jpg","1","1","1","1","1","1","0.511499500018544","0.477681100019254","0.490981800016016","1","1","1","1","1","1","1","2","1"
"250014","img/neutralC/CFD-BM-213-134-N.jpg","img/neutralC/CFD-BM-013-002-N.jpg","img/neutralC/CFD-AF-239-171-N.jpg","1","1","1","1","1","1","0.490981800016016","0.511499500018544","0.515632900001947","1","1","1","1","1","1","1","1","1"
"250014","img/neutralC/CFD-AF-239-171-N.jpg","img/neutralC/CFD-BM-213-134-N.jpg","img/neutralC/CFD-WF-033-002-N.jpg","1","1","1","1","1","1","0.515632900001947","0.490981800016016","0.59289109997917","1","1","1","1","1","1","1","1","1"
"250014","img/neutralC/CFD-WF-033-002-N.jpg","img/neutralC/CFD-AF-239-171-N.jpg","img/neutralC/CFD-LM-238-129-N.jpg","1","1","1","1","1","1","0.59289109997917","0.515632900001947","0.345947399968281","1","1","1","1","1","1","1","1","1"
"250014","img/neutralC/CFD-LM-238-129-N.jpg","img/neutralC/CFD-WF-033-002-N.jpg","img/neutralC/CFD-LF-241-188-N.jpg","1","1","1","1","1","0","0.345947399968281","0.59289109997917","0.522672899998724","1","1","1","1","1","1","1","1","1"
"250014","img/neutralC/CFD-LF-241-188-N.jpg","img/neutralC/CFD-LM-238-129-N.jpg","img/neutralC/CFD-AF-227-207-N.jpg","1","1","1","0","1","1","0.522672899998724","0.345947399968281","0.416010199987795","1","1","1","1","1","1","1","1","1"
"250014","img/neutralC/CFD-AF-227-207-N.jpg","img/neutralC/CFD-LF-241-188-N.jpg",NA,"1","1",NA,"1","0",NA,"0.416010199987795","0.522672899998724",NA,"1","1",NA,"1","1",NA,"1","1",NA
"250014","img/neutralC/CFD-MF-342-022-N.jpg",NA,"img/neutralC/CFD-IF-629-234-N.jpg","1",NA,"1","1",NA,"0","0.599204299971461",NA,"0.650515999994241","1",NA,"1","1",NA,"1","1",NA,"1"
"250014","img/neutralC/CFD-IF-629-234-N.jpg","img/neutralC/CFD-MF-342-022-N.jpg","img/neutralC/CFD-WM-201-063-N.jpg","1","1","1","0","1","1","0.650515999994241","0.599204299971461","0.414242099970579","1","1","1","1","1","1","1","1","1"
"250014","img/neutralC/CFD-WM-201-063-N.jpg","img/neutralC/CFD-IF-629-234-N.jpg","img/neutralC/CFD-WF-027-003-N.jpg","1","1","1","1","0","1","0.414242099970579","0.650515999994241","0.467516999982763","1","1","1","1","1","1","1","1","1"
"250014","img/neutralC/CFD-WF-027-003-N.jpg","img/neutralC/CFD-WM-201-063-N.jpg","img/neutralC/CFD-WF-238-023-N.jpg","1","1","1","1","1","0","0.467516999982763","0.414242099970579","0.508986599976197","1","1","1","1","1","1","1","1","1"
"250014","img/neutralC/CFD-WF-238-023-N.jpg","img/neutralC/CFD-WF-027-003-N.jpg","img/neutralC/CFD-WF-226-095-N.jpg","1","1","1","0","1","1","0.508986599976197","0.467516999982763","0.387718399986625","1","1","1","1","1","1","1","1","1"
"250014","img/neutralC/CFD-WF-226-095-N.jpg","img/neutralC/CFD-WF-238-023-N.jpg","img/neutralC/CFD-IM-700-009-N.jpg","1","1","1","1","0","1","0.387718399986625","0.508986599976197","0.410025599994697","1","1","1","1","1","1","1","1","1"
"250014","img/neutralC/CFD-IM-700-009-N.jpg","img/neutralC/CFD-WF-226-095-N.jpg","img/neutralC/CFD-IM-719-221-N.jpg","1","1","1","1","1","0","0.410025599994697","0.387718399986625","0.418901800003368","1","1","1","1","1","1","1","1","1"
"250014","img/neutralC/CFD-IM-719-221-N.jpg","img/neutralC/CFD-IM-700-009-N.jpg","img/neutralC/CFD-LM-253-075-N.jpg","1","1","1","0","1","0","0.418901800003368","0.410025599994697","0.525560099980794","1","1","1","1","1","1","1","1","1"
"250014","img/neutralC/CFD-LM-253-075-N.jpg","img/neutralC/CFD-IM-719-221-N.jpg","img/neutralC/CFD-BM-200-046-N.jpg","1","1","1","0","0","0","0.525560099980794","0.418901800003368","0.485964399995282","1","1","1","1","1","1","1","1","1"
"250014","img/neutralC/CFD-BM-200-046-N.jpg","img/neutralC/CFD-LM-253-075-N.jpg","img/neutralC/CFD-WM-237-052-N.jpg","1","1","1","0","0","1","0.485964399995282","0.525560099980794","0.482101999979932","1","1","1","1","1","1","1","1","1"
"250014","img/neutralC/CFD-WM-237-052-N.jpg","img/neutralC/CFD-BM-200-046-N.jpg","img/neutralC/CFD-WF-018-017-N.jpg","1","1","1","1","0","1","0.482101999979932","0.485964399995282","0.42316559999017","1","1","1","1","1","1","1","1","1"
"250014","img/neutralC/CFD-WF-018-017-N.jpg","img/neutralC/CFD-WM-237-052-N.jpg","img/neutralC/CFD-WM-013-001-N.jpg","1","1","1","1","1","1","0.42316559999017","0.482101999979932","0.472591699974146","1","1","1","1","1","1","1","1","1"
"250014","img/neutralC/CFD-WM-013-001-N.jpg","img/neutralC/CFD-WF-018-017-N.jpg","img/neutralC/CFD-MF-321-003-N.jpg","1","1","1","1","1","0","0.472591699974146","0.42316559999017","0.48881380003877","1","1","1","1","1","1","1","1","1"
"250014","img/neutralC/CFD-MF-321-003-N.jpg","img/neutralC/CFD-WM-013-001-N.jpg","img/neutralC/CFD-MF-318-022-N.jpg","1","1","1","0","1","1","0.48881380003877","0.472591699974146","0.46082400000887","1","1","1","1","1","1","1","1","1"
"250014","img/neutralC/CFD-MF-318-022-N.jpg","img/neutralC/CFD-MF-321-003-N.jpg","img/neutralC/CFD-WM-255-219-N.jpg","1","1","1","1","0","0","0.46082400000887","0.48881380003877","0.603409199975431","1","1","1","1","1","1","1","1","1"
"250014","img/neutralC/CFD-WM-255-219-N.jpg","img/neutralC/CFD-MF-318-022-N.jpg","img/neutralC/CFD-WM-009-002-N.jpg","1","1","1","0","1","0","0.603409199975431","0.46082400000887","0.601401700056158","1","1","1","1","1","1","1","1","1"
"250014","img/neutralC/CFD-WM-009-002-N.jpg","img/neutralC/CFD-WM-255-219-N.jpg","img/neutralC/CFD-WF-023-003-N.jpg","1","1","1","0","0","1","0.601401700056158","0.603409199975431","0.533282599993981","1","1","1","1","1","1","1","1","1"
"250014","img/neutralC/CFD-WF-023-003-N.jpg","img/neutralC/CFD-WM-009-002-N.jpg","img/neutralC/CFD-BF-254-201-N.jpg","1","1","1","1","0","0","0.533282599993981","0.601401700056158","0.57200990000274","1","1","1","1","1","1","1","1","1"
"250014","img/neutralC/CFD-BF-254-201-N.jpg","img/neutralC/CFD-WF-023-003-N.jpg","img/neutralC/CFD-BF-218-207-N.jpg","1","1","1","0","1","1","0.57200990000274","0.533282599993981","0.660590999992564","1","1","1","1","1","1","1","1","1"
"250014","img/neutralC/CFD-BF-218-207-N.jpg","img/neutralC/CFD-BF-254-201-N.jpg","img/neutralC/CFD-IM-627-178-N.jpg","1","1","1","1","0","1","0.660590999992564","0.57200990000274","0.447527999989688","1","1","1","1","1","1","1","1","1"
"250014","img/neutralC/CFD-IM-627-178-N.jpg","img/neutralC/CFD-BF-218-207-N.jpg","img/neutralC/CFD-LF-211-003-N.jpg","1","1","1","1","1","0","0.447527999989688","0.660590999992564","0.48112020001281","1","1","1","1","1","1","1","1","1"
"250014","img/neutralC/CFD-LF-211-003-N.jpg","img/neutralC/CFD-IM-627-178-N.jpg","img/neutralC/CFD-BF-018-039-N.jpg","1","1","1","0","1","1","0.48112020001281","0.447527999989688","0.482032000028994","1","1","1","1","1","1","1","1","1"
"250014","img/neutralC/CFD-BF-018-039-N.jpg","img/neutralC/CFD-LF-211-003-N.jpg","img/neutralC/CFD-WF-245-084-N.jpg","1","1","1","1","0","1","0.482032000028994","0.48112020001281","0.431918199989013","1","1","1","1","1","1","1","1","1"
"250014","img/neutralC/CFD-WF-245-084-N.jpg","img/neutralC/CFD-BF-018-039-N.jpg","img/neutralC/CFD-LF-215-157-N.jpg","1","1","1","1","1","0","0.431918199989013","0.482032000028994","0.517826900002547","1","1","1","1","1","1","1","1","1"
"250014","img/neutralC/CFD-LF-215-157-N.jpg","img/neutralC/CFD-WF-245-084-N.jpg","img/neutralC/CFD-AM-244-222-N.jpg","1","1","1","0","1","0","0.517826900002547","0.431918199989013","0.521284300019033","1","1","1","1","1","1","1","1","1"
"250014","img/neutralC/CFD-AM-244-222-N.jpg","img/neutralC/CFD-LF-215-157-N.jpg","img/neutralC/CFD-AF-221-147-N.jpg","1","1","1","0","0","0","0.521284300019033","0.517826900002547","0.538999600044917","1","1","1","1","1","1","1","1","1"
"250014","img/neutralC/CFD-AF-221-147-N.jpg","img/neutralC/CFD-AM-244-222-N.jpg","img/neutralC/CFD-AF-232-078-N.jpg","1","1","1","0","0","1","0.538999600044917","0.521284300019033","0.659216900006868","1","1","1","1","1","1","1","1","1"
"250014","img/neutralC/CFD-AF-232-078-N.jpg","img/neutralC/CFD-AF-221-147-N.jpg","img/neutralC/CFD-MM-321-021-N.jpg","1","1","1","1","0","0","0.659216900006868","0.538999600044917","0.497334900021087","1","1","1","1","1","1","1","1","1"
"250014","img/neutralC/CFD-MM-321-021-N.jpg","img/neutralC/CFD-AF-232-078-N.jpg","img/neutralC/CFD-BM-204-003-N.jpg","1","1","1","0","1","0","0.497334900021087","0.659216900006868","0.678713600034826","1","1","1","1","1","1","1","1","1"
"250014","img/neutralC/CFD-BM-204-003-N.jpg","img/neutralC/CFD-MM-321-021-N.jpg","img/neutralC/CFD-BM-023-029-N.jpg","1","1","1","0","0","1","0.678713600034826","0.497334900021087","0.491487899969798","1","1","1","1","1","1","1","1","1"
"250014","img/neutralC/CFD-BM-023-029-N.jpg","img/neutralC/CFD-BM-204-003-N.jpg","img/neutralC/CFD-WM-221-091-N.jpg","1","1","1","1","0","0","0.491487899969798","0.678713600034826","0.906410700001288","1","1","1","1","1","1","1","1","1"
"250014","img/neutralC/CFD-WM-221-091-N.jpg","img/neutralC/CFD-BM-023-029-N.jpg",NA,"1","1",NA,"0","1",NA,"0.906410700001288","0.491487899969798",NA,"1","1",NA,"1","1",NA,"1","1",NA
