"participant_id","current_trial_face","pre_trial_face","post_trial_face","current_trial_accuracy","pre_trial_accuracy","post_trial_accuracy","current_trial_congruency","pre_trial_congruency","post_trial_congruency","current_trial_rt","pre_trial_rt","post_trial_rt","current_trial_responded","pre_trial_responded","post_trial_responded","current_trial_legitResponse","pre_trial_legitResponse","post_trial_legitResponse","current_trial_resp_nums","pre_trial_resp_nums","post_trial_resp_nums"
"250037","img/neutralC/CFD-AM-217-085-N.jpg",NA,"img/neutralC/CFD-BF-023-010-N.jpg","1",NA,"1","0",NA,"1","0.782044899999164",NA,"0.835974399931729","1",NA,"1","1",NA,"1","1",NA,"1"
"250037","img/neutralC/CFD-BF-023-010-N.jpg","img/neutralC/CFD-AM-217-085-N.jpg","img/neutralC/CFD-IM-728-041-N.jpg","1","1","1","1","0","0","0.835974399931729","0.782044899999164","0.662554300040938","1","1","1","1","1","1","1","1","1"
"250037","img/neutralC/CFD-IM-728-041-N.jpg","img/neutralC/CFD-BF-023-010-N.jpg","img/neutralC/CFD-IM-639-263-N.jpg","1","1","1","0","1","1","0.662554300040938","0.835974399931729","0.627929299953394","1","1","1","1","1","1","1","1","1"
"250037","img/neutralC/CFD-IM-639-263-N.jpg","img/neutralC/CFD-IM-728-041-N.jpg","img/neutralC/CFD-WM-038-003-N.jpg","1","1","1","1","0","0","0.627929299953394","0.662554300040938","0.603679799940437","1","1","1","1","1","1","1","1","1"
"250037","img/neutralC/CFD-WM-038-003-N.jpg","img/neutralC/CFD-IM-639-263-N.jpg","img/neutralC/CFD-WM-225-127-N.jpg","1","1","1","0","1","0","0.603679799940437","0.627929299953394","0.619755399995483","1","1","1","1","1","1","1","1","1"
"250037","img/neutralC/CFD-WM-225-127-N.jpg","img/neutralC/CFD-WM-038-003-N.jpg","img/neutralC/CFD-BF-028-001-N.jpg","1","1","1","0","0","1","0.619755399995483","0.603679799940437","0.570029299939051","1","1","1","1","1","1","1","1","1"
"250037","img/neutralC/CFD-BF-028-001-N.jpg","img/neutralC/CFD-WM-225-127-N.jpg","img/neutralC/CFD-WM-002-009-N.jpg","1","1","1","1","0","0","0.570029299939051","0.619755399995483","0.561309800017625","1","1","1","1","1","1","1","1","1"
"250037","img/neutralC/CFD-WM-002-009-N.jpg","img/neutralC/CFD-BF-028-001-N.jpg","img/neutralC/CFD-WF-002-004-N.jpg","1","1","1","0","1","0","0.561309800017625","0.570029299939051","0.571080399909988","1","1","1","1","1","1","1","1","1"
"250037","img/neutralC/CFD-WF-002-004-N.jpg","img/neutralC/CFD-WM-002-009-N.jpg","img/neutralC/CFD-BM-211-174-N.jpg","1","1","1","0","0","0","0.571080399909988","0.561309800017625","0.624014700064436","1","1","1","1","1","1","1","1","1"
"250037","img/neutralC/CFD-BM-211-174-N.jpg","img/neutralC/CFD-WF-002-004-N.jpg","img/neutralC/CFD-AM-215-120-N.jpg","1","1","1","0","0","1","0.624014700064436","0.571080399909988","0.47929499996826","1","1","1","1","1","1","1","1","1"
"250037","img/neutralC/CFD-AM-215-120-N.jpg","img/neutralC/CFD-BM-211-174-N.jpg","img/neutralC/CFD-IM-674-281-N.jpg","1","1","1","1","0","1","0.47929499996826","0.624014700064436","0.532794900005683","1","1","1","1","1","1","1","1","1"
"250037","img/neutralC/CFD-IM-674-281-N.jpg","img/neutralC/CFD-AM-215-120-N.jpg","img/neutralC/CFD-IF-672-305-N.jpg","1","1","1","1","1","0","0.532794900005683","0.47929499996826","0.547925700084306","1","1","1","1","1","1","1","1","1"
"250037","img/neutralC/CFD-IF-672-305-N.jpg","img/neutralC/CFD-IM-674-281-N.jpg","img/neutralC/CFD-BM-015-015-N.jpg","1","1","1","0","1","0","0.547925700084306","0.532794900005683","0.593436300056055","1","1","1","1","1","1","1","1","1"
"250037","img/neutralC/CFD-BM-015-015-N.jpg","img/neutralC/CFD-IF-672-305-N.jpg","img/neutralC/CFD-MM-319-052-N.jpg","1","1","1","0","0","1","0.593436300056055","0.547925700084306","0.618663800065406","1","1","1","1","1","1","1","1","1"
"250037","img/neutralC/CFD-MM-319-052-N.jpg","img/neutralC/CFD-BM-015-015-N.jpg","img/neutralC/CFD-WM-040-022-N.jpg","1","1","1","1","0","0","0.618663800065406","0.593436300056055","0.562774599995464","1","1","1","1","1","1","1","1","1"
"250037","img/neutralC/CFD-WM-040-022-N.jpg","img/neutralC/CFD-MM-319-052-N.jpg","img/neutralC/CFD-IF-718-001-N.jpg","1","1","1","0","1","1","0.562774599995464","0.618663800065406","0.551554500008933","1","1","1","1","1","1","1","1","1"
"250037","img/neutralC/CFD-IF-718-001-N.jpg","img/neutralC/CFD-WM-040-022-N.jpg","img/neutralC/CFD-WF-026-002-N.jpg","1","1","1","1","0","1","0.551554500008933","0.562774599995464","0.72969990002457","1","1","1","1","1","1","1","1","1"
"250037","img/neutralC/CFD-WF-026-002-N.jpg","img/neutralC/CFD-IF-718-001-N.jpg","img/neutralC/CFD-LF-236-221-N.jpg","1","1","1","1","1","1","0.72969990002457","0.551554500008933","0.462128299986944","1","1","1","1","1","1","1","1","1"
"250037","img/neutralC/CFD-LF-236-221-N.jpg","img/neutralC/CFD-WF-026-002-N.jpg","img/neutralC/CFD-BF-208-266-N.jpg","1","1","1","1","1","0","0.462128299986944","0.72969990002457","0.527233299915679","1","1","1","1","1","1","1","1","1"
"250037","img/neutralC/CFD-BF-208-266-N.jpg","img/neutralC/CFD-LF-236-221-N.jpg","img/neutralC/CFD-BM-247-240-N.jpg","1","1","1","0","1","0","0.527233299915679","0.462128299986944","0.57125019992236","1","1","1","1","1","1","1","1","1"
"250037","img/neutralC/CFD-BM-247-240-N.jpg","img/neutralC/CFD-BF-208-266-N.jpg","img/neutralC/CFD-WF-022-017-N.jpg","1","1","1","0","0","0","0.57125019992236","0.527233299915679","0.59447349992115","1","1","1","1","1","1","1","1","1"
"250037","img/neutralC/CFD-WF-022-017-N.jpg","img/neutralC/CFD-BM-247-240-N.jpg","img/neutralC/CFD-BF-201-080-N.jpg","1","1","1","0","0","1","0.59447349992115","0.57125019992236","0.406591500039212","1","1","1","1","1","1","1","1","1"
"250037","img/neutralC/CFD-BF-201-080-N.jpg","img/neutralC/CFD-WF-022-017-N.jpg","img/neutralC/CFD-LM-252-076-N.jpg","1","1","1","1","0","1","0.406591500039212","0.59447349992115","0.439835999975912","1","1","1","1","1","1","1","1","1"
"250037","img/neutralC/CFD-LM-252-076-N.jpg","img/neutralC/CFD-BF-201-080-N.jpg","img/neutralC/CFD-BM-027-001-N.jpg","1","1","1","1","1","0","0.439835999975912","0.406591500039212","0.564049300039187","1","1","1","1","1","1","1","1","1"
"250037","img/neutralC/CFD-BM-027-001-N.jpg","img/neutralC/CFD-LM-252-076-N.jpg","img/neutralC/CFD-WM-257-161-N.jpg","1","1","1","0","1","1","0.564049300039187","0.439835999975912","0.577160099986941","1","1","1","1","1","1","1","1","1"
"250037","img/neutralC/CFD-WM-257-161-N.jpg","img/neutralC/CFD-BM-027-001-N.jpg","img/neutralC/CFD-BF-003-003-N.jpg","1","1","1","1","0","0","0.577160099986941","0.564049300039187","0.708434599917382","1","1","1","1","1","1","1","1","1"
"250037","img/neutralC/CFD-BF-003-003-N.jpg","img/neutralC/CFD-WM-257-161-N.jpg","img/neutralC/CFD-LF-216-121-N.jpg","1","1","1","0","1","1","0.708434599917382","0.577160099986941","0.471542799961753","1","1","1","1","1","1","1","1","1"
"250037","img/neutralC/CFD-LF-216-121-N.jpg","img/neutralC/CFD-BF-003-003-N.jpg","img/neutralC/CFD-BF-204-189-N.jpg","1","1","1","1","0","1","0.471542799961753","0.708434599917382","0.526267200009897","1","1","1","1","1","1","1","1","1"
"250037","img/neutralC/CFD-BF-204-189-N.jpg","img/neutralC/CFD-LF-216-121-N.jpg","img/neutralC/CFD-AM-235-241-N.jpg","1","1","1","1","1","0","0.526267200009897","0.471542799961753","0.585870099952444","1","1","1","1","1","1","1","1","1"
"250037","img/neutralC/CFD-AM-235-241-N.jpg","img/neutralC/CFD-BF-204-189-N.jpg","img/neutralC/CFD-BM-029-024-N.jpg","1","1","1","0","1","1","0.585870099952444","0.526267200009897","0.566988000064157","1","1","1","1","1","1","1","1","1"
"250037","img/neutralC/CFD-BM-029-024-N.jpg","img/neutralC/CFD-AM-235-241-N.jpg","img/neutralC/CFD-BF-255-140-N.jpg","1","1","1","1","0","1","0.566988000064157","0.585870099952444","0.565787200001068","1","1","1","1","1","1","1","1","1"
"250037","img/neutralC/CFD-BF-255-140-N.jpg","img/neutralC/CFD-BM-029-024-N.jpg",NA,"1","1",NA,"1","1",NA,"0.565787200001068","0.566988000064157",NA,"1","1",NA,"1","1",NA,"1","1",NA
"250037","img/neutralC/CFD-LM-243-075-N.jpg",NA,"img/neutralC/CFD-AM-247-165-N.jpg","1",NA,"1","0",NA,"1","0.491212700027972",NA,"0.433136599953286","1",NA,"1","1",NA,"1","1",NA,"1"
"250037","img/neutralC/CFD-AM-247-165-N.jpg","img/neutralC/CFD-LM-243-075-N.jpg","img/neutralC/CFD-WM-006-002-N.jpg","1","1","0","1","0","0","0.433136599953286","0.491212700027972","0.335309999994934","1","1","1","1","1","1","1","1","1"
"250037","img/neutralC/CFD-WM-006-002-N.jpg","img/neutralC/CFD-AM-247-165-N.jpg","img/neutralC/CFD-BF-202-109-N.jpg","0","1","1","0","1","1","0.335309999994934","0.433136599953286","0.474464200087823","1","1","1","1","1","1","1","1","1"
"250037","img/neutralC/CFD-BF-202-109-N.jpg","img/neutralC/CFD-WM-006-002-N.jpg","img/neutralC/CFD-LM-216-082-N.jpg","1","0","1","1","0","0","0.474464200087823","0.335309999994934","0.541246399981901","1","1","1","1","1","1","1","1","1"
"250037","img/neutralC/CFD-LM-216-082-N.jpg","img/neutralC/CFD-BF-202-109-N.jpg","img/neutralC/CFD-WM-012-001-N.jpg","1","1","1","0","1","1","0.541246399981901","0.474464200087823","0.451191199943423","1","1","1","1","1","1","1","1","1"
"250037","img/neutralC/CFD-WM-012-001-N.jpg","img/neutralC/CFD-LM-216-082-N.jpg","img/neutralC/CFD-WF-228-196-N.jpg","1","1","1","1","0","0","0.451191199943423","0.541246399981901","0.517772500053979","1","1","1","1","1","1","1","1","1"
"250037","img/neutralC/CFD-WF-228-196-N.jpg","img/neutralC/CFD-WM-012-001-N.jpg","img/neutralC/CFD-BF-228-212-N.jpg","1","1","1","0","1","0","0.517772500053979","0.451191199943423","0.572901500039734","1","1","1","1","1","1","1","1","1"
"250037","img/neutralC/CFD-BF-228-212-N.jpg","img/neutralC/CFD-WF-228-196-N.jpg","img/neutralC/CFD-LM-201-057-N.jpg","1","1","1","0","0","1","0.572901500039734","0.517772500053979","0.473155300016515","1","1","1","1","1","1","1","1","1"
"250037","img/neutralC/CFD-LM-201-057-N.jpg","img/neutralC/CFD-BF-228-212-N.jpg","img/neutralC/CFD-WM-212-097-N.jpg","1","1","1","1","0","0","0.473155300016515","0.572901500039734","0.575674200081266","1","1","1","1","1","1","1","1","1"
"250037","img/neutralC/CFD-WM-212-097-N.jpg","img/neutralC/CFD-LM-201-057-N.jpg","img/neutralC/CFD-BM-248-128-N.jpg","1","1","1","0","1","0","0.575674200081266","0.473155300016515","0.593180499970913","1","1","1","1","1","1","1","1","1"
"250037","img/neutralC/CFD-BM-248-128-N.jpg","img/neutralC/CFD-WM-212-097-N.jpg","img/neutralC/CFD-AF-240-206-N.jpg","1","1","1","0","0","0","0.593180499970913","0.575674200081266","0.436881899950095","1","1","1","1","1","1","1","1","1"
"250037","img/neutralC/CFD-AF-240-206-N.jpg","img/neutralC/CFD-BM-248-128-N.jpg","img/neutralC/CFD-IM-646-023-N.jpg","1","1","1","0","0","1","0.436881899950095","0.593180499970913","0.403752799960785","1","1","1","1","1","1","1","1","1"
"250037","img/neutralC/CFD-IM-646-023-N.jpg","img/neutralC/CFD-AF-240-206-N.jpg","img/neutralC/CFD-WF-240-083-N.jpg","1","1","0","1","0","0","0.403752799960785","0.436881899950095","0.482166900066659","1","1","1","1","1","1","1","1","1"
"250037","img/neutralC/CFD-WF-240-083-N.jpg","img/neutralC/CFD-IM-646-023-N.jpg","img/neutralC/CFD-BM-251-013-N.jpg","0","1","1","0","1","1","0.482166900066659","0.403752799960785","0.474764300044626","1","1","1","1","1","1","1","1","1"
"250037","img/neutralC/CFD-BM-251-013-N.jpg","img/neutralC/CFD-WF-240-083-N.jpg","img/neutralC/CFD-BF-025-002-N.jpg","1","0","1","1","0","0","0.474764300044626","0.482166900066659","0.547710099956021","1","1","1","1","1","1","1","1","1"
"250037","img/neutralC/CFD-BF-025-002-N.jpg","img/neutralC/CFD-BM-251-013-N.jpg","img/neutralC/CFD-WM-215-041-N.jpg","1","1","1","0","1","0","0.547710099956021","0.474764300044626","0.584388899966143","1","1","1","1","1","1","1","1","1"
"250037","img/neutralC/CFD-WM-215-041-N.jpg","img/neutralC/CFD-BF-025-002-N.jpg","img/neutralC/CFD-BF-041-001-N.jpg","1","1","1","0","0","1","0.584388899966143","0.547710099956021","0.480696500046179","1","1","1","1","1","1","1","1","1"
"250037","img/neutralC/CFD-BF-041-001-N.jpg","img/neutralC/CFD-WM-215-041-N.jpg","img/neutralC/CFD-BF-212-315-N.jpg","1","1","1","1","0","1","0.480696500046179","0.584388899966143","0.453272299957462","1","1","1","1","1","1","1","1","1"
"250037","img/neutralC/CFD-BF-212-315-N.jpg","img/neutralC/CFD-BF-041-001-N.jpg","img/neutralC/CFD-MM-317-061-N.jpg","1","1","1","1","1","1","0.453272299957462","0.480696500046179","0.48261679999996","1","1","1","1","1","1","1","1","1"
"250037","img/neutralC/CFD-MM-317-061-N.jpg","img/neutralC/CFD-BF-212-315-N.jpg","img/neutralC/CFD-IF-642-295-N.jpg","1","1","1","1","1","1","0.48261679999996","0.453272299957462","0.610418200027198","1","1","1","1","1","1","1","1","1"
"250037","img/neutralC/CFD-IF-642-295-N.jpg","img/neutralC/CFD-MM-317-061-N.jpg","img/neutralC/CFD-WM-249-239-N.jpg","1","1","1","1","1","1","0.610418200027198","0.48261679999996","0.475363199948333","1","1","1","1","1","1","1","1","1"
"250037","img/neutralC/CFD-WM-249-239-N.jpg","img/neutralC/CFD-IF-642-295-N.jpg","img/neutralC/CFD-WM-019-003-N.jpg","1","1","1","1","1","1","0.475363199948333","0.610418200027198","0.454555800068192","1","1","1","1","1","1","1","1","1"
"250037","img/neutralC/CFD-WM-019-003-N.jpg","img/neutralC/CFD-WM-249-239-N.jpg","img/neutralC/CFD-WF-017-003-N.jpg","1","1","1","1","1","1","0.454555800068192","0.475363199948333","0.508207299979404","1","1","1","1","1","1","1","1","1"
"250037","img/neutralC/CFD-WF-017-003-N.jpg","img/neutralC/CFD-WM-019-003-N.jpg","img/neutralC/CFD-BM-205-001-N.jpg","1","1","1","1","1","0","0.508207299979404","0.454555800068192","0.535355199943297","1","1","1","1","1","1","1","1","1"
"250037","img/neutralC/CFD-BM-205-001-N.jpg","img/neutralC/CFD-WF-017-003-N.jpg","img/neutralC/CFD-MF-335-002-N.jpg","1","1","1","0","1","0","0.535355199943297","0.508207299979404","0.594364700024016","1","1","1","1","1","1","1","1","1"
"250037","img/neutralC/CFD-MF-335-002-N.jpg","img/neutralC/CFD-BM-205-001-N.jpg","img/neutralC/CFD-IM-648-337-N.jpg","1","1","1","0","0","0","0.594364700024016","0.535355199943297","0.465807299944572","1","1","1","1","1","1","1","1","1"
"250037","img/neutralC/CFD-IM-648-337-N.jpg","img/neutralC/CFD-MF-335-002-N.jpg","img/neutralC/CFD-LM-244-068-N.jpg","1","1","1","0","0","1","0.465807299944572","0.594364700024016","0.430782799958251","1","1","1","1","1","1","1","1","1"
"250037","img/neutralC/CFD-LM-244-068-N.jpg","img/neutralC/CFD-IM-648-337-N.jpg","img/neutralC/CFD-MF-309-002-N.jpg","1","1","1","1","0","0","0.430782799958251","0.465807299944572","0.513596700038761","1","1","1","1","1","1","1","1","1"
"250037","img/neutralC/CFD-MF-309-002-N.jpg","img/neutralC/CFD-LM-244-068-N.jpg","img/neutralC/CFD-LM-214-165-N.jpg","1","1","1","0","1","1","0.513596700038761","0.430782799958251","0.376838200027123","1","1","1","1","1","1","1","1","1"
"250037","img/neutralC/CFD-LM-214-165-N.jpg","img/neutralC/CFD-MF-309-002-N.jpg","img/neutralC/CFD-WF-005-010-N.jpg","1","1","1","1","0","0","0.376838200027123","0.513596700038761","0.488296099938452","1","1","1","1","1","1","1","1","1"
"250037","img/neutralC/CFD-WF-005-010-N.jpg","img/neutralC/CFD-LM-214-165-N.jpg","img/neutralC/CFD-WM-026-001-N.jpg","1","1","1","0","1","1","0.488296099938452","0.376838200027123","0.70504350005649","1","1","1","1","1","1","1","1","1"
"250037","img/neutralC/CFD-WM-026-001-N.jpg","img/neutralC/CFD-WF-005-010-N.jpg",NA,"1","1",NA,"1","0",NA,"0.70504350005649","0.488296099938452",NA,"1","1",NA,"1","1",NA,"1","1",NA
"250037","img/neutralC/CFD-BM-239-136-N.jpg",NA,"img/neutralC/CFD-MF-337-026-N.jpg","1",NA,"1","1",NA,"1","0.524575100047514",NA,"0.381010200013407","1",NA,"1","1",NA,"1","1",NA,"1"
"250037","img/neutralC/CFD-MF-337-026-N.jpg","img/neutralC/CFD-BM-239-136-N.jpg","img/neutralC/CFD-BM-019-002-N.jpg","1","1","0","1","1","0","0.381010200013407","0.524575100047514","0.414211300085299","1","1","1","1","1","1","1","1","1"
"250037","img/neutralC/CFD-BM-019-002-N.jpg","img/neutralC/CFD-MF-337-026-N.jpg","img/neutralC/CFD-LM-218-183-N.jpg","0","1","1","0","1","1","0.414211300085299","0.381010200013407","0.410559099982493","1","1","1","1","1","1","1","1","1"
"250037","img/neutralC/CFD-LM-218-183-N.jpg","img/neutralC/CFD-BM-019-002-N.jpg","img/neutralC/CFD-BF-253-202-N.jpg","1","0","1","1","0","0","0.410559099982493","0.414211300085299","0.516559600015171","1","1","1","1","1","1","1","1","1"
"250037","img/neutralC/CFD-BF-253-202-N.jpg","img/neutralC/CFD-LM-218-183-N.jpg","img/neutralC/CFD-AM-212-050-N.jpg","1","1","1","0","1","1","0.516559600015171","0.410559099982493","0.343965900014155","1","1","1","1","1","1","1","1","1"
"250037","img/neutralC/CFD-AM-212-050-N.jpg","img/neutralC/CFD-BF-253-202-N.jpg","img/neutralC/CFD-MM-316-156-N.jpg","1","1","1","1","0","1","0.343965900014155","0.516559600015171","0.352118299924769","1","1","1","1","1","1","1","1","1"
"250037","img/neutralC/CFD-MM-316-156-N.jpg","img/neutralC/CFD-AM-212-050-N.jpg","img/neutralC/CFD-WF-250-167-N.jpg","1","1","1","1","1","1","0.352118299924769","0.343965900014155","0.344192099990323","1","1","1","1","1","1","1","1","1"
"250037","img/neutralC/CFD-WF-250-167-N.jpg","img/neutralC/CFD-MM-316-156-N.jpg","img/neutralC/CFD-BF-029-031-N.jpg","1","1","1","1","1","1","0.344192099990323","0.352118299924769","0.388923599966802","1","1","1","1","1","1","1","1","1"
"250037","img/neutralC/CFD-BF-029-031-N.jpg","img/neutralC/CFD-WF-250-167-N.jpg","img/neutralC/CFD-BF-039-031-N.jpg","1","1","1","1","1","1","0.388923599966802","0.344192099990323","0.304703800007701","1","1","1","1","1","1","1","1","1"
"250037","img/neutralC/CFD-BF-039-031-N.jpg","img/neutralC/CFD-BF-029-031-N.jpg","img/neutralC/CFD-WM-011-002-N.jpg","1","1","1","1","1","0","0.304703800007701","0.388923599966802","0.474057799903676","1","1","1","1","1","1","1","1","1"
"250037","img/neutralC/CFD-WM-011-002-N.jpg","img/neutralC/CFD-BF-039-031-N.jpg","img/neutralC/CFD-IF-693-172-N.jpg","1","1","1","0","1","0","0.474057799903676","0.304703800007701","0.467281599994749","1","1","1","1","1","1","1","1","1"
"250037","img/neutralC/CFD-IF-693-172-N.jpg","img/neutralC/CFD-WM-011-002-N.jpg","img/neutralC/CFD-LF-224-176-N.jpg","1","1","1","0","0","0","0.467281599994749","0.474057799903676","0.458340900018811","1","1","1","1","1","1","1","1","1"
"250037","img/neutralC/CFD-LF-224-176-N.jpg","img/neutralC/CFD-IF-693-172-N.jpg","img/neutralC/CFD-LF-230-203-N.jpg","1","1","0","0","0","0","0.458340900018811","0.467281599994749","0.373071600100957","1","1","1","1","1","1","1","1","1"
"250037","img/neutralC/CFD-LF-230-203-N.jpg","img/neutralC/CFD-LF-224-176-N.jpg","img/neutralC/CFD-IF-634-382-N.jpg","0","1","1","0","0","1","0.373071600100957","0.458340900018811","0.42167910002172","1","1","1","1","1","1","1","1","1"
"250037","img/neutralC/CFD-IF-634-382-N.jpg","img/neutralC/CFD-LF-230-203-N.jpg","img/neutralC/CFD-LM-215-247-N.jpg","1","0","1","1","0","0","0.42167910002172","0.373071600100957","0.528445599949919","1","1","1","1","1","1","1","1","1"
"250037","img/neutralC/CFD-LM-215-247-N.jpg","img/neutralC/CFD-IF-634-382-N.jpg","img/neutralC/CFD-BM-033-003-N.jpg","1","1","1","0","1","0","0.528445599949919","0.42167910002172","0.486293400055729","1","1","1","1","1","1","1","1","1"
"250037","img/neutralC/CFD-BM-033-003-N.jpg","img/neutralC/CFD-LM-215-247-N.jpg","img/neutralC/CFD-IF-710-016-N.jpg","1","1","1","0","0","0","0.486293400055729","0.528445599949919","0.418015600065701","1","1","1","1","1","1","1","1","1"
"250037","img/neutralC/CFD-IF-710-016-N.jpg","img/neutralC/CFD-BM-033-003-N.jpg","img/neutralC/CFD-LF-205-100-N.jpg","1","1","1","0","0","1","0.418015600065701","0.486293400055729","0.332957900012843","1","1","1","1","1","1","1","1","1"
"250037","img/neutralC/CFD-LF-205-100-N.jpg","img/neutralC/CFD-IF-710-016-N.jpg","img/neutralC/CFD-LF-214-090-N.jpg","1","1","1","1","0","0","0.332957900012843","0.418015600065701","0.437902799923904","1","1","1","1","1","1","1","1","1"
"250037","img/neutralC/CFD-LF-214-090-N.jpg","img/neutralC/CFD-LF-205-100-N.jpg","img/neutralC/CFD-WM-041-021-N.jpg","1","1","1","0","1","0","0.437902799923904","0.332957900012843","0.476358599960804","1","1","1","1","1","1","1","1","1"
"250037","img/neutralC/CFD-WM-041-021-N.jpg","img/neutralC/CFD-LF-214-090-N.jpg","img/neutralC/CFD-IM-651-308-N.jpg","1","1","0","0","0","0","0.476358599960804","0.437902799923904","0.36920169997029","1","1","1","1","1","1","1","1","1"
"250037","img/neutralC/CFD-IM-651-308-N.jpg","img/neutralC/CFD-WM-041-021-N.jpg","img/neutralC/CFD-AF-231-357-N.jpg","0","1","1","0","0","1","0.36920169997029","0.476358599960804","0.419552900013514","1","1","1","1","1","1","1","1","1"
"250037","img/neutralC/CFD-AF-231-357-N.jpg","img/neutralC/CFD-IM-651-308-N.jpg","img/neutralC/CFD-IM-684-008-N.jpg","1","0","1","1","0","1","0.419552900013514","0.36920169997029","0.378765399917029","1","1","1","1","1","1","1","1","1"
"250037","img/neutralC/CFD-IM-684-008-N.jpg","img/neutralC/CFD-AF-231-357-N.jpg","img/neutralC/CFD-BF-205-141-N.jpg","1","1","1","1","1","0","0.378765399917029","0.419552900013514","0.474576200009324","1","1","1","1","1","1","1","1","1"
"250037","img/neutralC/CFD-BF-205-141-N.jpg","img/neutralC/CFD-IM-684-008-N.jpg","img/neutralC/CFD-AM-201-076-N.jpg","1","1","1","0","1","1","0.474576200009324","0.378765399917029","0.41615369997453","1","1","1","1","1","1","1","1","1"
"250037","img/neutralC/CFD-AM-201-076-N.jpg","img/neutralC/CFD-BF-205-141-N.jpg","img/neutralC/CFD-BF-213-188-N.jpg","1","1","1","1","0","1","0.41615369997453","0.474576200009324","0.438342700013891","1","1","1","1","1","1","1","1","1"
"250037","img/neutralC/CFD-BF-213-188-N.jpg","img/neutralC/CFD-AM-201-076-N.jpg","img/neutralC/CFD-LF-203-066-N.jpg","1","1","0","1","1","0","0.438342700013891","0.41615369997453","0.389537999988534","1","1","1","1","1","1","1","1","1"
"250037","img/neutralC/CFD-LF-203-066-N.jpg","img/neutralC/CFD-BF-213-188-N.jpg","img/neutralC/CFD-WF-224-099-N.jpg","0","1","1","0","1","0","0.389537999988534","0.438342700013891","0.525813500047661","1","1","1","1","1","1","1","1","1"
"250037","img/neutralC/CFD-WF-224-099-N.jpg","img/neutralC/CFD-LF-203-066-N.jpg","img/neutralC/CFD-WF-213-031-N.jpg","1","0","1","0","0","1","0.525813500047661","0.389537999988534","0.541235900018364","1","1","1","1","1","1","1","1","1"
"250037","img/neutralC/CFD-WF-213-031-N.jpg","img/neutralC/CFD-WF-224-099-N.jpg","img/neutralC/CFD-WM-021-001-N.jpg","1","1","1","1","0","1","0.541235900018364","0.525813500047661","0.4069526999956","1","1","1","1","1","1","1","1","1"
"250037","img/neutralC/CFD-WM-021-001-N.jpg","img/neutralC/CFD-WF-213-031-N.jpg","img/neutralC/CFD-BM-041-035-N.jpg","1","1","0","1","1","0","0.4069526999956","0.541235900018364","0.363745799986646","1","1","1","1","1","1","1","1","1"
"250037","img/neutralC/CFD-BM-041-035-N.jpg","img/neutralC/CFD-WM-021-001-N.jpg",NA,"0","1",NA,"0","1",NA,"0.363745799986646","0.4069526999956",NA,"1","1",NA,"1","1",NA,"1","1",NA
"250037","img/neutralC/CFD-BF-036-027-N.jpg",NA,"img/neutralC/CFD-IM-721-341-N.jpg","0",NA,"1","0",NA,"1","0.350668600061908",NA,"0.361734300036915","1",NA,"1","1",NA,"1","1",NA,"1"
"250037","img/neutralC/CFD-IM-721-341-N.jpg","img/neutralC/CFD-BF-036-027-N.jpg","img/neutralC/CFD-BF-044-034-N.jpg","1","0","1","1","0","0","0.361734300036915","0.350668600061908","0.516130200005136","1","1","1","1","1","1","1","1","1"
"250037","img/neutralC/CFD-BF-044-034-N.jpg","img/neutralC/CFD-IM-721-341-N.jpg","img/neutralC/CFD-BF-006-017-N.jpg","1","1","1","0","1","0","0.516130200005136","0.361734300036915","0.501623000018299","1","1","1","1","1","1","1","1","1"
"250037","img/neutralC/CFD-BF-006-017-N.jpg","img/neutralC/CFD-BF-044-034-N.jpg","img/neutralC/CFD-IM-696-001-N.jpg","1","1","1","0","0","0","0.501623000018299","0.516130200005136","0.503044400014915","1","1","1","1","1","1","1","1","1"
"250037","img/neutralC/CFD-IM-696-001-N.jpg","img/neutralC/CFD-BF-006-017-N.jpg","img/neutralC/CFD-WM-014-002-N.jpg","1","1","0","0","0","0","0.503044400014915","0.501623000018299","0.380866099963896","1","1","1","1","1","1","1","1","1"
"250037","img/neutralC/CFD-WM-014-002-N.jpg","img/neutralC/CFD-IM-696-001-N.jpg","img/neutralC/CFD-IF-677-452-1-N.jpg","0","1","1","0","0","1","0.380866099963896","0.503044400014915","0.363006800063886","1","1","1","1","1","1","1","1","1"
"250037","img/neutralC/CFD-IF-677-452-1-N.jpg","img/neutralC/CFD-WM-014-002-N.jpg","img/neutralC/CFD-BF-214-308-N.jpg","1","0","1","1","0","1","0.363006800063886","0.380866099963896","0.322588799986988","1","1","1","1","1","1","1","1","1"
"250037","img/neutralC/CFD-BF-214-308-N.jpg","img/neutralC/CFD-IF-677-452-1-N.jpg","img/neutralC/CFD-IM-707-105-N.jpg","1","1","1","1","1","1","0.322588799986988","0.363006800063886","0.375391700072214","1","1","1","1","1","1","1","1","1"
"250037","img/neutralC/CFD-IM-707-105-N.jpg","img/neutralC/CFD-BF-214-308-N.jpg","img/neutralC/CFD-BF-236-177-N.jpg","1","1","0","1","1","0","0.375391700072214","0.322588799986988","0.332154199946672","1","1","1","1","1","1","1","1","1"
"250037","img/neutralC/CFD-BF-236-177-N.jpg","img/neutralC/CFD-IM-707-105-N.jpg","img/neutralC/CFD-BF-002-001-N.jpg","0","1","0","0","1","0","0.332154199946672","0.375391700072214","0.460596200078726","1","1","1","1","1","1","1","1","2"
"250037","img/neutralC/CFD-BF-002-001-N.jpg","img/neutralC/CFD-BF-236-177-N.jpg","img/neutralC/CFD-IF-742-103-N.jpg","0","0","1","0","0","1","0.460596200078726","0.332154199946672","0.474100399995223","1","1","1","1","1","1","2","1","1"
"250037","img/neutralC/CFD-IF-742-103-N.jpg","img/neutralC/CFD-BF-002-001-N.jpg","img/neutralC/CFD-WM-248-036-N.jpg","1","0","1","1","0","1","0.474100399995223","0.460596200078726","0.346186500042677","1","1","1","1","1","1","1","2","1"
"250037","img/neutralC/CFD-WM-248-036-N.jpg","img/neutralC/CFD-IF-742-103-N.jpg","img/neutralC/CFD-BF-027-002-N.jpg","1","1","1","1","1","1","0.346186500042677","0.474100399995223","0.417231700033881","1","1","1","1","1","1","1","1","1"
"250037","img/neutralC/CFD-BF-027-002-N.jpg","img/neutralC/CFD-WM-248-036-N.jpg","img/neutralC/CFD-AM-230-150-N.jpg","1","1","1","1","1","0","0.417231700033881","0.346186500042677","0.447714800015092","1","1","1","1","1","1","1","1","1"
"250037","img/neutralC/CFD-AM-230-150-N.jpg","img/neutralC/CFD-BF-027-002-N.jpg","img/neutralC/CFD-WM-034-030-N.jpg","1","1","1","0","1","1","0.447714800015092","0.417231700033881","0.409291899995878","1","1","1","1","1","1","1","1","1"
"250037","img/neutralC/CFD-WM-034-030-N.jpg","img/neutralC/CFD-AM-230-150-N.jpg","img/neutralC/CFD-BF-247-179-N.jpg","1","1","1","1","0","0","0.409291899995878","0.447714800015092","0.52111930004321","1","1","1","1","1","1","1","1","1"
"250037","img/neutralC/CFD-BF-247-179-N.jpg","img/neutralC/CFD-WM-034-030-N.jpg","img/neutralC/CFD-BM-238-242-N.jpg","1","1","1","0","1","0","0.52111930004321","0.409291899995878","0.401390900020488","1","1","1","1","1","1","1","1","1"
"250037","img/neutralC/CFD-BM-238-242-N.jpg","img/neutralC/CFD-BF-247-179-N.jpg","img/neutralC/CFD-IM-726-248-N.jpg","1","1","1","0","0","0","0.401390900020488","0.52111930004321","0.494973300024867","1","1","1","1","1","1","1","1","1"
"250037","img/neutralC/CFD-IM-726-248-N.jpg","img/neutralC/CFD-BM-238-242-N.jpg","img/neutralC/CFD-BF-207-004-N.jpg","1","1","1","0","0","1","0.494973300024867","0.401390900020488","0.358296500053257","1","1","1","1","1","1","1","1","1"
"250037","img/neutralC/CFD-BF-207-004-N.jpg","img/neutralC/CFD-IM-726-248-N.jpg","img/neutralC/CFD-MF-301-024-N.jpg","1","1","0","1","0","0","0.358296500053257","0.494973300024867","0.342024400015362","1","1","1","1","1","1","1","1","1"
"250037","img/neutralC/CFD-MF-301-024-N.jpg","img/neutralC/CFD-BF-207-004-N.jpg","img/neutralC/CFD-IF-729-393-N.jpg","0","1","1","0","1","0","0.342024400015362","0.358296500053257","0.440501500037499","1","1","1","1","1","1","1","1","1"
"250037","img/neutralC/CFD-IF-729-393-N.jpg","img/neutralC/CFD-MF-301-024-N.jpg","img/neutralC/CFD-WF-233-112-N.jpg","1","0","1","0","0","1","0.440501500037499","0.342024400015362","0.352563100052066","1","1","1","1","1","1","1","1","1"
"250037","img/neutralC/CFD-WF-233-112-N.jpg","img/neutralC/CFD-IF-729-393-N.jpg","img/neutralC/CFD-LF-204-133-N.jpg","1","1","1","1","0","1","0.352563100052066","0.440501500037499","0.439193099969998","1","1","1","1","1","1","1","1","1"
"250037","img/neutralC/CFD-LF-204-133-N.jpg","img/neutralC/CFD-WF-233-112-N.jpg","img/neutralC/CFD-BM-207-024-N.jpg","1","1","1","1","1","1","0.439193099969998","0.352563100052066","0.320212000049651","1","1","1","1","1","1","1","1","1"
"250037","img/neutralC/CFD-BM-207-024-N.jpg","img/neutralC/CFD-LF-204-133-N.jpg","img/neutralC/CFD-WF-208-068-N.jpg","1","1","1","1","1","1","0.320212000049651","0.439193099969998","0.421693700016476","1","1","1","1","1","1","1","1","1"
"250037","img/neutralC/CFD-WF-208-068-N.jpg","img/neutralC/CFD-BM-207-024-N.jpg","img/neutralC/CFD-BM-036-003-N.jpg","1","1","1","1","1","1","0.421693700016476","0.320212000049651","0.363359699957073","1","1","1","1","1","1","1","1","1"
"250037","img/neutralC/CFD-BM-036-003-N.jpg","img/neutralC/CFD-WF-208-068-N.jpg","img/neutralC/CFD-BM-241-235-N.jpg","1","1","1","1","1","0","0.363359699957073","0.421693700016476","0.457951700082049","1","1","1","1","1","1","1","1","1"
"250037","img/neutralC/CFD-BM-241-235-N.jpg","img/neutralC/CFD-BM-036-003-N.jpg","img/neutralC/CFD-WF-234-086-N.jpg","1","1","1","0","1","1","0.457951700082049","0.363359699957073","0.529945100075565","1","1","1","1","1","1","1","1","1"
"250037","img/neutralC/CFD-WF-234-086-N.jpg","img/neutralC/CFD-BM-241-235-N.jpg","img/neutralC/CFD-WF-029-002-N.jpg","1","1","0","1","0","0","0.529945100075565","0.457951700082049","0.357280099997297","1","1","1","1","1","1","1","1","1"
"250037","img/neutralC/CFD-WF-029-002-N.jpg","img/neutralC/CFD-WF-234-086-N.jpg","img/neutralC/CFD-BF-011-002-N.jpg","0","1","1","0","1","1","0.357280099997297","0.529945100075565","0.458749400102533","1","1","1","1","1","1","1","1","1"
"250037","img/neutralC/CFD-BF-011-002-N.jpg","img/neutralC/CFD-WF-029-002-N.jpg","img/neutralC/CFD-LM-213-061-N.jpg","1","0","1","1","0","0","0.458749400102533","0.357280099997297","0.481904900050722","1","1","1","1","1","1","1","1","1"
"250037","img/neutralC/CFD-LM-213-061-N.jpg","img/neutralC/CFD-BF-011-002-N.jpg",NA,"1","1",NA,"0","1",NA,"0.481904900050722","0.458749400102533",NA,"1","1",NA,"1","1",NA,"1","1",NA
"250037","img/neutralC/CFD-AM-233-236-N.jpg",NA,"img/neutralC/CFD-MF-302-027-N.jpg","1",NA,"0","1",NA,"0","0.468380899983458",NA,"0.427892500068992","1",NA,"1","1",NA,"1","1",NA,"1"
"250037","img/neutralC/CFD-MF-302-027-N.jpg","img/neutralC/CFD-AM-233-236-N.jpg","img/neutralC/CFD-LF-239-148-N.jpg","0","1","1","0","1","0","0.427892500068992","0.468380899983458","0.459343500086106","1","1","1","1","1","1","1","1","1"
"250037","img/neutralC/CFD-LF-239-148-N.jpg","img/neutralC/CFD-MF-302-027-N.jpg","img/neutralC/CFD-BM-004-002-N.jpg","1","0","1","0","0","0","0.459343500086106","0.427892500068992","0.581467800075188","1","1","1","1","1","1","1","1","1"
"250037","img/neutralC/CFD-BM-004-002-N.jpg","img/neutralC/CFD-LF-239-148-N.jpg","img/neutralC/CFD-WM-253-119-N.jpg","1","1","1","0","0","1","0.581467800075188","0.459343500086106","0.420132700004615","1","1","1","1","1","1","1","1","1"
"250037","img/neutralC/CFD-WM-253-119-N.jpg","img/neutralC/CFD-BM-004-002-N.jpg","img/neutralC/CFD-BF-217-189-N.jpg","1","1","1","1","0","0","0.420132700004615","0.581467800075188","0.446069100056775","1","1","1","1","1","1","1","1","1"
"250037","img/neutralC/CFD-BF-217-189-N.jpg","img/neutralC/CFD-WM-253-119-N.jpg","img/neutralC/CFD-BF-040-003-N.jpg","1","1","1","0","1","1","0.446069100056775","0.420132700004615","0.340536300092936","1","1","1","1","1","1","1","1","1"
"250037","img/neutralC/CFD-BF-040-003-N.jpg","img/neutralC/CFD-BF-217-189-N.jpg","img/neutralC/CFD-AF-205-155-N.jpg","1","1","1","1","0","0","0.340536300092936","0.446069100056775","0.499703600071371","1","1","1","1","1","1","1","1","1"
"250037","img/neutralC/CFD-AF-205-155-N.jpg","img/neutralC/CFD-BF-040-003-N.jpg","img/neutralC/CFD-IM-632-097-N.jpg","1","1","0","0","1","0","0.499703600071371","0.340536300092936","0.439296199940145","1","1","1","1","1","1","1","1","1"
"250037","img/neutralC/CFD-IM-632-097-N.jpg","img/neutralC/CFD-AF-205-155-N.jpg","img/neutralC/CFD-AF-244-168-N.jpg","0","1","1","0","0","0","0.439296199940145","0.499703600071371","0.443692900007591","1","1","1","1","1","1","1","1","1"
"250037","img/neutralC/CFD-AF-244-168-N.jpg","img/neutralC/CFD-IM-632-097-N.jpg","img/neutralC/CFD-IM-635-010-N.jpg","1","0","1","0","0","1","0.443692900007591","0.439296199940145","0.449270199984312","1","1","1","1","1","1","1","1","1"
"250037","img/neutralC/CFD-IM-635-010-N.jpg","img/neutralC/CFD-AF-244-168-N.jpg","img/neutralC/CFD-AF-213-126-N.jpg","1","1","1","1","0","1","0.449270199984312","0.443692900007591","0.361868500011042","1","1","1","1","1","1","1","1","1"
"250037","img/neutralC/CFD-AF-213-126-N.jpg","img/neutralC/CFD-IM-635-010-N.jpg","img/neutralC/CFD-AF-246-242-N.jpg","1","1","1","1","1","0","0.361868500011042","0.449270199984312","0.556523499893956","1","1","1","1","1","1","1","1","1"
"250037","img/neutralC/CFD-AF-246-242-N.jpg","img/neutralC/CFD-AF-213-126-N.jpg","img/neutralC/CFD-IM-678-482-N.jpg","1","1","1","0","1","0","0.556523499893956","0.361868500011042","0.474537499947473","1","1","1","1","1","1","1","1","1"
"250037","img/neutralC/CFD-IM-678-482-N.jpg","img/neutralC/CFD-AF-246-242-N.jpg","img/neutralC/CFD-IF-732-260-N.jpg","1","1","1","0","0","0","0.474537499947473","0.556523499893956","0.38138739997521","1","1","1","1","1","1","1","1","1"
"250037","img/neutralC/CFD-IF-732-260-N.jpg","img/neutralC/CFD-IM-678-482-N.jpg","img/neutralC/CFD-MF-307-002-N.jpg","1","1","1","0","0","1","0.38138739997521","0.474537499947473","0.285363400005735","1","1","1","1","1","1","1","1","1"
"250037","img/neutralC/CFD-MF-307-002-N.jpg","img/neutralC/CFD-IF-732-260-N.jpg","img/neutralC/CFD-BF-206-143-N.jpg","1","1","1","1","0","1","0.285363400005735","0.38138739997521","0.27902889996767","1","1","1","1","1","1","1","1","1"
"250037","img/neutralC/CFD-BF-206-143-N.jpg","img/neutralC/CFD-MF-307-002-N.jpg","img/neutralC/CFD-BF-042-026-N.jpg","1","1","1","1","1","1","0.27902889996767","0.285363400005735","0.351304100011475","1","1","1","1","1","1","1","1","1"
"250037","img/neutralC/CFD-BF-042-026-N.jpg","img/neutralC/CFD-BF-206-143-N.jpg","img/neutralC/CFD-BF-235-168-N.jpg","1","1","1","1","1","1","0.351304100011475","0.27902889996767","0.337572299991734","1","1","1","1","1","1","1","1","1"
"250037","img/neutralC/CFD-BF-235-168-N.jpg","img/neutralC/CFD-BF-042-026-N.jpg","img/neutralC/CFD-LM-204-001-N.jpg","1","1","1","1","1","0","0.337572299991734","0.351304100011475","0.526847900007851","1","1","1","1","1","1","1","1","1"
"250037","img/neutralC/CFD-LM-204-001-N.jpg","img/neutralC/CFD-BF-235-168-N.jpg","img/neutralC/CFD-WM-018-002-N.jpg","1","1","1","0","1","0","0.526847900007851","0.337572299991734","0.436735600000247","1","1","1","1","1","1","1","1","1"
"250037","img/neutralC/CFD-WM-018-002-N.jpg","img/neutralC/CFD-LM-204-001-N.jpg","img/neutralC/CFD-AF-250-200-N.jpg","1","1","1","0","0","1","0.436735600000247","0.526847900007851","0.42906460002996","1","1","1","1","1","1","1","1","1"
"250037","img/neutralC/CFD-AF-250-200-N.jpg","img/neutralC/CFD-WM-018-002-N.jpg","img/neutralC/CFD-LM-241-125-N.jpg","1","1","1","1","0","1","0.42906460002996","0.436735600000247","0.326884499983862","1","1","1","1","1","1","1","1","1"
"250037","img/neutralC/CFD-LM-241-125-N.jpg","img/neutralC/CFD-AF-250-200-N.jpg","img/neutralC/CFD-IM-669-111-N.jpg","1","1","1","1","1","1","0.326884499983862","0.42906460002996","0.32201540004462","1","1","1","1","1","1","1","1","1"
"250037","img/neutralC/CFD-IM-669-111-N.jpg","img/neutralC/CFD-LM-241-125-N.jpg","img/neutralC/CFD-AF-234-208-N.jpg","1","1","1","1","1","1","0.32201540004462","0.326884499983862","0.362095899996348","1","1","1","1","1","1","1","1","1"
"250037","img/neutralC/CFD-AF-234-208-N.jpg","img/neutralC/CFD-IM-669-111-N.jpg","img/neutralC/CFD-BM-215-155-N.jpg","1","1","1","1","1","0","0.362095899996348","0.32201540004462","0.466717800009064","1","1","1","1","1","1","1","1","1"
"250037","img/neutralC/CFD-BM-215-155-N.jpg","img/neutralC/CFD-AF-234-208-N.jpg","img/neutralC/CFD-AM-245-111-N.jpg","1","1","1","0","1","1","0.466717800009064","0.362095899996348","0.342564000049606","1","1","1","1","1","1","1","1","1"
"250037","img/neutralC/CFD-AM-245-111-N.jpg","img/neutralC/CFD-BM-215-155-N.jpg","img/neutralC/CFD-AM-225-102-N.jpg","1","1","0","1","0","0","0.342564000049606","0.466717800009064","0.403476199950092","1","1","1","1","1","1","1","1","1"
"250037","img/neutralC/CFD-AM-225-102-N.jpg","img/neutralC/CFD-AM-245-111-N.jpg","img/neutralC/CFD-IF-636-011-N.jpg","0","1","1","0","1","1","0.403476199950092","0.342564000049606","0.397657199995592","1","1","1","1","1","1","1","1","1"
"250037","img/neutralC/CFD-IF-636-011-N.jpg","img/neutralC/CFD-AM-225-102-N.jpg","img/neutralC/CFD-BF-020-002-N.jpg","1","0","1","1","0","1","0.397657199995592","0.403476199950092","0.437254300108179","1","1","1","1","1","1","1","1","1"
"250037","img/neutralC/CFD-BF-020-002-N.jpg","img/neutralC/CFD-IF-636-011-N.jpg","img/neutralC/CFD-WF-210-086-N.jpg","1","1","0","1","1","0","0.437254300108179","0.397657199995592","0.340902199968696","1","1","1","1","1","1","1","1","1"
"250037","img/neutralC/CFD-WF-210-086-N.jpg","img/neutralC/CFD-BF-020-002-N.jpg","img/neutralC/CFD-WF-235-121-N.jpg","0","1","1","0","1","0","0.340902199968696","0.437254300108179","0.50761730002705","1","1","1","1","1","1","1","1","1"
"250037","img/neutralC/CFD-WF-235-121-N.jpg","img/neutralC/CFD-WF-210-086-N.jpg",NA,"1","0",NA,"0","0",NA,"0.50761730002705","0.340902199968696",NA,"1","1",NA,"1","1",NA,"1","1",NA
"250037","img/neutralC/CFD-AF-210-050-N.jpg",NA,"img/neutralC/CFD-WM-202-107-N.jpg","1",NA,"1","1",NA,"1","0.483920200029388",NA,"0.381628500064835","1",NA,"1","1",NA,"1","1",NA,"1"
"250037","img/neutralC/CFD-WM-202-107-N.jpg","img/neutralC/CFD-AF-210-050-N.jpg","img/neutralC/CFD-IF-625-225-N.jpg","1","1","0","1","1","0","0.381628500064835","0.483920200029388","0.366151300026104","1","1","1","1","1","1","1","1","1"
"250037","img/neutralC/CFD-IF-625-225-N.jpg","img/neutralC/CFD-WM-202-107-N.jpg","img/neutralC/CFD-LF-241-188-N.jpg","0","1","1","0","1","0","0.366151300026104","0.381628500064835","0.529752900009044","1","1","1","1","1","1","1","1","1"
"250037","img/neutralC/CFD-LF-241-188-N.jpg","img/neutralC/CFD-IF-625-225-N.jpg","img/neutralC/CFD-BF-004-014-N.jpg","1","0","1","0","0","1","0.529752900009044","0.366151300026104","0.370000499999151","1","1","1","1","1","1","1","1","1"
"250037","img/neutralC/CFD-BF-004-014-N.jpg","img/neutralC/CFD-LF-241-188-N.jpg","img/neutralC/CFD-AF-239-171-N.jpg","1","1","1","1","0","1","0.370000499999151","0.529752900009044","0.404699699953198","1","1","1","1","1","1","1","1","1"
"250037","img/neutralC/CFD-AF-239-171-N.jpg","img/neutralC/CFD-BF-004-014-N.jpg","img/neutralC/CFD-LF-225-164-N.jpg","1","1","1","1","1","1","0.404699699953198","0.370000499999151","0.382208899944089","1","1","1","1","1","1","1","1","1"
"250037","img/neutralC/CFD-LF-225-164-N.jpg","img/neutralC/CFD-AF-239-171-N.jpg","img/neutralC/CFD-WM-228-065-N.jpg","1","1","1","1","1","0","0.382208899944089","0.404699699953198","0.690080599975772","1","1","1","1","1","1","1","1","1"
"250037","img/neutralC/CFD-WM-228-065-N.jpg","img/neutralC/CFD-LF-225-164-N.jpg","img/neutralC/CFD-AM-221-184-N.jpg","1","1","1","0","1","1","0.690080599975772","0.382208899944089","0.429389499942772","1","1","1","1","1","1","1","1","1"
"250037","img/neutralC/CFD-AM-221-184-N.jpg","img/neutralC/CFD-WM-228-065-N.jpg","img/neutralC/CFD-LF-210-220-N.jpg","1","1","1","1","0","1","0.429389499942772","0.690080599975772","0.423068000003695","1","1","1","1","1","1","1","1","1"
"250037","img/neutralC/CFD-LF-210-220-N.jpg","img/neutralC/CFD-AM-221-184-N.jpg","img/neutralC/CFD-IM-738-191-N.jpg","1","1","0","1","1","0","0.423068000003695","0.429389499942772","0.384882099926472","1","1","1","1","1","1","1","1","1"
"250037","img/neutralC/CFD-IM-738-191-N.jpg","img/neutralC/CFD-LF-210-220-N.jpg","img/neutralC/CFD-WF-223-133-N.jpg","0","1","1","0","1","0","0.384882099926472","0.423068000003695","0.47770670009777","1","1","1","1","1","1","1","1","1"
"250037","img/neutralC/CFD-WF-223-133-N.jpg","img/neutralC/CFD-IM-738-191-N.jpg","img/neutralC/CFD-LM-247-095-N.jpg","1","0","1","0","0","0","0.47770670009777","0.384882099926472","0.522970800055191","1","1","1","1","1","1","1","1","1"
"250037","img/neutralC/CFD-LM-247-095-N.jpg","img/neutralC/CFD-WF-223-133-N.jpg","img/neutralC/CFD-BF-045-003-N.jpg","1","1","1","0","0","0","0.522970800055191","0.47770670009777","0.668357199989259","1","1","1","1","1","1","1","1","1"
"250037","img/neutralC/CFD-BF-045-003-N.jpg","img/neutralC/CFD-LM-247-095-N.jpg","img/neutralC/CFD-IF-673-389-N.jpg","1","1","1","0","0","0","0.668357199989259","0.522970800055191","0.673007200006396","1","1","1","1","1","1","1","1","1"
"250037","img/neutralC/CFD-IF-673-389-N.jpg","img/neutralC/CFD-BF-045-003-N.jpg","img/neutralC/CFD-LM-238-129-N.jpg","1","1","1","0","0","1","0.673007200006396","0.668357199989259","0.378335900022648","1","1","1","1","1","1","1","1","1"
"250037","img/neutralC/CFD-LM-238-129-N.jpg","img/neutralC/CFD-IF-673-389-N.jpg","img/neutralC/CFD-AF-227-207-N.jpg","1","1","1","1","0","1","0.378335900022648","0.673007200006396","0.387117099948227","1","1","1","1","1","1","1","1","1"
"250037","img/neutralC/CFD-AF-227-207-N.jpg","img/neutralC/CFD-LM-238-129-N.jpg","img/neutralC/CFD-BM-013-002-N.jpg","1","1","1","1","1","1","0.387117099948227","0.378335900022648","0.404874899890274","1","1","1","1","1","1","1","1","1"
"250037","img/neutralC/CFD-BM-013-002-N.jpg","img/neutralC/CFD-AF-227-207-N.jpg","img/neutralC/CFD-IF-744-114-N.jpg","1","1","1","1","1","0","0.404874899890274","0.387117099948227","0.540777200018056","1","1","1","1","1","1","1","1","1"
"250037","img/neutralC/CFD-IF-744-114-N.jpg","img/neutralC/CFD-BM-013-002-N.jpg","img/neutralC/CFD-MF-312-002-N.jpg","1","1","1","0","1","1","0.540777200018056","0.404874899890274","0.3850232999539","1","1","1","1","1","1","1","1","1"
"250037","img/neutralC/CFD-MF-312-002-N.jpg","img/neutralC/CFD-IF-744-114-N.jpg","img/neutralC/CFD-LF-208-127-N.jpg","1","1","1","1","0","0","0.3850232999539","0.540777200018056","0.50354020006489","1","1","1","1","1","1","1","1","1"
"250037","img/neutralC/CFD-LF-208-127-N.jpg","img/neutralC/CFD-MF-312-002-N.jpg","img/neutralC/CFD-WM-254-152-N.jpg","1","1","1","0","1","1","0.50354020006489","0.3850232999539","0.364909600000829","1","1","1","1","1","1","1","1","1"
"250037","img/neutralC/CFD-WM-254-152-N.jpg","img/neutralC/CFD-LF-208-127-N.jpg","img/neutralC/CFD-IM-659-359-N.jpg","1","1","0","1","0","0","0.364909600000829","0.50354020006489","0.417946300003678","1","1","1","1","1","1","1","1","1"
"250037","img/neutralC/CFD-IM-659-359-N.jpg","img/neutralC/CFD-WM-254-152-N.jpg","img/neutralC/CFD-BM-213-134-N.jpg","0","1","1","0","1","1","0.417946300003678","0.364909600000829","0.422981699928641","1","1","1","1","1","1","1","1","1"
"250037","img/neutralC/CFD-BM-213-134-N.jpg","img/neutralC/CFD-IM-659-359-N.jpg","img/neutralC/CFD-IM-701-312-N.jpg","1","0","1","1","0","0","0.422981699928641","0.417946300003678","0.402098899940029","1","1","1","1","1","1","1","1","1"
"250037","img/neutralC/CFD-IM-701-312-N.jpg","img/neutralC/CFD-BM-213-134-N.jpg","img/neutralC/CFD-WF-033-002-N.jpg","1","1","1","0","1","1","0.402098899940029","0.422981699928641","0.352097399998456","1","1","1","1","1","1","1","1","1"
"250037","img/neutralC/CFD-WF-033-002-N.jpg","img/neutralC/CFD-IM-701-312-N.jpg","img/neutralC/CFD-MF-336-016-N.jpg","1","1","1","1","0","1","0.352097399998456","0.402098899940029","0.378206899971701","1","1","1","1","1","1","1","1","1"
"250037","img/neutralC/CFD-MF-336-016-N.jpg","img/neutralC/CFD-WF-033-002-N.jpg","img/neutralC/CFD-BM-003-003-N.jpg","1","1","1","1","1","0","0.378206899971701","0.352097399998456","0.457834100001492","1","1","1","1","1","1","1","1","1"
"250037","img/neutralC/CFD-BM-003-003-N.jpg","img/neutralC/CFD-MF-336-016-N.jpg","img/neutralC/CFD-BM-028-002-N.jpg","1","1","1","0","1","1","0.457834100001492","0.378206899971701","0.357909200014547","1","1","1","1","1","1","1","1","1"
"250037","img/neutralC/CFD-BM-028-002-N.jpg","img/neutralC/CFD-BM-003-003-N.jpg","img/neutralC/CFD-BF-222-240-N.jpg","1","1","0","1","0","0","0.357909200014547","0.457834100001492","0.328003300004639","1","1","1","1","1","1","1","1","1"
"250037","img/neutralC/CFD-BF-222-240-N.jpg","img/neutralC/CFD-BM-028-002-N.jpg","img/neutralC/CFD-WF-006-002-N.jpg","0","1","1","0","1","0","0.328003300004639","0.357909200014547","0.528250899980776","1","1","1","1","1","1","1","1","1"
"250037","img/neutralC/CFD-WF-006-002-N.jpg","img/neutralC/CFD-BF-222-240-N.jpg","img/neutralC/CFD-BM-010-003-N.jpg","1","0","1","0","0","0","0.528250899980776","0.328003300004639","0.482218199991621","1","1","1","1","1","1","1","1","1"
"250037","img/neutralC/CFD-BM-010-003-N.jpg","img/neutralC/CFD-WF-006-002-N.jpg",NA,"1","1",NA,"0","0",NA,"0.482218199991621","0.528250899980776",NA,"1","1",NA,"1","1",NA,"1","1",NA
"250037","img/neutralC/CFD-AM-244-222-N.jpg",NA,"img/neutralC/CFD-BM-204-003-N.jpg","1",NA,"1","0",NA,"0","0.480969900032505",NA,"0.484070600010455","1",NA,"1","1",NA,"1","1",NA,"1"
"250037","img/neutralC/CFD-BM-204-003-N.jpg","img/neutralC/CFD-AM-244-222-N.jpg","img/neutralC/CFD-WM-009-002-N.jpg","1","1","0","0","0","0","0.484070600010455","0.480969900032505","0.385327499941923","1","1","1","1","1","1","1","1","1"
"250037","img/neutralC/CFD-WM-009-002-N.jpg","img/neutralC/CFD-BM-204-003-N.jpg","img/neutralC/CFD-MM-321-021-N.jpg","0","1","1","0","0","0","0.385327499941923","0.484070600010455","0.481812299927697","1","1","1","1","1","1","1","1","1"
"250037","img/neutralC/CFD-MM-321-021-N.jpg","img/neutralC/CFD-WM-009-002-N.jpg","img/neutralC/CFD-BF-018-039-N.jpg","1","0","1","0","0","1","0.481812299927697","0.385327499941923","0.328329700045288","1","1","1","1","1","1","1","1","1"
"250037","img/neutralC/CFD-BF-018-039-N.jpg","img/neutralC/CFD-MM-321-021-N.jpg","img/neutralC/CFD-WF-245-084-N.jpg","1","1","1","1","0","1","0.328329700045288","0.481812299927697","0.415061900042929","1","1","1","1","1","1","1","1","1"
"250037","img/neutralC/CFD-WF-245-084-N.jpg","img/neutralC/CFD-BF-018-039-N.jpg","img/neutralC/CFD-MF-342-022-N.jpg","1","1","1","1","1","1","0.415061900042929","0.328329700045288","0.453765599988401","1","1","1","1","1","1","1","1","1"
"250037","img/neutralC/CFD-MF-342-022-N.jpg","img/neutralC/CFD-WF-245-084-N.jpg","img/neutralC/CFD-MF-321-003-N.jpg","1","1","1","1","1","0","0.453765599988401","0.415061900042929","0.508411100017838","1","1","1","1","1","1","1","1","1"
"250037","img/neutralC/CFD-MF-321-003-N.jpg","img/neutralC/CFD-MF-342-022-N.jpg","img/neutralC/CFD-IM-700-009-N.jpg","1","1","1","0","1","1","0.508411100017838","0.453765599988401","0.393964999937452","1","1","1","1","1","1","1","1","1"
"250037","img/neutralC/CFD-IM-700-009-N.jpg","img/neutralC/CFD-MF-321-003-N.jpg","img/neutralC/CFD-WF-018-017-N.jpg","1","1","1","1","0","1","0.393964999937452","0.508411100017838","0.444985899957828","1","1","1","1","1","1","1","1","1"
"250037","img/neutralC/CFD-WF-018-017-N.jpg","img/neutralC/CFD-IM-700-009-N.jpg","img/neutralC/CFD-BF-254-201-N.jpg","1","1","1","1","1","0","0.444985899957828","0.393964999937452","0.426455899956636","1","1","1","1","1","1","1","1","1"
"250037","img/neutralC/CFD-BF-254-201-N.jpg","img/neutralC/CFD-WF-018-017-N.jpg","img/neutralC/CFD-IM-719-221-N.jpg","1","1","1","0","1","0","0.426455899956636","0.444985899957828","0.463869499973953","1","1","1","1","1","1","1","1","1"
"250037","img/neutralC/CFD-IM-719-221-N.jpg","img/neutralC/CFD-BF-254-201-N.jpg","img/neutralC/CFD-LF-215-157-N.jpg","1","1","1","0","0","0","0.463869499973953","0.426455899956636","0.407540899934247","1","1","1","1","1","1","1","1","1"
"250037","img/neutralC/CFD-LF-215-157-N.jpg","img/neutralC/CFD-IM-719-221-N.jpg","img/neutralC/CFD-IM-627-178-N.jpg","1","1","1","0","0","1","0.407540899934247","0.463869499973953","0.389781999983825","1","1","1","1","1","1","1","1","1"
"250037","img/neutralC/CFD-IM-627-178-N.jpg","img/neutralC/CFD-LF-215-157-N.jpg","img/neutralC/CFD-WM-201-063-N.jpg","1","1","1","1","0","1","0.389781999983825","0.407540899934247","0.434269400080666","1","1","1","1","1","1","1","1","1"
"250037","img/neutralC/CFD-WM-201-063-N.jpg","img/neutralC/CFD-IM-627-178-N.jpg","img/neutralC/CFD-WF-023-003-N.jpg","1","1","1","1","1","1","0.434269400080666","0.389781999983825","0.425489299930632","1","1","1","1","1","1","1","1","1"
"250037","img/neutralC/CFD-WF-023-003-N.jpg","img/neutralC/CFD-WM-201-063-N.jpg","img/neutralC/CFD-WM-237-052-N.jpg","1","1","1","1","1","1","0.425489299930632","0.434269400080666","0.395623999997042","1","1","1","1","1","1","1","1","1"
"250037","img/neutralC/CFD-WM-237-052-N.jpg","img/neutralC/CFD-WF-023-003-N.jpg","img/neutralC/CFD-WF-238-023-N.jpg","1","1","1","1","1","0","0.395623999997042","0.425489299930632","0.562319700024091","1","1","1","1","1","1","1","1","1"
"250037","img/neutralC/CFD-WF-238-023-N.jpg","img/neutralC/CFD-WM-237-052-N.jpg","img/neutralC/CFD-AF-232-078-N.jpg","1","1","1","0","1","1","0.562319700024091","0.395623999997042","0.410446599940769","1","1","1","1","1","1","1","1","1"
"250037","img/neutralC/CFD-AF-232-078-N.jpg","img/neutralC/CFD-WF-238-023-N.jpg","img/neutralC/CFD-IF-629-234-N.jpg","1","1","1","1","0","0","0.410446599940769","0.562319700024091","0.521737600094639","1","1","1","1","1","1","1","1","1"
"250037","img/neutralC/CFD-IF-629-234-N.jpg","img/neutralC/CFD-AF-232-078-N.jpg","img/neutralC/CFD-AF-221-147-N.jpg","1","1","1","0","1","0","0.521737600094639","0.410446599940769","0.417053299956024","1","1","1","1","1","1","1","1","1"
"250037","img/neutralC/CFD-AF-221-147-N.jpg","img/neutralC/CFD-IF-629-234-N.jpg","img/neutralC/CFD-BM-023-029-N.jpg","1","1","1","0","0","1","0.417053299956024","0.521737600094639","0.347132300026715","1","1","1","1","1","1","1","1","1"
"250037","img/neutralC/CFD-BM-023-029-N.jpg","img/neutralC/CFD-AF-221-147-N.jpg","img/neutralC/CFD-WF-027-003-N.jpg","1","1","1","1","0","1","0.347132300026715","0.417053299956024","0.307849399978295","1","1","1","1","1","1","1","1","1"
"250037","img/neutralC/CFD-WF-027-003-N.jpg","img/neutralC/CFD-BM-023-029-N.jpg","img/neutralC/CFD-MF-318-022-N.jpg","1","1","1","1","1","1","0.307849399978295","0.347132300026715","0.393420299980789","1","1","1","1","1","1","1","1","1"
"250037","img/neutralC/CFD-MF-318-022-N.jpg","img/neutralC/CFD-WF-027-003-N.jpg","img/neutralC/CFD-LF-211-003-N.jpg","1","1","0","1","1","0","0.393420299980789","0.307849399978295","0.368766999919899","1","1","1","1","1","1","1","1","1"
"250037","img/neutralC/CFD-LF-211-003-N.jpg","img/neutralC/CFD-MF-318-022-N.jpg","img/neutralC/CFD-BF-218-207-N.jpg","0","1","1","0","1","1","0.368766999919899","0.393420299980789","0.493470799992792","1","1","1","1","1","1","1","1","1"
"250037","img/neutralC/CFD-BF-218-207-N.jpg","img/neutralC/CFD-LF-211-003-N.jpg","img/neutralC/CFD-WF-226-095-N.jpg","1","0","1","1","0","1","0.493470799992792","0.368766999919899","0.394722400000319","1","1","1","1","1","1","1","1","1"
"250037","img/neutralC/CFD-WF-226-095-N.jpg","img/neutralC/CFD-BF-218-207-N.jpg","img/neutralC/CFD-WM-255-219-N.jpg","1","1","1","1","1","0","0.394722400000319","0.493470799992792","0.585300100035965","1","1","1","1","1","1","1","1","1"
"250037","img/neutralC/CFD-WM-255-219-N.jpg","img/neutralC/CFD-WF-226-095-N.jpg","img/neutralC/CFD-WM-013-001-N.jpg","1","1","1","0","1","1","0.585300100035965","0.394722400000319","0.378199600032531","1","1","1","1","1","1","1","1","1"
"250037","img/neutralC/CFD-WM-013-001-N.jpg","img/neutralC/CFD-WM-255-219-N.jpg","img/neutralC/CFD-LM-253-075-N.jpg","1","1","1","1","0","0","0.378199600032531","0.585300100035965","0.549873200012371","1","1","1","1","1","1","1","1","1"
"250037","img/neutralC/CFD-LM-253-075-N.jpg","img/neutralC/CFD-WM-013-001-N.jpg","img/neutralC/CFD-WM-221-091-N.jpg","1","1","1","0","1","0","0.549873200012371","0.378199600032531","0.42116570007056","1","1","1","1","1","1","1","1","1"
"250037","img/neutralC/CFD-WM-221-091-N.jpg","img/neutralC/CFD-LM-253-075-N.jpg","img/neutralC/CFD-BM-200-046-N.jpg","1","1","1","0","0","0","0.42116570007056","0.549873200012371","0.440955199999735","1","1","1","1","1","1","1","1","1"
"250037","img/neutralC/CFD-BM-200-046-N.jpg","img/neutralC/CFD-WM-221-091-N.jpg",NA,"1","1",NA,"0","0",NA,"0.440955199999735","0.42116570007056",NA,"1","1",NA,"1","1",NA,"1","1",NA
"250037","img/neutralC/CFD-WF-248-129-N.jpg",NA,"img/neutralC/CFD-AF-254-167-N.jpg","1",NA,"1","0",NA,"1","0.47627950005699",NA,"0.437284799991176","1",NA,"1","1",NA,"1","1",NA,"1"
"250037","img/neutralC/CFD-AF-254-167-N.jpg","img/neutralC/CFD-WF-248-129-N.jpg","img/neutralC/CFD-IM-637-007-N.jpg","1","1","1","1","0","0","0.437284799991176","0.47627950005699","0.481740499963053","1","1","1","1","1","1","1","1","1"
"250037","img/neutralC/CFD-IM-637-007-N.jpg","img/neutralC/CFD-AF-254-167-N.jpg","img/neutralC/CFD-MM-304-002-N.jpg","1","1","1","0","1","1","0.481740499963053","0.437284799991176","0.424663899932057","1","1","1","1","1","1","1","1","1"
"250037","img/neutralC/CFD-MM-304-002-N.jpg","img/neutralC/CFD-IM-637-007-N.jpg","img/neutralC/CFD-LF-226-174-N.jpg","1","1","0","1","0","0","0.424663899932057","0.481740499963053","0.37244860001374","1","1","1","1","1","1","1","1","1"
"250037","img/neutralC/CFD-LF-226-174-N.jpg","img/neutralC/CFD-MM-304-002-N.jpg","img/neutralC/CFD-BM-243-218-N.jpg","0","1","1","0","1","1","0.37244860001374","0.424663899932057","0.366854900028557","1","1","1","1","1","1","1","1","1"
"250037","img/neutralC/CFD-BM-243-218-N.jpg","img/neutralC/CFD-LF-226-174-N.jpg","img/neutralC/CFD-WF-012-002-N.jpg","1","0","1","1","0","1","0.366854900028557","0.37244860001374","0.352010500035249","1","1","1","1","1","1","1","1","1"
"250037","img/neutralC/CFD-WF-012-002-N.jpg","img/neutralC/CFD-BM-243-218-N.jpg","img/neutralC/CFD-LM-217-162-N.jpg","1","1","1","1","1","0","0.352010500035249","0.366854900028557","0.480561099946499","1","1","1","1","1","1","1","1","1"
"250037","img/neutralC/CFD-LM-217-162-N.jpg","img/neutralC/CFD-WF-012-002-N.jpg","img/neutralC/CFD-BF-051-035-N.jpg","1","1","1","0","1","0","0.480561099946499","0.352010500035249","0.402454300085083","1","1","1","1","1","1","1","1","1"
"250037","img/neutralC/CFD-BF-051-035-N.jpg","img/neutralC/CFD-LM-217-162-N.jpg","img/neutralC/CFD-MF-327-002-N.jpg","1","1","1","0","0","0","0.402454300085083","0.480561099946499","0.444331699982285","1","1","1","1","1","1","1","1","1"
"250037","img/neutralC/CFD-MF-327-002-N.jpg","img/neutralC/CFD-BF-051-035-N.jpg","img/neutralC/CFD-WF-008-002-N.jpg","1","1","1","0","0","1","0.444331699982285","0.402454300085083","0.326833199942484","1","1","1","1","1","1","1","1","1"
"250037","img/neutralC/CFD-WF-008-002-N.jpg","img/neutralC/CFD-MF-327-002-N.jpg","img/neutralC/CFD-IF-608-390-N.jpg","1","1","1","1","0","1","0.326833199942484","0.444331699982285","0.430811499943957","1","1","1","1","1","1","1","1","1"
"250037","img/neutralC/CFD-IF-608-390-N.jpg","img/neutralC/CFD-WF-008-002-N.jpg","img/neutralC/CFD-AF-215-70-N.jpg","1","1","1","1","1","0","0.430811499943957","0.326833199942484","0.370698900078423","1","1","1","1","1","1","1","1","1"
"250037","img/neutralC/CFD-AF-215-70-N.jpg","img/neutralC/CFD-IF-608-390-N.jpg","img/neutralC/CFD-AM-236-090-N.jpg","1","1","1","0","1","1","0.370698900078423","0.430811499943957","0.377237799926661","1","1","1","1","1","1","1","1","1"
"250037","img/neutralC/CFD-AM-236-090-N.jpg","img/neutralC/CFD-AF-215-70-N.jpg","img/neutralC/CFD-IM-675-015-N.jpg","1","1","1","1","0","1","0.377237799926661","0.370698900078423","0.401073800050654","1","1","1","1","1","1","1","1","1"
"250037","img/neutralC/CFD-IM-675-015-N.jpg","img/neutralC/CFD-AM-236-090-N.jpg","img/neutralC/CFD-WM-213-076-N.jpg","1","1","1","1","1","1","0.401073800050654","0.377237799926661","0.338662200025283","1","1","1","1","1","1","1","1","1"
"250037","img/neutralC/CFD-WM-213-076-N.jpg","img/neutralC/CFD-IM-675-015-N.jpg","img/neutralC/CFD-IM-604-014-N.jpg","1","1","1","1","1","0","0.338662200025283","0.401073800050654","0.362503200070933","1","1","1","1","1","1","1","1","1"
"250037","img/neutralC/CFD-IM-604-014-N.jpg","img/neutralC/CFD-WM-213-076-N.jpg","img/neutralC/CFD-BF-043-003-N.jpg","1","1","0","0","1","0","0.362503200070933","0.338662200025283","0.344970499980263","1","1","1","1","1","1","1","1","1"
"250037","img/neutralC/CFD-BF-043-003-N.jpg","img/neutralC/CFD-IM-604-014-N.jpg","img/neutralC/CFD-MF-329-001-N.jpg","0","1","0","0","0","0","0.344970499980263","0.362503200070933","0.365433400031179","1","1","1","1","1","1","1","1","1"
"250037","img/neutralC/CFD-MF-329-001-N.jpg","img/neutralC/CFD-BF-043-003-N.jpg","img/neutralC/CFD-AF-229-160-N.jpg","0","0","1","0","0","0","0.365433400031179","0.344970499980263","0.50195820000954","1","1","1","1","1","1","1","1","1"
"250037","img/neutralC/CFD-AF-229-160-N.jpg","img/neutralC/CFD-MF-329-001-N.jpg","img/neutralC/CFD-MF-340-026-N.jpg","1","0","1","0","0","1","0.50195820000954","0.365433400031179","0.578746800078079","1","1","1","1","1","1","1","1","1"
"250037","img/neutralC/CFD-MF-340-026-N.jpg","img/neutralC/CFD-AF-229-160-N.jpg","img/neutralC/CFD-WF-212-050-N.jpg","1","1","1","1","0","0","0.578746800078079","0.50195820000954","0.392060100100935","1","1","1","1","1","1","1","1","1"
"250037","img/neutralC/CFD-WF-212-050-N.jpg","img/neutralC/CFD-MF-340-026-N.jpg","img/neutralC/CFD-BF-224-002-N.jpg","1","1","1","0","1","1","0.392060100100935","0.578746800078079","0.336966499919072","1","1","1","1","1","1","1","1","1"
"250037","img/neutralC/CFD-BF-224-002-N.jpg","img/neutralC/CFD-WF-212-050-N.jpg","img/neutralC/CFD-WF-217-085-N.jpg","1","1","1","1","0","1","0.336966499919072","0.392060100100935","0.411279399995692","1","1","1","1","1","1","1","1","1"
"250037","img/neutralC/CFD-WF-217-085-N.jpg","img/neutralC/CFD-BF-224-002-N.jpg","img/neutralC/CFD-IM-709-103-N.jpg","1","1","1","1","1","0","0.411279399995692","0.336966499919072","0.591211599996313","1","1","1","1","1","1","1","1","1"
"250037","img/neutralC/CFD-IM-709-103-N.jpg","img/neutralC/CFD-WF-217-085-N.jpg","img/neutralC/CFD-IF-619-197-N.jpg","1","1","1","0","1","0","0.591211599996313","0.411279399995692","0.35360709996894","1","1","1","1","1","1","1","1","1"
"250037","img/neutralC/CFD-IF-619-197-N.jpg","img/neutralC/CFD-IM-709-103-N.jpg","img/neutralC/CFD-WM-232-070-N.jpg","1","1","0","0","0","0","0.35360709996894","0.591211599996313","0.392664000042714","1","1","1","1","1","1","1","1","1"
"250037","img/neutralC/CFD-WM-232-070-N.jpg","img/neutralC/CFD-IF-619-197-N.jpg","img/neutralC/CFD-BM-039-029-N.jpg","0","1","1","0","0","1","0.392664000042714","0.35360709996894","0.356592700001784","1","1","1","1","1","1","1","1","1"
"250037","img/neutralC/CFD-BM-039-029-N.jpg","img/neutralC/CFD-WM-232-070-N.jpg","img/neutralC/CFD-MF-300-002-N.jpg","1","0","0","1","0","0","0.356592700001784","0.392664000042714","0.346941399970092","1","1","1","1","1","1","1","1","1"
"250037","img/neutralC/CFD-MF-300-002-N.jpg","img/neutralC/CFD-BM-039-029-N.jpg","img/neutralC/CFD-LF-201-035-N.jpg","0","1","1","0","1","1","0.346941399970092","0.356592700001784","0.420131799997762","1","1","1","1","1","1","1","1","1"
"250037","img/neutralC/CFD-LF-201-035-N.jpg","img/neutralC/CFD-MF-300-002-N.jpg","img/neutralC/CFD-IM-685-004-N.jpg","1","0","1","1","0","1","0.420131799997762","0.346941399970092","0.352335599949583","1","1","1","1","1","1","1","1","1"
"250037","img/neutralC/CFD-IM-685-004-N.jpg","img/neutralC/CFD-LF-201-035-N.jpg","img/neutralC/CFD-WM-024-015-N.jpg","1","1","1","1","1","1","0.352335599949583","0.420131799997762","0.362856899970211","1","1","1","1","1","1","1","1","1"
"250037","img/neutralC/CFD-WM-024-015-N.jpg","img/neutralC/CFD-IM-685-004-N.jpg",NA,"1","1",NA,"1","1",NA,"0.362856899970211","0.352335599949583",NA,"1","1",NA,"1","1",NA,"1","1",NA
"250037","img/neutralC/CFD-IF-660-464-N.jpg",NA,"img/neutralC/CFD-IM-680-369-N.jpg","1",NA,"1","0",NA,"1","0.525170999928378",NA,"0.431970600038767","1",NA,"1","1",NA,"1","1",NA,"1"
"250037","img/neutralC/CFD-IM-680-369-N.jpg","img/neutralC/CFD-IF-660-464-N.jpg","img/neutralC/CFD-AF-253-130-N.jpg","1","1","1","1","0","1","0.431970600038767","0.525170999928378","0.376156100071967","1","1","1","1","1","1","1","1","1"
"250037","img/neutralC/CFD-AF-253-130-N.jpg","img/neutralC/CFD-IM-680-369-N.jpg","img/neutralC/CFD-BM-217-082-N.jpg","1","1","1","1","1","0","0.376156100071967","0.431970600038767","0.456133999978192","1","1","1","1","1","1","1","1","1"
"250037","img/neutralC/CFD-BM-217-082-N.jpg","img/neutralC/CFD-AF-253-130-N.jpg","img/neutralC/CFD-IF-626-375-N.jpg","1","1","0","0","1","0","0.456133999978192","0.376156100071967","0.444732400006615","1","1","1","1","1","1","1","1","2"
"250037","img/neutralC/CFD-IF-626-375-N.jpg","img/neutralC/CFD-BM-217-082-N.jpg","img/neutralC/CFD-WM-209-038-N.jpg","0","1","1","0","0","0","0.444732400006615","0.456133999978192","0.480649800039828","1","1","1","1","1","1","2","1","1"
"250037","img/neutralC/CFD-WM-209-038-N.jpg","img/neutralC/CFD-IF-626-375-N.jpg","img/neutralC/CFD-AF-233-190-N.jpg","1","0","1","0","0","0","0.480649800039828","0.444732400006615","0.512808799976483","1","1","1","1","1","1","1","2","1"
"250037","img/neutralC/CFD-AF-233-190-N.jpg","img/neutralC/CFD-WM-209-038-N.jpg","img/neutralC/CFD-AM-220-134-N.jpg","1","1","0","0","0","0","0.512808799976483","0.480649800039828","0.366610600030981","1","1","1","1","1","1","1","1","1"
"250037","img/neutralC/CFD-AM-220-134-N.jpg","img/neutralC/CFD-AF-233-190-N.jpg","img/neutralC/CFD-MF-357-002-N.jpg","0","1","1","0","0","0","0.366610600030981","0.512808799976483","0.444933200022206","1","1","1","1","1","1","1","1","1"
"250037","img/neutralC/CFD-MF-357-002-N.jpg","img/neutralC/CFD-AM-220-134-N.jpg","img/neutralC/CFD-IM-702-101-N.jpg","1","0","1","0","0","1","0.444933200022206","0.366610600030981","0.316445500007831","1","1","1","1","1","1","1","1","1"
"250037","img/neutralC/CFD-IM-702-101-N.jpg","img/neutralC/CFD-MF-357-002-N.jpg","img/neutralC/CFD-LF-206-078-N.jpg","1","1","1","1","0","1","0.316445500007831","0.444933200022206","0.392506600008346","1","1","1","1","1","1","1","1","1"
"250037","img/neutralC/CFD-LF-206-078-N.jpg","img/neutralC/CFD-IM-702-101-N.jpg","img/neutralC/CFD-WF-244-163-N.jpg","1","1","1","1","1","1","0.392506600008346","0.316445500007831","0.391234099981375","1","1","1","1","1","1","1","1","1"
"250037","img/neutralC/CFD-WF-244-163-N.jpg","img/neutralC/CFD-LF-206-078-N.jpg","img/neutralC/CFD-WF-222-092-N.jpg","1","1","1","1","1","1","0.391234099981375","0.392506600008346","0.432044300017878","1","1","1","1","1","1","1","1","1"
"250037","img/neutralC/CFD-WF-222-092-N.jpg","img/neutralC/CFD-WF-244-163-N.jpg","img/neutralC/CFD-MF-305-014-N.jpg","1","1","1","1","1","1","0.432044300017878","0.391234099981375","0.341535000014119","1","1","1","1","1","1","1","1","1"
"250037","img/neutralC/CFD-MF-305-014-N.jpg","img/neutralC/CFD-WF-222-092-N.jpg","img/neutralC/CFD-WM-015-002-N.jpg","1","1","1","1","1","0","0.341535000014119","0.432044300017878","0.526668600039557","1","1","1","1","1","1","1","1","1"
"250037","img/neutralC/CFD-WM-015-002-N.jpg","img/neutralC/CFD-MF-305-014-N.jpg","img/neutralC/CFD-LF-255-088-N.jpg","1","1","1","0","1","0","0.526668600039557","0.341535000014119","0.50135640008375","1","1","1","1","1","1","1","1","1"
"250037","img/neutralC/CFD-LF-255-088-N.jpg","img/neutralC/CFD-WM-015-002-N.jpg","img/neutralC/CFD-BF-237-172-N.jpg","1","1","1","0","0","1","0.50135640008375","0.526668600039557","0.381946200039238","1","1","1","1","1","1","1","1","1"
"250037","img/neutralC/CFD-BF-237-172-N.jpg","img/neutralC/CFD-LF-255-088-N.jpg","img/neutralC/CFD-BM-001-014-N.jpg","1","1","1","1","0","0","0.381946200039238","0.50135640008375","0.43302389991004","1","1","1","1","1","1","1","1","1"
"250037","img/neutralC/CFD-BM-001-014-N.jpg","img/neutralC/CFD-BF-237-172-N.jpg","img/neutralC/CFD-MM-324-069-N.jpg","1","1","1","0","1","1","0.43302389991004","0.381946200039238","0.390821100096218","1","1","1","1","1","1","1","1","1"
"250037","img/neutralC/CFD-MM-324-069-N.jpg","img/neutralC/CFD-BM-001-014-N.jpg","img/neutralC/CFD-BF-014-002-N.jpg","1","1","1","1","0","1","0.390821100096218","0.43302389991004","0.571347299963236","1","1","1","1","1","1","1","1","1"
"250037","img/neutralC/CFD-BF-014-002-N.jpg","img/neutralC/CFD-MM-324-069-N.jpg","img/neutralC/CFD-MF-303-013-N.jpg","1","1","0","1","1","0","0.571347299963236","0.390821100096218","0.380360400071368","1","1","1","1","1","1","1","1","1"
"250037","img/neutralC/CFD-MF-303-013-N.jpg","img/neutralC/CFD-BF-014-002-N.jpg","img/neutralC/CFD-IM-667-369-N.jpg","0","1","1","0","1","0","0.380360400071368","0.571347299963236","0.432782200048678","1","1","1","1","1","1","1","1","1"
"250037","img/neutralC/CFD-IM-667-369-N.jpg","img/neutralC/CFD-MF-303-013-N.jpg","img/neutralC/CFD-IM-664-651-N.jpg","1","0","1","0","0","1","0.432782200048678","0.380360400071368","0.333795099984854","1","1","1","1","1","1","1","1","1"
"250037","img/neutralC/CFD-IM-664-651-N.jpg","img/neutralC/CFD-IM-667-369-N.jpg","img/neutralC/CFD-MF-343-001-N.jpg","1","1","1","1","0","1","0.333795099984854","0.432782200048678","0.397501799976453","1","1","1","1","1","1","1","1","1"
"250037","img/neutralC/CFD-MF-343-001-N.jpg","img/neutralC/CFD-IM-664-651-N.jpg","img/neutralC/CFD-WM-218-074-N.jpg","1","1","1","1","1","1","0.397501799976453","0.333795099984854","0.395493400050327","1","1","1","1","1","1","1","1","1"
"250037","img/neutralC/CFD-WM-218-074-N.jpg","img/neutralC/CFD-MF-343-001-N.jpg","img/neutralC/CFD-WF-007-001-N.jpg","1","1","1","1","1","1","0.395493400050327","0.397501799976453","0.384215300087817","1","1","1","1","1","1","1","1","1"
"250037","img/neutralC/CFD-WF-007-001-N.jpg","img/neutralC/CFD-WM-218-074-N.jpg","img/neutralC/CFD-LM-225-130-N.jpg","1","1","1","1","1","0","0.384215300087817","0.395493400050327","0.450081499991938","1","1","1","1","1","1","1","1","1"
"250037","img/neutralC/CFD-LM-225-130-N.jpg","img/neutralC/CFD-WF-007-001-N.jpg","img/neutralC/CFD-WF-030-002-N.jpg","1","1","1","0","1","0","0.450081499991938","0.384215300087817","0.484906399971806","1","1","1","1","1","1","1","1","1"
"250037","img/neutralC/CFD-WF-030-002-N.jpg","img/neutralC/CFD-LM-225-130-N.jpg","img/neutralC/CFD-MF-316-001-N.jpg","1","1","1","0","0","0","0.484906399971806","0.450081499991938","0.463066000025719","1","1","1","1","1","1","1","1","1"
"250037","img/neutralC/CFD-MF-316-001-N.jpg","img/neutralC/CFD-WF-030-002-N.jpg","img/neutralC/CFD-BM-250-170-N.jpg","1","1","1","0","0","1","0.463066000025719","0.484906399971806","0.397386400029063","1","1","1","1","1","1","1","1","1"
"250037","img/neutralC/CFD-BM-250-170-N.jpg","img/neutralC/CFD-MF-316-001-N.jpg","img/neutralC/CFD-LM-200-045-N.jpg","1","1","1","1","0","1","0.397386400029063","0.463066000025719","0.374256200040691","1","1","1","1","1","1","1","1","1"
"250037","img/neutralC/CFD-LM-200-045-N.jpg","img/neutralC/CFD-BM-250-170-N.jpg","img/neutralC/CFD-IM-706-002-N.jpg","1","1","1","1","1","0","0.374256200040691","0.397386400029063","0.478604199946858","1","1","1","1","1","1","1","1","1"
"250037","img/neutralC/CFD-IM-706-002-N.jpg","img/neutralC/CFD-LM-200-045-N.jpg",NA,"1","1",NA,"0","1",NA,"0.478604199946858","0.374256200040691",NA,"1","1",NA,"1","1",NA,"1","1",NA
"250037","img/neutralC/CFD-WF-009-001-N.jpg",NA,"img/neutralC/CFD-WF-221-005-N.jpg","1",NA,"1","1",NA,"0","0.515872900024988",NA,"0.498150900006294","1",NA,"1","1",NA,"1","1",NA,"1"
"250037","img/neutralC/CFD-WF-221-005-N.jpg","img/neutralC/CFD-WF-009-001-N.jpg","img/neutralC/CFD-WM-025-002-N.jpg","1","1","1","0","1","0","0.498150900006294","0.515872900024988","0.53295739996247","1","1","1","1","1","1","1","1","1"
"250037","img/neutralC/CFD-WM-025-002-N.jpg","img/neutralC/CFD-WF-221-005-N.jpg","img/neutralC/CFD-LF-222-147-N.jpg","1","1","1","0","0","0","0.53295739996247","0.498150900006294","0.333853100077249","1","1","1","1","1","1","1","1","1"
"250037","img/neutralC/CFD-LF-222-147-N.jpg","img/neutralC/CFD-WM-025-002-N.jpg","img/neutralC/CFD-AF-237-223-N.jpg","1","1","1","0","0","0","0.333853100077249","0.53295739996247","0.461572299944237","1","1","1","1","1","1","1","1","1"
"250037","img/neutralC/CFD-AF-237-223-N.jpg","img/neutralC/CFD-LF-222-147-N.jpg","img/neutralC/CFD-LF-212-066-N.jpg","1","1","1","0","0","1","0.461572299944237","0.333853100077249","0.342473600059748","1","1","1","1","1","1","1","1","2"
"250037","img/neutralC/CFD-LF-212-066-N.jpg","img/neutralC/CFD-AF-237-223-N.jpg","img/neutralC/CFD-BM-020-001-N.jpg","1","1","0","1","0","0","0.342473600059748","0.461572299944237","0.351718500023708","1","1","1","1","1","1","2","1","1"
"250037","img/neutralC/CFD-BM-020-001-N.jpg","img/neutralC/CFD-LF-212-066-N.jpg","img/neutralC/CFD-IM-697-015-N.jpg","0","1","1","0","1","1","0.351718500023708","0.342473600059748","0.35819410008844","1","1","1","1","1","1","1","2","1"
"250037","img/neutralC/CFD-IM-697-015-N.jpg","img/neutralC/CFD-BM-020-001-N.jpg","img/neutralC/CFD-LM-240-013-N.jpg","1","0","1","1","0","1","0.35819410008844","0.351718500023708","0.362726300023496","1","1","1","1","1","1","1","1","1"
"250037","img/neutralC/CFD-LM-240-013-N.jpg","img/neutralC/CFD-IM-697-015-N.jpg","img/neutralC/CFD-WF-243-148-N.jpg","1","1","0","1","1","0","0.362726300023496","0.35819410008844","0.32226729998365","1","1","1","1","1","1","1","1","1"
"250037","img/neutralC/CFD-WF-243-148-N.jpg","img/neutralC/CFD-LM-240-013-N.jpg","img/neutralC/CFD-WM-023-001-N.jpg","0","1","0","0","1","0","0.32226729998365","0.362726300023496","0.445977100054734","1","1","1","1","1","1","1","1","1"
"250037","img/neutralC/CFD-WM-023-001-N.jpg","img/neutralC/CFD-WF-243-148-N.jpg","img/neutralC/CFD-IM-689-263-N.jpg","0","0","1","0","0","1","0.445977100054734","0.32226729998365","0.441172900027595","1","1","1","1","1","1","1","1","1"
"250037","img/neutralC/CFD-IM-689-263-N.jpg","img/neutralC/CFD-WM-023-001-N.jpg","img/neutralC/CFD-AM-219-101-N.jpg","1","0","1","1","0","0","0.441172900027595","0.445977100054734","0.469172399956733","1","1","1","1","1","1","1","1","1"
"250037","img/neutralC/CFD-AM-219-101-N.jpg","img/neutralC/CFD-IM-689-263-N.jpg","img/neutralC/CFD-BF-012-001-N.jpg","1","1","1","0","1","0","0.469172399956733","0.441172900027595","0.565195400035009","1","1","1","1","1","1","1","1","1"
"250037","img/neutralC/CFD-BF-012-001-N.jpg","img/neutralC/CFD-AM-219-101-N.jpg","img/neutralC/CFD-IM-615-167-N.jpg","1","1","1","0","0","0","0.565195400035009","0.469172399956733","0.410849199979566","1","1","1","1","1","1","1","1","1"
"250037","img/neutralC/CFD-IM-615-167-N.jpg","img/neutralC/CFD-BF-012-001-N.jpg","img/neutralC/CFD-BM-227-191-N.jpg","1","1","1","0","0","1","0.410849199979566","0.565195400035009","0.40676580008585","1","1","1","1","1","1","1","1","1"
"250037","img/neutralC/CFD-BM-227-191-N.jpg","img/neutralC/CFD-IM-615-167-N.jpg","img/neutralC/CFD-BM-030-003-N.jpg","1","1","1","1","0","0","0.40676580008585","0.410849199979566","0.403634399990551","1","1","1","1","1","1","1","1","1"
"250037","img/neutralC/CFD-BM-030-003-N.jpg","img/neutralC/CFD-BM-227-191-N.jpg","img/neutralC/CFD-IF-676-017-N.jpg","1","1","1","0","1","1","0.403634399990551","0.40676580008585","0.31713400001172","1","1","1","1","1","1","1","1","1"
"250037","img/neutralC/CFD-IF-676-017-N.jpg","img/neutralC/CFD-BM-030-003-N.jpg","img/neutralC/CFD-IM-606-008-N.jpg","1","1","1","1","0","0","0.31713400001172","0.403634399990551","0.429283699952066","1","1","1","1","1","1","1","1","1"
"250037","img/neutralC/CFD-IM-606-008-N.jpg","img/neutralC/CFD-IF-676-017-N.jpg","img/neutralC/CFD-WF-241-210-N.jpg","1","1","1","0","1","0","0.429283699952066","0.31713400001172","0.490641399985179","1","1","1","1","1","1","1","1","1"
"250037","img/neutralC/CFD-WF-241-210-N.jpg","img/neutralC/CFD-IM-606-008-N.jpg","img/neutralC/CFD-AM-249-163-N.jpg","1","1","1","0","0","1","0.490641399985179","0.429283699952066","0.314865600084886","1","1","1","1","1","1","1","1","1"
"250037","img/neutralC/CFD-AM-249-163-N.jpg","img/neutralC/CFD-WF-241-210-N.jpg","img/neutralC/CFD-MM-306-010-N.jpg","1","1","1","1","0","0","0.314865600084886","0.490641399985179","0.389317699940875","1","1","1","1","1","1","1","1","1"
"250037","img/neutralC/CFD-MM-306-010-N.jpg","img/neutralC/CFD-AM-249-163-N.jpg","img/neutralC/CFD-AM-205-153-N.jpg","1","1","1","0","1","1","0.389317699940875","0.314865600084886","0.446196000091732","1","1","1","1","1","1","1","1","1"
"250037","img/neutralC/CFD-AM-205-153-N.jpg","img/neutralC/CFD-MM-306-010-N.jpg","img/neutralC/CFD-BM-009-002-N.jpg","1","1","1","1","0","1","0.446196000091732","0.389317699940875","0.373737499932759","1","1","1","1","1","1","1","1","1"
"250037","img/neutralC/CFD-BM-009-002-N.jpg","img/neutralC/CFD-AM-205-153-N.jpg","img/neutralC/CFD-MF-328-020-N.jpg","1","1","1","1","1","0","0.373737499932759","0.446196000091732","0.341044600005262","1","1","1","1","1","1","1","1","1"
"250037","img/neutralC/CFD-MF-328-020-N.jpg","img/neutralC/CFD-BM-009-002-N.jpg","img/neutralC/CFD-BM-021-021-N.jpg","1","1","1","0","1","1","0.341044600005262","0.373737499932759","0.362637600046583","1","1","1","1","1","1","1","1","1"
"250037","img/neutralC/CFD-BM-021-021-N.jpg","img/neutralC/CFD-MF-328-020-N.jpg","img/neutralC/CFD-BM-043-071-N.jpg","1","1","1","1","0","0","0.362637600046583","0.341044600005262","0.486959400004707","1","1","1","1","1","1","1","1","1"
"250037","img/neutralC/CFD-BM-043-071-N.jpg","img/neutralC/CFD-BM-021-021-N.jpg","img/neutralC/CFD-LF-238-154-N.jpg","1","1","1","0","1","1","0.486959400004707","0.362637600046583","0.361257800017484","1","1","1","1","1","1","1","1","1"
"250037","img/neutralC/CFD-LF-238-154-N.jpg","img/neutralC/CFD-BM-043-071-N.jpg","img/neutralC/CFD-WF-207-014-N.jpg","1","1","1","1","0","1","0.361257800017484","0.486959400004707","0.4117825999856","1","1","1","1","1","1","1","1","1"
"250037","img/neutralC/CFD-WF-207-014-N.jpg","img/neutralC/CFD-LF-238-154-N.jpg","img/neutralC/CFD-AM-243-212-N.jpg","1","1","1","1","1","1","0.4117825999856","0.361257800017484","0.367726400028914","1","1","1","1","1","1","1","1","1"
"250037","img/neutralC/CFD-AM-243-212-N.jpg","img/neutralC/CFD-WF-207-014-N.jpg","img/neutralC/CFD-WM-028-003-N.jpg","1","1","1","1","1","1","0.367726400028914","0.4117825999856","0.327928000013344","1","1","1","1","1","1","1","1","1"
"250037","img/neutralC/CFD-WM-028-003-N.jpg","img/neutralC/CFD-AM-243-212-N.jpg","img/neutralC/CFD-BF-244-231-N.jpg","1","1","1","1","1","1","0.327928000013344","0.367726400028914","0.331248000031337","1","1","1","1","1","1","1","1","1"
"250037","img/neutralC/CFD-BF-244-231-N.jpg","img/neutralC/CFD-WM-028-003-N.jpg",NA,"1","1",NA,"1","1",NA,"0.331248000031337","0.327928000013344",NA,"1","1",NA,"1","1",NA,"1","1",NA
"250037","img/neutralC/CFD-MF-313-002-N.jpg",NA,"img/neutralC/CFD-BM-005-003-N.jpg","1",NA,"1","0",NA,"1","0.612183399964124",NA,"0.381674600066617","1",NA,"1","1",NA,"1","1",NA,"1"
"250037","img/neutralC/CFD-BM-005-003-N.jpg","img/neutralC/CFD-MF-313-002-N.jpg","img/neutralC/CFD-LF-250-169-N.jpg","1","1","1","1","0","1","0.381674600066617","0.612183399964124","0.327963900053874","1","1","1","1","1","1","1","1","1"
"250037","img/neutralC/CFD-LF-250-169-N.jpg","img/neutralC/CFD-BM-005-003-N.jpg","img/neutralC/CFD-IM-727-195-N.jpg","1","1","1","1","1","1","0.327963900053874","0.381674600066617","0.330189700005576","1","1","1","1","1","1","1","1","1"
"250037","img/neutralC/CFD-IM-727-195-N.jpg","img/neutralC/CFD-LF-250-169-N.jpg","img/neutralC/CFD-BM-231-155-N.jpg","1","1","1","1","1","1","0.330189700005576","0.327963900053874","0.314496300066821","1","1","1","1","1","1","1","1","1"
"250037","img/neutralC/CFD-BM-231-155-N.jpg","img/neutralC/CFD-IM-727-195-N.jpg","img/neutralC/CFD-AF-206-079-N.jpg","1","1","1","1","1","1","0.314496300066821","0.330189700005576","0.274040899937972","1","1","1","1","1","1","1","1","1"
"250037","img/neutralC/CFD-AF-206-079-N.jpg","img/neutralC/CFD-BM-231-155-N.jpg","img/neutralC/CFD-WF-209-052-N.jpg","1","1","1","1","1","1","0.274040899937972","0.314496300066821","0.302503999904729","1","1","1","1","1","1","1","1","1"
"250037","img/neutralC/CFD-WF-209-052-N.jpg","img/neutralC/CFD-AF-206-079-N.jpg","img/neutralC/CFD-BF-010-001-N.jpg","1","1","1","1","1","1","0.302503999904729","0.274040899937972","0.374619800015353","1","1","1","1","1","1","1","1","1"
"250037","img/neutralC/CFD-BF-010-001-N.jpg","img/neutralC/CFD-WF-209-052-N.jpg","img/neutralC/CFD-AF-241-141-N.jpg","1","1","1","1","1","1","0.374619800015353","0.302503999904729","0.332784099970013","1","1","1","1","1","1","1","1","1"
"250037","img/neutralC/CFD-AF-241-141-N.jpg","img/neutralC/CFD-BF-010-001-N.jpg","img/neutralC/CFD-IF-665-015-N.jpg","1","1","1","1","1","0","0.332784099970013","0.374619800015353","0.287378199980594","1","1","1","1","1","1","1","1","1"
"250037","img/neutralC/CFD-IF-665-015-N.jpg","img/neutralC/CFD-AF-241-141-N.jpg","img/neutralC/CFD-WM-242-011-N.jpg","1","1","1","0","1","0","0.287378199980594","0.332784099970013","0.376885499921627","1","1","1","1","1","1","1","1","1"
"250037","img/neutralC/CFD-WM-242-011-N.jpg","img/neutralC/CFD-IF-665-015-N.jpg","img/neutralC/CFD-BM-212-117-N.jpg","1","1","0","0","0","0","0.376885499921627","0.287378199980594","0.298857500078157","1","1","1","1","1","1","1","1","1"
"250037","img/neutralC/CFD-BM-212-117-N.jpg","img/neutralC/CFD-WM-242-011-N.jpg","img/neutralC/CFD-IM-657-308-N.jpg","0","1","0","0","0","0","0.298857500078157","0.376885499921627","0.388116499991156","1","1","1","1","1","1","1","1","1"
"250037","img/neutralC/CFD-IM-657-308-N.jpg","img/neutralC/CFD-BM-212-117-N.jpg","img/neutralC/CFD-LM-219-295-N.jpg","0","0","1","0","0","1","0.388116499991156","0.298857500078157","0.4156842000084","1","1","1","1","1","1","1","1","1"
"250037","img/neutralC/CFD-LM-219-295-N.jpg","img/neutralC/CFD-IM-657-308-N.jpg","img/neutralC/CFD-AF-202-122-N.jpg","1","0","1","1","0","1","0.4156842000084","0.388116499991156","0.284906000015326","1","1","1","1","1","1","1","1","1"
"250037","img/neutralC/CFD-AF-202-122-N.jpg","img/neutralC/CFD-LM-219-295-N.jpg","img/neutralC/CFD-BF-033-028-N.jpg","1","1","1","1","1","0","0.284906000015326","0.4156842000084","0.320618400000967","1","1","1","1","1","1","1","1","1"
"250037","img/neutralC/CFD-BF-033-028-N.jpg","img/neutralC/CFD-AF-202-122-N.jpg","img/neutralC/CFD-BF-238-190-N.jpg","1","1","1","0","1","1","0.320618400000967","0.284906000015326","0.331495699938387","1","1","1","1","1","1","1","1","1"
"250037","img/neutralC/CFD-BF-238-190-N.jpg","img/neutralC/CFD-BF-033-028-N.jpg","img/neutralC/CFD-WM-017-002-N.jpg","1","1","0","1","0","0","0.331495699938387","0.320618400000967","0.283267999999225","1","1","1","1","1","1","1","1","1"
"250037","img/neutralC/CFD-WM-017-002-N.jpg","img/neutralC/CFD-BF-238-190-N.jpg","img/neutralC/CFD-BM-026-002-N.jpg","0","1","1","0","1","0","0.283267999999225","0.331495699938387","0.411088800057769","1","1","1","1","1","1","1","1","1"
"250037","img/neutralC/CFD-BM-026-002-N.jpg","img/neutralC/CFD-WM-017-002-N.jpg","img/neutralC/CFD-LF-247-051-N.jpg","1","0","1","0","0","1","0.411088800057769","0.283267999999225","0.341154500027187","1","1","1","1","1","1","1","1","1"
"250037","img/neutralC/CFD-LF-247-051-N.jpg","img/neutralC/CFD-BM-026-002-N.jpg","img/neutralC/CFD-LM-233-171-N.jpg","1","1","1","1","0","0","0.341154500027187","0.411088800057769","0.40401950001251","1","1","1","1","1","1","1","1","1"
"250037","img/neutralC/CFD-LM-233-171-N.jpg","img/neutralC/CFD-LF-247-051-N.jpg","img/neutralC/CFD-WM-227-099-N.jpg","1","1","0","0","1","1","0.40401950001251","0.341154500027187","0.44772469997406","1","1","1","1","1","1","1","1","2"
"250037","img/neutralC/CFD-WM-227-099-N.jpg","img/neutralC/CFD-LM-233-171-N.jpg","img/neutralC/CFD-IM-638-250-1-N.jpg","0","1","1","1","0","1","0.44772469997406","0.40401950001251","0.322584399953485","1","1","1","1","1","1","2","1","1"
"250037","img/neutralC/CFD-IM-638-250-1-N.jpg","img/neutralC/CFD-WM-227-099-N.jpg","img/neutralC/CFD-LF-242-121-N.jpg","1","0","1","1","1","0","0.322584399953485","0.44772469997406","0.515212799888104","1","1","1","1","1","1","1","2","1"
"250037","img/neutralC/CFD-LF-242-121-N.jpg","img/neutralC/CFD-IM-638-250-1-N.jpg","img/neutralC/CFD-LM-226-175-N.jpg","1","1","0","0","1","0","0.515212799888104","0.322584399953485","0.365333799971268","1","1","1","1","1","1","1","1","1"
"250037","img/neutralC/CFD-LM-226-175-N.jpg","img/neutralC/CFD-LF-242-121-N.jpg","img/neutralC/CFD-IM-617-174-N.jpg","0","1","1","0","0","0","0.365333799971268","0.515212799888104","0.458469799952582","1","1","1","1","1","1","1","1","1"
"250037","img/neutralC/CFD-IM-617-174-N.jpg","img/neutralC/CFD-LM-226-175-N.jpg","img/neutralC/CFD-WM-258-125-N.jpg","1","0","0","0","0","0","0.458469799952582","0.365333799971268","0.348270300077274","1","1","1","1","1","1","1","1","1"
"250037","img/neutralC/CFD-WM-258-125-N.jpg","img/neutralC/CFD-IM-617-174-N.jpg","img/neutralC/CFD-BM-018-001-N.jpg","0","1","1","0","0","1","0.348270300077274","0.458469799952582","0.465153700090013","1","1","1","1","1","1","1","1","1"
"250037","img/neutralC/CFD-BM-018-001-N.jpg","img/neutralC/CFD-WM-258-125-N.jpg","img/neutralC/CFD-IM-686-097-N.jpg","1","0","1","1","0","0","0.465153700090013","0.348270300077274","0.4605304999277","1","1","1","1","1","1","1","1","1"
"250037","img/neutralC/CFD-IM-686-097-N.jpg","img/neutralC/CFD-BM-018-001-N.jpg","img/neutralC/CFD-LF-245-166-N.jpg","1","1","1","0","1","1","0.4605304999277","0.465153700090013","0.325394200044684","1","1","1","1","1","1","1","1","1"
"250037","img/neutralC/CFD-LF-245-166-N.jpg","img/neutralC/CFD-IM-686-097-N.jpg","img/neutralC/CFD-IM-653-008-N.jpg","1","1","1","1","0","0","0.325394200044684","0.4605304999277","0.445966799976304","1","1","1","1","1","1","1","1","1"
"250037","img/neutralC/CFD-IM-653-008-N.jpg","img/neutralC/CFD-LF-245-166-N.jpg","img/neutralC/CFD-IF-620-218-N.jpg","1","1","0","0","1","0","0.445966799976304","0.325394200044684","0.308543700026348","1","1","1","1","1","1","1","1","1"
"250037","img/neutralC/CFD-IF-620-218-N.jpg","img/neutralC/CFD-IM-653-008-N.jpg",NA,"0","1",NA,"0","0",NA,"0.308543700026348","0.445966799976304",NA,"1","1",NA,"1","1",NA,"1","1",NA
"250037","img/neutralC/CFD-AM-251-124-N.jpg",NA,"img/neutralC/CFD-WF-036-023-N.jpg","0",NA,"0","0",NA,"0","0.925614200066775",NA,"0.32642069994472","1",NA,"1","1",NA,"1","1",NA,"1"
"250037","img/neutralC/CFD-WF-036-023-N.jpg","img/neutralC/CFD-AM-251-124-N.jpg","img/neutralC/CFD-WF-214-122-N.jpg","0","0","1","0","0","1","0.32642069994472","0.925614200066775","0.462230999954045","1","1","1","1","1","1","1","1","1"
"250037","img/neutralC/CFD-WF-214-122-N.jpg","img/neutralC/CFD-WF-036-023-N.jpg","img/neutralC/CFD-IF-623-129-N.jpg","1","0","1","1","0","1","0.462230999954045","0.32642069994472","0.300845800084062","1","1","1","1","1","1","1","1","1"
"250037","img/neutralC/CFD-IF-623-129-N.jpg","img/neutralC/CFD-WF-214-122-N.jpg","img/neutralC/CFD-BM-225-154-N.jpg","1","1","1","1","1","1","0.300845800084062","0.462230999954045","0.405061900033616","1","1","1","1","1","1","1","1","1"
"250037","img/neutralC/CFD-BM-225-154-N.jpg","img/neutralC/CFD-IF-623-129-N.jpg","img/neutralC/CFD-IM-616-214-N.jpg","1","1","0","1","1","0","0.405061900033616","0.300845800084062","0.388543199980631","1","1","1","1","1","1","1","1","2"
"250037","img/neutralC/CFD-IM-616-214-N.jpg","img/neutralC/CFD-BM-225-154-N.jpg","img/neutralC/CFD-WM-004-010-N.jpg","0","1","1","0","1","0","0.388543199980631","0.405061900033616","0.381086500012316","1","1","1","1","1","1","2","1","1"
"250037","img/neutralC/CFD-WM-004-010-N.jpg","img/neutralC/CFD-IM-616-214-N.jpg","img/neutralC/CFD-MF-352-054-N.jpg","1","0","0","0","0","0","0.381086500012316","0.388543199980631","0.351891000056639","1","1","1","1","1","1","1","2","1"
"250037","img/neutralC/CFD-MF-352-054-N.jpg","img/neutralC/CFD-WM-004-010-N.jpg","img/neutralC/CFD-IF-650-315-N.jpg","0","1","1","0","0","0","0.351891000056639","0.381086500012316","0.499926700023934","1","1","1","1","1","1","1","1","1"
"250037","img/neutralC/CFD-IF-650-315-N.jpg","img/neutralC/CFD-MF-352-054-N.jpg","img/neutralC/CFD-BM-253-004-N.jpg","1","0","1","0","0","1","0.499926700023934","0.351891000056639","0.426953300018795","1","1","1","1","1","1","1","1","1"
"250037","img/neutralC/CFD-BM-253-004-N.jpg","img/neutralC/CFD-IF-650-315-N.jpg","img/neutralC/CFD-BF-229-179-N.jpg","1","1","1","1","0","0","0.426953300018795","0.499926700023934","0.413911100011319","1","1","1","1","1","1","1","1","1"
"250037","img/neutralC/CFD-BF-229-179-N.jpg","img/neutralC/CFD-BM-253-004-N.jpg","img/neutralC/CFD-IM-671-601-N.jpg","1","1","1","0","1","0","0.413911100011319","0.426953300018795","0.439942399971187","1","1","1","1","1","1","1","1","1"
"250037","img/neutralC/CFD-IM-671-601-N.jpg","img/neutralC/CFD-BF-229-179-N.jpg","img/neutralC/CFD-BF-038-037-N.jpg","1","1","1","0","0","1","0.439942399971187","0.413911100011319","0.337568599963561","1","1","1","1","1","1","1","1","1"
"250037","img/neutralC/CFD-BF-038-037-N.jpg","img/neutralC/CFD-IM-671-601-N.jpg","img/neutralC/CFD-WM-033-025-N.jpg","1","1","1","1","0","1","0.337568599963561","0.439942399971187","0.328265800024383","1","1","1","1","1","1","1","1","1"
"250037","img/neutralC/CFD-WM-033-025-N.jpg","img/neutralC/CFD-BF-038-037-N.jpg","img/neutralC/CFD-WF-001-003-N.jpg","1","1","1","1","1","1","0.328265800024383","0.337568599963561","0.319385799928568","1","1","1","1","1","1","1","1","1"
"250037","img/neutralC/CFD-WF-001-003-N.jpg","img/neutralC/CFD-WM-033-025-N.jpg","img/neutralC/CFD-WM-020-001-N.jpg","1","1","1","1","1","1","0.319385799928568","0.328265800024383","0.353506300016306","1","1","1","1","1","1","1","1","1"
"250037","img/neutralC/CFD-WM-020-001-N.jpg","img/neutralC/CFD-WF-001-003-N.jpg","img/neutralC/CFD-AM-242-176-N.jpg","1","1","1","1","1","1","0.353506300016306","0.319385799928568","0.307780200033449","1","1","1","1","1","1","1","1","1"
"250037","img/neutralC/CFD-AM-242-176-N.jpg","img/neutralC/CFD-WM-020-001-N.jpg","img/neutralC/CFD-BF-226-119-N.jpg","1","1","1","1","1","1","0.307780200033449","0.353506300016306","0.338303799973801","1","1","1","1","1","1","1","1","1"
"250037","img/neutralC/CFD-BF-226-119-N.jpg","img/neutralC/CFD-AM-242-176-N.jpg","img/neutralC/CFD-LF-218-072-N.jpg","1","1","0","1","1","0","0.338303799973801","0.307780200033449","0.382295000017621","1","1","1","1","1","1","1","1","1"
"250037","img/neutralC/CFD-LF-218-072-N.jpg","img/neutralC/CFD-BF-226-119-N.jpg","img/neutralC/CFD-WM-219-008-N.jpg","0","1","0","0","1","0","0.382295000017621","0.338303799973801","0.315876799984835","1","1","1","1","1","1","1","1","1"
"250037","img/neutralC/CFD-WM-219-008-N.jpg","img/neutralC/CFD-LF-218-072-N.jpg","img/neutralC/CFD-LF-220-120-N.jpg","0","0","1","0","0","1","0.315876799984835","0.382295000017621","0.351319700013846","1","1","1","1","1","1","1","1","1"
"250037","img/neutralC/CFD-LF-220-120-N.jpg","img/neutralC/CFD-WM-219-008-N.jpg","img/neutralC/CFD-BF-232-187-N.jpg","1","0","1","1","0","1","0.351319700013846","0.315876799984835","0.398248800076544","1","1","1","1","1","1","1","1","1"
"250037","img/neutralC/CFD-BF-232-187-N.jpg","img/neutralC/CFD-LF-220-120-N.jpg","img/neutralC/CFD-AM-211-052-N.jpg","1","1","1","1","1","1","0.398248800076544","0.351319700013846","0.36470930010546","1","1","1","1","1","1","1","1","1"
"250037","img/neutralC/CFD-AM-211-052-N.jpg","img/neutralC/CFD-BF-232-187-N.jpg","img/neutralC/CFD-MF-333-012-N.jpg","1","1","0","1","1","0","0.36470930010546","0.398248800076544","0.3688175000716","1","1","1","1","1","1","1","1","1"
"250037","img/neutralC/CFD-MF-333-012-N.jpg","img/neutralC/CFD-AM-211-052-N.jpg","img/neutralC/CFD-IM-645-001-N.jpg","0","1","0","0","1","0","0.3688175000716","0.36470930010546","0.374804200022481","1","1","1","1","1","1","1","1","1"
"250037","img/neutralC/CFD-IM-645-001-N.jpg","img/neutralC/CFD-MF-333-012-N.jpg","img/neutralC/CFD-WF-200-099-N.jpg","0","0","1","0","0","0","0.374804200022481","0.3688175000716","0.495775599963963","1","1","1","1","1","1","1","1","1"
"250037","img/neutralC/CFD-WF-200-099-N.jpg","img/neutralC/CFD-IM-645-001-N.jpg","img/neutralC/CFD-WM-235-147-N.jpg","1","0","1","0","0","0","0.495775599963963","0.374804200022481","0.424329399946146","1","1","1","1","1","1","1","1","1"
"250037","img/neutralC/CFD-WM-235-147-N.jpg","img/neutralC/CFD-WF-200-099-N.jpg","img/neutralC/CFD-LM-237-264-N.jpg","1","1","1","0","0","0","0.424329399946146","0.495775599963963","0.645056000095792","1","1","1","1","1","1","1","1","1"
"250037","img/neutralC/CFD-LM-237-264-N.jpg","img/neutralC/CFD-WM-235-147-N.jpg","img/neutralC/CFD-MF-359-019-N.jpg","1","1","1","0","0","0","0.645056000095792","0.424329399946146","0.402495899936184","1","1","1","1","1","1","1","1","1"
"250037","img/neutralC/CFD-MF-359-019-N.jpg","img/neutralC/CFD-LM-237-264-N.jpg","img/neutralC/CFD-IM-703-182-N.jpg","1","1","1","0","0","1","0.402495899936184","0.645056000095792","0.41439349995926","1","1","1","1","1","1","1","1","1"
"250037","img/neutralC/CFD-IM-703-182-N.jpg","img/neutralC/CFD-MF-359-019-N.jpg","img/neutralC/CFD-IM-743-006-N.jpg","1","1","1","1","0","1","0.41439349995926","0.402495899936184","0.377535599982366","1","1","1","1","1","1","1","1","1"
"250037","img/neutralC/CFD-IM-743-006-N.jpg","img/neutralC/CFD-IM-703-182-N.jpg","img/neutralC/CFD-LM-228-188-N.jpg","1","1","1","1","1","1","0.377535599982366","0.41439349995926","0.328729800065048","1","1","1","1","1","1","1","1","1"
"250037","img/neutralC/CFD-LM-228-188-N.jpg","img/neutralC/CFD-IM-743-006-N.jpg",NA,"1","1",NA,"1","1",NA,"0.328729800065048","0.377535599982366",NA,"1","1",NA,"1","1",NA,"1","1",NA
