"participant_id","current_trial_face","pre_trial_face","post_trial_face","current_trial_accuracy","pre_trial_accuracy","post_trial_accuracy","current_trial_congruency","pre_trial_congruency","post_trial_congruency","current_trial_rt","pre_trial_rt","post_trial_rt","current_trial_responded","pre_trial_responded","post_trial_responded","current_trial_legitResponse","pre_trial_legitResponse","post_trial_legitResponse","current_trial_resp_nums","pre_trial_resp_nums","post_trial_resp_nums"
"250041","img/neutralC/CFD-MF-318-022-N.jpg",NA,"img/neutralC/CFD-MF-321-003-N.jpg","1",NA,"0","1",NA,"0","0.770707099931315",NA,"0.416533899959177","1",NA,"1","1",NA,"1","1",NA,"2"
"250041","img/neutralC/CFD-MF-321-003-N.jpg","img/neutralC/CFD-MF-318-022-N.jpg","img/neutralC/CFD-MF-342-022-N.jpg","0","1","1","0","1","1","0.416533899959177","0.770707099931315","0.647277300013229","1","1","1","1","1","1","2","1","1"
"250041","img/neutralC/CFD-MF-342-022-N.jpg","img/neutralC/CFD-MF-321-003-N.jpg","img/neutralC/CFD-WF-018-017-N.jpg","1","0","1","1","0","1","0.647277300013229","0.416533899959177","0.480224099941552","1","1","1","1","1","1","1","2","1"
"250041","img/neutralC/CFD-WF-018-017-N.jpg","img/neutralC/CFD-MF-342-022-N.jpg","img/neutralC/CFD-WF-226-095-N.jpg","1","1","1","1","1","1","0.480224099941552","0.647277300013229","0.470620899926871","1","1","1","1","1","1","1","1","1"
"250041","img/neutralC/CFD-WF-226-095-N.jpg","img/neutralC/CFD-WF-018-017-N.jpg","img/neutralC/CFD-WF-245-084-N.jpg","1","1","1","1","1","1","0.470620899926871","0.480224099941552","0.464048899943009","1","1","1","1","1","1","1","1","1"
"250041","img/neutralC/CFD-WF-245-084-N.jpg","img/neutralC/CFD-WF-226-095-N.jpg","img/neutralC/CFD-LF-215-157-N.jpg","1","1","1","1","1","0","0.464048899943009","0.470620899926871","0.587272900156677","1","1","1","1","1","1","1","1","1"
"250041","img/neutralC/CFD-LF-215-157-N.jpg","img/neutralC/CFD-WF-245-084-N.jpg","img/neutralC/CFD-BF-254-201-N.jpg","1","1","1","0","1","0","0.587272900156677","0.464048899943009","0.492203299887478","1","1","1","1","1","1","1","1","1"
"250041","img/neutralC/CFD-BF-254-201-N.jpg","img/neutralC/CFD-LF-215-157-N.jpg","img/neutralC/CFD-WM-237-052-N.jpg","1","1","1","0","0","1","0.492203299887478","0.587272900156677","0.439167600125074","1","1","1","1","1","1","1","1","1"
"250041","img/neutralC/CFD-WM-237-052-N.jpg","img/neutralC/CFD-BF-254-201-N.jpg","img/neutralC/CFD-WM-009-002-N.jpg","1","1","1","1","0","0","0.439167600125074","0.492203299887478","0.492059399839491","1","1","1","1","1","1","1","1","1"
"250041","img/neutralC/CFD-WM-009-002-N.jpg","img/neutralC/CFD-WM-237-052-N.jpg","img/neutralC/CFD-WF-027-003-N.jpg","1","1","1","0","1","1","0.492059399839491","0.439167600125074","0.318209799937904","1","1","1","1","1","1","1","1","1"
"250041","img/neutralC/CFD-WF-027-003-N.jpg","img/neutralC/CFD-WM-009-002-N.jpg","img/neutralC/CFD-WM-013-001-N.jpg","1","1","1","1","0","1","0.318209799937904","0.492059399839491","0.437803100096062","1","1","1","1","1","1","1","1","1"
"250041","img/neutralC/CFD-WM-013-001-N.jpg","img/neutralC/CFD-WF-027-003-N.jpg","img/neutralC/CFD-IF-629-234-N.jpg","1","1","1","1","1","0","0.437803100096062","0.318209799937904","0.674375199945644","1","1","1","1","1","1","1","1","1"
"250041","img/neutralC/CFD-IF-629-234-N.jpg","img/neutralC/CFD-WM-013-001-N.jpg","img/neutralC/CFD-IM-700-009-N.jpg","1","1","1","0","1","1","0.674375199945644","0.437803100096062","0.479362800018862","1","1","1","1","1","1","1","1","1"
"250041","img/neutralC/CFD-IM-700-009-N.jpg","img/neutralC/CFD-IF-629-234-N.jpg","img/neutralC/CFD-BM-200-046-N.jpg","1","1","1","1","0","0","0.479362800018862","0.674375199945644","0.571833899943158","1","1","1","1","1","1","1","1","1"
"250041","img/neutralC/CFD-BM-200-046-N.jpg","img/neutralC/CFD-IM-700-009-N.jpg","img/neutralC/CFD-WM-201-063-N.jpg","1","1","1","0","1","1","0.571833899943158","0.479362800018862","0.447987199993804","1","1","1","1","1","1","1","1","1"
"250041","img/neutralC/CFD-WM-201-063-N.jpg","img/neutralC/CFD-BM-200-046-N.jpg","img/neutralC/CFD-WF-238-023-N.jpg","1","1","1","1","0","0","0.447987199993804","0.571833899943158","0.532636699965224","1","1","1","1","1","1","1","1","1"
"250041","img/neutralC/CFD-WF-238-023-N.jpg","img/neutralC/CFD-WM-201-063-N.jpg","img/neutralC/CFD-WM-221-091-N.jpg","1","1","1","0","1","0","0.532636699965224","0.447987199993804","0.55101289995946","1","1","1","1","1","1","1","1","1"
"250041","img/neutralC/CFD-WM-221-091-N.jpg","img/neutralC/CFD-WF-238-023-N.jpg","img/neutralC/CFD-WM-255-219-N.jpg","1","1","1","0","0","0","0.55101289995946","0.532636699965224","0.510990099981427","1","1","1","1","1","1","1","1","1"
"250041","img/neutralC/CFD-WM-255-219-N.jpg","img/neutralC/CFD-WM-221-091-N.jpg","img/neutralC/CFD-WF-023-003-N.jpg","1","1","1","0","0","1","0.510990099981427","0.55101289995946","0.630340300034732","1","1","1","1","1","1","1","1","1"
"250041","img/neutralC/CFD-WF-023-003-N.jpg","img/neutralC/CFD-WM-255-219-N.jpg","img/neutralC/CFD-MM-321-021-N.jpg","1","1","1","1","0","0","0.630340300034732","0.510990099981427","0.58667099988088","1","1","1","1","1","1","1","1","1"
"250041","img/neutralC/CFD-MM-321-021-N.jpg","img/neutralC/CFD-WF-023-003-N.jpg","img/neutralC/CFD-LF-211-003-N.jpg","1","1","1","0","1","0","0.58667099988088","0.630340300034732","0.507157200016081","1","1","1","1","1","1","1","1","1"
"250041","img/neutralC/CFD-LF-211-003-N.jpg","img/neutralC/CFD-MM-321-021-N.jpg","img/neutralC/CFD-AF-232-078-N.jpg","1","1","1","0","0","1","0.507157200016081","0.58667099988088","0.465481500141323","1","1","1","1","1","1","1","1","1"
"250041","img/neutralC/CFD-AF-232-078-N.jpg","img/neutralC/CFD-LF-211-003-N.jpg","img/neutralC/CFD-IM-719-221-N.jpg","1","1","1","1","0","0","0.465481500141323","0.507157200016081","0.556922600138932","1","1","1","1","1","1","1","1","1"
"250041","img/neutralC/CFD-IM-719-221-N.jpg","img/neutralC/CFD-AF-232-078-N.jpg","img/neutralC/CFD-BM-023-029-N.jpg","1","1","1","0","1","1","0.556922600138932","0.465481500141323","0.455433600116521","1","1","1","1","1","1","1","1","1"
"250041","img/neutralC/CFD-BM-023-029-N.jpg","img/neutralC/CFD-IM-719-221-N.jpg","img/neutralC/CFD-BM-204-003-N.jpg","1","1","0","1","0","0","0.455433600116521","0.556922600138932","0.438485299935564","1","1","1","1","1","1","1","1","2"
"250041","img/neutralC/CFD-BM-204-003-N.jpg","img/neutralC/CFD-BM-023-029-N.jpg","img/neutralC/CFD-LM-253-075-N.jpg","0","1","1","0","1","0","0.438485299935564","0.455433600116521","0.958857000106946","1","1","1","1","1","1","2","1","1"
"250041","img/neutralC/CFD-LM-253-075-N.jpg","img/neutralC/CFD-BM-204-003-N.jpg","img/neutralC/CFD-AM-244-222-N.jpg","1","0","1","0","0","0","0.958857000106946","0.438485299935564","0.429354399908334","1","1","1","1","1","1","1","2","1"
"250041","img/neutralC/CFD-AM-244-222-N.jpg","img/neutralC/CFD-LM-253-075-N.jpg","img/neutralC/CFD-BF-018-039-N.jpg","1","1","1","0","0","1","0.429354399908334","0.958857000106946","0.526333200046793","1","1","1","1","1","1","1","1","1"
"250041","img/neutralC/CFD-BF-018-039-N.jpg","img/neutralC/CFD-AM-244-222-N.jpg","img/neutralC/CFD-IM-627-178-N.jpg","1","1","1","1","0","1","0.526333200046793","0.429354399908334","0.498839200008661","1","1","1","1","1","1","1","1","1"
"250041","img/neutralC/CFD-IM-627-178-N.jpg","img/neutralC/CFD-BF-018-039-N.jpg","img/neutralC/CFD-BF-218-207-N.jpg","1","1","1","1","1","1","0.498839200008661","0.526333200046793","0.526078699855134","1","1","1","1","1","1","1","1","1"
"250041","img/neutralC/CFD-BF-218-207-N.jpg","img/neutralC/CFD-IM-627-178-N.jpg","img/neutralC/CFD-AF-221-147-N.jpg","1","1","1","1","1","0","0.526078699855134","0.498839200008661","0.428992700064555","1","1","1","1","1","1","1","1","1"
"250041","img/neutralC/CFD-AF-221-147-N.jpg","img/neutralC/CFD-BF-218-207-N.jpg",NA,"1","1",NA,"0","1",NA,"0.428992700064555","0.526078699855134",NA,"1","1",NA,"1","1",NA,"1","1",NA
"250041","img/neutralC/CFD-LF-201-035-N.jpg",NA,"img/neutralC/CFD-MF-300-002-N.jpg","1",NA,"0","1",NA,"0","0.452370600076392",NA,"0.381964299827814","1",NA,"1","1",NA,"1","1",NA,"2"
"250041","img/neutralC/CFD-MF-300-002-N.jpg","img/neutralC/CFD-LF-201-035-N.jpg","img/neutralC/CFD-AF-229-160-N.jpg","0","1","1","0","1","0","0.381964299827814","0.452370600076392","0.458413500105962","1","1","1","1","1","1","2","1","1"
"250041","img/neutralC/CFD-AF-229-160-N.jpg","img/neutralC/CFD-MF-300-002-N.jpg","img/neutralC/CFD-MF-329-001-N.jpg","1","0","1","0","0","0","0.458413500105962","0.381964299827814","0.455953600117937","1","1","1","1","1","1","1","2","1"
"250041","img/neutralC/CFD-MF-329-001-N.jpg","img/neutralC/CFD-AF-229-160-N.jpg","img/neutralC/CFD-MM-304-002-N.jpg","1","1","1","0","0","1","0.455953600117937","0.458413500105962","0.411977699957788","1","1","1","1","1","1","1","1","1"
"250041","img/neutralC/CFD-MM-304-002-N.jpg","img/neutralC/CFD-MF-329-001-N.jpg","img/neutralC/CFD-LF-226-174-N.jpg","1","1","1","1","0","0","0.411977699957788","0.455953600117937","0.435240100137889","1","1","1","1","1","1","1","1","1"
"250041","img/neutralC/CFD-LF-226-174-N.jpg","img/neutralC/CFD-MM-304-002-N.jpg","img/neutralC/CFD-BF-224-002-N.jpg","1","1","1","0","1","1","0.435240100137889","0.411977699957788","0.516934200190008","1","1","1","1","1","1","1","1","1"
"250041","img/neutralC/CFD-BF-224-002-N.jpg","img/neutralC/CFD-LF-226-174-N.jpg","img/neutralC/CFD-WM-024-015-N.jpg","1","1","1","1","0","1","0.516934200190008","0.435240100137889","0.326118299970403","1","1","1","1","1","1","1","1","1"
"250041","img/neutralC/CFD-WM-024-015-N.jpg","img/neutralC/CFD-BF-224-002-N.jpg","img/neutralC/CFD-BF-043-003-N.jpg","1","1","1","1","1","0","0.326118299970403","0.516934200190008","0.432850299868733","1","1","1","1","1","1","1","1","1"
"250041","img/neutralC/CFD-BF-043-003-N.jpg","img/neutralC/CFD-WM-024-015-N.jpg","img/neutralC/CFD-AF-215-70-N.jpg","1","1","1","0","1","0","0.432850299868733","0.326118299970403","0.422194399870932","1","1","1","1","1","1","1","1","1"
"250041","img/neutralC/CFD-AF-215-70-N.jpg","img/neutralC/CFD-BF-043-003-N.jpg","img/neutralC/CFD-LM-217-162-N.jpg","1","1","0","0","0","0","0.422194399870932","0.432850299868733","0.309896299848333","1","1","1","1","1","1","1","1","2"
"250041","img/neutralC/CFD-LM-217-162-N.jpg","img/neutralC/CFD-AF-215-70-N.jpg","img/neutralC/CFD-IF-619-197-N.jpg","0","1","1","0","0","0","0.309896299848333","0.422194399870932","0.616264999844134","1","1","1","1","1","1","2","1","1"
"250041","img/neutralC/CFD-IF-619-197-N.jpg","img/neutralC/CFD-LM-217-162-N.jpg","img/neutralC/CFD-AM-236-090-N.jpg","1","0","1","0","0","1","0.616264999844134","0.309896299848333","0.56103240000084","1","1","1","1","1","1","1","2","1"
"250041","img/neutralC/CFD-AM-236-090-N.jpg","img/neutralC/CFD-IF-619-197-N.jpg","img/neutralC/CFD-MF-327-002-N.jpg","1","1","1","1","0","0","0.56103240000084","0.616264999844134","0.573181899962947","1","1","1","1","1","1","1","1","1"
"250041","img/neutralC/CFD-MF-327-002-N.jpg","img/neutralC/CFD-AM-236-090-N.jpg","img/neutralC/CFD-IM-685-004-N.jpg","1","1","1","0","1","1","0.573181899962947","0.56103240000084","0.428984900005162","1","1","1","1","1","1","1","1","1"
"250041","img/neutralC/CFD-IM-685-004-N.jpg","img/neutralC/CFD-MF-327-002-N.jpg","img/neutralC/CFD-MF-340-026-N.jpg","1","1","1","1","0","1","0.428984900005162","0.573181899962947","0.370073599973693","1","1","1","1","1","1","1","1","1"
"250041","img/neutralC/CFD-MF-340-026-N.jpg","img/neutralC/CFD-IM-685-004-N.jpg","img/neutralC/CFD-IF-608-390-N.jpg","1","1","1","1","1","1","0.370073599973693","0.428984900005162","0.46209489996545","1","1","1","1","1","1","1","1","1"
"250041","img/neutralC/CFD-IF-608-390-N.jpg","img/neutralC/CFD-MF-340-026-N.jpg","img/neutralC/CFD-IM-637-007-N.jpg","1","1","1","1","1","0","0.46209489996545","0.370073599973693","0.433304999954998","1","1","1","1","1","1","1","1","1"
"250041","img/neutralC/CFD-IM-637-007-N.jpg","img/neutralC/CFD-IF-608-390-N.jpg","img/neutralC/CFD-IM-604-014-N.jpg","1","1","1","0","1","0","0.433304999954998","0.46209489996545","0.744980199960992","1","1","1","1","1","1","1","1","1"
"250041","img/neutralC/CFD-IM-604-014-N.jpg","img/neutralC/CFD-IM-637-007-N.jpg","img/neutralC/CFD-WM-232-070-N.jpg","1","1","1","0","0","0","0.744980199960992","0.433304999954998","0.51750549999997","1","1","1","1","1","1","1","1","1"
"250041","img/neutralC/CFD-WM-232-070-N.jpg","img/neutralC/CFD-IM-604-014-N.jpg","img/neutralC/CFD-BF-051-035-N.jpg","1","1","1","0","0","0","0.51750549999997","0.744980199960992","0.428840400185436","1","1","1","1","1","1","1","1","1"
"250041","img/neutralC/CFD-BF-051-035-N.jpg","img/neutralC/CFD-WM-232-070-N.jpg","img/neutralC/CFD-WF-217-085-N.jpg","1","1","1","0","0","1","0.428840400185436","0.51750549999997","0.375604199944064","1","1","1","1","1","1","1","1","1"
"250041","img/neutralC/CFD-WF-217-085-N.jpg","img/neutralC/CFD-BF-051-035-N.jpg","img/neutralC/CFD-BM-243-218-N.jpg","1","1","1","1","0","1","0.375604199944064","0.428840400185436","0.407848499948159","1","1","1","1","1","1","1","1","1"
"250041","img/neutralC/CFD-BM-243-218-N.jpg","img/neutralC/CFD-WF-217-085-N.jpg","img/neutralC/CFD-AF-254-167-N.jpg","1","1","1","1","1","1","0.407848499948159","0.375604199944064","0.413414800073951","1","1","1","1","1","1","1","1","1"
"250041","img/neutralC/CFD-AF-254-167-N.jpg","img/neutralC/CFD-BM-243-218-N.jpg","img/neutralC/CFD-WF-212-050-N.jpg","1","1","1","1","1","0","0.413414800073951","0.407848499948159","0.776016399962828","1","1","1","1","1","1","1","1","1"
"250041","img/neutralC/CFD-WF-212-050-N.jpg","img/neutralC/CFD-AF-254-167-N.jpg","img/neutralC/CFD-WF-008-002-N.jpg","1","1","1","0","1","1","0.776016399962828","0.413414800073951","0.66682570008561","1","1","1","1","1","1","1","1","1"
"250041","img/neutralC/CFD-WF-008-002-N.jpg","img/neutralC/CFD-WF-212-050-N.jpg","img/neutralC/CFD-IM-709-103-N.jpg","1","1","1","1","0","0","0.66682570008561","0.776016399962828","0.448616900015622","1","1","1","1","1","1","1","1","1"
"250041","img/neutralC/CFD-IM-709-103-N.jpg","img/neutralC/CFD-WF-008-002-N.jpg","img/neutralC/CFD-IM-675-015-N.jpg","1","1","1","0","1","1","0.448616900015622","0.66682570008561","0.545386800076813","1","1","1","1","1","1","1","1","1"
"250041","img/neutralC/CFD-IM-675-015-N.jpg","img/neutralC/CFD-IM-709-103-N.jpg","img/neutralC/CFD-WM-213-076-N.jpg","1","1","1","1","0","1","0.545386800076813","0.448616900015622","0.497575799934566","1","1","1","1","1","1","1","1","1"
"250041","img/neutralC/CFD-WM-213-076-N.jpg","img/neutralC/CFD-IM-675-015-N.jpg","img/neutralC/CFD-WF-012-002-N.jpg","1","1","1","1","1","1","0.497575799934566","0.545386800076813","0.389090799959376","1","1","1","1","1","1","1","1","1"
"250041","img/neutralC/CFD-WF-012-002-N.jpg","img/neutralC/CFD-WM-213-076-N.jpg","img/neutralC/CFD-BM-039-029-N.jpg","1","1","1","1","1","1","0.389090799959376","0.497575799934566","0.413943000137806","1","1","1","1","1","1","1","1","1"
"250041","img/neutralC/CFD-BM-039-029-N.jpg","img/neutralC/CFD-WF-012-002-N.jpg","img/neutralC/CFD-WF-248-129-N.jpg","1","1","1","1","1","0","0.413943000137806","0.389090799959376","0.536257800180465","1","1","1","1","1","1","1","1","1"
"250041","img/neutralC/CFD-WF-248-129-N.jpg","img/neutralC/CFD-BM-039-029-N.jpg",NA,"1","1",NA,"0","1",NA,"0.536257800180465","0.413943000137806",NA,"1","1",NA,"1","1",NA,"1","1",NA
"250041","img/neutralC/CFD-BF-039-031-N.jpg",NA,"img/neutralC/CFD-IF-710-016-N.jpg","1",NA,"1","1",NA,"0","0.4558301998768",NA,"0.456323300022632","1",NA,"1","1",NA,"1","1",NA,"1"
"250041","img/neutralC/CFD-IF-710-016-N.jpg","img/neutralC/CFD-BF-039-031-N.jpg","img/neutralC/CFD-IF-634-382-N.jpg","1","1","1","0","1","1","0.456323300022632","0.4558301998768","0.466975899878889","1","1","1","1","1","1","1","1","1"
"250041","img/neutralC/CFD-IF-634-382-N.jpg","img/neutralC/CFD-IF-710-016-N.jpg","img/neutralC/CFD-WF-250-167-N.jpg","1","1","1","1","0","1","0.466975899878889","0.456323300022632","0.337996999965981","1","1","1","1","1","1","1","1","1"
"250041","img/neutralC/CFD-WF-250-167-N.jpg","img/neutralC/CFD-IF-634-382-N.jpg","img/neutralC/CFD-LF-214-090-N.jpg","1","1","1","1","1","0","0.337996999965981","0.466975899878889","0.507038700161502","1","1","1","1","1","1","1","1","1"
"250041","img/neutralC/CFD-LF-214-090-N.jpg","img/neutralC/CFD-WF-250-167-N.jpg","img/neutralC/CFD-LF-203-066-N.jpg","1","1","1","0","1","0","0.507038700161502","0.337996999965981","0.566498900065199","1","1","1","1","1","1","1","1","1"
"250041","img/neutralC/CFD-LF-203-066-N.jpg","img/neutralC/CFD-LF-214-090-N.jpg","img/neutralC/CFD-MM-316-156-N.jpg","1","1","1","0","0","1","0.566498900065199","0.507038700161502","0.410364400129765","1","1","1","1","1","1","1","1","1"
"250041","img/neutralC/CFD-MM-316-156-N.jpg","img/neutralC/CFD-LF-203-066-N.jpg","img/neutralC/CFD-LM-218-183-N.jpg","1","1","1","1","0","1","0.410364400129765","0.566498900065199","0.339619500096887","1","1","1","1","1","1","1","1","1"
"250041","img/neutralC/CFD-LM-218-183-N.jpg","img/neutralC/CFD-MM-316-156-N.jpg","img/neutralC/CFD-IM-651-308-N.jpg","1","1","1","1","1","0","0.339619500096887","0.410364400129765","0.414113200036809","1","1","1","1","1","1","1","1","1"
"250041","img/neutralC/CFD-IM-651-308-N.jpg","img/neutralC/CFD-LM-218-183-N.jpg","img/neutralC/CFD-BF-213-188-N.jpg","1","1","1","0","1","1","0.414113200036809","0.339619500096887","0.450387499993667","1","1","1","1","1","1","1","1","1"
"250041","img/neutralC/CFD-BF-213-188-N.jpg","img/neutralC/CFD-IM-651-308-N.jpg","img/neutralC/CFD-BM-019-002-N.jpg","1","1","1","1","0","0","0.450387499993667","0.414113200036809","0.434525300050154","1","1","1","1","1","1","1","1","1"
"250041","img/neutralC/CFD-BM-019-002-N.jpg","img/neutralC/CFD-BF-213-188-N.jpg","img/neutralC/CFD-AF-231-357-N.jpg","1","1","1","0","1","1","0.434525300050154","0.450387499993667","0.404554900014773","1","1","1","1","1","1","1","1","1"
"250041","img/neutralC/CFD-AF-231-357-N.jpg","img/neutralC/CFD-BM-019-002-N.jpg","img/neutralC/CFD-LF-224-176-N.jpg","1","1","0","1","0","0","0.404554900014773","0.434525300050154","0.313431799877435","1","1","1","1","1","1","1","1","2"
"250041","img/neutralC/CFD-LF-224-176-N.jpg","img/neutralC/CFD-AF-231-357-N.jpg","img/neutralC/CFD-BF-029-031-N.jpg","0","1","1","0","1","1","0.313431799877435","0.404554900014773","0.466298699844629","1","1","1","1","1","1","2","1","1"
"250041","img/neutralC/CFD-BF-029-031-N.jpg","img/neutralC/CFD-LF-224-176-N.jpg","img/neutralC/CFD-AM-212-050-N.jpg","1","0","1","1","0","1","0.466298699844629","0.313431799877435","0.398150500142947","1","1","1","1","1","1","1","2","1"
"250041","img/neutralC/CFD-AM-212-050-N.jpg","img/neutralC/CFD-BF-029-031-N.jpg","img/neutralC/CFD-LF-230-203-N.jpg","1","1","1","1","1","0","0.398150500142947","0.466298699844629","0.513268500100821","1","1","1","1","1","1","1","1","1"
"250041","img/neutralC/CFD-LF-230-203-N.jpg","img/neutralC/CFD-AM-212-050-N.jpg","img/neutralC/CFD-IF-693-172-N.jpg","1","1","1","0","1","0","0.513268500100821","0.398150500142947","0.462619700003415","1","1","1","1","1","1","1","1","1"
"250041","img/neutralC/CFD-IF-693-172-N.jpg","img/neutralC/CFD-LF-230-203-N.jpg","img/neutralC/CFD-IM-684-008-N.jpg","1","1","1","0","0","1","0.462619700003415","0.513268500100821","0.405798599822447","1","1","1","1","1","1","1","1","1"
"250041","img/neutralC/CFD-IM-684-008-N.jpg","img/neutralC/CFD-IF-693-172-N.jpg","img/neutralC/CFD-WF-213-031-N.jpg","1","1","1","1","0","1","0.405798599822447","0.462619700003415","0.357014399953187","1","1","1","1","1","1","1","1","1"
"250041","img/neutralC/CFD-WF-213-031-N.jpg","img/neutralC/CFD-IM-684-008-N.jpg","img/neutralC/CFD-WF-224-099-N.jpg","1","1","0","1","1","0","0.357014399953187","0.405798599822447","0.437000999925658","1","1","1","1","1","1","1","1","2"
"250041","img/neutralC/CFD-WF-224-099-N.jpg","img/neutralC/CFD-WF-213-031-N.jpg","img/neutralC/CFD-MF-337-026-N.jpg","0","1","1","0","1","1","0.437000999925658","0.357014399953187","0.469462600070983","1","1","1","1","1","1","2","1","1"
"250041","img/neutralC/CFD-MF-337-026-N.jpg","img/neutralC/CFD-WF-224-099-N.jpg","img/neutralC/CFD-WM-021-001-N.jpg","1","0","1","1","0","1","0.469462600070983","0.437000999925658","0.529647799907252","1","1","1","1","1","1","1","2","1"
"250041","img/neutralC/CFD-WM-021-001-N.jpg","img/neutralC/CFD-MF-337-026-N.jpg","img/neutralC/CFD-BF-205-141-N.jpg","1","1","1","1","1","0","0.529647799907252","0.469462600070983","0.473651600070298","1","1","1","1","1","1","1","1","1"
"250041","img/neutralC/CFD-BF-205-141-N.jpg","img/neutralC/CFD-WM-021-001-N.jpg","img/neutralC/CFD-BM-041-035-N.jpg","1","1","1","0","1","0","0.473651600070298","0.529647799907252","0.396497100125998","1","1","1","1","1","1","1","1","1"
"250041","img/neutralC/CFD-BM-041-035-N.jpg","img/neutralC/CFD-BF-205-141-N.jpg","img/neutralC/CFD-LM-215-247-N.jpg","1","1","1","0","0","0","0.396497100125998","0.473651600070298","0.451019999803975","1","1","1","1","1","1","1","1","1"
"250041","img/neutralC/CFD-LM-215-247-N.jpg","img/neutralC/CFD-BM-041-035-N.jpg","img/neutralC/CFD-WM-011-002-N.jpg","1","1","1","0","0","0","0.451019999803975","0.396497100125998","0.663711900124326","1","1","1","1","1","1","1","1","1"
"250041","img/neutralC/CFD-WM-011-002-N.jpg","img/neutralC/CFD-LM-215-247-N.jpg","img/neutralC/CFD-AM-201-076-N.jpg","1","1","1","0","0","1","0.663711900124326","0.451019999803975","0.557892400072888","1","1","1","1","1","1","1","1","1"
"250041","img/neutralC/CFD-AM-201-076-N.jpg","img/neutralC/CFD-WM-011-002-N.jpg","img/neutralC/CFD-BM-033-003-N.jpg","1","1","0","1","0","0","0.557892400072888","0.663711900124326","0.384751999983564","1","1","1","1","1","1","1","1","2"
"250041","img/neutralC/CFD-BM-033-003-N.jpg","img/neutralC/CFD-AM-201-076-N.jpg","img/neutralC/CFD-BM-239-136-N.jpg","0","1","1","0","1","1","0.384751999983564","0.557892400072888","0.426695700036362","1","1","1","1","1","1","2","1","1"
"250041","img/neutralC/CFD-BM-239-136-N.jpg","img/neutralC/CFD-BM-033-003-N.jpg","img/neutralC/CFD-LF-205-100-N.jpg","1","0","1","1","0","1","0.426695700036362","0.384751999983564","0.479034400079399","1","1","1","1","1","1","1","2","1"
"250041","img/neutralC/CFD-LF-205-100-N.jpg","img/neutralC/CFD-BM-239-136-N.jpg","img/neutralC/CFD-WM-041-021-N.jpg","1","1","1","1","1","0","0.479034400079399","0.426695700036362","0.379208099795505","1","1","1","1","1","1","1","1","1"
"250041","img/neutralC/CFD-WM-041-021-N.jpg","img/neutralC/CFD-LF-205-100-N.jpg","img/neutralC/CFD-BF-253-202-N.jpg","1","1","1","0","1","0","0.379208099795505","0.479034400079399","0.492168700089678","1","1","1","1","1","1","1","1","1"
"250041","img/neutralC/CFD-BF-253-202-N.jpg","img/neutralC/CFD-WM-041-021-N.jpg",NA,"1","1",NA,"0","0",NA,"0.492168700089678","0.379208099795505",NA,"1","1",NA,"1","1",NA,"1","1",NA
"250041","img/neutralC/CFD-WM-227-099-N.jpg",NA,"img/neutralC/CFD-LF-247-051-N.jpg","1",NA,"1","1",NA,"1","0.448689099866897",NA,"0.385924700181931","1",NA,"1","1",NA,"1","1",NA,"1"
"250041","img/neutralC/CFD-LF-247-051-N.jpg","img/neutralC/CFD-WM-227-099-N.jpg","img/neutralC/CFD-BF-010-001-N.jpg","1","1","0","1","1","1","0.385924700181931","0.448689099866897","0.509325299877673","1","1","1","1","1","1","1","1","2"
"250041","img/neutralC/CFD-BF-010-001-N.jpg","img/neutralC/CFD-LF-247-051-N.jpg","img/neutralC/CFD-BM-026-002-N.jpg","0","1","1","1","1","0","0.509325299877673","0.385924700181931","0.507429599994794","1","1","1","1","1","1","2","1","1"
"250041","img/neutralC/CFD-BM-026-002-N.jpg","img/neutralC/CFD-BF-010-001-N.jpg","img/neutralC/CFD-IM-638-250-1-N.jpg","1","0","1","0","1","1","0.507429599994794","0.509325299877673","0.392587299924344","1","1","1","1","1","1","1","2","1"
"250041","img/neutralC/CFD-IM-638-250-1-N.jpg","img/neutralC/CFD-BM-026-002-N.jpg","img/neutralC/CFD-BM-005-003-N.jpg","1","1","0","1","0","1","0.392587299924344","0.507429599994794","0.340094600105658","1","1","1","1","1","1","1","1","2"
"250041","img/neutralC/CFD-BM-005-003-N.jpg","img/neutralC/CFD-IM-638-250-1-N.jpg","img/neutralC/CFD-WM-242-011-N.jpg","0","1","1","1","1","0","0.340094600105658","0.392587299924344","0.588404000038281","1","1","1","1","1","1","2","1","1"
"250041","img/neutralC/CFD-WM-242-011-N.jpg","img/neutralC/CFD-BM-005-003-N.jpg","img/neutralC/CFD-AF-202-122-N.jpg","1","0","1","0","1","1","0.588404000038281","0.340094600105658","0.412372400052845","1","1","1","1","1","1","1","2","1"
"250041","img/neutralC/CFD-AF-202-122-N.jpg","img/neutralC/CFD-WM-242-011-N.jpg","img/neutralC/CFD-BM-212-117-N.jpg","1","1","1","1","0","0","0.412372400052845","0.588404000038281","0.311915399972349","1","1","1","1","1","1","1","1","1"
"250041","img/neutralC/CFD-BM-212-117-N.jpg","img/neutralC/CFD-AF-202-122-N.jpg","img/neutralC/CFD-LM-219-295-N.jpg","1","1","1","0","1","1","0.311915399972349","0.412372400052845","0.349213699810207","1","1","1","1","1","1","1","1","1"
"250041","img/neutralC/CFD-LM-219-295-N.jpg","img/neutralC/CFD-BM-212-117-N.jpg","img/neutralC/CFD-IM-657-308-N.jpg","1","1","1","1","0","0","0.349213699810207","0.311915399972349","0.4846181999892","1","1","1","1","1","1","1","1","1"
"250041","img/neutralC/CFD-IM-657-308-N.jpg","img/neutralC/CFD-LM-219-295-N.jpg","img/neutralC/CFD-LF-242-121-N.jpg","1","1","1","0","1","0","0.4846181999892","0.349213699810207","0.516112100100145","1","1","1","1","1","1","1","1","1"
"250041","img/neutralC/CFD-LF-242-121-N.jpg","img/neutralC/CFD-IM-657-308-N.jpg","img/neutralC/CFD-BF-238-190-N.jpg","1","1","1","0","0","1","0.516112100100145","0.4846181999892","0.424889199901372","1","1","1","1","1","1","1","1","1"
"250041","img/neutralC/CFD-BF-238-190-N.jpg","img/neutralC/CFD-LF-242-121-N.jpg","img/neutralC/CFD-LF-250-169-N.jpg","1","1","1","1","0","1","0.424889199901372","0.516112100100145","0.529283700045198","1","1","1","1","1","1","1","1","1"
"250041","img/neutralC/CFD-LF-250-169-N.jpg","img/neutralC/CFD-BF-238-190-N.jpg","img/neutralC/CFD-WM-017-002-N.jpg","1","1","1","1","1","0","0.529283700045198","0.424889199901372","0.433043099939823","1","1","1","1","1","1","1","1","1"
"250041","img/neutralC/CFD-WM-017-002-N.jpg","img/neutralC/CFD-LF-250-169-N.jpg","img/neutralC/CFD-BM-231-155-N.jpg","1","1","1","0","1","1","0.433043099939823","0.529283700045198","0.446247000014409","1","1","1","1","1","1","1","1","1"
"250041","img/neutralC/CFD-BM-231-155-N.jpg","img/neutralC/CFD-WM-017-002-N.jpg","img/neutralC/CFD-WF-209-052-N.jpg","1","1","1","1","0","1","0.446247000014409","0.433043099939823","0.3517100000754","1","1","1","1","1","1","1","1","1"
"250041","img/neutralC/CFD-WF-209-052-N.jpg","img/neutralC/CFD-BM-231-155-N.jpg","img/neutralC/CFD-LF-245-166-N.jpg","1","1","1","1","1","1","0.3517100000754","0.446247000014409","0.333440699847415","1","1","1","1","1","1","1","1","1"
"250041","img/neutralC/CFD-LF-245-166-N.jpg","img/neutralC/CFD-WF-209-052-N.jpg","img/neutralC/CFD-IM-727-195-N.jpg","1","1","1","1","1","1","0.333440699847415","0.3517100000754","0.374319199938327","1","1","1","1","1","1","1","1","1"
"250041","img/neutralC/CFD-IM-727-195-N.jpg","img/neutralC/CFD-LF-245-166-N.jpg","img/neutralC/CFD-WM-258-125-N.jpg","1","1","0","1","1","0","0.374319199938327","0.333440699847415","0.475935599999502","1","1","1","1","1","1","1","1","2"
"250041","img/neutralC/CFD-WM-258-125-N.jpg","img/neutralC/CFD-IM-727-195-N.jpg","img/neutralC/CFD-IF-665-015-N.jpg","0","1","1","0","1","0","0.475935599999502","0.374319199938327","0.468302499968559","1","1","1","1","1","1","2","1","1"
"250041","img/neutralC/CFD-IF-665-015-N.jpg","img/neutralC/CFD-WM-258-125-N.jpg","img/neutralC/CFD-MF-313-002-N.jpg","1","0","1","0","0","0","0.468302499968559","0.475935599999502","0.384627999970689","1","1","1","1","1","1","1","2","1"
"250041","img/neutralC/CFD-MF-313-002-N.jpg","img/neutralC/CFD-IF-665-015-N.jpg","img/neutralC/CFD-BF-033-028-N.jpg","1","1","1","0","0","0","0.384627999970689","0.468302499968559","0.435622999910265","1","1","1","1","1","1","1","1","1"
"250041","img/neutralC/CFD-BF-033-028-N.jpg","img/neutralC/CFD-MF-313-002-N.jpg","img/neutralC/CFD-LM-233-171-N.jpg","1","1","1","0","0","0","0.435622999910265","0.384627999970689","0.526349999941885","1","1","1","1","1","1","1","1","1"
"250041","img/neutralC/CFD-LM-233-171-N.jpg","img/neutralC/CFD-BF-033-028-N.jpg","img/neutralC/CFD-AF-241-141-N.jpg","1","1","1","0","0","1","0.526349999941885","0.435622999910265","0.386190100107342","1","1","1","1","1","1","1","1","1"
"250041","img/neutralC/CFD-AF-241-141-N.jpg","img/neutralC/CFD-LM-233-171-N.jpg","img/neutralC/CFD-IM-686-097-N.jpg","1","1","1","1","0","0","0.386190100107342","0.526349999941885","0.358297300059348","1","1","1","1","1","1","1","1","1"
"250041","img/neutralC/CFD-IM-686-097-N.jpg","img/neutralC/CFD-AF-241-141-N.jpg","img/neutralC/CFD-IM-653-008-N.jpg","1","1","1","0","1","0","0.358297300059348","0.386190100107342","0.50267369998619","1","1","1","1","1","1","1","1","1"
"250041","img/neutralC/CFD-IM-653-008-N.jpg","img/neutralC/CFD-IM-686-097-N.jpg","img/neutralC/CFD-IF-620-218-N.jpg","1","1","1","0","0","0","0.50267369998619","0.358297300059348","0.475674699991942","1","1","1","1","1","1","1","1","1"
"250041","img/neutralC/CFD-IF-620-218-N.jpg","img/neutralC/CFD-IM-653-008-N.jpg","img/neutralC/CFD-LM-226-175-N.jpg","1","1","1","0","0","0","0.475674699991942","0.50267369998619","0.442297999979928","1","1","1","1","1","1","1","1","1"
"250041","img/neutralC/CFD-LM-226-175-N.jpg","img/neutralC/CFD-IF-620-218-N.jpg","img/neutralC/CFD-BM-018-001-N.jpg","1","1","1","0","0","1","0.442297999979928","0.475674699991942","0.43691649986431","1","1","1","1","1","1","1","1","1"
"250041","img/neutralC/CFD-BM-018-001-N.jpg","img/neutralC/CFD-LM-226-175-N.jpg","img/neutralC/CFD-AF-206-079-N.jpg","1","1","1","1","0","1","0.43691649986431","0.442297999979928","0.416046899976209","1","1","1","1","1","1","1","1","1"
"250041","img/neutralC/CFD-AF-206-079-N.jpg","img/neutralC/CFD-BM-018-001-N.jpg","img/neutralC/CFD-IM-617-174-N.jpg","1","1","1","1","1","0","0.416046899976209","0.43691649986431","0.483194599859416","1","1","1","1","1","1","1","1","1"
"250041","img/neutralC/CFD-IM-617-174-N.jpg","img/neutralC/CFD-AF-206-079-N.jpg",NA,"1","1",NA,"0","1",NA,"0.483194599859416","0.416046899976209",NA,"1","1",NA,"1","1",NA,"1","1",NA
"250041","img/neutralC/CFD-BM-036-003-N.jpg",NA,"img/neutralC/CFD-MF-301-024-N.jpg","1",NA,"1","1",NA,"0","0.42877439991571",NA,"0.418872300069779","1",NA,"1","1",NA,"1","1",NA,"1"
"250041","img/neutralC/CFD-MF-301-024-N.jpg","img/neutralC/CFD-BM-036-003-N.jpg","img/neutralC/CFD-BF-247-179-N.jpg","1","1","1","0","1","0","0.418872300069779","0.42877439991571","0.4602876000572","1","1","1","1","1","1","1","1","1"
"250041","img/neutralC/CFD-BF-247-179-N.jpg","img/neutralC/CFD-MF-301-024-N.jpg","img/neutralC/CFD-BF-044-034-N.jpg","1","1","0","0","0","0","0.4602876000572","0.418872300069779","0.344932199921459","1","1","1","1","1","1","1","1","2"
"250041","img/neutralC/CFD-BF-044-034-N.jpg","img/neutralC/CFD-BF-247-179-N.jpg","img/neutralC/CFD-IF-677-452-1-N.jpg","0","1","1","0","0","1","0.344932199921459","0.4602876000572","0.429502600105479","1","1","1","1","1","1","2","1","1"
"250041","img/neutralC/CFD-IF-677-452-1-N.jpg","img/neutralC/CFD-BF-044-034-N.jpg","img/neutralC/CFD-BM-207-024-N.jpg","1","0","1","1","0","1","0.429502600105479","0.344932199921459","0.305220999987796","1","1","1","1","1","1","1","2","1"
"250041","img/neutralC/CFD-BM-207-024-N.jpg","img/neutralC/CFD-IF-677-452-1-N.jpg","img/neutralC/CFD-IM-696-001-N.jpg","1","1","1","1","1","0","0.305220999987796","0.429502600105479","0.349022699985653","1","1","1","1","1","1","1","1","1"
"250041","img/neutralC/CFD-IM-696-001-N.jpg","img/neutralC/CFD-BM-207-024-N.jpg","img/neutralC/CFD-IM-707-105-N.jpg","1","1","1","0","1","1","0.349022699985653","0.305220999987796","0.370608400087804","1","1","1","1","1","1","1","1","1"
"250041","img/neutralC/CFD-IM-707-105-N.jpg","img/neutralC/CFD-IM-696-001-N.jpg","img/neutralC/CFD-WM-034-030-N.jpg","1","1","1","1","0","1","0.370608400087804","0.349022699985653","0.672354999929667","1","1","1","1","1","1","1","1","1"
"250041","img/neutralC/CFD-WM-034-030-N.jpg","img/neutralC/CFD-IM-707-105-N.jpg","img/neutralC/CFD-WF-234-086-N.jpg","1","1","1","1","1","1","0.672354999929667","0.370608400087804","0.369005599990487","1","1","1","1","1","1","1","1","1"
"250041","img/neutralC/CFD-WF-234-086-N.jpg","img/neutralC/CFD-WM-034-030-N.jpg","img/neutralC/CFD-IM-726-248-N.jpg","1","1","1","1","1","0","0.369005599990487","0.672354999929667","0.461233200039715","1","1","1","1","1","1","1","1","1"
"250041","img/neutralC/CFD-IM-726-248-N.jpg","img/neutralC/CFD-WF-234-086-N.jpg","img/neutralC/CFD-BF-011-002-N.jpg","1","1","1","0","1","1","0.461233200039715","0.369005599990487","0.507364500081167","1","1","1","1","1","1","1","1","1"
"250041","img/neutralC/CFD-BF-011-002-N.jpg","img/neutralC/CFD-IM-726-248-N.jpg","img/neutralC/CFD-IF-729-393-N.jpg","1","1","0","1","0","0","0.507364500081167","0.461233200039715","0.421234600013122","1","1","1","1","1","1","1","1","2"
"250041","img/neutralC/CFD-IF-729-393-N.jpg","img/neutralC/CFD-BF-011-002-N.jpg","img/neutralC/CFD-BF-236-177-N.jpg","0","1","1","0","1","0","0.421234600013122","0.507364500081167","0.263703899923712","1","1","1","1","1","1","2","1","1"
"250041","img/neutralC/CFD-BF-236-177-N.jpg","img/neutralC/CFD-IF-729-393-N.jpg","img/neutralC/CFD-IM-721-341-N.jpg","1","0","1","0","0","1","0.263703899923712","0.421234600013122","0.302122800145298","1","1","1","1","1","1","1","2","1"
"250041","img/neutralC/CFD-IM-721-341-N.jpg","img/neutralC/CFD-BF-236-177-N.jpg","img/neutralC/CFD-IF-742-103-N.jpg","1","1","1","1","0","1","0.302122800145298","0.263703899923712","0.427228700136766","1","1","1","1","1","1","1","1","1"
"250041","img/neutralC/CFD-IF-742-103-N.jpg","img/neutralC/CFD-IM-721-341-N.jpg","img/neutralC/CFD-BF-036-027-N.jpg","1","1","1","1","1","0","0.427228700136766","0.302122800145298","0.425410500029102","1","1","1","1","1","1","1","1","1"
"250041","img/neutralC/CFD-BF-036-027-N.jpg","img/neutralC/CFD-IF-742-103-N.jpg","img/neutralC/CFD-LF-204-133-N.jpg","1","1","1","0","1","1","0.425410500029102","0.427228700136766","0.429177799960598","1","1","1","1","1","1","1","1","1"
"250041","img/neutralC/CFD-LF-204-133-N.jpg","img/neutralC/CFD-BF-036-027-N.jpg","img/neutralC/CFD-WF-208-068-N.jpg","1","1","1","1","0","1","0.429177799960598","0.425410500029102","0.278362300014123","1","1","1","1","1","1","1","1","1"
"250041","img/neutralC/CFD-WF-208-068-N.jpg","img/neutralC/CFD-LF-204-133-N.jpg","img/neutralC/CFD-WF-233-112-N.jpg","1","1","1","1","1","1","0.278362300014123","0.429177799960598","0.638579800026491","1","1","1","1","1","1","1","1","1"
"250041","img/neutralC/CFD-WF-233-112-N.jpg","img/neutralC/CFD-WF-208-068-N.jpg","img/neutralC/CFD-LM-213-061-N.jpg","1","1","1","1","1","0","0.638579800026491","0.278362300014123","0.428479099879041","1","1","1","1","1","1","1","1","1"
"250041","img/neutralC/CFD-LM-213-061-N.jpg","img/neutralC/CFD-WF-233-112-N.jpg","img/neutralC/CFD-AM-230-150-N.jpg","1","1","1","0","1","0","0.428479099879041","0.638579800026491","0.529512499924749","1","1","1","1","1","1","1","1","1"
"250041","img/neutralC/CFD-AM-230-150-N.jpg","img/neutralC/CFD-LM-213-061-N.jpg","img/neutralC/CFD-BF-002-001-N.jpg","1","1","1","0","0","0","0.529512499924749","0.428479099879041","0.455097900005058","1","1","1","1","1","1","1","1","1"
"250041","img/neutralC/CFD-BF-002-001-N.jpg","img/neutralC/CFD-AM-230-150-N.jpg","img/neutralC/CFD-WM-248-036-N.jpg","1","1","1","0","0","1","0.455097900005058","0.529512499924749","0.357341399881989","1","1","1","1","1","1","1","1","1"
"250041","img/neutralC/CFD-WM-248-036-N.jpg","img/neutralC/CFD-BF-002-001-N.jpg","img/neutralC/CFD-BF-027-002-N.jpg","1","1","1","1","0","1","0.357341399881989","0.455097900005058","0.358028799993917","1","1","1","1","1","1","1","1","1"
"250041","img/neutralC/CFD-BF-027-002-N.jpg","img/neutralC/CFD-WM-248-036-N.jpg","img/neutralC/CFD-WM-014-002-N.jpg","1","1","0","1","1","0","0.358028799993917","0.357341399881989","0.370288299862295","1","1","1","1","1","1","1","1","2"
"250041","img/neutralC/CFD-WM-014-002-N.jpg","img/neutralC/CFD-BF-027-002-N.jpg","img/neutralC/CFD-WF-029-002-N.jpg","0","1","1","0","1","0","0.370288299862295","0.358028799993917","0.44867409998551","1","1","1","1","1","1","2","1","1"
"250041","img/neutralC/CFD-WF-029-002-N.jpg","img/neutralC/CFD-WM-014-002-N.jpg","img/neutralC/CFD-BF-006-017-N.jpg","1","0","1","0","0","0","0.44867409998551","0.370288299862295","0.374163399916142","1","1","1","1","1","1","1","2","1"
"250041","img/neutralC/CFD-BF-006-017-N.jpg","img/neutralC/CFD-WF-029-002-N.jpg","img/neutralC/CFD-BM-241-235-N.jpg","1","1","1","0","0","0","0.374163399916142","0.44867409998551","0.369038600008935","1","1","1","1","1","1","1","1","1"
"250041","img/neutralC/CFD-BM-241-235-N.jpg","img/neutralC/CFD-BF-006-017-N.jpg","img/neutralC/CFD-BF-214-308-N.jpg","1","1","1","0","0","1","0.369038600008935","0.374163399916142","0.546339499996975","1","1","1","1","1","1","1","1","1"
"250041","img/neutralC/CFD-BF-214-308-N.jpg","img/neutralC/CFD-BM-241-235-N.jpg","img/neutralC/CFD-BM-238-242-N.jpg","1","1","1","1","0","0","0.546339499996975","0.369038600008935","0.607457800069824","1","1","1","1","1","1","1","1","1"
"250041","img/neutralC/CFD-BM-238-242-N.jpg","img/neutralC/CFD-BF-214-308-N.jpg","img/neutralC/CFD-BF-207-004-N.jpg","1","1","1","0","1","1","0.607457800069824","0.546339499996975","0.461594799999148","1","1","1","1","1","1","1","1","1"
"250041","img/neutralC/CFD-BF-207-004-N.jpg","img/neutralC/CFD-BM-238-242-N.jpg",NA,"1","1",NA,"1","0",NA,"0.461594799999148","0.607457800069824",NA,"1","1",NA,"1","1",NA,"1","1",NA
"250041","img/neutralC/CFD-IF-625-225-N.jpg",NA,"img/neutralC/CFD-LF-208-127-N.jpg","1",NA,"1","0",NA,"0","0.564560200087726",NA,"0.529080700129271","1",NA,"1","1",NA,"1","1",NA,"1"
"250041","img/neutralC/CFD-LF-208-127-N.jpg","img/neutralC/CFD-IF-625-225-N.jpg","img/neutralC/CFD-WF-006-002-N.jpg","1","1","1","0","0","0","0.529080700129271","0.564560200087726","0.439900299999863","1","1","1","1","1","1","1","1","1"
"250041","img/neutralC/CFD-WF-006-002-N.jpg","img/neutralC/CFD-LF-208-127-N.jpg","img/neutralC/CFD-BM-003-003-N.jpg","1","1","0","0","0","0","0.439900299999863","0.529080700129271","0.371998199960217","1","1","1","1","1","1","1","1","2"
"250041","img/neutralC/CFD-BM-003-003-N.jpg","img/neutralC/CFD-WF-006-002-N.jpg","img/neutralC/CFD-WM-202-107-N.jpg","0","1","1","0","0","1","0.371998199960217","0.439900299999863","0.342062900075689","1","1","1","1","1","1","2","1","1"
"250041","img/neutralC/CFD-WM-202-107-N.jpg","img/neutralC/CFD-BM-003-003-N.jpg","img/neutralC/CFD-BM-013-002-N.jpg","1","0","1","1","0","1","0.342062900075689","0.371998199960217","0.435667800018564","1","1","1","1","1","1","1","2","1"
"250041","img/neutralC/CFD-BM-013-002-N.jpg","img/neutralC/CFD-WM-202-107-N.jpg","img/neutralC/CFD-IM-701-312-N.jpg","1","1","1","1","1","0","0.435667800018564","0.342062900075689","0.438801100011915","1","1","1","1","1","1","1","1","1"
"250041","img/neutralC/CFD-IM-701-312-N.jpg","img/neutralC/CFD-BM-013-002-N.jpg","img/neutralC/CFD-IF-673-389-N.jpg","1","1","1","0","1","0","0.438801100011915","0.435667800018564","0.43269420019351","1","1","1","1","1","1","1","1","1"
"250041","img/neutralC/CFD-IF-673-389-N.jpg","img/neutralC/CFD-IM-701-312-N.jpg","img/neutralC/CFD-LF-241-188-N.jpg","1","1","1","0","0","0","0.43269420019351","0.438801100011915","0.493497999850661","1","1","1","1","1","1","1","1","1"
"250041","img/neutralC/CFD-LF-241-188-N.jpg","img/neutralC/CFD-IF-673-389-N.jpg","img/neutralC/CFD-BM-010-003-N.jpg","1","1","1","0","0","0","0.493497999850661","0.43269420019351","0.419527099933475","1","1","1","1","1","1","1","1","1"
"250041","img/neutralC/CFD-BM-010-003-N.jpg","img/neutralC/CFD-LF-241-188-N.jpg","img/neutralC/CFD-BF-222-240-N.jpg","1","1","1","0","0","0","0.419527099933475","0.493497999850661","0.475583899999037","1","1","1","1","1","1","1","1","1"
"250041","img/neutralC/CFD-BF-222-240-N.jpg","img/neutralC/CFD-BM-010-003-N.jpg","img/neutralC/CFD-WF-033-002-N.jpg","1","1","1","0","0","1","0.475583899999037","0.419527099933475","0.38831609999761","1","1","1","1","1","1","1","1","1"
"250041","img/neutralC/CFD-WF-033-002-N.jpg","img/neutralC/CFD-BF-222-240-N.jpg","img/neutralC/CFD-BM-028-002-N.jpg","1","1","1","1","0","1","0.38831609999761","0.475583899999037","0.441078299889341","1","1","1","1","1","1","1","1","1"
"250041","img/neutralC/CFD-BM-028-002-N.jpg","img/neutralC/CFD-WF-033-002-N.jpg","img/neutralC/CFD-AF-227-207-N.jpg","1","1","1","1","1","1","0.441078299889341","0.38831609999761","0.384188200114295","1","1","1","1","1","1","1","1","1"
"250041","img/neutralC/CFD-AF-227-207-N.jpg","img/neutralC/CFD-BM-028-002-N.jpg","img/neutralC/CFD-AF-210-050-N.jpg","1","1","1","1","1","1","0.384188200114295","0.441078299889341","0.387089899973944","1","1","1","1","1","1","1","1","1"
"250041","img/neutralC/CFD-AF-210-050-N.jpg","img/neutralC/CFD-AF-227-207-N.jpg","img/neutralC/CFD-IF-744-114-N.jpg","1","1","1","1","1","0","0.387089899973944","0.384188200114295","0.486563400132582","1","1","1","1","1","1","1","1","1"
"250041","img/neutralC/CFD-IF-744-114-N.jpg","img/neutralC/CFD-AF-210-050-N.jpg","img/neutralC/CFD-IM-738-191-N.jpg","1","1","1","0","1","0","0.486563400132582","0.387089899973944","0.409995199879631","1","1","1","1","1","1","1","1","1"
"250041","img/neutralC/CFD-IM-738-191-N.jpg","img/neutralC/CFD-IF-744-114-N.jpg","img/neutralC/CFD-IM-659-359-N.jpg","1","1","1","0","0","0","0.409995199879631","0.486563400132582","0.440489300061017","1","1","1","1","1","1","1","1","1"
"250041","img/neutralC/CFD-IM-659-359-N.jpg","img/neutralC/CFD-IM-738-191-N.jpg","img/neutralC/CFD-WM-228-065-N.jpg","1","1","1","0","0","0","0.440489300061017","0.409995199879631","0.384849299909547","1","1","1","1","1","1","1","1","1"
"250041","img/neutralC/CFD-WM-228-065-N.jpg","img/neutralC/CFD-IM-659-359-N.jpg","img/neutralC/CFD-MF-312-002-N.jpg","1","1","0","0","0","1","0.384849299909547","0.440489300061017","0.495302000083029","1","1","1","1","1","1","1","1","2"
"250041","img/neutralC/CFD-MF-312-002-N.jpg","img/neutralC/CFD-WM-228-065-N.jpg","img/neutralC/CFD-WF-223-133-N.jpg","0","1","1","1","0","0","0.495302000083029","0.384849299909547","0.402983200037852","1","1","1","1","1","1","2","1","1"
"250041","img/neutralC/CFD-WF-223-133-N.jpg","img/neutralC/CFD-MF-312-002-N.jpg","img/neutralC/CFD-MF-336-016-N.jpg","1","0","1","0","1","1","0.402983200037852","0.495302000083029","0.525800900068134","1","1","1","1","1","1","1","2","1"
"250041","img/neutralC/CFD-MF-336-016-N.jpg","img/neutralC/CFD-WF-223-133-N.jpg","img/neutralC/CFD-LM-238-129-N.jpg","1","1","1","1","0","1","0.525800900068134","0.402983200037852","0.423930899938568","1","1","1","1","1","1","1","1","1"
"250041","img/neutralC/CFD-LM-238-129-N.jpg","img/neutralC/CFD-MF-336-016-N.jpg","img/neutralC/CFD-LF-210-220-N.jpg","1","1","1","1","1","1","0.423930899938568","0.525800900068134","0.394785600015894","1","1","1","1","1","1","1","1","1"
"250041","img/neutralC/CFD-LF-210-220-N.jpg","img/neutralC/CFD-LM-238-129-N.jpg","img/neutralC/CFD-BF-045-003-N.jpg","1","1","1","1","1","0","0.394785600015894","0.423930899938568","0.395476899808273","1","1","1","1","1","1","1","1","1"
"250041","img/neutralC/CFD-BF-045-003-N.jpg","img/neutralC/CFD-LF-210-220-N.jpg","img/neutralC/CFD-BF-004-014-N.jpg","1","1","1","0","1","1","0.395476899808273","0.394785600015894","0.334948499919847","1","1","1","1","1","1","1","1","1"
"250041","img/neutralC/CFD-BF-004-014-N.jpg","img/neutralC/CFD-BF-045-003-N.jpg","img/neutralC/CFD-AM-221-184-N.jpg","1","1","1","1","0","1","0.334948499919847","0.395476899808273","0.465743099804968","1","1","1","1","1","1","1","1","1"
"250041","img/neutralC/CFD-AM-221-184-N.jpg","img/neutralC/CFD-BF-004-014-N.jpg","img/neutralC/CFD-LF-225-164-N.jpg","1","1","1","1","1","1","0.465743099804968","0.334948499919847","0.65937940008007","1","1","1","1","1","1","1","1","1"
"250041","img/neutralC/CFD-LF-225-164-N.jpg","img/neutralC/CFD-AM-221-184-N.jpg","img/neutralC/CFD-BM-213-134-N.jpg","1","1","1","1","1","1","0.65937940008007","0.465743099804968","0.453245299868286","1","1","1","1","1","1","1","1","1"
"250041","img/neutralC/CFD-BM-213-134-N.jpg","img/neutralC/CFD-LF-225-164-N.jpg","img/neutralC/CFD-WM-254-152-N.jpg","1","1","1","1","1","1","0.453245299868286","0.65937940008007","0.427400999935344","1","1","1","1","1","1","1","1","1"
"250041","img/neutralC/CFD-WM-254-152-N.jpg","img/neutralC/CFD-BM-213-134-N.jpg","img/neutralC/CFD-AF-239-171-N.jpg","1","1","1","1","1","1","0.427400999935344","0.453245299868286","0.35729239997454","1","1","1","1","1","1","1","1","1"
"250041","img/neutralC/CFD-AF-239-171-N.jpg","img/neutralC/CFD-WM-254-152-N.jpg","img/neutralC/CFD-LM-247-095-N.jpg","1","1","0","1","1","0","0.35729239997454","0.427400999935344","0.422855000011623","1","1","1","1","1","1","1","1","2"
"250041","img/neutralC/CFD-LM-247-095-N.jpg","img/neutralC/CFD-AF-239-171-N.jpg",NA,"0","1",NA,"0","1",NA,"0.422855000011623","0.35729239997454",NA,"1","1",NA,"1","1",NA,"2","1",NA
"250041","img/neutralC/CFD-WM-012-001-N.jpg",NA,"img/neutralC/CFD-IM-648-337-N.jpg","1",NA,"1","1",NA,"0","0.466557299951091",NA,"0.495262800017372","1",NA,"1","1",NA,"1","1",NA,"1"
"250041","img/neutralC/CFD-IM-648-337-N.jpg","img/neutralC/CFD-WM-012-001-N.jpg","img/neutralC/CFD-MF-309-002-N.jpg","1","1","1","0","1","0","0.495262800017372","0.466557299951091","0.383587999967858","1","1","1","1","1","1","1","1","1"
"250041","img/neutralC/CFD-MF-309-002-N.jpg","img/neutralC/CFD-IM-648-337-N.jpg","img/neutralC/CFD-BF-041-001-N.jpg","1","1","1","0","0","1","0.383587999967858","0.495262800017372","0.39098190004006","1","1","1","1","1","1","1","1","1"
"250041","img/neutralC/CFD-BF-041-001-N.jpg","img/neutralC/CFD-MF-309-002-N.jpg","img/neutralC/CFD-WM-249-239-N.jpg","1","1","1","1","0","1","0.39098190004006","0.383587999967858","0.368167599895969","1","1","1","1","1","1","1","1","1"
"250041","img/neutralC/CFD-WM-249-239-N.jpg","img/neutralC/CFD-BF-041-001-N.jpg","img/neutralC/CFD-BF-202-109-N.jpg","1","1","1","1","1","1","0.368167599895969","0.39098190004006","0.50876779993996","1","1","1","1","1","1","1","1","1"
"250041","img/neutralC/CFD-BF-202-109-N.jpg","img/neutralC/CFD-WM-249-239-N.jpg","img/neutralC/CFD-LM-216-082-N.jpg","1","1","0","1","1","0","0.50876779993996","0.368167599895969","0.305551500059664","1","1","1","1","1","1","1","1","2"
"250041","img/neutralC/CFD-LM-216-082-N.jpg","img/neutralC/CFD-BF-202-109-N.jpg","img/neutralC/CFD-BM-251-013-N.jpg","0","1","1","0","1","1","0.305551500059664","0.50876779993996","0.442799599841237","1","1","1","1","1","1","2","1","1"
"250041","img/neutralC/CFD-BM-251-013-N.jpg","img/neutralC/CFD-LM-216-082-N.jpg","img/neutralC/CFD-IM-646-023-N.jpg","1","0","1","1","0","1","0.442799599841237","0.305551500059664","0.394652100047097","1","1","1","1","1","1","1","2","1"
"250041","img/neutralC/CFD-IM-646-023-N.jpg","img/neutralC/CFD-BM-251-013-N.jpg","img/neutralC/CFD-BM-205-001-N.jpg","1","1","1","1","1","0","0.394652100047097","0.442799599841237","0.267438699956983","1","1","1","1","1","1","1","1","1"
"250041","img/neutralC/CFD-BM-205-001-N.jpg","img/neutralC/CFD-IM-646-023-N.jpg","img/neutralC/CFD-AM-247-165-N.jpg","1","1","1","0","1","1","0.267438699956983","0.394652100047097","0.402449400164187","1","1","1","1","1","1","1","1","1"
"250041","img/neutralC/CFD-AM-247-165-N.jpg","img/neutralC/CFD-BM-205-001-N.jpg","img/neutralC/CFD-WF-228-196-N.jpg","1","1","1","1","0","0","0.402449400164187","0.267438699956983","0.653785499976948","1","1","1","1","1","1","1","1","1"
"250041","img/neutralC/CFD-WF-228-196-N.jpg","img/neutralC/CFD-AM-247-165-N.jpg","img/neutralC/CFD-MM-317-061-N.jpg","1","1","0","0","1","1","0.653785499976948","0.402449400164187","0.344929000129923","1","1","1","1","1","1","1","1","2"
"250041","img/neutralC/CFD-MM-317-061-N.jpg","img/neutralC/CFD-WF-228-196-N.jpg","img/neutralC/CFD-WF-005-010-N.jpg","0","1","1","1","0","0","0.344929000129923","0.653785499976948","0.500016799895093","1","1","1","1","1","1","2","1","1"
"250041","img/neutralC/CFD-WF-005-010-N.jpg","img/neutralC/CFD-MM-317-061-N.jpg","img/neutralC/CFD-WF-017-003-N.jpg","1","0","1","0","1","1","0.500016799895093","0.344929000129923","0.475508899893612","1","1","1","1","1","1","1","2","1"
"250041","img/neutralC/CFD-WF-017-003-N.jpg","img/neutralC/CFD-WF-005-010-N.jpg","img/neutralC/CFD-BF-212-315-N.jpg","1","1","1","1","0","1","0.475508899893612","0.500016799895093","0.393455300014466","1","1","1","1","1","1","1","1","1"
"250041","img/neutralC/CFD-BF-212-315-N.jpg","img/neutralC/CFD-WF-017-003-N.jpg","img/neutralC/CFD-BF-228-212-N.jpg","1","1","1","1","1","0","0.393455300014466","0.475508899893612","0.606291100149974","1","1","1","1","1","1","1","1","1"
"250041","img/neutralC/CFD-BF-228-212-N.jpg","img/neutralC/CFD-BF-212-315-N.jpg","img/neutralC/CFD-MF-335-002-N.jpg","1","1","1","0","1","0","0.606291100149974","0.393455300014466","0.697989400010556","1","1","1","1","1","1","1","1","1"
"250041","img/neutralC/CFD-MF-335-002-N.jpg","img/neutralC/CFD-BF-228-212-N.jpg","img/neutralC/CFD-BF-025-002-N.jpg","1","1","1","0","0","0","0.697989400010556","0.606291100149974","0.691402100026608","1","1","1","1","1","1","1","1","1"
"250041","img/neutralC/CFD-BF-025-002-N.jpg","img/neutralC/CFD-MF-335-002-N.jpg","img/neutralC/CFD-BM-248-128-N.jpg","1","1","1","0","0","0","0.691402100026608","0.697989400010556","0.523741099983454","1","1","1","1","1","1","1","1","1"
"250041","img/neutralC/CFD-BM-248-128-N.jpg","img/neutralC/CFD-BF-025-002-N.jpg","img/neutralC/CFD-LM-244-068-N.jpg","1","1","1","0","0","1","0.523741099983454","0.691402100026608","0.598694999935105","1","1","1","1","1","1","1","1","1"
"250041","img/neutralC/CFD-LM-244-068-N.jpg","img/neutralC/CFD-BM-248-128-N.jpg","img/neutralC/CFD-LM-201-057-N.jpg","1","1","1","1","0","1","0.598694999935105","0.523741099983454","0.477495400002226","1","1","1","1","1","1","1","1","1"
"250041","img/neutralC/CFD-LM-201-057-N.jpg","img/neutralC/CFD-LM-244-068-N.jpg","img/neutralC/CFD-WM-026-001-N.jpg","1","1","1","1","1","1","0.477495400002226","0.598694999935105","0.407531700097024","1","1","1","1","1","1","1","1","1"
"250041","img/neutralC/CFD-WM-026-001-N.jpg","img/neutralC/CFD-LM-201-057-N.jpg","img/neutralC/CFD-LM-214-165-N.jpg","1","1","1","1","1","1","0.407531700097024","0.477495400002226","0.448055199813098","1","1","1","1","1","1","1","1","1"
"250041","img/neutralC/CFD-LM-214-165-N.jpg","img/neutralC/CFD-WM-026-001-N.jpg","img/neutralC/CFD-IF-642-295-N.jpg","1","1","1","1","1","1","0.448055199813098","0.407531700097024","0.350479899905622","1","1","1","1","1","1","1","1","1"
"250041","img/neutralC/CFD-IF-642-295-N.jpg","img/neutralC/CFD-LM-214-165-N.jpg","img/neutralC/CFD-WM-006-002-N.jpg","1","1","1","1","1","0","0.350479899905622","0.448055199813098","0.362902699969709","1","1","1","1","1","1","1","1","1"
"250041","img/neutralC/CFD-WM-006-002-N.jpg","img/neutralC/CFD-IF-642-295-N.jpg","img/neutralC/CFD-WM-215-041-N.jpg","1","1","1","0","1","0","0.362902699969709","0.350479899905622","0.634228700073436","1","1","1","1","1","1","1","1","1"
"250041","img/neutralC/CFD-WM-215-041-N.jpg","img/neutralC/CFD-WM-006-002-N.jpg","img/neutralC/CFD-WF-240-083-N.jpg","1","1","0","0","0","0","0.634228700073436","0.362902699969709","0.405187800060958","1","1","1","1","1","1","1","1","2"
"250041","img/neutralC/CFD-WF-240-083-N.jpg","img/neutralC/CFD-WM-215-041-N.jpg","img/neutralC/CFD-LM-243-075-N.jpg","0","1","0","0","0","0","0.405187800060958","0.634228700073436","0.426442099967971","1","1","1","1","1","1","2","1","2"
"250041","img/neutralC/CFD-LM-243-075-N.jpg","img/neutralC/CFD-WF-240-083-N.jpg","img/neutralC/CFD-AF-240-206-N.jpg","0","0","1","0","0","0","0.426442099967971","0.405187800060958","0.511025699786842","1","1","1","1","1","1","2","2","1"
"250041","img/neutralC/CFD-AF-240-206-N.jpg","img/neutralC/CFD-LM-243-075-N.jpg","img/neutralC/CFD-WM-019-003-N.jpg","1","0","1","0","0","1","0.511025699786842","0.426442099967971","0.304070000071079","1","1","1","1","1","1","1","2","1"
"250041","img/neutralC/CFD-WM-019-003-N.jpg","img/neutralC/CFD-AF-240-206-N.jpg","img/neutralC/CFD-WM-212-097-N.jpg","1","1","1","1","0","0","0.304070000071079","0.511025699786842","0.42203569994308","1","1","1","1","1","1","1","1","1"
"250041","img/neutralC/CFD-WM-212-097-N.jpg","img/neutralC/CFD-WM-019-003-N.jpg",NA,"1","1",NA,"0","1",NA,"0.42203569994308","0.304070000071079",NA,"1","1",NA,"1","1",NA,"1","1",NA
"250041","img/neutralC/CFD-AM-225-102-N.jpg",NA,"img/neutralC/CFD-IM-669-111-N.jpg","1",NA,"1","0",NA,"1","0.445891299983486",NA,"0.371356799965724","1",NA,"1","1",NA,"1","1",NA,"1"
"250041","img/neutralC/CFD-IM-669-111-N.jpg","img/neutralC/CFD-AM-225-102-N.jpg","img/neutralC/CFD-BF-040-003-N.jpg","1","1","1","1","0","1","0.371356799965724","0.445891299983486","0.439159699948505","1","1","1","1","1","1","1","1","1"
"250041","img/neutralC/CFD-BF-040-003-N.jpg","img/neutralC/CFD-IM-669-111-N.jpg","img/neutralC/CFD-AM-233-236-N.jpg","1","1","1","1","1","1","0.439159699948505","0.371356799965724","0.266030799830332","1","1","1","1","1","1","1","1","1"
"250041","img/neutralC/CFD-AM-233-236-N.jpg","img/neutralC/CFD-BF-040-003-N.jpg","img/neutralC/CFD-BF-042-026-N.jpg","1","1","1","1","1","1","0.266030799830332","0.439159699948505","0.28070309991017","1","1","1","1","1","1","1","1","1"
"250041","img/neutralC/CFD-BF-042-026-N.jpg","img/neutralC/CFD-AM-233-236-N.jpg","img/neutralC/CFD-IF-732-260-N.jpg","1","1","1","1","1","0","0.28070309991017","0.266030799830332","0.392769599799067","1","1","1","1","1","1","1","1","1"
"250041","img/neutralC/CFD-IF-732-260-N.jpg","img/neutralC/CFD-BF-042-026-N.jpg","img/neutralC/CFD-MF-307-002-N.jpg","1","1","1","0","1","1","0.392769599799067","0.28070309991017","0.425005700206384","1","1","1","1","1","1","1","1","1"
"250041","img/neutralC/CFD-MF-307-002-N.jpg","img/neutralC/CFD-IF-732-260-N.jpg","img/neutralC/CFD-AM-245-111-N.jpg","1","1","1","1","0","1","0.425005700206384","0.392769599799067","0.324512700084597","1","1","1","1","1","1","1","1","1"
"250041","img/neutralC/CFD-AM-245-111-N.jpg","img/neutralC/CFD-MF-307-002-N.jpg","img/neutralC/CFD-BM-215-155-N.jpg","1","1","0","1","1","0","0.324512700084597","0.425005700206384","0.431614700006321","1","1","1","1","1","1","1","1","2"
"250041","img/neutralC/CFD-BM-215-155-N.jpg","img/neutralC/CFD-AM-245-111-N.jpg","img/neutralC/CFD-WF-235-121-N.jpg","0","1","1","0","1","0","0.431614700006321","0.324512700084597","0.511370700085536","1","1","1","1","1","1","2","1","1"
"250041","img/neutralC/CFD-WF-235-121-N.jpg","img/neutralC/CFD-BM-215-155-N.jpg","img/neutralC/CFD-LM-241-125-N.jpg","1","0","1","0","0","1","0.511370700085536","0.431614700006321","0.394298700150102","1","1","1","1","1","1","1","2","1"
"250041","img/neutralC/CFD-LM-241-125-N.jpg","img/neutralC/CFD-WF-235-121-N.jpg","img/neutralC/CFD-BF-217-189-N.jpg","1","1","0","1","0","0","0.394298700150102","0.511370700085536","0.333390100160614","1","1","1","1","1","1","1","1","2"
"250041","img/neutralC/CFD-BF-217-189-N.jpg","img/neutralC/CFD-LM-241-125-N.jpg","img/neutralC/CFD-AF-234-208-N.jpg","0","1","1","0","1","1","0.333390100160614","0.394298700150102","0.418996500084177","1","1","1","1","1","1","2","1","1"
"250041","img/neutralC/CFD-AF-234-208-N.jpg","img/neutralC/CFD-BF-217-189-N.jpg","img/neutralC/CFD-BM-004-002-N.jpg","1","0","1","1","0","0","0.418996500084177","0.333390100160614","0.547019299818203","1","1","1","1","1","1","1","2","1"
"250041","img/neutralC/CFD-BM-004-002-N.jpg","img/neutralC/CFD-AF-234-208-N.jpg","img/neutralC/CFD-AF-205-155-N.jpg","1","1","0","0","1","0","0.547019299818203","0.418996500084177","0.314929000101984","1","1","1","1","1","1","1","1","2"
"250041","img/neutralC/CFD-AF-205-155-N.jpg","img/neutralC/CFD-BM-004-002-N.jpg","img/neutralC/CFD-IM-632-097-N.jpg","0","1","1","0","0","0","0.314929000101984","0.547019299818203","0.43220610008575","1","1","1","1","1","1","2","1","1"
"250041","img/neutralC/CFD-IM-632-097-N.jpg","img/neutralC/CFD-AF-205-155-N.jpg","img/neutralC/CFD-WF-210-086-N.jpg","1","0","1","0","0","0","0.43220610008575","0.314929000101984","0.453814100008458","1","1","1","1","1","1","1","2","2"
"250041","img/neutralC/CFD-WF-210-086-N.jpg","img/neutralC/CFD-IM-632-097-N.jpg","img/neutralC/CFD-MF-302-027-N.jpg","1","1","0","0","0","0","0.453814100008458","0.43220610008575","0.282635799841955","1","1","1","1","1","1","2","1","2"
"250041","img/neutralC/CFD-MF-302-027-N.jpg","img/neutralC/CFD-WF-210-086-N.jpg","img/neutralC/CFD-IM-678-482-N.jpg","0","1","1","0","0","0","0.282635799841955","0.453814100008458","0.499812700087205","1","1","1","1","1","1","2","2","1"
"250041","img/neutralC/CFD-IM-678-482-N.jpg","img/neutralC/CFD-MF-302-027-N.jpg","img/neutralC/CFD-BF-206-143-N.jpg","1","0","1","0","0","1","0.499812700087205","0.282635799841955","0.442487000022084","1","1","1","1","1","1","1","2","1"
"250041","img/neutralC/CFD-BF-206-143-N.jpg","img/neutralC/CFD-IM-678-482-N.jpg","img/neutralC/CFD-LM-204-001-N.jpg","1","1","0","1","0","0","0.442487000022084","0.499812700087205","0.324496299959719","1","1","1","1","1","1","1","1","2"
"250041","img/neutralC/CFD-LM-204-001-N.jpg","img/neutralC/CFD-BF-206-143-N.jpg","img/neutralC/CFD-IM-635-010-N.jpg","0","1","1","0","1","1","0.324496299959719","0.442487000022084","0.374494400108233","1","1","1","1","1","1","2","1","1"
"250041","img/neutralC/CFD-IM-635-010-N.jpg","img/neutralC/CFD-LM-204-001-N.jpg","img/neutralC/CFD-WM-253-119-N.jpg","1","0","1","1","0","1","0.374494400108233","0.324496299959719","0.342763400170952","1","1","1","1","1","1","1","2","1"
"250041","img/neutralC/CFD-WM-253-119-N.jpg","img/neutralC/CFD-IM-635-010-N.jpg","img/neutralC/CFD-AF-213-126-N.jpg","1","1","1","1","1","1","0.342763400170952","0.374494400108233","0.404878000030294","1","1","1","1","1","1","1","1","1"
"250041","img/neutralC/CFD-AF-213-126-N.jpg","img/neutralC/CFD-WM-253-119-N.jpg","img/neutralC/CFD-WM-018-002-N.jpg","1","1","0","1","1","0","0.404878000030294","0.342763400170952","0.463016099995002","1","1","1","1","1","1","1","1","2"
"250041","img/neutralC/CFD-WM-018-002-N.jpg","img/neutralC/CFD-AF-213-126-N.jpg","img/neutralC/CFD-IF-636-011-N.jpg","0","1","1","0","1","1","0.463016099995002","0.404878000030294","0.384970400016755","1","1","1","1","1","1","2","1","1"
"250041","img/neutralC/CFD-IF-636-011-N.jpg","img/neutralC/CFD-WM-018-002-N.jpg","img/neutralC/CFD-AF-250-200-N.jpg","1","0","1","1","0","1","0.384970400016755","0.463016099995002","0.483900400111452","1","1","1","1","1","1","1","2","1"
"250041","img/neutralC/CFD-AF-250-200-N.jpg","img/neutralC/CFD-IF-636-011-N.jpg","img/neutralC/CFD-BF-235-168-N.jpg","1","1","1","1","1","1","0.483900400111452","0.384970400016755","0.405785499839112","1","1","1","1","1","1","1","1","1"
"250041","img/neutralC/CFD-BF-235-168-N.jpg","img/neutralC/CFD-AF-250-200-N.jpg","img/neutralC/CFD-BF-020-002-N.jpg","1","1","1","1","1","1","0.405785499839112","0.483900400111452","0.405600199941546","1","1","1","1","1","1","1","1","1"
"250041","img/neutralC/CFD-BF-020-002-N.jpg","img/neutralC/CFD-BF-235-168-N.jpg","img/neutralC/CFD-AF-246-242-N.jpg","1","1","0","1","1","0","0.405600199941546","0.405785499839112","0.316110600018874","1","1","1","1","1","1","1","1","2"
"250041","img/neutralC/CFD-AF-246-242-N.jpg","img/neutralC/CFD-BF-020-002-N.jpg","img/neutralC/CFD-AF-244-168-N.jpg","0","1","1","0","1","0","0.316110600018874","0.405600199941546","0.552511099958792","1","1","1","1","1","1","2","1","1"
"250041","img/neutralC/CFD-AF-244-168-N.jpg","img/neutralC/CFD-AF-246-242-N.jpg","img/neutralC/CFD-LF-239-148-N.jpg","1","0","1","0","0","0","0.552511099958792","0.316110600018874","0.551112500019372","1","1","1","1","1","1","1","2","1"
"250041","img/neutralC/CFD-LF-239-148-N.jpg","img/neutralC/CFD-AF-244-168-N.jpg",NA,"1","1",NA,"0","0",NA,"0.551112500019372","0.552511099958792",NA,"1","1",NA,"1","1",NA,"1","1",NA
"250041","img/neutralC/CFD-IM-615-167-N.jpg",NA,"img/neutralC/CFD-AF-237-223-N.jpg","0",NA,"0","0",NA,"0","0.438328900141641",NA,"0.514276999980211","1",NA,"1","1",NA,"1","2",NA,"2"
"250041","img/neutralC/CFD-AF-237-223-N.jpg","img/neutralC/CFD-IM-615-167-N.jpg","img/neutralC/CFD-IM-689-263-N.jpg","0","0","1","0","0","1","0.514276999980211","0.438328900141641","0.359309299848974","1","1","1","1","1","1","2","2","1"
"250041","img/neutralC/CFD-IM-689-263-N.jpg","img/neutralC/CFD-AF-237-223-N.jpg","img/neutralC/CFD-WF-243-148-N.jpg","1","0","1","1","0","0","0.359309299848974","0.514276999980211","0.460868200054392","1","1","1","1","1","1","1","2","1"
"250041","img/neutralC/CFD-WF-243-148-N.jpg","img/neutralC/CFD-IM-689-263-N.jpg","img/neutralC/CFD-WF-241-210-N.jpg","1","1","1","0","1","0","0.460868200054392","0.359309299848974","0.393790900008753","1","1","1","1","1","1","1","1","1"
"250041","img/neutralC/CFD-WF-241-210-N.jpg","img/neutralC/CFD-WF-243-148-N.jpg","img/neutralC/CFD-MM-306-010-N.jpg","1","1","1","0","0","0","0.393790900008753","0.460868200054392","0.477027399931103","1","1","1","1","1","1","1","1","1"
"250041","img/neutralC/CFD-MM-306-010-N.jpg","img/neutralC/CFD-WF-241-210-N.jpg","img/neutralC/CFD-AM-249-163-N.jpg","1","1","1","0","0","1","0.477027399931103","0.393790900008753","0.478776799980551","1","1","1","1","1","1","1","1","1"
"250041","img/neutralC/CFD-AM-249-163-N.jpg","img/neutralC/CFD-MM-306-010-N.jpg","img/neutralC/CFD-IF-676-017-N.jpg","1","1","1","1","0","1","0.478776799980551","0.477027399931103","0.378116500098258","1","1","1","1","1","1","1","1","1"
"250041","img/neutralC/CFD-IF-676-017-N.jpg","img/neutralC/CFD-AM-249-163-N.jpg","img/neutralC/CFD-LF-238-154-N.jpg","1","1","1","1","1","1","0.378116500098258","0.478776799980551","0.325130800018087","1","1","1","1","1","1","1","1","1"
"250041","img/neutralC/CFD-LF-238-154-N.jpg","img/neutralC/CFD-IF-676-017-N.jpg","img/neutralC/CFD-AM-219-101-N.jpg","1","1","0","1","1","0","0.325130800018087","0.378116500098258","0.362860399996862","1","1","1","1","1","1","1","1","2"
"250041","img/neutralC/CFD-AM-219-101-N.jpg","img/neutralC/CFD-LF-238-154-N.jpg","img/neutralC/CFD-WM-025-002-N.jpg","0","1","1","0","1","0","0.362860399996862","0.325130800018087","0.547275800025091","1","1","1","1","1","1","2","1","1"
"250041","img/neutralC/CFD-WM-025-002-N.jpg","img/neutralC/CFD-AM-219-101-N.jpg","img/neutralC/CFD-WM-028-003-N.jpg","1","0","1","0","0","1","0.547275800025091","0.362860399996862","0.339404199970886","1","1","1","1","1","1","1","2","1"
"250041","img/neutralC/CFD-WM-028-003-N.jpg","img/neutralC/CFD-WM-025-002-N.jpg","img/neutralC/CFD-BM-020-001-N.jpg","1","1","0","1","0","0","0.339404199970886","0.547275800025091","0.441503699868918","1","1","1","1","1","1","1","1","3"
"250041","img/neutralC/CFD-BM-020-001-N.jpg","img/neutralC/CFD-WM-028-003-N.jpg","img/neutralC/CFD-AM-243-212-N.jpg","0","1","1","0","1","1","0.441503699868918","0.339404199970886","0.397758400067687","1","1","1","1","1","1","3","1","1"
"250041","img/neutralC/CFD-AM-243-212-N.jpg","img/neutralC/CFD-BM-020-001-N.jpg","img/neutralC/CFD-MF-328-020-N.jpg","1","0","1","1","0","0","0.397758400067687","0.441503699868918","0.485268000047654","1","1","1","1","1","1","1","3","1"
"250041","img/neutralC/CFD-MF-328-020-N.jpg","img/neutralC/CFD-AM-243-212-N.jpg","img/neutralC/CFD-WM-023-001-N.jpg","1","1","1","0","1","0","0.485268000047654","0.397758400067687","0.535869800020009","1","1","1","1","1","1","1","1","1"
"250041","img/neutralC/CFD-WM-023-001-N.jpg","img/neutralC/CFD-MF-328-020-N.jpg","img/neutralC/CFD-BM-227-191-N.jpg","1","1","1","0","0","1","0.535869800020009","0.485268000047654","0.387958700070158","1","1","1","1","1","1","1","1","1"
"250041","img/neutralC/CFD-BM-227-191-N.jpg","img/neutralC/CFD-WM-023-001-N.jpg","img/neutralC/CFD-AM-205-153-N.jpg","1","1","1","1","0","1","0.387958700070158","0.535869800020009","0.307668900117278","1","1","1","1","1","1","1","1","1"
"250041","img/neutralC/CFD-AM-205-153-N.jpg","img/neutralC/CFD-BM-227-191-N.jpg","img/neutralC/CFD-LF-212-066-N.jpg","1","1","1","1","1","1","0.307668900117278","0.387958700070158","0.31969129992649","1","1","1","1","1","1","1","1","1"
"250041","img/neutralC/CFD-LF-212-066-N.jpg","img/neutralC/CFD-AM-205-153-N.jpg","img/neutralC/CFD-BM-009-002-N.jpg","1","1","1","1","1","1","0.31969129992649","0.307668900117278","0.293093300191686","1","1","1","1","1","1","1","1","1"
"250041","img/neutralC/CFD-BM-009-002-N.jpg","img/neutralC/CFD-LF-212-066-N.jpg","img/neutralC/CFD-BM-021-021-N.jpg","1","1","1","1","1","1","0.293093300191686","0.31969129992649","0.474882800132036","1","1","1","1","1","1","1","1","3"
"250041","img/neutralC/CFD-BM-021-021-N.jpg","img/neutralC/CFD-BM-009-002-N.jpg","img/neutralC/CFD-WF-009-001-N.jpg","1","1","0","1","1","1","0.474882800132036","0.293093300191686","0.369401099858806","1","1","1","1","1","1","3","1","3"
"250041","img/neutralC/CFD-WF-009-001-N.jpg","img/neutralC/CFD-BM-021-021-N.jpg","img/neutralC/CFD-LF-222-147-N.jpg","0","1","1","1","1","0","0.369401099858806","0.474882800132036","0.568185099866241","1","1","1","1","1","1","3","3","3"
"250041","img/neutralC/CFD-LF-222-147-N.jpg","img/neutralC/CFD-WF-009-001-N.jpg","img/neutralC/CFD-WF-207-014-N.jpg","1","0","1","0","1","1","0.568185099866241","0.369401099858806","0.453475999878719","1","1","1","1","1","1","3","3","1"
"250041","img/neutralC/CFD-WF-207-014-N.jpg","img/neutralC/CFD-LF-222-147-N.jpg","img/neutralC/CFD-LM-240-013-N.jpg","1","1","1","1","0","1","0.453475999878719","0.568185099866241","0.270788099849597","1","1","1","1","1","1","1","3","1"
"250041","img/neutralC/CFD-LM-240-013-N.jpg","img/neutralC/CFD-WF-207-014-N.jpg","img/neutralC/CFD-BF-012-001-N.jpg","1","1","0","1","1","0","0.270788099849597","0.453475999878719","0.674614900024608","1","1","1","1","1","1","1","1","2"
"250041","img/neutralC/CFD-BF-012-001-N.jpg","img/neutralC/CFD-LM-240-013-N.jpg","img/neutralC/CFD-BM-043-071-N.jpg","0","1","1","0","1","0","0.674614900024608","0.270788099849597","0.403839700156823","1","1","1","1","1","1","2","1","1"
"250041","img/neutralC/CFD-BM-043-071-N.jpg","img/neutralC/CFD-BF-012-001-N.jpg","img/neutralC/CFD-BM-030-003-N.jpg","1","0","1","0","0","0","0.403839700156823","0.674614900024608","0.383816299960017","1","1","1","1","1","1","1","2","1"
"250041","img/neutralC/CFD-BM-030-003-N.jpg","img/neutralC/CFD-BM-043-071-N.jpg","img/neutralC/CFD-BF-244-231-N.jpg","1","1","1","0","0","1","0.383816299960017","0.403839700156823","0.285666800104082","1","1","1","1","1","1","1","1","1"
"250041","img/neutralC/CFD-BF-244-231-N.jpg","img/neutralC/CFD-BM-030-003-N.jpg","img/neutralC/CFD-WF-221-005-N.jpg","1","1","1","1","0","0","0.285666800104082","0.383816299960017","0.604412599932402","1","1","1","1","1","1","1","1","1"
"250041","img/neutralC/CFD-WF-221-005-N.jpg","img/neutralC/CFD-BF-244-231-N.jpg","img/neutralC/CFD-IM-606-008-N.jpg","1","1","1","0","1","0","0.604412599932402","0.285666800104082","0.516567900078371","1","1","1","1","1","1","1","1","1"
"250041","img/neutralC/CFD-IM-606-008-N.jpg","img/neutralC/CFD-WF-221-005-N.jpg","img/neutralC/CFD-IM-697-015-N.jpg","1","1","1","0","0","1","0.516567900078371","0.604412599932402","0.436666500056162","1","1","1","1","1","1","1","1","1"
"250041","img/neutralC/CFD-IM-697-015-N.jpg","img/neutralC/CFD-IM-606-008-N.jpg",NA,"1","1",NA,"1","0",NA,"0.436666500056162","0.516567900078371",NA,"1","1",NA,"1","1",NA,"1","1",NA
"250041","img/neutralC/CFD-BF-229-179-N.jpg",NA,"img/neutralC/CFD-IM-703-182-N.jpg","1",NA,"1","0",NA,"1","0.556528100045398",NA,"0.369418199872598","1",NA,"1","1",NA,"1","1",NA,"1"
"250041","img/neutralC/CFD-IM-703-182-N.jpg","img/neutralC/CFD-BF-229-179-N.jpg","img/neutralC/CFD-WM-033-025-N.jpg","1","1","1","1","0","1","0.369418199872598","0.556528100045398","0.442560900002718","1","1","1","1","1","1","1","1","1"
"250041","img/neutralC/CFD-WM-033-025-N.jpg","img/neutralC/CFD-IM-703-182-N.jpg","img/neutralC/CFD-MF-352-054-N.jpg","1","1","0","1","1","0","0.442560900002718","0.369418199872598","0.509769400116056","1","1","1","1","1","1","1","1","4"
"250041","img/neutralC/CFD-MF-352-054-N.jpg","img/neutralC/CFD-WM-033-025-N.jpg","img/neutralC/CFD-LF-220-120-N.jpg","0","1","1","0","1","1","0.509769400116056","0.442560900002718","0.378653799882159","1","1","1","1","1","1","4","1","1"
"250041","img/neutralC/CFD-LF-220-120-N.jpg","img/neutralC/CFD-MF-352-054-N.jpg","img/neutralC/CFD-BF-232-187-N.jpg","1","0","1","1","0","1","0.378653799882159","0.509769400116056","0.373351800022647","1","1","1","1","1","1","1","4","1"
"250041","img/neutralC/CFD-BF-232-187-N.jpg","img/neutralC/CFD-LF-220-120-N.jpg","img/neutralC/CFD-MF-333-012-N.jpg","1","1","0","1","1","0","0.373351800022647","0.378653799882159","0.496284699998796","1","1","1","1","1","1","1","1","2"
"250041","img/neutralC/CFD-MF-333-012-N.jpg","img/neutralC/CFD-BF-232-187-N.jpg","img/neutralC/CFD-IM-645-001-N.jpg","0","1","1","0","1","0","0.496284699998796","0.373351800022647","0.435276299947873","1","1","1","1","1","1","2","1","1"
"250041","img/neutralC/CFD-IM-645-001-N.jpg","img/neutralC/CFD-MF-333-012-N.jpg","img/neutralC/CFD-IF-623-129-N.jpg","1","0","1","0","0","1","0.435276299947873","0.496284699998796","0.392132699955255","1","1","1","1","1","1","1","2","1"
"250041","img/neutralC/CFD-IF-623-129-N.jpg","img/neutralC/CFD-IM-645-001-N.jpg","img/neutralC/CFD-WM-020-001-N.jpg","1","1","1","1","0","1","0.392132699955255","0.435276299947873","0.327877900097519","1","1","1","1","1","1","1","1","1"
"250041","img/neutralC/CFD-WM-020-001-N.jpg","img/neutralC/CFD-IF-623-129-N.jpg","img/neutralC/CFD-WF-200-099-N.jpg","1","1","1","1","1","0","0.327877900097519","0.392132699955255","0.43753629992716","1","1","1","1","1","1","1","1","1"
"250041","img/neutralC/CFD-WF-200-099-N.jpg","img/neutralC/CFD-WM-020-001-N.jpg","img/neutralC/CFD-AM-251-124-N.jpg","1","1","1","0","1","0","0.43753629992716","0.327877900097519","0.442553499946371","1","1","1","1","1","1","1","1","1"
"250041","img/neutralC/CFD-AM-251-124-N.jpg","img/neutralC/CFD-WF-200-099-N.jpg","img/neutralC/CFD-WM-219-008-N.jpg","1","1","0","0","0","0","0.442553499946371","0.43753629992716","0.394464400131255","1","1","1","1","1","1","1","1","2"
"250041","img/neutralC/CFD-WM-219-008-N.jpg","img/neutralC/CFD-AM-251-124-N.jpg","img/neutralC/CFD-AM-242-176-N.jpg","0","1","0","0","0","1","0.394464400131255","0.442553499946371","0.502847900148481","1","1","1","1","1","1","2","1","3"
"250041","img/neutralC/CFD-AM-242-176-N.jpg","img/neutralC/CFD-WM-219-008-N.jpg","img/neutralC/CFD-IM-743-006-N.jpg","0","0","1","1","0","1","0.502847900148481","0.394464400131255","0.299282300053164","1","1","1","1","1","1","3","2","1"
"250041","img/neutralC/CFD-IM-743-006-N.jpg","img/neutralC/CFD-AM-242-176-N.jpg","img/neutralC/CFD-IM-616-214-N.jpg","1","0","1","1","1","0","0.299282300053164","0.502847900148481","0.464123700046912","1","1","1","1","1","1","1","3","1"
"250041","img/neutralC/CFD-IM-616-214-N.jpg","img/neutralC/CFD-IM-743-006-N.jpg","img/neutralC/CFD-BM-225-154-N.jpg","1","1","1","0","1","1","0.464123700046912","0.299282300053164","0.40782819991","1","1","1","1","1","1","1","1","1"
"250041","img/neutralC/CFD-BM-225-154-N.jpg","img/neutralC/CFD-IM-616-214-N.jpg","img/neutralC/CFD-WM-004-010-N.jpg","1","1","1","1","0","0","0.40782819991","0.464123700046912","0.359626000048593","1","1","1","1","1","1","1","1","1"
"250041","img/neutralC/CFD-WM-004-010-N.jpg","img/neutralC/CFD-BM-225-154-N.jpg","img/neutralC/CFD-WF-214-122-N.jpg","1","1","1","0","1","1","0.359626000048593","0.40782819991","0.533513100119308","1","1","1","1","1","1","1","1","1"
"250041","img/neutralC/CFD-WF-214-122-N.jpg","img/neutralC/CFD-WM-004-010-N.jpg","img/neutralC/CFD-WF-001-003-N.jpg","1","1","1","1","0","1","0.533513100119308","0.359626000048593","0.403378900140524","1","1","1","1","1","1","1","1","1"
"250041","img/neutralC/CFD-WF-001-003-N.jpg","img/neutralC/CFD-WF-214-122-N.jpg","img/neutralC/CFD-IM-671-601-N.jpg","1","1","0","1","1","0","0.403378900140524","0.533513100119308","0.521543900016695","1","1","1","1","1","1","1","1","3"
"250041","img/neutralC/CFD-IM-671-601-N.jpg","img/neutralC/CFD-WF-001-003-N.jpg","img/neutralC/CFD-WM-235-147-N.jpg","0","1","1","0","1","0","0.521543900016695","0.403378900140524","0.512925799936056","1","1","1","1","1","1","3","1","1"
"250041","img/neutralC/CFD-WM-235-147-N.jpg","img/neutralC/CFD-IM-671-601-N.jpg","img/neutralC/CFD-LM-228-188-N.jpg","1","0","0","0","0","1","0.512925799936056","0.521543900016695","0.511293599847704","1","1","1","1","1","1","1","3","3"
"250041","img/neutralC/CFD-LM-228-188-N.jpg","img/neutralC/CFD-WM-235-147-N.jpg","img/neutralC/CFD-AM-211-052-N.jpg","0","1","1","1","0","1","0.511293599847704","0.512925799936056","0.626086700009182","1","1","1","1","1","1","3","1","1"
"250041","img/neutralC/CFD-AM-211-052-N.jpg","img/neutralC/CFD-LM-228-188-N.jpg","img/neutralC/CFD-IF-650-315-N.jpg","1","0","0","1","1","0","0.626086700009182","0.511293599847704","0.573687300086021","1","1","1","1","1","1","1","3","3"
"250041","img/neutralC/CFD-IF-650-315-N.jpg","img/neutralC/CFD-AM-211-052-N.jpg","img/neutralC/CFD-BF-038-037-N.jpg","0","1","1","0","1","1","0.573687300086021","0.626086700009182","0.474088799906895","1","1","1","1","1","1","3","1","1"
"250041","img/neutralC/CFD-BF-038-037-N.jpg","img/neutralC/CFD-IF-650-315-N.jpg","img/neutralC/CFD-LM-237-264-N.jpg","1","0","0","1","0","0","0.474088799906895","0.573687300086021","0.675579200033098","1","1","1","1","1","1","1","3","3"
"250041","img/neutralC/CFD-LM-237-264-N.jpg","img/neutralC/CFD-BF-038-037-N.jpg","img/neutralC/CFD-MF-359-019-N.jpg","0","1","0","0","1","0","0.675579200033098","0.474088799906895","0.49897149996832","1","1","1","1","1","1","3","1","3"
"250041","img/neutralC/CFD-MF-359-019-N.jpg","img/neutralC/CFD-LM-237-264-N.jpg","img/neutralC/CFD-LF-218-072-N.jpg","0","0","1","0","0","0","0.49897149996832","0.675579200033098","0.698737599886954","1","1","1","1","1","1","3","3","1"
"250041","img/neutralC/CFD-LF-218-072-N.jpg","img/neutralC/CFD-MF-359-019-N.jpg","img/neutralC/CFD-BF-226-119-N.jpg","1","0","1","0","0","1","0.698737599886954","0.49897149996832","0.3786853000056","1","1","1","1","1","1","1","3","1"
"250041","img/neutralC/CFD-BF-226-119-N.jpg","img/neutralC/CFD-LF-218-072-N.jpg","img/neutralC/CFD-BM-253-004-N.jpg","1","1","1","1","0","1","0.3786853000056","0.698737599886954","0.387552300002426","1","1","1","1","1","1","1","1","1"
"250041","img/neutralC/CFD-BM-253-004-N.jpg","img/neutralC/CFD-BF-226-119-N.jpg","img/neutralC/CFD-WF-036-023-N.jpg","1","1","1","1","1","0","0.387552300002426","0.3786853000056","0.464803799986839","1","1","1","1","1","1","1","1","1"
"250041","img/neutralC/CFD-WF-036-023-N.jpg","img/neutralC/CFD-BM-253-004-N.jpg",NA,"1","1",NA,"0","1",NA,"0.464803799986839","0.387552300002426",NA,"1","1",NA,"1","1",NA,"1","1",NA
"250041","img/neutralC/CFD-WM-218-074-N.jpg",NA,"img/neutralC/CFD-IM-680-369-N.jpg","1",NA,"1","1",NA,"1","0.347894400125369",NA,"0.39961940003559","1",NA,"1","1",NA,"1","1",NA,"1"
"250041","img/neutralC/CFD-IM-680-369-N.jpg","img/neutralC/CFD-WM-218-074-N.jpg","img/neutralC/CFD-AF-233-190-N.jpg","1","1","0","1","1","0","0.39961940003559","0.347894400125369","0.289085200056434","1","1","1","1","1","1","1","1","2"
"250041","img/neutralC/CFD-AF-233-190-N.jpg","img/neutralC/CFD-IM-680-369-N.jpg","img/neutralC/CFD-MF-305-014-N.jpg","0","1","1","0","1","1","0.289085200056434","0.39961940003559","0.371687000151724","1","1","1","1","1","1","2","1","1"
"250041","img/neutralC/CFD-MF-305-014-N.jpg","img/neutralC/CFD-AF-233-190-N.jpg","img/neutralC/CFD-MF-316-001-N.jpg","1","0","1","1","0","0","0.371687000151724","0.289085200056434","0.497451399918646","1","1","1","1","1","1","1","2","1"
"250041","img/neutralC/CFD-MF-316-001-N.jpg","img/neutralC/CFD-MF-305-014-N.jpg","img/neutralC/CFD-LM-225-130-N.jpg","1","1","1","0","1","0","0.497451399918646","0.371687000151724","0.411483600037172","1","1","1","1","1","1","1","1","1"
"250041","img/neutralC/CFD-LM-225-130-N.jpg","img/neutralC/CFD-MF-316-001-N.jpg","img/neutralC/CFD-BF-237-172-N.jpg","1","1","1","0","0","1","0.411483600037172","0.497451399918646","0.389167499961331","1","1","1","1","1","1","1","1","1"
"250041","img/neutralC/CFD-BF-237-172-N.jpg","img/neutralC/CFD-LM-225-130-N.jpg","img/neutralC/CFD-LF-206-078-N.jpg","1","1","1","1","0","1","0.389167499961331","0.411483600037172","0.440724200103432","1","1","1","1","1","1","1","1","1"
"250041","img/neutralC/CFD-LF-206-078-N.jpg","img/neutralC/CFD-BF-237-172-N.jpg","img/neutralC/CFD-WF-007-001-N.jpg","1","1","1","1","1","1","0.440724200103432","0.389167499961331","0.310108199948445","1","1","1","1","1","1","1","1","1"
"250041","img/neutralC/CFD-WF-007-001-N.jpg","img/neutralC/CFD-LF-206-078-N.jpg","img/neutralC/CFD-MF-303-013-N.jpg","1","1","1","1","1","0","0.310108199948445","0.440724200103432","0.340065800119191","1","1","1","1","1","1","1","1","1"
"250041","img/neutralC/CFD-MF-303-013-N.jpg","img/neutralC/CFD-WF-007-001-N.jpg","img/neutralC/CFD-MF-343-001-N.jpg","1","1","1","0","1","1","0.340065800119191","0.310108199948445","0.46537319989875","1","1","1","1","1","1","1","1","1"
"250041","img/neutralC/CFD-MF-343-001-N.jpg","img/neutralC/CFD-MF-303-013-N.jpg","img/neutralC/CFD-IM-664-651-N.jpg","1","1","1","1","0","1","0.46537319989875","0.340065800119191","0.378262300044298","1","1","1","1","1","1","1","1","1"
"250041","img/neutralC/CFD-IM-664-651-N.jpg","img/neutralC/CFD-MF-343-001-N.jpg","img/neutralC/CFD-BM-217-082-N.jpg","1","1","0","1","1","0","0.378262300044298","0.46537319989875","0.444069899851456","1","1","1","1","1","1","1","1","1"
"250041","img/neutralC/CFD-BM-217-082-N.jpg","img/neutralC/CFD-IM-664-651-N.jpg","img/neutralC/CFD-MF-357-002-N.jpg","0","1","1","0","1","0","0.444069899851456","0.378262300044298","0.535876800073311","1","1","1","1","1","1","1","1","1"
"250041","img/neutralC/CFD-MF-357-002-N.jpg","img/neutralC/CFD-BM-217-082-N.jpg","img/neutralC/CFD-IM-667-369-N.jpg","1","0","0","0","0","0","0.535876800073311","0.444069899851456","0.360847700154409","1","1","1","1","1","1","1","1","1"
"250041","img/neutralC/CFD-IM-667-369-N.jpg","img/neutralC/CFD-MF-357-002-N.jpg","img/neutralC/CFD-BM-250-170-N.jpg","0","1","1","0","0","1","0.360847700154409","0.535876800073311","0.497758599929512","1","1","1","1","1","1","1","1","1"
"250041","img/neutralC/CFD-BM-250-170-N.jpg","img/neutralC/CFD-IM-667-369-N.jpg","img/neutralC/CFD-AM-220-134-N.jpg","1","0","1","1","0","0","0.497758599929512","0.360847700154409","0.472808100050315","1","1","1","1","1","1","1","1","1"
"250041","img/neutralC/CFD-AM-220-134-N.jpg","img/neutralC/CFD-BM-250-170-N.jpg","img/neutralC/CFD-WF-244-163-N.jpg","1","1","1","0","1","1","0.472808100050315","0.497758599929512","0.435590600129217","1","1","1","1","1","1","1","1","1"
"250041","img/neutralC/CFD-WF-244-163-N.jpg","img/neutralC/CFD-AM-220-134-N.jpg","img/neutralC/CFD-AF-253-130-N.jpg","1","1","1","1","0","1","0.435590600129217","0.472808100050315","0.537605700083077","1","1","1","1","1","1","1","1","1"
"250041","img/neutralC/CFD-AF-253-130-N.jpg","img/neutralC/CFD-WF-244-163-N.jpg","img/neutralC/CFD-LF-255-088-N.jpg","1","1","1","1","1","0","0.537605700083077","0.435590600129217","0.613171700155362","1","1","1","1","1","1","1","1","1"
"250041","img/neutralC/CFD-LF-255-088-N.jpg","img/neutralC/CFD-AF-253-130-N.jpg","img/neutralC/CFD-WF-030-002-N.jpg","1","1","1","0","1","0","0.613171700155362","0.537605700083077","0.468714700080454","1","1","1","1","1","1","1","1","1"
"250041","img/neutralC/CFD-WF-030-002-N.jpg","img/neutralC/CFD-LF-255-088-N.jpg","img/neutralC/CFD-BF-014-002-N.jpg","1","1","1","0","0","1","0.468714700080454","0.613171700155362","0.332386799855158","1","1","1","1","1","1","1","1","1"
"250041","img/neutralC/CFD-BF-014-002-N.jpg","img/neutralC/CFD-WF-030-002-N.jpg","img/neutralC/CFD-IM-702-101-N.jpg","1","1","1","1","0","1","0.332386799855158","0.468714700080454","0.3379323000554","1","1","1","1","1","1","1","1","1"
"250041","img/neutralC/CFD-IM-702-101-N.jpg","img/neutralC/CFD-BF-014-002-N.jpg","img/neutralC/CFD-MM-324-069-N.jpg","1","1","1","1","1","1","0.3379323000554","0.332386799855158","0.407451499952003","1","1","1","1","1","1","1","1","1"
"250041","img/neutralC/CFD-MM-324-069-N.jpg","img/neutralC/CFD-IM-702-101-N.jpg","img/neutralC/CFD-LM-200-045-N.jpg","1","1","1","1","1","1","0.407451499952003","0.3379323000554","0.408467599889264","1","1","1","1","1","1","1","1","1"
"250041","img/neutralC/CFD-LM-200-045-N.jpg","img/neutralC/CFD-MM-324-069-N.jpg","img/neutralC/CFD-IM-706-002-N.jpg","1","1","1","1","1","0","0.408467599889264","0.407451499952003","0.524007400032133","1","1","1","1","1","1","1","1","1"
"250041","img/neutralC/CFD-IM-706-002-N.jpg","img/neutralC/CFD-LM-200-045-N.jpg","img/neutralC/CFD-IF-660-464-N.jpg","1","1","1","0","1","0","0.524007400032133","0.408467599889264","0.457725299987942","1","1","1","1","1","1","1","1","1"
"250041","img/neutralC/CFD-IF-660-464-N.jpg","img/neutralC/CFD-IM-706-002-N.jpg","img/neutralC/CFD-IF-626-375-N.jpg","1","1","1","0","0","0","0.457725299987942","0.524007400032133","0.473939999938011","1","1","1","1","1","1","1","1","1"
"250041","img/neutralC/CFD-IF-626-375-N.jpg","img/neutralC/CFD-IF-660-464-N.jpg","img/neutralC/CFD-WF-222-092-N.jpg","1","1","1","0","0","1","0.473939999938011","0.457725299987942","0.435506100067869","1","1","1","1","1","1","1","1","1"
"250041","img/neutralC/CFD-WF-222-092-N.jpg","img/neutralC/CFD-IF-626-375-N.jpg","img/neutralC/CFD-BM-001-014-N.jpg","1","1","1","1","0","0","0.435506100067869","0.473939999938011","0.873554500052705","1","1","1","1","1","1","1","1","1"
"250041","img/neutralC/CFD-BM-001-014-N.jpg","img/neutralC/CFD-WF-222-092-N.jpg","img/neutralC/CFD-WM-209-038-N.jpg","1","1","1","0","1","0","0.873554500052705","0.435506100067869","0.574989800108597","1","1","1","1","1","1","1","1","1"
"250041","img/neutralC/CFD-WM-209-038-N.jpg","img/neutralC/CFD-BM-001-014-N.jpg","img/neutralC/CFD-WM-015-002-N.jpg","1","1","1","0","0","0","0.574989800108597","0.873554500052705","0.46160909999162","1","1","1","1","1","1","1","1","1"
"250041","img/neutralC/CFD-WM-015-002-N.jpg","img/neutralC/CFD-WM-209-038-N.jpg",NA,"1","1",NA,"0","0",NA,"0.46160909999162","0.574989800108597",NA,"1","1",NA,"1","1",NA,"1","1",NA
"250041","img/neutralC/CFD-LF-236-221-N.jpg",NA,"img/neutralC/CFD-BM-015-015-N.jpg","1",NA,"0","1",NA,"0","0.484599499963224",NA,"0.401500700041652","1",NA,"1","1",NA,"1","1",NA,"2"
"250041","img/neutralC/CFD-BM-015-015-N.jpg","img/neutralC/CFD-LF-236-221-N.jpg","img/neutralC/CFD-BM-211-174-N.jpg","0","1","1","0","1","0","0.401500700041652","0.484599499963224","0.379305399954319","1","1","1","1","1","1","2","1","1"
"250041","img/neutralC/CFD-BM-211-174-N.jpg","img/neutralC/CFD-BM-015-015-N.jpg","img/neutralC/CFD-WM-040-022-N.jpg","1","0","0","0","0","0","0.379305399954319","0.401500700041652","0.372180699836463","1","1","1","1","1","1","1","2","1"
"250041","img/neutralC/CFD-WM-040-022-N.jpg","img/neutralC/CFD-BM-211-174-N.jpg","img/neutralC/CFD-BF-003-003-N.jpg","0","1","1","0","0","0","0.372180699836463","0.379305399954319","0.459765099920332","1","1","1","1","1","1","1","1","1"
"250041","img/neutralC/CFD-BF-003-003-N.jpg","img/neutralC/CFD-WM-040-022-N.jpg","img/neutralC/CFD-IF-718-001-N.jpg","1","0","1","0","0","1","0.459765099920332","0.372180699836463","0.43502049986273","1","1","1","1","1","1","1","1","1"
"250041","img/neutralC/CFD-IF-718-001-N.jpg","img/neutralC/CFD-BF-003-003-N.jpg","img/neutralC/CFD-BF-204-189-N.jpg","1","1","1","1","0","1","0.43502049986273","0.459765099920332","0.453765199985355","1","1","1","1","1","1","1","1","1"
"250041","img/neutralC/CFD-BF-204-189-N.jpg","img/neutralC/CFD-IF-718-001-N.jpg","img/neutralC/CFD-AM-215-120-N.jpg","1","1","1","1","1","1","0.453765199985355","0.43502049986273","0.325137999840081","1","1","1","1","1","1","1","1","1"
"250041","img/neutralC/CFD-AM-215-120-N.jpg","img/neutralC/CFD-BF-204-189-N.jpg","img/neutralC/CFD-WM-225-127-N.jpg","1","1","1","1","1","0","0.325137999840081","0.453765199985355","0.290665699867532","1","1","1","1","1","1","1","1","1"
"250041","img/neutralC/CFD-WM-225-127-N.jpg","img/neutralC/CFD-AM-215-120-N.jpg","img/neutralC/CFD-BF-208-266-N.jpg","1","1","0","0","1","0","0.290665699867532","0.325137999840081","0.31148080015555","1","1","1","1","1","1","1","1","1"
"250041","img/neutralC/CFD-BF-208-266-N.jpg","img/neutralC/CFD-WM-225-127-N.jpg","img/neutralC/CFD-WF-026-002-N.jpg","0","1","1","0","0","1","0.31148080015555","0.290665699867532","0.358043000102043","1","1","1","1","1","1","1","1","1"
"250041","img/neutralC/CFD-WF-026-002-N.jpg","img/neutralC/CFD-BF-208-266-N.jpg","img/neutralC/CFD-BF-201-080-N.jpg","1","0","1","1","0","1","0.358043000102043","0.31148080015555","0.477666999911889","1","1","1","1","1","1","1","1","1"
"250041","img/neutralC/CFD-BF-201-080-N.jpg","img/neutralC/CFD-WF-026-002-N.jpg","img/neutralC/CFD-IM-639-263-N.jpg","1","1","1","1","1","1","0.477666999911889","0.358043000102043","0.420207099989057","1","1","1","1","1","1","1","1","1"
"250041","img/neutralC/CFD-IM-639-263-N.jpg","img/neutralC/CFD-BF-201-080-N.jpg","img/neutralC/CFD-AM-235-241-N.jpg","1","1","1","1","1","0","0.420207099989057","0.477666999911889","0.392896899953484","1","1","1","1","1","1","1","1","1"
"250041","img/neutralC/CFD-AM-235-241-N.jpg","img/neutralC/CFD-IM-639-263-N.jpg","img/neutralC/CFD-MM-319-052-N.jpg","1","1","1","0","1","1","0.392896899953484","0.420207099989057","0.298012600047514","1","1","1","1","1","1","1","1","1"
"250041","img/neutralC/CFD-MM-319-052-N.jpg","img/neutralC/CFD-AM-235-241-N.jpg","img/neutralC/CFD-BF-255-140-N.jpg","1","1","1","1","0","1","0.298012600047514","0.392896899953484","0.424461500020698","1","1","1","1","1","1","1","1","1"
"250041","img/neutralC/CFD-BF-255-140-N.jpg","img/neutralC/CFD-MM-319-052-N.jpg","img/neutralC/CFD-WM-257-161-N.jpg","1","1","1","1","1","1","0.424461500020698","0.298012600047514","0.450333499815315","1","1","1","1","1","1","1","1","1"
"250041","img/neutralC/CFD-WM-257-161-N.jpg","img/neutralC/CFD-BF-255-140-N.jpg","img/neutralC/CFD-WM-002-009-N.jpg","1","1","1","1","1","0","0.450333499815315","0.424461500020698","0.487510700011626","1","1","1","1","1","1","1","1","1"
"250041","img/neutralC/CFD-WM-002-009-N.jpg","img/neutralC/CFD-WM-257-161-N.jpg","img/neutralC/CFD-LF-216-121-N.jpg","1","1","1","0","1","1","0.487510700011626","0.450333499815315","0.359728200128302","1","1","1","1","1","1","1","1","1"
"250041","img/neutralC/CFD-LF-216-121-N.jpg","img/neutralC/CFD-WM-002-009-N.jpg","img/neutralC/CFD-BM-027-001-N.jpg","1","1","1","1","0","0","0.359728200128302","0.487510700011626","0.418259100057185","1","1","1","1","1","1","1","1","1"
"250041","img/neutralC/CFD-BM-027-001-N.jpg","img/neutralC/CFD-LF-216-121-N.jpg","img/neutralC/CFD-BF-023-010-N.jpg","1","1","1","0","1","1","0.418259100057185","0.359728200128302","0.370755600044504","1","1","1","1","1","1","1","1","1"
"250041","img/neutralC/CFD-BF-023-010-N.jpg","img/neutralC/CFD-BM-027-001-N.jpg","img/neutralC/CFD-BM-029-024-N.jpg","1","1","1","1","0","1","0.370755600044504","0.418259100057185","0.295267299981788","1","1","1","1","1","1","1","1","1"
"250041","img/neutralC/CFD-BM-029-024-N.jpg","img/neutralC/CFD-BF-023-010-N.jpg","img/neutralC/CFD-AM-217-085-N.jpg","1","1","1","1","1","0","0.295267299981788","0.370755600044504","0.379667100030929","1","1","1","1","1","1","1","1","1"
"250041","img/neutralC/CFD-AM-217-085-N.jpg","img/neutralC/CFD-BM-029-024-N.jpg","img/neutralC/CFD-WM-038-003-N.jpg","1","1","0","0","1","0","0.379667100030929","0.295267299981788","0.397282200166956","1","1","1","1","1","1","1","1","1"
"250041","img/neutralC/CFD-WM-038-003-N.jpg","img/neutralC/CFD-AM-217-085-N.jpg","img/neutralC/CFD-BF-028-001-N.jpg","0","1","1","0","0","1","0.397282200166956","0.379667100030929","0.478349500102922","1","1","1","1","1","1","1","1","1"
"250041","img/neutralC/CFD-BF-028-001-N.jpg","img/neutralC/CFD-WM-038-003-N.jpg","img/neutralC/CFD-IM-728-041-N.jpg","1","0","1","1","0","0","0.478349500102922","0.397282200166956","0.502350699855015","1","1","1","1","1","1","1","1","1"
"250041","img/neutralC/CFD-IM-728-041-N.jpg","img/neutralC/CFD-BF-028-001-N.jpg","img/neutralC/CFD-WF-022-017-N.jpg","1","1","0","0","1","0","0.502350699855015","0.478349500102922","0.712984899990261","1","1","1","1","1","1","1","1","1"
"250041","img/neutralC/CFD-WF-022-017-N.jpg","img/neutralC/CFD-IM-728-041-N.jpg","img/neutralC/CFD-WF-002-004-N.jpg","0","1","1","0","0","0","0.712984899990261","0.502350699855015","0.712261400185525","1","1","1","1","1","1","1","1","1"
"250041","img/neutralC/CFD-WF-002-004-N.jpg","img/neutralC/CFD-WF-022-017-N.jpg","img/neutralC/CFD-IF-672-305-N.jpg","1","0","1","0","0","0","0.712261400185525","0.712984899990261","0.527621999848634","1","1","1","1","1","1","1","1","1"
"250041","img/neutralC/CFD-IF-672-305-N.jpg","img/neutralC/CFD-WF-002-004-N.jpg","img/neutralC/CFD-LM-252-076-N.jpg","1","1","1","0","0","1","0.527621999848634","0.712261400185525","0.420694400090724","1","1","1","1","1","1","1","1","1"
"250041","img/neutralC/CFD-LM-252-076-N.jpg","img/neutralC/CFD-IF-672-305-N.jpg","img/neutralC/CFD-BM-247-240-N.jpg","1","1","1","1","0","0","0.420694400090724","0.527621999848634","0.390926399966702","1","1","1","1","1","1","1","1","1"
"250041","img/neutralC/CFD-BM-247-240-N.jpg","img/neutralC/CFD-LM-252-076-N.jpg","img/neutralC/CFD-IM-674-281-N.jpg","1","1","1","0","1","1","0.390926399966702","0.420694400090724","0.394504500087351","1","1","1","1","1","1","1","1","1"
"250041","img/neutralC/CFD-IM-674-281-N.jpg","img/neutralC/CFD-BM-247-240-N.jpg",NA,"1","1",NA,"1","0",NA,"0.394504500087351","0.390926399966702",NA,"1","1",NA,"1","1",NA,"1","1",NA
