"participant_id","current_trial_face","pre_trial_face","post_trial_face","current_trial_accuracy","pre_trial_accuracy","post_trial_accuracy","current_trial_congruency","pre_trial_congruency","post_trial_congruency","current_trial_rt","pre_trial_rt","post_trial_rt","current_trial_responded","pre_trial_responded","post_trial_responded","current_trial_legitResponse","pre_trial_legitResponse","post_trial_legitResponse","current_trial_resp_nums","pre_trial_resp_nums","post_trial_resp_nums"
"250027","img/neutralC/CFD-WF-214-122-N.jpg",NA,"img/neutralC/CFD-LM-237-264-N.jpg","1",NA,"1","1",NA,"0","0.529877600027248",NA,"0.689873500028625","1",NA,"1","1",NA,"1","1",NA,"1"
"250027","img/neutralC/CFD-LM-237-264-N.jpg","img/neutralC/CFD-WF-214-122-N.jpg","img/neutralC/CFD-WM-033-025-N.jpg","1","1","1","0","1","1","0.689873500028625","0.529877600027248","0.538246999960393","1","1","1","1","1","1","1","1","1"
"250027","img/neutralC/CFD-WM-033-025-N.jpg","img/neutralC/CFD-LM-237-264-N.jpg","img/neutralC/CFD-IM-703-182-N.jpg","1","1","1","1","0","1","0.538246999960393","0.689873500028625","0.595090400020126","1","1","1","1","1","1","1","1","1"
"250027","img/neutralC/CFD-IM-703-182-N.jpg","img/neutralC/CFD-WM-033-025-N.jpg","img/neutralC/CFD-IM-645-001-N.jpg","1","1","1","1","1","0","0.595090400020126","0.538246999960393","0.673746399988886","1","1","1","1","1","1","1","1","1"
"250027","img/neutralC/CFD-IM-645-001-N.jpg","img/neutralC/CFD-IM-703-182-N.jpg","img/neutralC/CFD-WF-001-003-N.jpg","1","1","1","0","1","1","0.673746399988886","0.595090400020126","0.526579900004435","1","1","1","1","1","1","1","1","1"
"250027","img/neutralC/CFD-WF-001-003-N.jpg","img/neutralC/CFD-IM-645-001-N.jpg","img/neutralC/CFD-WM-020-001-N.jpg","1","1","1","1","0","1","0.526579900004435","0.673746399988886","0.856886600027792","1","1","1","1","1","1","1","1","1"
"250027","img/neutralC/CFD-WM-020-001-N.jpg","img/neutralC/CFD-WF-001-003-N.jpg","img/neutralC/CFD-BF-038-037-N.jpg","1","1","1","1","1","1","0.856886600027792","0.526579900004435","0.76082690001931","1","1","1","1","1","1","1","1","1"
"250027","img/neutralC/CFD-BF-038-037-N.jpg","img/neutralC/CFD-WM-020-001-N.jpg","img/neutralC/CFD-MF-359-019-N.jpg","1","1","1","1","1","0","0.76082690001931","0.856886600027792","0.603974100027699","1","1","1","1","1","1","1","1","1"
"250027","img/neutralC/CFD-MF-359-019-N.jpg","img/neutralC/CFD-BF-038-037-N.jpg","img/neutralC/CFD-AM-251-124-N.jpg","1","1","1","0","1","0","0.603974100027699","0.76082690001931","0.610213900043163","1","1","1","1","1","1","1","1","1"
"250027","img/neutralC/CFD-AM-251-124-N.jpg","img/neutralC/CFD-MF-359-019-N.jpg","img/neutralC/CFD-LM-228-188-N.jpg","1","1","1","0","0","1","0.610213900043163","0.603974100027699","0.688735500036273","1","1","1","1","1","1","1","1","1"
"250027","img/neutralC/CFD-LM-228-188-N.jpg","img/neutralC/CFD-AM-251-124-N.jpg","img/neutralC/CFD-MF-333-012-N.jpg","1","1","1","1","0","0","0.688735500036273","0.610213900043163","0.834055999992415","1","1","1","1","1","1","1","1","1"
"250027","img/neutralC/CFD-MF-333-012-N.jpg","img/neutralC/CFD-LM-228-188-N.jpg","img/neutralC/CFD-IM-671-601-N.jpg","1","1","1","0","1","0","0.834055999992415","0.688735500036273","0.718265900039114","1","1","1","1","1","1","1","1","1"
"250027","img/neutralC/CFD-IM-671-601-N.jpg","img/neutralC/CFD-MF-333-012-N.jpg","img/neutralC/CFD-BF-229-179-N.jpg","1","1","1","0","0","0","0.718265900039114","0.834055999992415","0.979228200041689","1","1","1","1","1","1","1","1","1"
"250027","img/neutralC/CFD-BF-229-179-N.jpg","img/neutralC/CFD-IM-671-601-N.jpg","img/neutralC/CFD-MF-352-054-N.jpg","1","1","1","0","0","0","0.979228200041689","0.718265900039114","0.679516999982297","1","1","1","1","1","1","1","1","1"
"250027","img/neutralC/CFD-MF-352-054-N.jpg","img/neutralC/CFD-BF-229-179-N.jpg","img/neutralC/CFD-BF-232-187-N.jpg","1","1","1","0","0","1","0.679516999982297","0.979228200041689","0.622273800021503","1","1","1","1","1","1","1","1","1"
"250027","img/neutralC/CFD-BF-232-187-N.jpg","img/neutralC/CFD-MF-352-054-N.jpg","img/neutralC/CFD-BF-226-119-N.jpg","1","1","1","1","0","1","0.622273800021503","0.679516999982297","0.696653900027741","1","1","1","1","1","1","1","1","1"
"250027","img/neutralC/CFD-BF-226-119-N.jpg","img/neutralC/CFD-BF-232-187-N.jpg","img/neutralC/CFD-WM-004-010-N.jpg","1","1","1","1","1","0","0.696653900027741","0.622273800021503","0.577522500010673","1","1","1","1","1","1","1","1","1"
"250027","img/neutralC/CFD-WM-004-010-N.jpg","img/neutralC/CFD-BF-226-119-N.jpg","img/neutralC/CFD-WM-219-008-N.jpg","1","1","1","0","1","0","0.577522500010673","0.696653900027741","0.691637799958698","1","1","1","1","1","1","1","1","1"
"250027","img/neutralC/CFD-WM-219-008-N.jpg","img/neutralC/CFD-WM-004-010-N.jpg","img/neutralC/CFD-BM-225-154-N.jpg","1","1","1","0","0","1","0.691637799958698","0.577522500010673","0.656283299962524","1","1","1","1","1","1","1","1","1"
"250027","img/neutralC/CFD-BM-225-154-N.jpg","img/neutralC/CFD-WM-219-008-N.jpg","img/neutralC/CFD-IM-743-006-N.jpg","1","1","1","1","0","1","0.656283299962524","0.691637799958698","0.551352599984966","1","1","1","1","1","1","1","1","1"
"250027","img/neutralC/CFD-IM-743-006-N.jpg","img/neutralC/CFD-BM-225-154-N.jpg","img/neutralC/CFD-WF-036-023-N.jpg","1","1","1","1","1","0","0.551352599984966","0.656283299962524","0.574954899959266","1","1","1","1","1","1","1","1","1"
"250027","img/neutralC/CFD-WF-036-023-N.jpg","img/neutralC/CFD-IM-743-006-N.jpg","img/neutralC/CFD-AM-211-052-N.jpg","1","1","1","0","1","1","0.574954899959266","0.551352599984966","0.545679000031669","1","1","1","1","1","1","1","1","1"
"250027","img/neutralC/CFD-AM-211-052-N.jpg","img/neutralC/CFD-WF-036-023-N.jpg","img/neutralC/CFD-LF-218-072-N.jpg","1","1","1","1","0","0","0.545679000031669","0.574954899959266","0.648064700013492","1","1","1","1","1","1","1","1","1"
"250027","img/neutralC/CFD-LF-218-072-N.jpg","img/neutralC/CFD-AM-211-052-N.jpg","img/neutralC/CFD-IM-616-214-N.jpg","1","1","1","0","1","0","0.648064700013492","0.545679000031669","0.568614400050137","1","1","1","1","1","1","1","1","1"
"250027","img/neutralC/CFD-IM-616-214-N.jpg","img/neutralC/CFD-LF-218-072-N.jpg","img/neutralC/CFD-IF-623-129-N.jpg","1","1","1","0","0","1","0.568614400050137","0.648064700013492","0.621642599988263","1","1","1","1","1","1","1","1","1"
"250027","img/neutralC/CFD-IF-623-129-N.jpg","img/neutralC/CFD-IM-616-214-N.jpg","img/neutralC/CFD-BM-253-004-N.jpg","1","1","1","1","0","1","0.621642599988263","0.568614400050137","0.624089100048877","1","1","1","1","1","1","1","1","1"
"250027","img/neutralC/CFD-BM-253-004-N.jpg","img/neutralC/CFD-IF-623-129-N.jpg","img/neutralC/CFD-LF-220-120-N.jpg","1","1","1","1","1","1","0.624089100048877","0.621642599988263","0.616744200000539","1","1","1","1","1","1","1","1","1"
"250027","img/neutralC/CFD-LF-220-120-N.jpg","img/neutralC/CFD-BM-253-004-N.jpg","img/neutralC/CFD-IF-650-315-N.jpg","1","1","1","1","1","0","0.616744200000539","0.624089100048877","0.68708850000985","1","1","1","1","1","1","1","1","1"
"250027","img/neutralC/CFD-IF-650-315-N.jpg","img/neutralC/CFD-LF-220-120-N.jpg","img/neutralC/CFD-WF-200-099-N.jpg","1","1","1","0","1","0","0.68708850000985","0.616744200000539","0.601492099987809","1","1","1","1","1","1","1","1","1"
"250027","img/neutralC/CFD-WF-200-099-N.jpg","img/neutralC/CFD-IF-650-315-N.jpg","img/neutralC/CFD-WM-235-147-N.jpg","1","1","1","0","0","0","0.601492099987809","0.68708850000985","0.629606600035913","1","1","1","1","1","1","1","1","1"
"250027","img/neutralC/CFD-WM-235-147-N.jpg","img/neutralC/CFD-WF-200-099-N.jpg","img/neutralC/CFD-AM-242-176-N.jpg","1","1","1","0","0","1","0.629606600035913","0.601492099987809","0.59090200002538","1","1","1","1","1","1","1","1","1"
"250027","img/neutralC/CFD-AM-242-176-N.jpg","img/neutralC/CFD-WM-235-147-N.jpg",NA,"1","1",NA,"1","0",NA,"0.59090200002538","0.629606600035913",NA,"1","1",NA,"1","1",NA,"1","1",NA
"250027","img/neutralC/CFD-BF-217-189-N.jpg",NA,"img/neutralC/CFD-BF-235-168-N.jpg","1",NA,"1","0",NA,"1","0.490504199988209",NA,"0.548220900003798","1",NA,"1","1",NA,"1","1",NA,"1"
"250027","img/neutralC/CFD-BF-235-168-N.jpg","img/neutralC/CFD-BF-217-189-N.jpg","img/neutralC/CFD-BF-206-143-N.jpg","1","1","1","1","0","1","0.548220900003798","0.490504199988209","0.434293400030583","1","1","1","1","1","1","1","1","1"
"250027","img/neutralC/CFD-BF-206-143-N.jpg","img/neutralC/CFD-BF-235-168-N.jpg","img/neutralC/CFD-AM-245-111-N.jpg","1","1","1","1","1","1","0.434293400030583","0.548220900003798","0.406101500033401","1","1","1","1","1","1","1","1","1"
"250027","img/neutralC/CFD-AM-245-111-N.jpg","img/neutralC/CFD-BF-206-143-N.jpg","img/neutralC/CFD-MF-302-027-N.jpg","1","1","1","1","1","0","0.406101500033401","0.434293400030583","0.574526899959892","1","1","1","1","1","1","1","1","1"
"250027","img/neutralC/CFD-MF-302-027-N.jpg","img/neutralC/CFD-AM-245-111-N.jpg","img/neutralC/CFD-WM-018-002-N.jpg","1","1","1","0","1","0","0.574526899959892","0.406101500033401","0.457191800000146","1","1","1","1","1","1","1","1","1"
"250027","img/neutralC/CFD-WM-018-002-N.jpg","img/neutralC/CFD-MF-302-027-N.jpg","img/neutralC/CFD-AF-213-126-N.jpg","1","1","1","0","0","1","0.457191800000146","0.574526899959892","0.396046700014267","1","1","1","1","1","1","1","1","1"
"250027","img/neutralC/CFD-AF-213-126-N.jpg","img/neutralC/CFD-WM-018-002-N.jpg","img/neutralC/CFD-AF-250-200-N.jpg","1","1","1","1","0","1","0.396046700014267","0.457191800000146","0.439992900006473","1","1","1","1","1","1","1","1","1"
"250027","img/neutralC/CFD-AF-250-200-N.jpg","img/neutralC/CFD-AF-213-126-N.jpg","img/neutralC/CFD-WM-253-119-N.jpg","1","1","1","1","1","1","0.439992900006473","0.396046700014267","0.388278800004628","1","1","1","1","1","1","1","1","1"
"250027","img/neutralC/CFD-WM-253-119-N.jpg","img/neutralC/CFD-AF-250-200-N.jpg","img/neutralC/CFD-WF-235-121-N.jpg","1","1","1","1","1","0","0.388278800004628","0.439992900006473","0.466177899972536","1","1","1","1","1","1","1","1","1"
"250027","img/neutralC/CFD-WF-235-121-N.jpg","img/neutralC/CFD-WM-253-119-N.jpg","img/neutralC/CFD-AF-205-155-N.jpg","1","1","1","0","1","0","0.466177899972536","0.388278800004628","0.51588930003345","1","1","1","1","1","1","1","1","1"
"250027","img/neutralC/CFD-AF-205-155-N.jpg","img/neutralC/CFD-WF-235-121-N.jpg","img/neutralC/CFD-LF-239-148-N.jpg","1","1","1","0","0","0","0.51588930003345","0.466177899972536","0.478232800029218","1","1","1","1","1","1","1","1","1"
"250027","img/neutralC/CFD-LF-239-148-N.jpg","img/neutralC/CFD-AF-205-155-N.jpg","img/neutralC/CFD-AF-246-242-N.jpg","1","1","1","0","0","0","0.478232800029218","0.51588930003345","0.498162799980491","1","1","1","1","1","1","1","1","1"
"250027","img/neutralC/CFD-AF-246-242-N.jpg","img/neutralC/CFD-LF-239-148-N.jpg","img/neutralC/CFD-AF-234-208-N.jpg","1","1","1","0","0","1","0.498162799980491","0.478232800029218","0.418577300035395","1","1","1","1","1","1","1","1","1"
"250027","img/neutralC/CFD-AF-234-208-N.jpg","img/neutralC/CFD-AF-246-242-N.jpg","img/neutralC/CFD-AF-244-168-N.jpg","1","1","1","1","0","0","0.418577300035395","0.498162799980491","0.437118300003931","1","1","1","1","1","1","1","1","1"
"250027","img/neutralC/CFD-AF-244-168-N.jpg","img/neutralC/CFD-AF-234-208-N.jpg","img/neutralC/CFD-IM-669-111-N.jpg","1","1","1","0","1","1","0.437118300003931","0.418577300035395","0.575343200005591","1","1","1","1","1","1","1","1","1"
"250027","img/neutralC/CFD-IM-669-111-N.jpg","img/neutralC/CFD-AF-244-168-N.jpg","img/neutralC/CFD-IF-636-011-N.jpg","1","1","1","1","0","1","0.575343200005591","0.437118300003931","0.389624100003857","1","1","1","1","1","1","1","1","1"
"250027","img/neutralC/CFD-IF-636-011-N.jpg","img/neutralC/CFD-IM-669-111-N.jpg","img/neutralC/CFD-BM-215-155-N.jpg","1","1","0","1","1","0","0.389624100003857","0.575343200005591","0.41715579997981","1","1","1","1","1","1","1","1","1"
"250027","img/neutralC/CFD-BM-215-155-N.jpg","img/neutralC/CFD-IF-636-011-N.jpg","img/neutralC/CFD-AM-225-102-N.jpg","0","1","1","0","1","0","0.41715579997981","0.389624100003857","0.628919799986761","1","1","1","1","1","1","1","1","1"
"250027","img/neutralC/CFD-AM-225-102-N.jpg","img/neutralC/CFD-BM-215-155-N.jpg","img/neutralC/CFD-BF-040-003-N.jpg","1","0","1","0","0","1","0.628919799986761","0.41715579997981","0.377347800007556","1","1","1","1","1","1","1","1","1"
"250027","img/neutralC/CFD-BF-040-003-N.jpg","img/neutralC/CFD-AM-225-102-N.jpg","img/neutralC/CFD-AM-233-236-N.jpg","1","1","1","1","0","1","0.377347800007556","0.628919799986761","0.395136900013313","1","1","1","1","1","1","1","1","1"
"250027","img/neutralC/CFD-AM-233-236-N.jpg","img/neutralC/CFD-BF-040-003-N.jpg","img/neutralC/CFD-BF-042-026-N.jpg","1","1","1","1","1","1","0.395136900013313","0.377347800007556","0.42951250000624","1","1","1","1","1","1","1","1","1"
"250027","img/neutralC/CFD-BF-042-026-N.jpg","img/neutralC/CFD-AM-233-236-N.jpg","img/neutralC/CFD-IM-678-482-N.jpg","1","1","1","1","1","0","0.42951250000624","0.395136900013313","0.416627100028563","1","1","1","1","1","1","1","1","1"
"250027","img/neutralC/CFD-IM-678-482-N.jpg","img/neutralC/CFD-BF-042-026-N.jpg","img/neutralC/CFD-MF-307-002-N.jpg","1","1","1","0","1","1","0.416627100028563","0.42951250000624","0.319652900041547","1","1","1","1","1","1","1","1","1"
"250027","img/neutralC/CFD-MF-307-002-N.jpg","img/neutralC/CFD-IM-678-482-N.jpg","img/neutralC/CFD-WF-210-086-N.jpg","1","1","1","1","0","0","0.319652900041547","0.416627100028563","0.528556099976413","1","1","1","1","1","1","1","1","1"
"250027","img/neutralC/CFD-WF-210-086-N.jpg","img/neutralC/CFD-MF-307-002-N.jpg","img/neutralC/CFD-LM-241-125-N.jpg","1","1","1","0","1","1","0.528556099976413","0.319652900041547","0.440734100004192","1","1","1","1","1","1","1","1","1"
"250027","img/neutralC/CFD-LM-241-125-N.jpg","img/neutralC/CFD-WF-210-086-N.jpg","img/neutralC/CFD-IF-732-260-N.jpg","1","1","1","1","0","0","0.440734100004192","0.528556099976413","0.495212399982847","1","1","1","1","1","1","1","1","1"
"250027","img/neutralC/CFD-IF-732-260-N.jpg","img/neutralC/CFD-LM-241-125-N.jpg","img/neutralC/CFD-IM-632-097-N.jpg","1","1","1","0","1","0","0.495212399982847","0.440734100004192","0.469845799962059","1","1","1","1","1","1","1","1","1"
"250027","img/neutralC/CFD-IM-632-097-N.jpg","img/neutralC/CFD-IF-732-260-N.jpg","img/neutralC/CFD-IM-635-010-N.jpg","1","1","1","0","0","1","0.469845799962059","0.495212399982847","0.529363199952058","1","1","1","1","1","1","1","1","1"
"250027","img/neutralC/CFD-IM-635-010-N.jpg","img/neutralC/CFD-IM-632-097-N.jpg","img/neutralC/CFD-LM-204-001-N.jpg","1","1","1","1","0","0","0.529363199952058","0.469845799962059","0.475340500008315","1","1","1","1","1","1","1","1","1"
"250027","img/neutralC/CFD-LM-204-001-N.jpg","img/neutralC/CFD-IM-635-010-N.jpg","img/neutralC/CFD-BM-004-002-N.jpg","1","1","1","0","1","0","0.475340500008315","0.529363199952058","0.531413900025655","1","1","1","1","1","1","1","1","1"
"250027","img/neutralC/CFD-BM-004-002-N.jpg","img/neutralC/CFD-LM-204-001-N.jpg","img/neutralC/CFD-BF-020-002-N.jpg","1","1","1","0","0","1","0.531413900025655","0.475340500008315","0.413035699981265","1","1","1","1","1","1","1","1","1"
"250027","img/neutralC/CFD-BF-020-002-N.jpg","img/neutralC/CFD-BM-004-002-N.jpg",NA,"1","1",NA,"1","0",NA,"0.413035699981265","0.531413900025655",NA,"1","1",NA,"1","1",NA,"1","1",NA
"250027","img/neutralC/CFD-IF-619-197-N.jpg",NA,"img/neutralC/CFD-LF-201-035-N.jpg","1",NA,"1","0",NA,"1","0.583843600004911",NA,"0.385580300004221","1",NA,"1","1",NA,"1","1",NA,"1"
"250027","img/neutralC/CFD-LF-201-035-N.jpg","img/neutralC/CFD-IF-619-197-N.jpg","img/neutralC/CFD-WM-024-015-N.jpg","1","1","1","1","0","1","0.385580300004221","0.583843600004911","0.406472800008487","1","1","1","1","1","1","1","1","1"
"250027","img/neutralC/CFD-WM-024-015-N.jpg","img/neutralC/CFD-LF-201-035-N.jpg","img/neutralC/CFD-IF-608-390-N.jpg","1","1","1","1","1","1","0.406472800008487","0.385580300004221","0.449841600027867","1","1","1","1","1","1","1","1","1"
"250027","img/neutralC/CFD-IF-608-390-N.jpg","img/neutralC/CFD-WM-024-015-N.jpg","img/neutralC/CFD-IM-604-014-N.jpg","1","1","1","1","1","0","0.449841600027867","0.406472800008487","0.454975500004366","1","1","1","1","1","1","1","1","1"
"250027","img/neutralC/CFD-IM-604-014-N.jpg","img/neutralC/CFD-IF-608-390-N.jpg","img/neutralC/CFD-MF-340-026-N.jpg","1","1","1","0","1","1","0.454975500004366","0.449841600027867","0.475377700000536","1","1","1","1","1","1","1","1","1"
"250027","img/neutralC/CFD-MF-340-026-N.jpg","img/neutralC/CFD-IM-604-014-N.jpg","img/neutralC/CFD-BM-243-218-N.jpg","1","1","1","1","0","1","0.475377700000536","0.454975500004366","0.580134699994233","1","1","1","1","1","1","1","1","1"
"250027","img/neutralC/CFD-BM-243-218-N.jpg","img/neutralC/CFD-MF-340-026-N.jpg","img/neutralC/CFD-AM-236-090-N.jpg","1","1","1","1","1","1","0.580134699994233","0.475377700000536","0.556938599969726","1","1","1","1","1","1","1","1","1"
"250027","img/neutralC/CFD-AM-236-090-N.jpg","img/neutralC/CFD-BM-243-218-N.jpg","img/neutralC/CFD-WF-008-002-N.jpg","1","1","1","1","1","1","0.556938599969726","0.580134699994233","0.432345499983057","1","1","1","1","1","1","1","1","1"
"250027","img/neutralC/CFD-WF-008-002-N.jpg","img/neutralC/CFD-AM-236-090-N.jpg","img/neutralC/CFD-MM-304-002-N.jpg","1","1","1","1","1","1","0.432345499983057","0.556938599969726","0.40912050002953","1","1","1","1","1","1","1","1","1"
"250027","img/neutralC/CFD-MM-304-002-N.jpg","img/neutralC/CFD-WF-008-002-N.jpg","img/neutralC/CFD-AF-229-160-N.jpg","1","1","1","1","1","0","0.40912050002953","0.432345499983057","0.53029989998322","1","1","1","1","1","1","1","1","1"
"250027","img/neutralC/CFD-AF-229-160-N.jpg","img/neutralC/CFD-MM-304-002-N.jpg","img/neutralC/CFD-WM-213-076-N.jpg","1","1","1","0","1","1","0.53029989998322","0.40912050002953","0.40920819999883","1","1","1","1","1","1","1","1","1"
"250027","img/neutralC/CFD-WM-213-076-N.jpg","img/neutralC/CFD-AF-229-160-N.jpg","img/neutralC/CFD-WF-217-085-N.jpg","1","1","1","1","0","1","0.40920819999883","0.53029989998322","0.444814900052734","1","1","1","1","1","1","1","1","1"
"250027","img/neutralC/CFD-WF-217-085-N.jpg","img/neutralC/CFD-WM-213-076-N.jpg","img/neutralC/CFD-WM-232-070-N.jpg","1","1","0","1","1","0","0.444814900052734","0.40920819999883","0.32322199997725","1","1","1","1","1","1","1","1","1"
"250027","img/neutralC/CFD-WM-232-070-N.jpg","img/neutralC/CFD-WF-217-085-N.jpg","img/neutralC/CFD-IM-685-004-N.jpg","0","1","1","0","1","1","0.32322199997725","0.444814900052734","0.641706400027033","1","1","1","1","1","1","1","1","1"
"250027","img/neutralC/CFD-IM-685-004-N.jpg","img/neutralC/CFD-WM-232-070-N.jpg","img/neutralC/CFD-BF-224-002-N.jpg","1","0","1","1","0","1","0.641706400027033","0.32322199997725","0.452828000008594","1","1","1","1","1","1","1","1","1"
"250027","img/neutralC/CFD-BF-224-002-N.jpg","img/neutralC/CFD-IM-685-004-N.jpg","img/neutralC/CFD-BF-051-035-N.jpg","1","1","1","1","1","0","0.452828000008594","0.641706400027033","0.623736499983352","1","1","1","1","1","1","1","1","1"
"250027","img/neutralC/CFD-BF-051-035-N.jpg","img/neutralC/CFD-BF-224-002-N.jpg","img/neutralC/CFD-LF-226-174-N.jpg","1","1","1","0","1","0","0.623736499983352","0.452828000008594","0.596891900000628","1","1","1","1","1","1","1","1","1"
"250027","img/neutralC/CFD-LF-226-174-N.jpg","img/neutralC/CFD-BF-051-035-N.jpg","img/neutralC/CFD-BM-039-029-N.jpg","1","1","1","0","0","1","0.596891900000628","0.623736499983352","0.61809629999334","1","1","1","1","1","1","1","1","1"
"250027","img/neutralC/CFD-BM-039-029-N.jpg","img/neutralC/CFD-LF-226-174-N.jpg","img/neutralC/CFD-AF-215-70-N.jpg","1","1","1","1","0","0","0.61809629999334","0.596891900000628","0.600081099953968","1","1","1","1","1","1","1","1","1"
"250027","img/neutralC/CFD-AF-215-70-N.jpg","img/neutralC/CFD-BM-039-029-N.jpg","img/neutralC/CFD-IM-709-103-N.jpg","1","1","1","0","1","0","0.600081099953968","0.61809629999334","0.553157999995165","1","1","1","1","1","1","1","1","1"
"250027","img/neutralC/CFD-IM-709-103-N.jpg","img/neutralC/CFD-AF-215-70-N.jpg","img/neutralC/CFD-MF-327-002-N.jpg","1","1","1","0","0","0","0.553157999995165","0.600081099953968","0.516701600048691","1","1","1","1","1","1","1","1","1"
"250027","img/neutralC/CFD-MF-327-002-N.jpg","img/neutralC/CFD-IM-709-103-N.jpg","img/neutralC/CFD-LM-217-162-N.jpg","1","1","1","0","0","0","0.516701600048691","0.553157999995165","0.480344100040384","1","1","1","1","1","1","1","1","1"
"250027","img/neutralC/CFD-LM-217-162-N.jpg","img/neutralC/CFD-MF-327-002-N.jpg","img/neutralC/CFD-MF-300-002-N.jpg","1","1","1","0","0","0","0.480344100040384","0.516701600048691","0.504325200046878","1","1","1","1","1","1","1","1","1"
"250027","img/neutralC/CFD-MF-300-002-N.jpg","img/neutralC/CFD-LM-217-162-N.jpg","img/neutralC/CFD-WF-212-050-N.jpg","1","1","1","0","0","0","0.504325200046878","0.480344100040384","0.57681890000822","1","1","1","1","1","1","1","1","1"
"250027","img/neutralC/CFD-WF-212-050-N.jpg","img/neutralC/CFD-MF-300-002-N.jpg","img/neutralC/CFD-IM-637-007-N.jpg","1","1","1","0","0","0","0.57681890000822","0.504325200046878","0.475114100030623","1","1","1","1","1","1","1","1","1"
"250027","img/neutralC/CFD-IM-637-007-N.jpg","img/neutralC/CFD-WF-212-050-N.jpg","img/neutralC/CFD-AF-254-167-N.jpg","1","1","1","0","0","1","0.475114100030623","0.57681890000822","0.446699200023431","1","1","1","1","1","1","1","1","1"
"250027","img/neutralC/CFD-AF-254-167-N.jpg","img/neutralC/CFD-IM-637-007-N.jpg","img/neutralC/CFD-MF-329-001-N.jpg","1","1","1","1","0","0","0.446699200023431","0.475114100030623","0.51713250001194","1","1","1","1","1","1","1","1","1"
"250027","img/neutralC/CFD-MF-329-001-N.jpg","img/neutralC/CFD-AF-254-167-N.jpg","img/neutralC/CFD-BF-043-003-N.jpg","1","1","1","0","1","0","0.51713250001194","0.446699200023431","0.47929839999415","1","1","1","1","1","1","1","1","1"
"250027","img/neutralC/CFD-BF-043-003-N.jpg","img/neutralC/CFD-MF-329-001-N.jpg","img/neutralC/CFD-WF-248-129-N.jpg","1","1","0","0","0","0","0.47929839999415","0.51713250001194","0.464004100009333","1","1","1","1","1","1","1","1","2"
"250027","img/neutralC/CFD-WF-248-129-N.jpg","img/neutralC/CFD-BF-043-003-N.jpg","img/neutralC/CFD-WF-012-002-N.jpg","0","1","1","0","0","1","0.464004100009333","0.47929839999415","0.622253799985629","1","1","1","1","1","1","2","1","1"
"250027","img/neutralC/CFD-WF-012-002-N.jpg","img/neutralC/CFD-WF-248-129-N.jpg","img/neutralC/CFD-IM-675-015-N.jpg","1","0","1","1","0","1","0.622253799985629","0.464004100009333","0.590378599998076","1","1","1","1","1","1","1","2","1"
"250027","img/neutralC/CFD-IM-675-015-N.jpg","img/neutralC/CFD-WF-012-002-N.jpg",NA,"1","1",NA,"1","1",NA,"0.590378599998076","0.622253799985629",NA,"1","1",NA,"1","1",NA,"1","1",NA
"250027","img/neutralC/CFD-LM-226-175-N.jpg",NA,"img/neutralC/CFD-LF-247-051-N.jpg","0",NA,"1","0",NA,"1","0.780645599996205",NA,"0.568175999971572","1",NA,"1","1",NA,"1","1",NA,"1"
"250027","img/neutralC/CFD-LF-247-051-N.jpg","img/neutralC/CFD-LM-226-175-N.jpg","img/neutralC/CFD-LF-250-169-N.jpg","1","0","1","1","0","1","0.568175999971572","0.780645599996205","0.479712400003336","1","1","1","1","1","1","1","1","1"
"250027","img/neutralC/CFD-LF-250-169-N.jpg","img/neutralC/CFD-LF-247-051-N.jpg","img/neutralC/CFD-WM-258-125-N.jpg","1","1","1","1","1","0","0.479712400003336","0.568175999971572","0.504283900023438","1","1","1","1","1","1","1","1","1"
"250027","img/neutralC/CFD-WM-258-125-N.jpg","img/neutralC/CFD-LF-250-169-N.jpg","img/neutralC/CFD-BM-018-001-N.jpg","1","1","1","0","1","1","0.504283900023438","0.479712400003336","0.497717799968086","1","1","1","1","1","1","1","1","1"
"250027","img/neutralC/CFD-BM-018-001-N.jpg","img/neutralC/CFD-WM-258-125-N.jpg","img/neutralC/CFD-BM-005-003-N.jpg","1","1","1","1","0","1","0.497717799968086","0.504283900023438","0.484280399978161","1","1","1","1","1","1","1","1","1"
"250027","img/neutralC/CFD-BM-005-003-N.jpg","img/neutralC/CFD-BM-018-001-N.jpg","img/neutralC/CFD-BF-010-001-N.jpg","1","1","1","1","1","1","0.484280399978161","0.497717799968086","0.436613199999556","1","1","1","1","1","1","1","1","1"
"250027","img/neutralC/CFD-BF-010-001-N.jpg","img/neutralC/CFD-BM-005-003-N.jpg","img/neutralC/CFD-BF-033-028-N.jpg","1","1","1","1","1","0","0.436613199999556","0.484280399978161","0.535464300017338","1","1","1","1","1","1","1","1","1"
"250027","img/neutralC/CFD-BF-033-028-N.jpg","img/neutralC/CFD-BF-010-001-N.jpg","img/neutralC/CFD-AF-206-079-N.jpg","1","1","1","0","1","1","0.535464300017338","0.436613199999556","0.455392999981996","1","1","1","1","1","1","1","1","1"
"250027","img/neutralC/CFD-AF-206-079-N.jpg","img/neutralC/CFD-BF-033-028-N.jpg","img/neutralC/CFD-IF-665-015-N.jpg","1","1","1","1","0","0","0.455392999981996","0.535464300017338","0.528160399990156","1","1","1","1","1","1","1","1","1"
"250027","img/neutralC/CFD-IF-665-015-N.jpg","img/neutralC/CFD-AF-206-079-N.jpg","img/neutralC/CFD-WF-209-052-N.jpg","1","1","1","0","1","1","0.528160399990156","0.455392999981996","0.491481800039764","1","1","1","1","1","1","1","1","1"
"250027","img/neutralC/CFD-WF-209-052-N.jpg","img/neutralC/CFD-IF-665-015-N.jpg","img/neutralC/CFD-MF-313-002-N.jpg","1","1","1","1","0","0","0.491481800039764","0.528160399990156","0.495352800004184","1","1","1","1","1","1","1","1","1"
"250027","img/neutralC/CFD-MF-313-002-N.jpg","img/neutralC/CFD-WF-209-052-N.jpg","img/neutralC/CFD-IM-638-250-1-N.jpg","1","1","1","0","1","1","0.495352800004184","0.491481800039764","0.42590630002087","1","1","1","1","1","1","1","1","1"
"250027","img/neutralC/CFD-IM-638-250-1-N.jpg","img/neutralC/CFD-MF-313-002-N.jpg","img/neutralC/CFD-IM-686-097-N.jpg","1","1","1","1","0","0","0.42590630002087","0.495352800004184","0.449434599955566","1","1","1","1","1","1","1","1","1"
"250027","img/neutralC/CFD-IM-686-097-N.jpg","img/neutralC/CFD-IM-638-250-1-N.jpg","img/neutralC/CFD-BM-026-002-N.jpg","1","1","1","0","1","0","0.449434599955566","0.42590630002087","0.382808200025465","1","1","1","1","1","1","1","1","1"
"250027","img/neutralC/CFD-BM-026-002-N.jpg","img/neutralC/CFD-IM-686-097-N.jpg","img/neutralC/CFD-LF-242-121-N.jpg","1","1","1","0","0","0","0.382808200025465","0.449434599955566","0.525880199973471","1","1","1","1","1","1","1","1","1"
"250027","img/neutralC/CFD-LF-242-121-N.jpg","img/neutralC/CFD-BM-026-002-N.jpg","img/neutralC/CFD-IM-617-174-N.jpg","1","1","1","0","0","0","0.525880199973471","0.382808200025465","0.492398200032767","1","1","1","1","1","1","1","1","1"
"250027","img/neutralC/CFD-IM-617-174-N.jpg","img/neutralC/CFD-LF-242-121-N.jpg","img/neutralC/CFD-LF-245-166-N.jpg","1","1","1","0","0","1","0.492398200032767","0.525880199973471","0.456068800005596","1","1","1","1","1","1","1","1","1"
"250027","img/neutralC/CFD-LF-245-166-N.jpg","img/neutralC/CFD-IM-617-174-N.jpg","img/neutralC/CFD-IF-620-218-N.jpg","1","1","0","1","0","0","0.456068800005596","0.492398200032767","0.43063690001145","1","1","1","1","1","1","1","1","1"
"250027","img/neutralC/CFD-IF-620-218-N.jpg","img/neutralC/CFD-LF-245-166-N.jpg","img/neutralC/CFD-AF-241-141-N.jpg","0","1","1","0","1","1","0.43063690001145","0.456068800005596","0.645326500001829","1","1","1","1","1","1","1","1","1"
"250027","img/neutralC/CFD-AF-241-141-N.jpg","img/neutralC/CFD-IF-620-218-N.jpg","img/neutralC/CFD-LM-233-171-N.jpg","1","0","1","1","0","0","0.645326500001829","0.43063690001145","0.495314500003587","1","1","1","1","1","1","1","1","1"
"250027","img/neutralC/CFD-LM-233-171-N.jpg","img/neutralC/CFD-AF-241-141-N.jpg","img/neutralC/CFD-WM-242-011-N.jpg","1","1","1","0","1","0","0.495314500003587","0.645326500001829","0.518992900033481","1","1","1","1","1","1","1","1","1"
"250027","img/neutralC/CFD-WM-242-011-N.jpg","img/neutralC/CFD-LM-233-171-N.jpg","img/neutralC/CFD-BF-238-190-N.jpg","1","1","1","0","0","1","0.518992900033481","0.495314500003587","0.472523800039198","1","1","1","1","1","1","1","1","1"
"250027","img/neutralC/CFD-BF-238-190-N.jpg","img/neutralC/CFD-WM-242-011-N.jpg","img/neutralC/CFD-IM-657-308-N.jpg","1","1","1","1","0","0","0.472523800039198","0.518992900033481","0.526646199985407","1","1","1","1","1","1","1","1","1"
"250027","img/neutralC/CFD-IM-657-308-N.jpg","img/neutralC/CFD-BF-238-190-N.jpg","img/neutralC/CFD-BM-212-117-N.jpg","1","1","1","0","1","0","0.526646199985407","0.472523800039198","0.56436560000293","1","1","1","1","1","1","1","1","1"
"250027","img/neutralC/CFD-BM-212-117-N.jpg","img/neutralC/CFD-IM-657-308-N.jpg","img/neutralC/CFD-LM-219-295-N.jpg","1","1","1","0","0","1","0.56436560000293","0.526646199985407","0.433752799988724","1","1","1","1","1","1","1","1","1"
"250027","img/neutralC/CFD-LM-219-295-N.jpg","img/neutralC/CFD-BM-212-117-N.jpg","img/neutralC/CFD-WM-227-099-N.jpg","1","1","1","1","0","1","0.433752799988724","0.56436560000293","0.445161300012842","1","1","1","1","1","1","1","1","1"
"250027","img/neutralC/CFD-WM-227-099-N.jpg","img/neutralC/CFD-LM-219-295-N.jpg","img/neutralC/CFD-WM-017-002-N.jpg","1","1","1","1","1","0","0.445161300012842","0.433752799988724","0.432843000045978","1","1","1","1","1","1","1","1","1"
"250027","img/neutralC/CFD-WM-017-002-N.jpg","img/neutralC/CFD-WM-227-099-N.jpg","img/neutralC/CFD-AF-202-122-N.jpg","1","1","1","0","1","1","0.432843000045978","0.445161300012842","0.428977200004738","1","1","1","1","1","1","1","1","1"
"250027","img/neutralC/CFD-AF-202-122-N.jpg","img/neutralC/CFD-WM-017-002-N.jpg","img/neutralC/CFD-BM-231-155-N.jpg","1","1","1","1","0","1","0.428977200004738","0.432843000045978","0.386614499962889","1","1","1","1","1","1","1","1","1"
"250027","img/neutralC/CFD-BM-231-155-N.jpg","img/neutralC/CFD-AF-202-122-N.jpg","img/neutralC/CFD-IM-727-195-N.jpg","1","1","1","1","1","1","0.386614499962889","0.428977200004738","0.480274499976076","1","1","1","1","1","1","1","1","1"
"250027","img/neutralC/CFD-IM-727-195-N.jpg","img/neutralC/CFD-BM-231-155-N.jpg","img/neutralC/CFD-IM-653-008-N.jpg","1","1","1","1","1","0","0.480274499976076","0.386614499962889","0.450768300041091","1","1","1","1","1","1","1","1","1"
"250027","img/neutralC/CFD-IM-653-008-N.jpg","img/neutralC/CFD-IM-727-195-N.jpg",NA,"1","1",NA,"0","1",NA,"0.450768300041091","0.480274499976076",NA,"1","1",NA,"1","1",NA,"1","1",NA
"250027","img/neutralC/CFD-BM-001-014-N.jpg",NA,"img/neutralC/CFD-IM-680-369-N.jpg","0",NA,"0","0",NA,"1",NA,NA,NA,"0",NA,"0","0",NA,"0","0",NA,"0"
"250027","img/neutralC/CFD-IM-680-369-N.jpg","img/neutralC/CFD-BM-001-014-N.jpg","img/neutralC/CFD-IF-660-464-N.jpg","0","0","0","1","0","0",NA,NA,NA,"0","0","0","0","0","0","0","0","0"
"250027","img/neutralC/CFD-IF-660-464-N.jpg","img/neutralC/CFD-IM-680-369-N.jpg","img/neutralC/CFD-WF-222-092-N.jpg","0","0","0","0","1","1",NA,NA,NA,"0","0","0","0","0","0","0","0","0"
"250027","img/neutralC/CFD-WF-222-092-N.jpg","img/neutralC/CFD-IF-660-464-N.jpg","img/neutralC/CFD-MF-303-013-N.jpg","0","0","0","1","0","0",NA,NA,NA,"0","0","0","0","0","0","0","0","0"
"250027","img/neutralC/CFD-MF-303-013-N.jpg","img/neutralC/CFD-WF-222-092-N.jpg","img/neutralC/CFD-AF-233-190-N.jpg","0","0","0","0","1","0",NA,NA,"0.422902799968142","0","0","1","0","0","1","0","0","1"
"250027","img/neutralC/CFD-AF-233-190-N.jpg","img/neutralC/CFD-MF-303-013-N.jpg","img/neutralC/CFD-WF-244-163-N.jpg","0","0","0","0","0","1","0.422902799968142",NA,NA,"1","0","0","1","0","0","1","0","0"
"250027","img/neutralC/CFD-WF-244-163-N.jpg","img/neutralC/CFD-AF-233-190-N.jpg","img/neutralC/CFD-BM-250-170-N.jpg","0","0","1","1","0","1",NA,"0.422902799968142","0.452043600031175","0","1","1","0","1","1","0","1","1"
"250027","img/neutralC/CFD-BM-250-170-N.jpg","img/neutralC/CFD-WF-244-163-N.jpg","img/neutralC/CFD-WM-209-038-N.jpg","1","0","1","1","1","0","0.452043600031175",NA,"0.547290900023654","1","0","1","1","0","1","1","0","1"
"250027","img/neutralC/CFD-WM-209-038-N.jpg","img/neutralC/CFD-BM-250-170-N.jpg","img/neutralC/CFD-IM-667-369-N.jpg","1","1","1","0","1","0","0.547290900023654","0.452043600031175","0.611985399969853","1","1","1","1","1","1","1","1","1"
"250027","img/neutralC/CFD-IM-667-369-N.jpg","img/neutralC/CFD-WM-209-038-N.jpg","img/neutralC/CFD-WM-015-002-N.jpg","1","1","1","0","0","0","0.611985399969853","0.547290900023654","0.555059399979655","1","1","1","1","1","1","1","1","1"
"250027","img/neutralC/CFD-WM-015-002-N.jpg","img/neutralC/CFD-IM-667-369-N.jpg","img/neutralC/CFD-BF-014-002-N.jpg","1","1","0","0","0","1","0.555059399979655","0.611985399969853",NA,"1","1","0","1","1","0","1","1","0"
"250027","img/neutralC/CFD-BF-014-002-N.jpg","img/neutralC/CFD-WM-015-002-N.jpg","img/neutralC/CFD-WF-030-002-N.jpg","0","1","0","1","0","0",NA,"0.555059399979655",NA,"0","1","0","0","1","0","0","1","0"
"250027","img/neutralC/CFD-WF-030-002-N.jpg","img/neutralC/CFD-BF-014-002-N.jpg","img/neutralC/CFD-LF-206-078-N.jpg","0","0","1","0","1","1",NA,NA,"0.35961549996864","0","0","1","0","0","1","0","0","1"
"250027","img/neutralC/CFD-LF-206-078-N.jpg","img/neutralC/CFD-WF-030-002-N.jpg","img/neutralC/CFD-MF-357-002-N.jpg","1","0","1","1","0","0","0.35961549996864",NA,"0.528616899973713","1","0","1","1","0","1","1","0","1"
"250027","img/neutralC/CFD-MF-357-002-N.jpg","img/neutralC/CFD-LF-206-078-N.jpg","img/neutralC/CFD-BM-217-082-N.jpg","1","1","0","0","1","0","0.528616899973713","0.35961549996864",NA,"1","1","0","1","1","0","1","1","0"
"250027","img/neutralC/CFD-BM-217-082-N.jpg","img/neutralC/CFD-MF-357-002-N.jpg","img/neutralC/CFD-LF-255-088-N.jpg","0","1","0","0","0","0",NA,"0.528616899973713",NA,"0","1","0","0","1","0","0","1","0"
"250027","img/neutralC/CFD-LF-255-088-N.jpg","img/neutralC/CFD-BM-217-082-N.jpg","img/neutralC/CFD-IM-664-651-N.jpg","0","0","0","0","0","1",NA,NA,NA,"0","0","0","0","0","0","0","0","0"
"250027","img/neutralC/CFD-IM-664-651-N.jpg","img/neutralC/CFD-LF-255-088-N.jpg","img/neutralC/CFD-IM-706-002-N.jpg","0","0","0","1","0","0",NA,NA,NA,"0","0","0","0","0","0","0","0","0"
"250027","img/neutralC/CFD-IM-706-002-N.jpg","img/neutralC/CFD-IM-664-651-N.jpg","img/neutralC/CFD-IM-702-101-N.jpg","0","0","0","0","1","1",NA,NA,NA,"0","0","0","0","0","0","0","0","0"
"250027","img/neutralC/CFD-IM-702-101-N.jpg","img/neutralC/CFD-IM-706-002-N.jpg","img/neutralC/CFD-IF-626-375-N.jpg","0","0","1","1","0","0",NA,NA,"0.477998400048818","0","0","1","0","0","1","0","0","1"
"250027","img/neutralC/CFD-IF-626-375-N.jpg","img/neutralC/CFD-IM-702-101-N.jpg","img/neutralC/CFD-AM-220-134-N.jpg","1","0","0","0","1","0","0.477998400048818",NA,NA,"1","0","0","1","0","0","1","0","0"
"250027","img/neutralC/CFD-AM-220-134-N.jpg","img/neutralC/CFD-IF-626-375-N.jpg","img/neutralC/CFD-MF-305-014-N.jpg","0","1","1","0","0","1",NA,"0.477998400048818","0.375521600013599","0","1","1","0","1","1","0","1","1"
"250027","img/neutralC/CFD-MF-305-014-N.jpg","img/neutralC/CFD-AM-220-134-N.jpg","img/neutralC/CFD-AF-253-130-N.jpg","1","0","0","1","0","1","0.375521600013599",NA,NA,"1","0","0","1","0","0","1","0","0"
"250027","img/neutralC/CFD-AF-253-130-N.jpg","img/neutralC/CFD-MF-305-014-N.jpg","img/neutralC/CFD-BF-237-172-N.jpg","0","1","1","1","1","1",NA,"0.375521600013599","0.40719940001145","0","1","1","0","1","1","0","1","1"
"250027","img/neutralC/CFD-BF-237-172-N.jpg","img/neutralC/CFD-AF-253-130-N.jpg","img/neutralC/CFD-WF-007-001-N.jpg","1","0","1","1","1","1","0.40719940001145",NA,"0.381534899992403","1","0","1","1","0","1","1","0","1"
"250027","img/neutralC/CFD-WF-007-001-N.jpg","img/neutralC/CFD-BF-237-172-N.jpg","img/neutralC/CFD-MF-316-001-N.jpg","1","1","1","1","1","0","0.381534899992403","0.40719940001145","0.468042399967089","1","1","1","1","1","1","1","1","1"
"250027","img/neutralC/CFD-MF-316-001-N.jpg","img/neutralC/CFD-WF-007-001-N.jpg","img/neutralC/CFD-MF-343-001-N.jpg","1","1","1","0","1","1","0.468042399967089","0.381534899992403","0.433390600024723","1","1","1","1","1","1","1","1","1"
"250027","img/neutralC/CFD-MF-343-001-N.jpg","img/neutralC/CFD-MF-316-001-N.jpg","img/neutralC/CFD-MM-324-069-N.jpg","1","1","1","1","0","1","0.433390600024723","0.468042399967089","0.365039199998137","1","1","1","1","1","1","1","1","1"
"250027","img/neutralC/CFD-MM-324-069-N.jpg","img/neutralC/CFD-MF-343-001-N.jpg","img/neutralC/CFD-LM-225-130-N.jpg","1","1","0","1","1","0","0.365039199998137","0.433390600024723",NA,"1","1","0","1","1","0","1","1","0"
"250027","img/neutralC/CFD-LM-225-130-N.jpg","img/neutralC/CFD-MM-324-069-N.jpg","img/neutralC/CFD-WM-218-074-N.jpg","0","1","1","0","1","1",NA,"0.365039199998137","0.410015099972952","0","1","1","0","1","1","0","1","1"
"250027","img/neutralC/CFD-WM-218-074-N.jpg","img/neutralC/CFD-LM-225-130-N.jpg","img/neutralC/CFD-LM-200-045-N.jpg","1","0","0","1","0","1","0.410015099972952",NA,NA,"1","0","0","1","0","0","1","0","0"
"250027","img/neutralC/CFD-LM-200-045-N.jpg","img/neutralC/CFD-WM-218-074-N.jpg",NA,"0","1",NA,"1","1",NA,NA,"0.410015099972952",NA,"0","1",NA,"0","1",NA,"0","1",NA
"250027","img/neutralC/CFD-BM-241-235-N.jpg",NA,"img/neutralC/CFD-WM-034-030-N.jpg","0",NA,"1","0",NA,"1",NA,NA,"0.699052500014659","0",NA,"1","0",NA,"1","0",NA,"1"
"250027","img/neutralC/CFD-WM-034-030-N.jpg","img/neutralC/CFD-BM-241-235-N.jpg","img/neutralC/CFD-BF-247-179-N.jpg","1","0","1","1","0","0","0.699052500014659",NA,"0.53977470000973","1","0","1","1","0","1","1","0","1"
"250027","img/neutralC/CFD-BF-247-179-N.jpg","img/neutralC/CFD-WM-034-030-N.jpg","img/neutralC/CFD-BF-044-034-N.jpg","1","1","1","0","1","0","0.53977470000973","0.699052500014659","0.526334800000768","1","1","1","1","1","1","1","1","1"
"250027","img/neutralC/CFD-BF-044-034-N.jpg","img/neutralC/CFD-BF-247-179-N.jpg","img/neutralC/CFD-BM-238-242-N.jpg","1","1","1","0","0","0","0.526334800000768","0.53977470000973","0.492354699992575","1","1","1","1","1","1","1","1","1"
"250027","img/neutralC/CFD-BM-238-242-N.jpg","img/neutralC/CFD-BF-044-034-N.jpg","img/neutralC/CFD-LM-213-061-N.jpg","1","1","1","0","0","0","0.492354699992575","0.526334800000768","0.73914080002578","1","1","1","1","1","1","1","1","1"
"250027","img/neutralC/CFD-LM-213-061-N.jpg","img/neutralC/CFD-BM-238-242-N.jpg","img/neutralC/CFD-BF-207-004-N.jpg","1","1","1","0","0","1","0.73914080002578","0.492354699992575","0.472745699982625","1","1","1","1","1","1","1","1","1"
"250027","img/neutralC/CFD-BF-207-004-N.jpg","img/neutralC/CFD-LM-213-061-N.jpg","img/neutralC/CFD-BF-036-027-N.jpg","1","1","1","1","0","0","0.472745699982625","0.73914080002578","0.457370600022841","1","1","1","1","1","1","1","1","1"
"250027","img/neutralC/CFD-BF-036-027-N.jpg","img/neutralC/CFD-BF-207-004-N.jpg","img/neutralC/CFD-WF-208-068-N.jpg","1","1","1","0","1","1","0.457370600022841","0.472745699982625","0.404944400012027","1","1","1","1","1","1","1","1","1"
"250027","img/neutralC/CFD-WF-208-068-N.jpg","img/neutralC/CFD-BF-036-027-N.jpg","img/neutralC/CFD-BF-002-001-N.jpg","1","1","1","1","0","0","0.404944400012027","0.457370600022841","0.500091399997473","1","1","1","1","1","1","1","1","1"
"250027","img/neutralC/CFD-BF-002-001-N.jpg","img/neutralC/CFD-WF-208-068-N.jpg","img/neutralC/CFD-BF-011-002-N.jpg","1","1","1","0","1","1","0.500091399997473","0.404944400012027","0.57477360003395","1","1","1","1","1","1","1","1","1"
"250027","img/neutralC/CFD-BF-011-002-N.jpg","img/neutralC/CFD-BF-002-001-N.jpg","img/neutralC/CFD-BM-207-024-N.jpg","1","1","1","1","0","1","0.57477360003395","0.500091399997473","0.507504400040489","1","1","1","1","1","1","1","1","1"
"250027","img/neutralC/CFD-BM-207-024-N.jpg","img/neutralC/CFD-BF-011-002-N.jpg","img/neutralC/CFD-BF-236-177-N.jpg","1","1","1","1","1","0","0.507504400040489","0.57477360003395","0.626844200014602","1","1","1","1","1","1","1","1","1"
"250027","img/neutralC/CFD-BF-236-177-N.jpg","img/neutralC/CFD-BM-207-024-N.jpg","img/neutralC/CFD-WF-233-112-N.jpg","1","1","1","0","1","1","0.626844200014602","0.507504400040489","0.760491500026546","1","1","1","1","1","1","1","1","1"
"250027","img/neutralC/CFD-WF-233-112-N.jpg","img/neutralC/CFD-BF-236-177-N.jpg","img/neutralC/CFD-MF-301-024-N.jpg","1","1","1","1","0","0","0.760491500026546","0.626844200014602","0.540034500008915","1","1","1","1","1","1","1","1","1"
"250027","img/neutralC/CFD-MF-301-024-N.jpg","img/neutralC/CFD-WF-233-112-N.jpg","img/neutralC/CFD-IF-742-103-N.jpg","1","1","1","0","1","1","0.540034500008915","0.760491500026546","0.428357600001618","1","1","1","1","1","1","1","1","1"
"250027","img/neutralC/CFD-IF-742-103-N.jpg","img/neutralC/CFD-MF-301-024-N.jpg","img/neutralC/CFD-IF-677-452-1-N.jpg","1","1","1","1","0","1","0.428357600001618","0.540034500008915","0.418193100020289","1","1","1","1","1","1","1","1","1"
"250027","img/neutralC/CFD-IF-677-452-1-N.jpg","img/neutralC/CFD-IF-742-103-N.jpg","img/neutralC/CFD-BM-036-003-N.jpg","1","1","1","1","1","1","0.418193100020289","0.428357600001618","0.479917099990416","1","1","1","1","1","1","1","1","1"
"250027","img/neutralC/CFD-BM-036-003-N.jpg","img/neutralC/CFD-IF-677-452-1-N.jpg","img/neutralC/CFD-WF-234-086-N.jpg","1","1","1","1","1","1","0.479917099990416","0.418193100020289","0.406690300034825","1","1","1","1","1","1","1","1","1"
"250027","img/neutralC/CFD-WF-234-086-N.jpg","img/neutralC/CFD-BM-036-003-N.jpg","img/neutralC/CFD-IM-721-341-N.jpg","1","1","1","1","1","1","0.406690300034825","0.479917099990416","0.446932999999262","1","1","1","1","1","1","1","1","1"
"250027","img/neutralC/CFD-IM-721-341-N.jpg","img/neutralC/CFD-WF-234-086-N.jpg","img/neutralC/CFD-WM-248-036-N.jpg","1","1","1","1","1","1","0.446932999999262","0.406690300034825","0.432131999987178","1","1","1","1","1","1","1","1","1"
"250027","img/neutralC/CFD-WM-248-036-N.jpg","img/neutralC/CFD-IM-721-341-N.jpg","img/neutralC/CFD-LF-204-133-N.jpg","1","1","1","1","1","1","0.432131999987178","0.446932999999262","0.463740999985021","1","1","1","1","1","1","1","1","1"
"250027","img/neutralC/CFD-LF-204-133-N.jpg","img/neutralC/CFD-WM-248-036-N.jpg","img/neutralC/CFD-IF-729-393-N.jpg","1","1","1","1","1","0","0.463740999985021","0.432131999987178","0.481992300017737","1","1","1","1","1","1","1","1","1"
"250027","img/neutralC/CFD-IF-729-393-N.jpg","img/neutralC/CFD-LF-204-133-N.jpg","img/neutralC/CFD-WF-029-002-N.jpg","1","1","1","0","1","0","0.481992300017737","0.463740999985021","0.493338499974925","1","1","1","1","1","1","1","1","1"
"250027","img/neutralC/CFD-WF-029-002-N.jpg","img/neutralC/CFD-IF-729-393-N.jpg","img/neutralC/CFD-WM-014-002-N.jpg","1","1","1","0","0","0","0.493338499974925","0.481992300017737","0.543260900012683","1","1","1","1","1","1","1","1","1"
"250027","img/neutralC/CFD-WM-014-002-N.jpg","img/neutralC/CFD-WF-029-002-N.jpg","img/neutralC/CFD-BF-214-308-N.jpg","1","1","1","0","0","1","0.543260900012683","0.493338499974925","0.442173899966292","1","1","1","1","1","1","1","1","1"
"250027","img/neutralC/CFD-BF-214-308-N.jpg","img/neutralC/CFD-WM-014-002-N.jpg","img/neutralC/CFD-BF-006-017-N.jpg","1","1","1","1","0","0","0.442173899966292","0.543260900012683","0.574674999981653","1","1","1","1","1","1","1","1","1"
"250027","img/neutralC/CFD-BF-006-017-N.jpg","img/neutralC/CFD-BF-214-308-N.jpg","img/neutralC/CFD-IM-696-001-N.jpg","1","1","1","0","1","0","0.574674999981653","0.442173899966292","0.490525400033221","1","1","1","1","1","1","1","1","1"
"250027","img/neutralC/CFD-IM-696-001-N.jpg","img/neutralC/CFD-BF-006-017-N.jpg","img/neutralC/CFD-AM-230-150-N.jpg","1","1","1","0","0","0","0.490525400033221","0.574674999981653","0.427671700017527","1","1","1","1","1","1","1","1","1"
"250027","img/neutralC/CFD-AM-230-150-N.jpg","img/neutralC/CFD-IM-696-001-N.jpg","img/neutralC/CFD-BF-027-002-N.jpg","1","1","1","0","0","1","0.427671700017527","0.490525400033221","0.364486500038765","1","1","1","1","1","1","1","1","1"
"250027","img/neutralC/CFD-BF-027-002-N.jpg","img/neutralC/CFD-AM-230-150-N.jpg","img/neutralC/CFD-IM-726-248-N.jpg","1","1","1","1","0","0","0.364486500038765","0.427671700017527","0.628993000020273","1","1","1","1","1","1","1","1","1"
"250027","img/neutralC/CFD-IM-726-248-N.jpg","img/neutralC/CFD-BF-027-002-N.jpg","img/neutralC/CFD-IM-707-105-N.jpg","1","1","0","0","1","1","0.628993000020273","0.364486500038765","0.509408900048584","1","1","1","1","1","1","1","1","1"
"250027","img/neutralC/CFD-IM-707-105-N.jpg","img/neutralC/CFD-IM-726-248-N.jpg",NA,"0","1",NA,"1","0",NA,"0.509408900048584","0.628993000020273",NA,"1","1",NA,"1","1",NA,"1","1",NA
"250027","img/neutralC/CFD-IM-701-312-N.jpg",NA,"img/neutralC/CFD-AF-227-207-N.jpg","1",NA,"1","0",NA,"1","0.613943199976347",NA,"0.479092800000217","1",NA,"1","1",NA,"1","1",NA,"1"
"250027","img/neutralC/CFD-AF-227-207-N.jpg","img/neutralC/CFD-IM-701-312-N.jpg","img/neutralC/CFD-BF-222-240-N.jpg","1","1","1","1","0","0","0.479092800000217","0.613943199976347","0.544598800013773","1","1","1","1","1","1","1","1","1"
"250027","img/neutralC/CFD-BF-222-240-N.jpg","img/neutralC/CFD-AF-227-207-N.jpg","img/neutralC/CFD-AF-239-171-N.jpg","1","1","1","0","1","1","0.544598800013773","0.479092800000217","0.479397399991285","1","1","1","1","1","1","1","1","1"
"250027","img/neutralC/CFD-AF-239-171-N.jpg","img/neutralC/CFD-BF-222-240-N.jpg","img/neutralC/CFD-BM-013-002-N.jpg","1","1","1","1","0","1","0.479397399991285","0.544598800013773","0.415142700017896","1","1","1","1","1","1","1","1","1"
"250027","img/neutralC/CFD-BM-013-002-N.jpg","img/neutralC/CFD-AF-239-171-N.jpg","img/neutralC/CFD-BF-004-014-N.jpg","1","1","1","1","1","1","0.415142700017896","0.479397399991285","0.404895600047894","1","1","1","1","1","1","1","1","1"
"250027","img/neutralC/CFD-BF-004-014-N.jpg","img/neutralC/CFD-BM-013-002-N.jpg","img/neutralC/CFD-BM-028-002-N.jpg","1","1","1","1","1","1","0.404895600047894","0.415142700017896","0.385915699996985","1","1","1","1","1","1","1","1","1"
"250027","img/neutralC/CFD-BM-028-002-N.jpg","img/neutralC/CFD-BF-004-014-N.jpg","img/neutralC/CFD-WF-006-002-N.jpg","1","1","1","1","1","0","0.385915699996985","0.404895600047894","0.376321300049312","1","1","1","1","1","1","1","1","1"
"250027","img/neutralC/CFD-WF-006-002-N.jpg","img/neutralC/CFD-BM-028-002-N.jpg","img/neutralC/CFD-MF-312-002-N.jpg","1","1","1","0","1","1","0.376321300049312","0.385915699996985","0.331126199977007","1","1","1","1","1","1","1","1","1"
"250027","img/neutralC/CFD-MF-312-002-N.jpg","img/neutralC/CFD-WF-006-002-N.jpg","img/neutralC/CFD-WM-202-107-N.jpg","1","1","1","1","0","1","0.331126199977007","0.376321300049312","0.374281300057191","1","1","1","1","1","1","1","1","1"
"250027","img/neutralC/CFD-WM-202-107-N.jpg","img/neutralC/CFD-MF-312-002-N.jpg","img/neutralC/CFD-WM-228-065-N.jpg","1","1","0","1","1","0","0.374281300057191","0.331126199977007","0.346311999950558","1","1","1","1","1","1","1","1","1"
"250027","img/neutralC/CFD-WM-228-065-N.jpg","img/neutralC/CFD-WM-202-107-N.jpg","img/neutralC/CFD-IF-625-225-N.jpg","0","1","1","0","1","0","0.346311999950558","0.374281300057191","0.46241460001329","1","1","1","1","1","1","1","1","1"
"250027","img/neutralC/CFD-IF-625-225-N.jpg","img/neutralC/CFD-WM-228-065-N.jpg","img/neutralC/CFD-LM-247-095-N.jpg","1","0","1","0","0","0","0.46241460001329","0.346311999950558","0.571531100024004","1","1","1","1","1","1","1","1","1"
"250027","img/neutralC/CFD-LM-247-095-N.jpg","img/neutralC/CFD-IF-625-225-N.jpg","img/neutralC/CFD-BM-213-134-N.jpg","1","1","1","0","0","1","0.571531100024004","0.46241460001329","0.406826399965212","1","1","1","1","1","1","1","1","1"
"250027","img/neutralC/CFD-BM-213-134-N.jpg","img/neutralC/CFD-LM-247-095-N.jpg","img/neutralC/CFD-LF-241-188-N.jpg","1","1","1","1","0","0","0.406826399965212","0.571531100024004","0.538172899978235","1","1","1","1","1","1","1","1","1"
"250027","img/neutralC/CFD-LF-241-188-N.jpg","img/neutralC/CFD-BM-213-134-N.jpg","img/neutralC/CFD-WM-254-152-N.jpg","1","1","1","0","1","1","0.538172899978235","0.406826399965212","0.39564820000669","1","1","1","1","1","1","1","1","1"
"250027","img/neutralC/CFD-WM-254-152-N.jpg","img/neutralC/CFD-LF-241-188-N.jpg","img/neutralC/CFD-IF-744-114-N.jpg","1","1","1","1","0","0","0.39564820000669","0.538172899978235","0.387292500003241","1","1","1","1","1","1","1","1","1"
"250027","img/neutralC/CFD-IF-744-114-N.jpg","img/neutralC/CFD-WM-254-152-N.jpg","img/neutralC/CFD-LF-208-127-N.jpg","1","1","1","0","1","0","0.387292500003241","0.39564820000669","0.483986699953675","1","1","1","1","1","1","1","1","1"
"250027","img/neutralC/CFD-LF-208-127-N.jpg","img/neutralC/CFD-IF-744-114-N.jpg","img/neutralC/CFD-MF-336-016-N.jpg","1","1","1","0","0","1","0.483986699953675","0.387292500003241","0.555891100026201","1","1","1","1","1","1","1","1","1"
"250027","img/neutralC/CFD-MF-336-016-N.jpg","img/neutralC/CFD-LF-208-127-N.jpg","img/neutralC/CFD-WF-033-002-N.jpg","1","1","1","1","0","1","0.555891100026201","0.483986699953675","0.460856100020465","1","1","1","1","1","1","1","1","1"
"250027","img/neutralC/CFD-WF-033-002-N.jpg","img/neutralC/CFD-MF-336-016-N.jpg","img/neutralC/CFD-BF-045-003-N.jpg","1","1","1","1","1","0","0.460856100020465","0.555891100026201","0.616087300004438","1","1","1","1","1","1","1","1","1"
"250027","img/neutralC/CFD-BF-045-003-N.jpg","img/neutralC/CFD-WF-033-002-N.jpg","img/neutralC/CFD-BM-003-003-N.jpg","1","1","1","0","1","0","0.616087300004438","0.460856100020465","0.464917000033893","1","1","1","1","1","1","1","1","1"
"250027","img/neutralC/CFD-BM-003-003-N.jpg","img/neutralC/CFD-BF-045-003-N.jpg","img/neutralC/CFD-LF-225-164-N.jpg","1","1","1","0","0","1","0.464917000033893","0.616087300004438","0.437763499969151","1","1","1","1","1","1","1","1","1"
"250027","img/neutralC/CFD-LF-225-164-N.jpg","img/neutralC/CFD-BM-003-003-N.jpg","img/neutralC/CFD-LF-210-220-N.jpg","1","1","1","1","0","1","0.437763499969151","0.464917000033893","0.37338229996385","1","1","1","1","1","1","1","1","1"
"250027","img/neutralC/CFD-LF-210-220-N.jpg","img/neutralC/CFD-LF-225-164-N.jpg","img/neutralC/CFD-BM-010-003-N.jpg","1","1","1","1","1","0","0.37338229996385","0.437763499969151","0.513623100006953","1","1","1","1","1","1","1","1","1"
"250027","img/neutralC/CFD-BM-010-003-N.jpg","img/neutralC/CFD-LF-210-220-N.jpg","img/neutralC/CFD-AM-221-184-N.jpg","1","1","1","0","1","1","0.513623100006953","0.37338229996385","0.376153599994723","1","1","1","1","1","1","1","1","1"
"250027","img/neutralC/CFD-AM-221-184-N.jpg","img/neutralC/CFD-BM-010-003-N.jpg","img/neutralC/CFD-AF-210-050-N.jpg","1","1","1","1","0","1","0.376153599994723","0.513623100006953","0.533991300035268","1","1","1","1","1","1","1","1","1"
"250027","img/neutralC/CFD-AF-210-050-N.jpg","img/neutralC/CFD-AM-221-184-N.jpg","img/neutralC/CFD-IF-673-389-N.jpg","1","1","1","1","1","0","0.533991300035268","0.376153599994723","0.493776999996044","1","1","1","1","1","1","1","1","1"
"250027","img/neutralC/CFD-IF-673-389-N.jpg","img/neutralC/CFD-AF-210-050-N.jpg","img/neutralC/CFD-WF-223-133-N.jpg","1","1","1","0","1","0","0.493776999996044","0.533991300035268","0.414099999994505","1","1","1","1","1","1","1","1","1"
"250027","img/neutralC/CFD-WF-223-133-N.jpg","img/neutralC/CFD-IF-673-389-N.jpg","img/neutralC/CFD-IM-659-359-N.jpg","1","1","0","0","0","0","0.414099999994505","0.493776999996044","0.359056600020267","1","1","1","1","1","1","1","1","1"
"250027","img/neutralC/CFD-IM-659-359-N.jpg","img/neutralC/CFD-WF-223-133-N.jpg","img/neutralC/CFD-IM-738-191-N.jpg","0","1","1","0","0","0","0.359056600020267","0.414099999994505","0.743428900022991","1","1","1","1","1","1","1","1","1"
"250027","img/neutralC/CFD-IM-738-191-N.jpg","img/neutralC/CFD-IM-659-359-N.jpg","img/neutralC/CFD-LM-238-129-N.jpg","1","0","1","0","0","1","0.743428900022991","0.359056600020267","0.41735190001782","1","1","1","1","1","1","1","1","1"
"250027","img/neutralC/CFD-LM-238-129-N.jpg","img/neutralC/CFD-IM-738-191-N.jpg",NA,"1","1",NA,"1","0",NA,"0.41735190001782","0.743428900022991",NA,"1","1",NA,"1","1",NA,"1","1",NA
"250027","img/neutralC/CFD-BF-025-002-N.jpg",NA,"img/neutralC/CFD-IF-642-295-N.jpg","1",NA,"1","0",NA,"1","0.657205800001975",NA,"0.40890819998458","1",NA,"1","1",NA,"1","1",NA,"1"
"250027","img/neutralC/CFD-IF-642-295-N.jpg","img/neutralC/CFD-BF-025-002-N.jpg","img/neutralC/CFD-LM-201-057-N.jpg","1","1","1","1","0","1","0.40890819998458","0.657205800001975","0.386657700000796","1","1","1","1","1","1","1","1","1"
"250027","img/neutralC/CFD-LM-201-057-N.jpg","img/neutralC/CFD-IF-642-295-N.jpg","img/neutralC/CFD-LM-243-075-N.jpg","1","1","1","1","1","0","0.386657700000796","0.40890819998458","0.449227300006896","1","1","1","1","1","1","1","1","1"
"250027","img/neutralC/CFD-LM-243-075-N.jpg","img/neutralC/CFD-LM-201-057-N.jpg","img/neutralC/CFD-BM-251-013-N.jpg","1","1","1","0","1","1","0.449227300006896","0.386657700000796","0.391299800015986","1","1","1","1","1","1","1","1","1"
"250027","img/neutralC/CFD-BM-251-013-N.jpg","img/neutralC/CFD-LM-243-075-N.jpg","img/neutralC/CFD-WM-019-003-N.jpg","1","1","1","1","0","1","0.391299800015986","0.449227300006896","0.38904109998839","1","1","1","1","1","1","1","1","1"
"250027","img/neutralC/CFD-WM-019-003-N.jpg","img/neutralC/CFD-BM-251-013-N.jpg","img/neutralC/CFD-BF-202-109-N.jpg","1","1","1","1","1","1","0.38904109998839","0.391299800015986","0.40510470001027","1","1","1","1","1","1","1","1","1"
"250027","img/neutralC/CFD-BF-202-109-N.jpg","img/neutralC/CFD-WM-019-003-N.jpg","img/neutralC/CFD-MF-309-002-N.jpg","1","1","1","1","1","0","0.40510470001027","0.38904109998839","0.524585500010289","1","1","1","1","1","1","1","1","1"
"250027","img/neutralC/CFD-MF-309-002-N.jpg","img/neutralC/CFD-BF-202-109-N.jpg","img/neutralC/CFD-WM-012-001-N.jpg","1","1","1","0","1","1","0.524585500010289","0.40510470001027","0.36086230003275","1","1","1","1","1","1","1","1","1"
"250027","img/neutralC/CFD-WM-012-001-N.jpg","img/neutralC/CFD-MF-309-002-N.jpg","img/neutralC/CFD-WF-017-003-N.jpg","1","1","1","1","0","1","0.36086230003275","0.524585500010289","0.375776599976234","1","1","1","1","1","1","1","1","1"
"250027","img/neutralC/CFD-WF-017-003-N.jpg","img/neutralC/CFD-WM-012-001-N.jpg","img/neutralC/CFD-IM-648-337-N.jpg","1","1","0","1","1","0","0.375776599976234","0.36086230003275","0.353653400030453","1","1","1","1","1","1","1","1","2"
"250027","img/neutralC/CFD-IM-648-337-N.jpg","img/neutralC/CFD-WF-017-003-N.jpg","img/neutralC/CFD-WF-005-010-N.jpg","0","1","1","0","1","0","0.353653400030453","0.375776599976234","0.534128400031477","1","1","1","1","1","1","2","1","1"
"250027","img/neutralC/CFD-WF-005-010-N.jpg","img/neutralC/CFD-IM-648-337-N.jpg","img/neutralC/CFD-AM-247-165-N.jpg","1","0","1","0","0","1","0.534128400031477","0.353653400030453","0.404263000003994","1","1","1","1","1","1","1","2","1"
"250027","img/neutralC/CFD-AM-247-165-N.jpg","img/neutralC/CFD-WF-005-010-N.jpg","img/neutralC/CFD-LM-216-082-N.jpg","1","1","1","1","0","0","0.404263000003994","0.534128400031477","0.449325199995656","1","1","1","1","1","1","1","1","1"
"250027","img/neutralC/CFD-LM-216-082-N.jpg","img/neutralC/CFD-AM-247-165-N.jpg","img/neutralC/CFD-MM-317-061-N.jpg","1","1","1","0","1","1","0.449325199995656","0.404263000003994","0.428132399974857","1","1","1","1","1","1","1","1","1"
"250027","img/neutralC/CFD-MM-317-061-N.jpg","img/neutralC/CFD-LM-216-082-N.jpg","img/neutralC/CFD-WM-006-002-N.jpg","1","1","1","1","0","0","0.428132399974857","0.449325199995656","0.432736000046134","1","1","1","1","1","1","1","1","1"
"250027","img/neutralC/CFD-WM-006-002-N.jpg","img/neutralC/CFD-MM-317-061-N.jpg","img/neutralC/CFD-WM-026-001-N.jpg","1","1","1","0","1","1","0.432736000046134","0.428132399974857","0.368274600012228","1","1","1","1","1","1","1","1","1"
"250027","img/neutralC/CFD-WM-026-001-N.jpg","img/neutralC/CFD-WM-006-002-N.jpg","img/neutralC/CFD-BM-205-001-N.jpg","1","1","1","1","0","0","0.368274600012228","0.432736000046134","0.4465698999702","1","1","1","1","1","1","1","1","1"
"250027","img/neutralC/CFD-BM-205-001-N.jpg","img/neutralC/CFD-WM-026-001-N.jpg","img/neutralC/CFD-WM-215-041-N.jpg","1","1","1","0","1","0","0.4465698999702","0.368274600012228","0.407296499994118","1","1","1","1","1","1","1","1","1"
"250027","img/neutralC/CFD-WM-215-041-N.jpg","img/neutralC/CFD-BM-205-001-N.jpg","img/neutralC/CFD-BF-041-001-N.jpg","1","1","1","0","0","1","0.407296499994118","0.4465698999702","0.356218700006139","1","1","1","1","1","1","1","1","1"
"250027","img/neutralC/CFD-BF-041-001-N.jpg","img/neutralC/CFD-WM-215-041-N.jpg","img/neutralC/CFD-LM-244-068-N.jpg","1","1","1","1","0","1","0.356218700006139","0.407296499994118","0.380733600002714","1","1","1","1","1","1","1","1","1"
"250027","img/neutralC/CFD-LM-244-068-N.jpg","img/neutralC/CFD-BF-041-001-N.jpg","img/neutralC/CFD-BM-248-128-N.jpg","1","1","1","1","1","0","0.380733600002714","0.356218700006139","0.469223199994303","1","1","1","1","1","1","1","1","1"
"250027","img/neutralC/CFD-BM-248-128-N.jpg","img/neutralC/CFD-LM-244-068-N.jpg","img/neutralC/CFD-WF-240-083-N.jpg","1","1","0","0","1","0","0.469223199994303","0.380733600002714","0.410422100045253","1","1","1","1","1","1","1","1","2"
"250027","img/neutralC/CFD-WF-240-083-N.jpg","img/neutralC/CFD-BM-248-128-N.jpg","img/neutralC/CFD-WM-249-239-N.jpg","0","1","1","0","0","1","0.410422100045253","0.469223199994303","0.503179099992849","1","1","1","1","1","1","2","1","1"
"250027","img/neutralC/CFD-WM-249-239-N.jpg","img/neutralC/CFD-WF-240-083-N.jpg","img/neutralC/CFD-BF-228-212-N.jpg","1","0","1","1","0","0","0.503179099992849","0.410422100045253","0.520979300024919","1","1","1","1","1","1","1","2","1"
"250027","img/neutralC/CFD-BF-228-212-N.jpg","img/neutralC/CFD-WM-249-239-N.jpg","img/neutralC/CFD-IM-646-023-N.jpg","1","1","1","0","1","1","0.520979300024919","0.503179099992849","0.400433200004045","1","1","1","1","1","1","1","1","1"
"250027","img/neutralC/CFD-IM-646-023-N.jpg","img/neutralC/CFD-BF-228-212-N.jpg","img/neutralC/CFD-AF-240-206-N.jpg","1","1","1","1","0","0","0.400433200004045","0.520979300024919","0.518192600051407","1","1","1","1","1","1","1","1","1"
"250027","img/neutralC/CFD-AF-240-206-N.jpg","img/neutralC/CFD-IM-646-023-N.jpg","img/neutralC/CFD-WM-212-097-N.jpg","1","1","1","0","1","0","0.518192600051407","0.400433200004045","0.617739500012249","1","1","1","1","1","1","1","1","1"
"250027","img/neutralC/CFD-WM-212-097-N.jpg","img/neutralC/CFD-AF-240-206-N.jpg","img/neutralC/CFD-MF-335-002-N.jpg","1","1","1","0","0","0","0.617739500012249","0.518192600051407","0.538152399996761","1","1","1","1","1","1","1","1","1"
"250027","img/neutralC/CFD-MF-335-002-N.jpg","img/neutralC/CFD-WM-212-097-N.jpg","img/neutralC/CFD-LM-214-165-N.jpg","1","1","1","0","0","1","0.538152399996761","0.617739500012249","0.433779100014362","1","1","1","1","1","1","1","1","1"
"250027","img/neutralC/CFD-LM-214-165-N.jpg","img/neutralC/CFD-MF-335-002-N.jpg","img/neutralC/CFD-WF-228-196-N.jpg","1","1","1","1","0","0","0.433779100014362","0.538152399996761","0.407152300060261","1","1","1","1","1","1","1","1","1"
"250027","img/neutralC/CFD-WF-228-196-N.jpg","img/neutralC/CFD-LM-214-165-N.jpg","img/neutralC/CFD-BF-212-315-N.jpg","1","1","0","0","1","1","0.407152300060261","0.433779100014362","0.531348599994089","1","1","1","1","1","1","1","1","1"
"250027","img/neutralC/CFD-BF-212-315-N.jpg","img/neutralC/CFD-WF-228-196-N.jpg",NA,"0","1",NA,"1","0",NA,"0.531348599994089","0.407152300060261",NA,"1","1",NA,"1","1",NA,"1","1",NA
"250027","img/neutralC/CFD-BM-239-136-N.jpg",NA,"img/neutralC/CFD-WM-011-002-N.jpg","1",NA,"1","1",NA,"0","0.43977779999841",NA,"0.434676800039597","1",NA,"1","1",NA,"1","1",NA,"1"
"250027","img/neutralC/CFD-WM-011-002-N.jpg","img/neutralC/CFD-BM-239-136-N.jpg","img/neutralC/CFD-LM-218-183-N.jpg","1","1","1","0","1","1","0.434676800039597","0.43977779999841","0.363483200024348","1","1","1","1","1","1","1","1","1"
"250027","img/neutralC/CFD-LM-218-183-N.jpg","img/neutralC/CFD-WM-011-002-N.jpg","img/neutralC/CFD-LF-230-203-N.jpg","1","1","0","1","0","0","0.363483200024348","0.434676800039597","0.357107500021812","1","1","1","1","1","1","1","1","1"
"250027","img/neutralC/CFD-LF-230-203-N.jpg","img/neutralC/CFD-LM-218-183-N.jpg","img/neutralC/CFD-AF-231-357-N.jpg","0","1","1","0","1","1","0.357107500021812","0.363483200024348","0.40919010003563","1","1","1","1","1","1","1","1","1"
"250027","img/neutralC/CFD-AF-231-357-N.jpg","img/neutralC/CFD-LF-230-203-N.jpg","img/neutralC/CFD-MM-316-156-N.jpg","1","0","1","1","0","1","0.40919010003563","0.357107500021812","0.368636999977753","1","1","1","1","1","1","1","1","1"
"250027","img/neutralC/CFD-MM-316-156-N.jpg","img/neutralC/CFD-AF-231-357-N.jpg","img/neutralC/CFD-BF-029-031-N.jpg","1","1","1","1","1","1","0.368636999977753","0.40919010003563","0.376145100046415","1","1","1","1","1","1","1","1","1"
"250027","img/neutralC/CFD-BF-029-031-N.jpg","img/neutralC/CFD-MM-316-156-N.jpg","img/neutralC/CFD-MF-337-026-N.jpg","1","1","1","1","1","1","0.376145100046415","0.368636999977753","0.408162500010803","1","1","1","1","1","1","1","1","1"
"250027","img/neutralC/CFD-MF-337-026-N.jpg","img/neutralC/CFD-BF-029-031-N.jpg","img/neutralC/CFD-AM-201-076-N.jpg","1","1","1","1","1","1","0.408162500010803","0.376145100046415","0.404568099998869","1","1","1","1","1","1","1","1","1"
"250027","img/neutralC/CFD-AM-201-076-N.jpg","img/neutralC/CFD-MF-337-026-N.jpg","img/neutralC/CFD-LF-205-100-N.jpg","1","1","1","1","1","1","0.404568099998869","0.408162500010803","0.526195100042969","1","1","1","1","1","1","1","1","1"
"250027","img/neutralC/CFD-LF-205-100-N.jpg","img/neutralC/CFD-AM-201-076-N.jpg","img/neutralC/CFD-LM-215-247-N.jpg","1","1","0","1","1","0","0.526195100042969","0.404568099998869","0.3837315000128","1","1","1","1","1","1","1","1","1"
"250027","img/neutralC/CFD-LM-215-247-N.jpg","img/neutralC/CFD-LF-205-100-N.jpg","img/neutralC/CFD-WF-213-031-N.jpg","0","1","1","0","1","1","0.3837315000128","0.526195100042969","0.444841000018641","1","1","1","1","1","1","1","1","1"
"250027","img/neutralC/CFD-WF-213-031-N.jpg","img/neutralC/CFD-LM-215-247-N.jpg","img/neutralC/CFD-IF-634-382-N.jpg","1","0","1","1","0","1","0.444841000018641","0.3837315000128","0.399409600009676","1","1","1","1","1","1","1","1","1"
"250027","img/neutralC/CFD-IF-634-382-N.jpg","img/neutralC/CFD-WF-213-031-N.jpg","img/neutralC/CFD-AM-212-050-N.jpg","1","1","1","1","1","1","0.399409600009676","0.444841000018641","0.373988199979067","1","1","1","1","1","1","1","1","1"
"250027","img/neutralC/CFD-AM-212-050-N.jpg","img/neutralC/CFD-IF-634-382-N.jpg","img/neutralC/CFD-BM-019-002-N.jpg","1","1","1","1","1","0","0.373988199979067","0.399409600009676","0.438090800016653","1","1","1","1","1","1","1","1","1"
"250027","img/neutralC/CFD-BM-019-002-N.jpg","img/neutralC/CFD-AM-212-050-N.jpg","img/neutralC/CFD-WM-021-001-N.jpg","1","1","1","0","1","1","0.438090800016653","0.373988199979067","0.346293399983551","1","1","1","1","1","1","1","1","1"
"250027","img/neutralC/CFD-WM-021-001-N.jpg","img/neutralC/CFD-BM-019-002-N.jpg","img/neutralC/CFD-LF-203-066-N.jpg","1","1","1","1","0","0","0.346293399983551","0.438090800016653","0.441208800009918","1","1","1","1","1","1","1","1","1"
"250027","img/neutralC/CFD-LF-203-066-N.jpg","img/neutralC/CFD-WM-021-001-N.jpg","img/neutralC/CFD-WF-224-099-N.jpg","1","1","1","0","1","0","0.441208800009918","0.346293399983551","0.442884000018239","1","1","1","1","1","1","1","1","1"
"250027","img/neutralC/CFD-WF-224-099-N.jpg","img/neutralC/CFD-LF-203-066-N.jpg","img/neutralC/CFD-IM-684-008-N.jpg","1","1","1","0","0","1","0.442884000018239","0.441208800009918","0.328139800054487","1","1","1","1","1","1","1","1","1"
"250027","img/neutralC/CFD-IM-684-008-N.jpg","img/neutralC/CFD-WF-224-099-N.jpg","img/neutralC/CFD-WM-041-021-N.jpg","1","1","1","1","0","0","0.328139800054487","0.442884000018239","1.24350940005388","1","1","1","1","1","1","1","1","1"
"250027","img/neutralC/CFD-WM-041-021-N.jpg","img/neutralC/CFD-IM-684-008-N.jpg","img/neutralC/CFD-IF-693-172-N.jpg","1","1","1","0","1","0","1.24350940005388","0.328139800054487","0.56810640002368","1","1","1","1","1","1","1","1","1"
"250027","img/neutralC/CFD-IF-693-172-N.jpg","img/neutralC/CFD-WM-041-021-N.jpg","img/neutralC/CFD-LF-224-176-N.jpg","1","1","1","0","0","0","0.56810640002368","1.24350940005388","0.49897289997898","1","1","1","1","1","1","1","1","1"
"250027","img/neutralC/CFD-LF-224-176-N.jpg","img/neutralC/CFD-IF-693-172-N.jpg","img/neutralC/CFD-LF-214-090-N.jpg","1","1","1","0","0","0","0.49897289997898","0.56810640002368","0.5578093000222","1","1","1","1","1","1","1","1","1"
"250027","img/neutralC/CFD-LF-214-090-N.jpg","img/neutralC/CFD-LF-224-176-N.jpg","img/neutralC/CFD-BF-213-188-N.jpg","1","1","1","0","0","1","0.5578093000222","0.49897289997898","0.484971099998802","1","1","1","1","1","1","1","1","1"
"250027","img/neutralC/CFD-BF-213-188-N.jpg","img/neutralC/CFD-LF-214-090-N.jpg","img/neutralC/CFD-IF-710-016-N.jpg","1","1","1","1","0","0","0.484971099998802","0.5578093000222","0.477656300005037","1","1","1","1","1","1","1","1","1"
"250027","img/neutralC/CFD-IF-710-016-N.jpg","img/neutralC/CFD-BF-213-188-N.jpg","img/neutralC/CFD-IM-651-308-N.jpg","1","1","1","0","1","0","0.477656300005037","0.484971099998802","0.468122200050857","1","1","1","1","1","1","1","1","1"
"250027","img/neutralC/CFD-IM-651-308-N.jpg","img/neutralC/CFD-IF-710-016-N.jpg","img/neutralC/CFD-BF-253-202-N.jpg","1","1","1","0","0","0","0.468122200050857","0.477656300005037","0.492249600007199","1","1","1","1","1","1","1","1","1"
"250027","img/neutralC/CFD-BF-253-202-N.jpg","img/neutralC/CFD-IM-651-308-N.jpg","img/neutralC/CFD-BM-033-003-N.jpg","1","1","1","0","0","0","0.492249600007199","0.468122200050857","0.476661699998658","1","1","1","1","1","1","1","1","1"
"250027","img/neutralC/CFD-BM-033-003-N.jpg","img/neutralC/CFD-BF-253-202-N.jpg","img/neutralC/CFD-WF-250-167-N.jpg","1","1","1","0","0","1","0.476661699998658","0.492249600007199","0.440402899985202","1","1","1","1","1","1","1","1","1"
"250027","img/neutralC/CFD-WF-250-167-N.jpg","img/neutralC/CFD-BM-033-003-N.jpg","img/neutralC/CFD-BF-039-031-N.jpg","1","1","1","1","0","1","0.440402899985202","0.476661699998658","0.42012630001409","1","1","1","1","1","1","1","1","1"
"250027","img/neutralC/CFD-BF-039-031-N.jpg","img/neutralC/CFD-WF-250-167-N.jpg","img/neutralC/CFD-BF-205-141-N.jpg","1","1","1","1","1","0","0.42012630001409","0.440402899985202","0.513660399999935","1","1","1","1","1","1","1","1","1"
"250027","img/neutralC/CFD-BF-205-141-N.jpg","img/neutralC/CFD-BF-039-031-N.jpg","img/neutralC/CFD-BM-041-035-N.jpg","1","1","1","0","1","0","0.513660399999935","0.42012630001409","0.537010600033682","1","1","1","1","1","1","1","1","1"
"250027","img/neutralC/CFD-BM-041-035-N.jpg","img/neutralC/CFD-BF-205-141-N.jpg",NA,"1","1",NA,"0","0",NA,"0.537010600033682","0.513660399999935",NA,"1","1",NA,"1","1",NA,"1","1",NA
"250027","img/neutralC/CFD-AM-219-101-N.jpg",NA,"img/neutralC/CFD-BF-012-001-N.jpg","1",NA,"0","0",NA,"0","0.475526400026865",NA,"0.33271240000613","1",NA,"1","1",NA,"1","1",NA,"1"
"250027","img/neutralC/CFD-BF-012-001-N.jpg","img/neutralC/CFD-AM-219-101-N.jpg","img/neutralC/CFD-WM-025-002-N.jpg","0","1","0","0","0","0","0.33271240000613","0.475526400026865","0.346578100055922","1","1","1","1","1","1","1","1","1"
"250027","img/neutralC/CFD-WM-025-002-N.jpg","img/neutralC/CFD-BF-012-001-N.jpg","img/neutralC/CFD-MM-306-010-N.jpg","0","0","1","0","0","0","0.346578100055922","0.33271240000613","0.540436400042381","1","1","1","1","1","1","1","1","1"
"250027","img/neutralC/CFD-MM-306-010-N.jpg","img/neutralC/CFD-WM-025-002-N.jpg","img/neutralC/CFD-LF-238-154-N.jpg","1","0","1","0","0","1","0.540436400042381","0.346578100055922","0.327243699983228","1","1","1","1","1","1","1","1","1"
"250027","img/neutralC/CFD-LF-238-154-N.jpg","img/neutralC/CFD-MM-306-010-N.jpg","img/neutralC/CFD-BF-244-231-N.jpg","1","1","1","1","0","1","0.327243699983228","0.540436400042381","0.356545399990864","1","1","1","1","1","1","1","1","1"
"250027","img/neutralC/CFD-BF-244-231-N.jpg","img/neutralC/CFD-LF-238-154-N.jpg","img/neutralC/CFD-MF-328-020-N.jpg","1","1","1","1","1","0","0.356545399990864","0.327243699983228","0.48126869997941","1","1","1","1","1","1","1","1","1"
"250027","img/neutralC/CFD-MF-328-020-N.jpg","img/neutralC/CFD-BF-244-231-N.jpg","img/neutralC/CFD-AM-243-212-N.jpg","1","1","1","0","1","1","0.48126869997941","0.356545399990864","0.405528599978425","1","1","1","1","1","1","1","1","1"
"250027","img/neutralC/CFD-AM-243-212-N.jpg","img/neutralC/CFD-MF-328-020-N.jpg","img/neutralC/CFD-AF-237-223-N.jpg","1","1","1","1","0","0","0.405528599978425","0.48126869997941","0.485564899980091","1","1","1","1","1","1","1","1","1"
"250027","img/neutralC/CFD-AF-237-223-N.jpg","img/neutralC/CFD-AM-243-212-N.jpg","img/neutralC/CFD-IM-606-008-N.jpg","1","1","1","0","1","0","0.485564899980091","0.405528599978425","0.466202399984468","1","1","1","1","1","1","1","1","1"
"250027","img/neutralC/CFD-IM-606-008-N.jpg","img/neutralC/CFD-AF-237-223-N.jpg","img/neutralC/CFD-AM-205-153-N.jpg","1","1","1","0","0","1","0.466202399984468","0.485564899980091","0.377734699985012","1","1","1","1","1","1","1","1","1"
"250027","img/neutralC/CFD-AM-205-153-N.jpg","img/neutralC/CFD-IM-606-008-N.jpg","img/neutralC/CFD-WF-241-210-N.jpg","1","1","1","1","0","0","0.377734699985012","0.466202399984468","0.576243699993938","1","1","1","1","1","1","1","1","1"
"250027","img/neutralC/CFD-WF-241-210-N.jpg","img/neutralC/CFD-AM-205-153-N.jpg","img/neutralC/CFD-WM-028-003-N.jpg","1","1","1","0","1","1","0.576243699993938","0.377734699985012","0.417503400007263","1","1","1","1","1","1","1","1","1"
"250027","img/neutralC/CFD-WM-028-003-N.jpg","img/neutralC/CFD-WF-241-210-N.jpg","img/neutralC/CFD-BM-009-002-N.jpg","1","1","1","1","0","1","0.417503400007263","0.576243699993938","0.37841910001589","1","1","1","1","1","1","1","1","1"
"250027","img/neutralC/CFD-BM-009-002-N.jpg","img/neutralC/CFD-WM-028-003-N.jpg","img/neutralC/CFD-BM-030-003-N.jpg","1","1","1","1","1","0","0.37841910001589","0.417503400007263","0.541084199969191","1","1","1","1","1","1","1","1","1"
"250027","img/neutralC/CFD-BM-030-003-N.jpg","img/neutralC/CFD-BM-009-002-N.jpg","img/neutralC/CFD-LF-212-066-N.jpg","1","1","1","0","1","1","0.541084199969191","0.37841910001589","0.413571099983528","1","1","1","1","1","1","1","1","1"
"250027","img/neutralC/CFD-LF-212-066-N.jpg","img/neutralC/CFD-BM-030-003-N.jpg","img/neutralC/CFD-IF-676-017-N.jpg","1","1","1","1","0","1","0.413571099983528","0.541084199969191","0.463754299969878","1","1","1","1","1","1","1","1","1"
"250027","img/neutralC/CFD-IF-676-017-N.jpg","img/neutralC/CFD-LF-212-066-N.jpg","img/neutralC/CFD-WF-221-005-N.jpg","1","1","1","1","1","0","0.463754299969878","0.413571099983528","0.523069299990311","1","1","1","1","1","1","1","1","1"
"250027","img/neutralC/CFD-WF-221-005-N.jpg","img/neutralC/CFD-IF-676-017-N.jpg","img/neutralC/CFD-BM-043-071-N.jpg","1","1","1","0","1","0","0.523069299990311","0.463754299969878","0.410851199994795","1","1","1","1","1","1","1","1","1"
"250027","img/neutralC/CFD-BM-043-071-N.jpg","img/neutralC/CFD-WF-221-005-N.jpg","img/neutralC/CFD-WM-023-001-N.jpg","1","1","1","0","0","0","0.410851199994795","0.523069299990311","0.471551600028761","1","1","1","1","1","1","1","1","1"
"250027","img/neutralC/CFD-WM-023-001-N.jpg","img/neutralC/CFD-BM-043-071-N.jpg","img/neutralC/CFD-WF-207-014-N.jpg","1","1","1","0","0","1","0.471551600028761","0.410851199994795","0.340037800022401","1","1","1","1","1","1","1","1","1"
"250027","img/neutralC/CFD-WF-207-014-N.jpg","img/neutralC/CFD-WM-023-001-N.jpg","img/neutralC/CFD-BM-227-191-N.jpg","1","1","1","1","0","1","0.340037800022401","0.471551600028761","0.375186500023119","1","1","1","1","1","1","1","1","1"
"250027","img/neutralC/CFD-BM-227-191-N.jpg","img/neutralC/CFD-WF-207-014-N.jpg","img/neutralC/CFD-LF-222-147-N.jpg","1","1","1","1","1","0","0.375186500023119","0.340037800022401","0.513018900004681","1","1","1","1","1","1","1","1","1"
"250027","img/neutralC/CFD-LF-222-147-N.jpg","img/neutralC/CFD-BM-227-191-N.jpg","img/neutralC/CFD-AM-249-163-N.jpg","1","1","1","0","1","1","0.513018900004681","0.375186500023119","0.42431019997457","1","1","1","1","1","1","1","1","1"
"250027","img/neutralC/CFD-AM-249-163-N.jpg","img/neutralC/CFD-LF-222-147-N.jpg","img/neutralC/CFD-LM-240-013-N.jpg","1","1","1","1","0","1","0.42431019997457","0.513018900004681","0.386159599991515","1","1","1","1","1","1","1","1","1"
"250027","img/neutralC/CFD-LM-240-013-N.jpg","img/neutralC/CFD-AM-249-163-N.jpg","img/neutralC/CFD-IM-697-015-N.jpg","1","1","1","1","1","1","0.386159599991515","0.42431019997457","0.389793400012422","1","1","1","1","1","1","1","1","1"
"250027","img/neutralC/CFD-IM-697-015-N.jpg","img/neutralC/CFD-LM-240-013-N.jpg","img/neutralC/CFD-WF-009-001-N.jpg","1","1","1","1","1","1","0.389793400012422","0.386159599991515","0.385349800053518","1","1","1","1","1","1","1","1","1"
"250027","img/neutralC/CFD-WF-009-001-N.jpg","img/neutralC/CFD-IM-697-015-N.jpg","img/neutralC/CFD-BM-021-021-N.jpg","1","1","1","1","1","1","0.385349800053518","0.389793400012422","0.352473599952646","1","1","1","1","1","1","1","1","1"
"250027","img/neutralC/CFD-BM-021-021-N.jpg","img/neutralC/CFD-WF-009-001-N.jpg","img/neutralC/CFD-WF-243-148-N.jpg","1","1","1","1","1","0","0.352473599952646","0.385349800053518","0.439848900015932","1","1","1","1","1","1","1","1","1"
"250027","img/neutralC/CFD-WF-243-148-N.jpg","img/neutralC/CFD-BM-021-021-N.jpg","img/neutralC/CFD-BM-020-001-N.jpg","1","1","1","0","1","0","0.439848900015932","0.352473599952646","0.602340500045102","1","1","1","1","1","1","1","1","1"
"250027","img/neutralC/CFD-BM-020-001-N.jpg","img/neutralC/CFD-WF-243-148-N.jpg","img/neutralC/CFD-IM-615-167-N.jpg","1","1","1","0","0","0","0.602340500045102","0.439848900015932","0.457623500027694","1","1","1","1","1","1","1","1","1"
"250027","img/neutralC/CFD-IM-615-167-N.jpg","img/neutralC/CFD-BM-020-001-N.jpg","img/neutralC/CFD-IM-689-263-N.jpg","1","1","1","0","0","1","0.457623500027694","0.602340500045102","0.504922400054056","1","1","1","1","1","1","1","1","1"
"250027","img/neutralC/CFD-IM-689-263-N.jpg","img/neutralC/CFD-IM-615-167-N.jpg",NA,"1","1",NA,"1","0",NA,"0.504922400054056","0.457623500027694",NA,"1","1",NA,"1","1",NA,"1","1",NA
"250027","img/neutralC/CFD-WF-018-017-N.jpg",NA,"img/neutralC/CFD-WF-245-084-N.jpg","1",NA,"1","1",NA,"1","0.376730299962219",NA,"0.517039800004568","1",NA,"1","1",NA,"1","1",NA,"1"
"250027","img/neutralC/CFD-WF-245-084-N.jpg","img/neutralC/CFD-WF-018-017-N.jpg","img/neutralC/CFD-WM-009-002-N.jpg","1","1","0","1","1","0","0.517039800004568","0.376730299962219","0.382551099988632","1","1","1","1","1","1","1","1","1"
"250027","img/neutralC/CFD-WM-009-002-N.jpg","img/neutralC/CFD-WF-245-084-N.jpg","img/neutralC/CFD-MF-318-022-N.jpg","0","1","1","0","1","1","0.382551099988632","0.517039800004568","0.327619099989533","1","1","1","1","1","1","1","1","1"
"250027","img/neutralC/CFD-MF-318-022-N.jpg","img/neutralC/CFD-WM-009-002-N.jpg","img/neutralC/CFD-AF-232-078-N.jpg","1","0","1","1","0","1","0.327619099989533","0.382551099988632","0.387259099981748","1","1","1","1","1","1","1","1","1"
"250027","img/neutralC/CFD-AF-232-078-N.jpg","img/neutralC/CFD-MF-318-022-N.jpg","img/neutralC/CFD-LF-211-003-N.jpg","1","1","0","1","1","0","0.387259099981748","0.327619099989533","0.43422150000697","1","1","1","1","1","1","1","1","1"
"250027","img/neutralC/CFD-LF-211-003-N.jpg","img/neutralC/CFD-AF-232-078-N.jpg","img/neutralC/CFD-MF-342-022-N.jpg","0","1","1","0","1","1","0.43422150000697","0.387259099981748","0.48697580001317","1","1","1","1","1","1","1","1","1"
"250027","img/neutralC/CFD-MF-342-022-N.jpg","img/neutralC/CFD-LF-211-003-N.jpg","img/neutralC/CFD-BM-023-029-N.jpg","1","0","1","1","0","1","0.48697580001317","0.43422150000697","0.500412099994719","1","1","1","1","1","1","1","1","1"
"250027","img/neutralC/CFD-BM-023-029-N.jpg","img/neutralC/CFD-MF-342-022-N.jpg","img/neutralC/CFD-IM-700-009-N.jpg","1","1","1","1","1","1","0.500412099994719","0.48697580001317","0.420327900035772","1","1","1","1","1","1","1","1","1"
"250027","img/neutralC/CFD-IM-700-009-N.jpg","img/neutralC/CFD-BM-023-029-N.jpg","img/neutralC/CFD-WM-013-001-N.jpg","1","1","1","1","1","1","0.420327900035772","0.500412099994719","0.452429500059225","1","1","1","1","1","1","1","1","1"
"250027","img/neutralC/CFD-WM-013-001-N.jpg","img/neutralC/CFD-IM-700-009-N.jpg","img/neutralC/CFD-MF-321-003-N.jpg","1","1","1","1","1","0","0.452429500059225","0.420327900035772","0.455287200049497","1","1","1","1","1","1","1","1","1"
"250027","img/neutralC/CFD-MF-321-003-N.jpg","img/neutralC/CFD-WM-013-001-N.jpg","img/neutralC/CFD-WF-027-003-N.jpg","1","1","1","0","1","1","0.455287200049497","0.452429500059225","0.383557799970731","1","1","1","1","1","1","1","1","1"
"250027","img/neutralC/CFD-WF-027-003-N.jpg","img/neutralC/CFD-MF-321-003-N.jpg","img/neutralC/CFD-WF-023-003-N.jpg","1","1","1","1","0","1","0.383557799970731","0.455287200049497","0.384219700004906","1","1","1","1","1","1","1","1","1"
"250027","img/neutralC/CFD-WF-023-003-N.jpg","img/neutralC/CFD-WF-027-003-N.jpg","img/neutralC/CFD-WF-238-023-N.jpg","1","1","1","1","1","0","0.384219700004906","0.383557799970731","0.473062800010666","1","1","1","1","1","1","1","1","1"
"250027","img/neutralC/CFD-WF-238-023-N.jpg","img/neutralC/CFD-WF-023-003-N.jpg","img/neutralC/CFD-LF-215-157-N.jpg","1","1","1","0","1","0","0.473062800010666","0.384219700004906","0.562442099966574","1","1","1","1","1","1","1","1","1"
"250027","img/neutralC/CFD-LF-215-157-N.jpg","img/neutralC/CFD-WF-238-023-N.jpg","img/neutralC/CFD-WF-226-095-N.jpg","1","1","1","0","0","1","0.562442099966574","0.473062800010666","0.535350600024685","1","1","1","1","1","1","1","1","1"
"250027","img/neutralC/CFD-WF-226-095-N.jpg","img/neutralC/CFD-LF-215-157-N.jpg","img/neutralC/CFD-BM-204-003-N.jpg","1","1","1","1","0","0","0.535350600024685","0.562442099966574","0.517993000044953","1","1","1","1","1","1","1","1","1"
"250027","img/neutralC/CFD-BM-204-003-N.jpg","img/neutralC/CFD-WF-226-095-N.jpg","img/neutralC/CFD-IM-627-178-N.jpg","1","1","1","0","1","1","0.517993000044953","0.535350600024685","0.353091400000267","1","1","1","1","1","1","1","1","1"
"250027","img/neutralC/CFD-IM-627-178-N.jpg","img/neutralC/CFD-BM-204-003-N.jpg","img/neutralC/CFD-MM-321-021-N.jpg","1","1","1","1","0","0","0.353091400000267","0.517993000044953","0.445456000044942","1","1","1","1","1","1","1","1","1"
"250027","img/neutralC/CFD-MM-321-021-N.jpg","img/neutralC/CFD-IM-627-178-N.jpg","img/neutralC/CFD-IF-629-234-N.jpg","1","1","1","0","1","0","0.445456000044942","0.353091400000267","0.477845899993554","1","1","1","1","1","1","1","1","1"
"250027","img/neutralC/CFD-IF-629-234-N.jpg","img/neutralC/CFD-MM-321-021-N.jpg","img/neutralC/CFD-AM-244-222-N.jpg","1","1","1","0","0","0","0.477845899993554","0.445456000044942","0.348220099986065","1","1","1","1","1","1","1","1","1"
"250027","img/neutralC/CFD-AM-244-222-N.jpg","img/neutralC/CFD-IF-629-234-N.jpg","img/neutralC/CFD-WM-237-052-N.jpg","1","1","1","0","0","1","0.348220099986065","0.477845899993554","0.396089699992444","1","1","1","1","1","1","1","1","1"
"250027","img/neutralC/CFD-WM-237-052-N.jpg","img/neutralC/CFD-AM-244-222-N.jpg","img/neutralC/CFD-AF-221-147-N.jpg","1","1","1","1","0","0","0.396089699992444","0.348220099986065","0.411959799996112","1","1","1","1","1","1","1","1","1"
"250027","img/neutralC/CFD-AF-221-147-N.jpg","img/neutralC/CFD-WM-237-052-N.jpg","img/neutralC/CFD-WM-255-219-N.jpg","1","1","1","0","1","0","0.411959799996112","0.396089699992444","0.350293700001203","1","1","1","1","1","1","1","1","1"
"250027","img/neutralC/CFD-WM-255-219-N.jpg","img/neutralC/CFD-AF-221-147-N.jpg","img/neutralC/CFD-BF-254-201-N.jpg","1","1","1","0","0","0","0.350293700001203","0.411959799996112","0.4473417000263","1","1","1","1","1","1","1","1","1"
"250027","img/neutralC/CFD-BF-254-201-N.jpg","img/neutralC/CFD-WM-255-219-N.jpg","img/neutralC/CFD-WM-221-091-N.jpg","1","1","1","0","0","0","0.4473417000263","0.350293700001203","0.418467900017276","1","1","1","1","1","1","1","1","1"
"250027","img/neutralC/CFD-WM-221-091-N.jpg","img/neutralC/CFD-BF-254-201-N.jpg","img/neutralC/CFD-LM-253-075-N.jpg","1","1","1","0","0","0","0.418467900017276","0.4473417000263","0.43278959998861","1","1","1","1","1","1","1","1","1"
"250027","img/neutralC/CFD-LM-253-075-N.jpg","img/neutralC/CFD-WM-221-091-N.jpg","img/neutralC/CFD-BF-218-207-N.jpg","1","1","1","0","0","1","0.43278959998861","0.418467900017276","0.374761199986096","1","1","1","1","1","1","1","1","1"
"250027","img/neutralC/CFD-BF-218-207-N.jpg","img/neutralC/CFD-LM-253-075-N.jpg","img/neutralC/CFD-IM-719-221-N.jpg","1","1","1","1","0","0","0.374761199986096","0.43278959998861","0.686921800021082","1","1","1","1","1","1","1","1","1"
"250027","img/neutralC/CFD-IM-719-221-N.jpg","img/neutralC/CFD-BF-218-207-N.jpg","img/neutralC/CFD-WM-201-063-N.jpg","1","1","1","0","1","1","0.686921800021082","0.374761199986096","0.42323860002216","1","1","1","1","1","1","1","1","1"
"250027","img/neutralC/CFD-WM-201-063-N.jpg","img/neutralC/CFD-IM-719-221-N.jpg","img/neutralC/CFD-BM-200-046-N.jpg","1","1","1","1","0","0","0.42323860002216","0.686921800021082","0.625586500042118","1","1","1","1","1","1","1","1","1"
"250027","img/neutralC/CFD-BM-200-046-N.jpg","img/neutralC/CFD-WM-201-063-N.jpg","img/neutralC/CFD-BF-018-039-N.jpg","1","1","1","0","1","1","0.625586500042118","0.42323860002216","0.562428100034595","1","1","1","1","1","1","1","1","1"
"250027","img/neutralC/CFD-BF-018-039-N.jpg","img/neutralC/CFD-BM-200-046-N.jpg",NA,"1","1",NA,"1","0",NA,"0.562428100034595","0.625586500042118",NA,"1","1",NA,"1","1",NA,"1","1",NA
"250027","img/neutralC/CFD-BF-003-003-N.jpg",NA,"img/neutralC/CFD-IM-639-263-N.jpg","1",NA,"1","0",NA,"1","0.623977300012484",NA,"0.373904199979734","1",NA,"1","1",NA,"1","1",NA,"1"
"250027","img/neutralC/CFD-IM-639-263-N.jpg","img/neutralC/CFD-BF-003-003-N.jpg","img/neutralC/CFD-BM-247-240-N.jpg","1","1","0","1","0","0","0.373904199979734","0.623977300012484","0.397138700005598","1","1","1","1","1","1","1","1","1"
"250027","img/neutralC/CFD-BM-247-240-N.jpg","img/neutralC/CFD-IM-639-263-N.jpg","img/neutralC/CFD-IM-728-041-N.jpg","0","1","1","0","1","0","0.397138700005598","0.373904199979734","0.623717800015584","1","1","1","1","1","1","1","1","1"
"250027","img/neutralC/CFD-IM-728-041-N.jpg","img/neutralC/CFD-BM-247-240-N.jpg","img/neutralC/CFD-LF-216-121-N.jpg","1","0","1","0","0","1","0.623717800015584","0.397138700005598","0.444147200032603","1","1","1","1","1","1","1","1","1"
"250027","img/neutralC/CFD-LF-216-121-N.jpg","img/neutralC/CFD-IM-728-041-N.jpg","img/neutralC/CFD-WF-002-004-N.jpg","1","1","1","1","0","0","0.444147200032603","0.623717800015584","0.618634799961001","1","1","1","1","1","1","1","1","1"
"250027","img/neutralC/CFD-WF-002-004-N.jpg","img/neutralC/CFD-LF-216-121-N.jpg","img/neutralC/CFD-BF-028-001-N.jpg","1","1","1","0","1","1","0.618634799961001","0.444147200032603","0.442307099991012","1","1","1","1","1","1","1","1","1"
"250027","img/neutralC/CFD-BF-028-001-N.jpg","img/neutralC/CFD-WF-002-004-N.jpg","img/neutralC/CFD-WF-026-002-N.jpg","1","1","1","1","0","1","0.442307099991012","0.618634799961001","0.426819599990267","1","1","1","1","1","1","1","1","1"
"250027","img/neutralC/CFD-WF-026-002-N.jpg","img/neutralC/CFD-BF-028-001-N.jpg","img/neutralC/CFD-BM-015-015-N.jpg","1","1","1","1","1","0","0.426819599990267","0.442307099991012","0.436881999950856","1","1","1","1","1","1","1","1","1"
"250027","img/neutralC/CFD-BM-015-015-N.jpg","img/neutralC/CFD-WF-026-002-N.jpg","img/neutralC/CFD-BM-029-024-N.jpg","1","1","1","0","1","1","0.436881999950856","0.426819599990267","0.385256800043862","1","1","1","1","1","1","1","1","1"
"250027","img/neutralC/CFD-BM-029-024-N.jpg","img/neutralC/CFD-BM-015-015-N.jpg","img/neutralC/CFD-AM-215-120-N.jpg","1","1","1","1","0","1","0.385256800043862","0.436881999950856","0.371315800002776","1","1","1","1","1","1","1","1","1"
"250027","img/neutralC/CFD-AM-215-120-N.jpg","img/neutralC/CFD-BM-029-024-N.jpg","img/neutralC/CFD-WM-038-003-N.jpg","1","1","1","1","1","0","0.371315800002776","0.385256800043862","0.545309999957681","1","1","1","1","1","1","1","1","1"
"250027","img/neutralC/CFD-WM-038-003-N.jpg","img/neutralC/CFD-AM-215-120-N.jpg","img/neutralC/CFD-MM-319-052-N.jpg","1","1","1","0","1","1","0.545309999957681","0.371315800002776","0.39327110000886","1","1","1","1","1","1","1","1","1"
"250027","img/neutralC/CFD-MM-319-052-N.jpg","img/neutralC/CFD-WM-038-003-N.jpg","img/neutralC/CFD-IM-674-281-N.jpg","1","1","1","1","0","1","0.39327110000886","0.545309999957681","0.386042199970689","1","1","1","1","1","1","1","1","1"
"250027","img/neutralC/CFD-IM-674-281-N.jpg","img/neutralC/CFD-MM-319-052-N.jpg","img/neutralC/CFD-LM-252-076-N.jpg","1","1","1","1","1","1","0.386042199970689","0.39327110000886","0.327503499982413","1","1","1","1","1","1","1","1","1"
"250027","img/neutralC/CFD-LM-252-076-N.jpg","img/neutralC/CFD-IM-674-281-N.jpg","img/neutralC/CFD-WM-257-161-N.jpg","1","1","1","1","1","1","0.327503499982413","0.386042199970689","0.35450120002497","1","1","1","1","1","1","1","1","1"
"250027","img/neutralC/CFD-WM-257-161-N.jpg","img/neutralC/CFD-LM-252-076-N.jpg","img/neutralC/CFD-BM-027-001-N.jpg","1","1","1","1","1","0","0.35450120002497","0.327503499982413","0.538111000030767","1","1","1","1","1","1","1","1","1"
"250027","img/neutralC/CFD-BM-027-001-N.jpg","img/neutralC/CFD-WM-257-161-N.jpg","img/neutralC/CFD-WM-002-009-N.jpg","1","1","1","0","1","0","0.538111000030767","0.35450120002497","0.479736000008415","1","1","1","1","1","1","1","1","1"
"250027","img/neutralC/CFD-WM-002-009-N.jpg","img/neutralC/CFD-BM-027-001-N.jpg","img/neutralC/CFD-AM-217-085-N.jpg","1","1","1","0","0","0","0.479736000008415","0.538111000030767","0.444703099958133","1","1","1","1","1","1","1","1","1"
"250027","img/neutralC/CFD-AM-217-085-N.jpg","img/neutralC/CFD-WM-002-009-N.jpg","img/neutralC/CFD-IF-718-001-N.jpg","1","1","1","0","0","1","0.444703099958133","0.479736000008415","0.384300300036557","1","1","1","1","1","1","1","1","1"
"250027","img/neutralC/CFD-IF-718-001-N.jpg","img/neutralC/CFD-AM-217-085-N.jpg","img/neutralC/CFD-BF-204-189-N.jpg","1","1","1","1","0","1","0.384300300036557","0.444703099958133","0.432183600030839","1","1","1","1","1","1","1","1","1"
"250027","img/neutralC/CFD-BF-204-189-N.jpg","img/neutralC/CFD-IF-718-001-N.jpg","img/neutralC/CFD-BF-255-140-N.jpg","1","1","1","1","1","1","0.432183600030839","0.384300300036557","0.399553600000218","1","1","1","1","1","1","1","1","1"
"250027","img/neutralC/CFD-BF-255-140-N.jpg","img/neutralC/CFD-BF-204-189-N.jpg","img/neutralC/CFD-WM-225-127-N.jpg","1","1","1","1","1","0","0.399553600000218","0.432183600030839","0.548147700028494","1","1","1","1","1","1","1","1","1"
"250027","img/neutralC/CFD-WM-225-127-N.jpg","img/neutralC/CFD-BF-255-140-N.jpg","img/neutralC/CFD-IF-672-305-N.jpg","1","1","1","0","1","0","0.548147700028494","0.399553600000218","0.478333200037014","1","1","1","1","1","1","1","1","1"
"250027","img/neutralC/CFD-IF-672-305-N.jpg","img/neutralC/CFD-WM-225-127-N.jpg","img/neutralC/CFD-WM-040-022-N.jpg","1","1","1","0","0","0","0.478333200037014","0.548147700028494","0.516902900009882","1","1","1","1","1","1","1","1","1"
"250027","img/neutralC/CFD-WM-040-022-N.jpg","img/neutralC/CFD-IF-672-305-N.jpg","img/neutralC/CFD-BF-023-010-N.jpg","1","1","1","0","0","1","0.516902900009882","0.478333200037014","0.431377800006885","1","1","1","1","1","1","1","1","1"
"250027","img/neutralC/CFD-BF-023-010-N.jpg","img/neutralC/CFD-WM-040-022-N.jpg","img/neutralC/CFD-BF-208-266-N.jpg","1","1","1","1","0","0","0.431377800006885","0.516902900009882","0.633897600055207","1","1","1","1","1","1","1","1","1"
"250027","img/neutralC/CFD-BF-208-266-N.jpg","img/neutralC/CFD-BF-023-010-N.jpg","img/neutralC/CFD-WF-022-017-N.jpg","1","1","1","0","1","0","0.633897600055207","0.431377800006885","0.48820900003193","1","1","1","1","1","1","1","1","1"
"250027","img/neutralC/CFD-WF-022-017-N.jpg","img/neutralC/CFD-BF-208-266-N.jpg","img/neutralC/CFD-LF-236-221-N.jpg","1","1","1","0","0","1","0.48820900003193","0.633897600055207","0.385354799975175","1","1","1","1","1","1","1","1","1"
"250027","img/neutralC/CFD-LF-236-221-N.jpg","img/neutralC/CFD-WF-022-017-N.jpg","img/neutralC/CFD-BM-211-174-N.jpg","1","1","1","1","0","0","0.385354799975175","0.48820900003193","0.516867299971636","1","1","1","1","1","1","1","1","1"
"250027","img/neutralC/CFD-BM-211-174-N.jpg","img/neutralC/CFD-LF-236-221-N.jpg","img/neutralC/CFD-BF-201-080-N.jpg","1","1","1","0","1","1","0.516867299971636","0.385354799975175","0.411376299976837","1","1","1","1","1","1","1","1","1"
"250027","img/neutralC/CFD-BF-201-080-N.jpg","img/neutralC/CFD-BM-211-174-N.jpg","img/neutralC/CFD-AM-235-241-N.jpg","1","1","1","1","0","0","0.411376299976837","0.516867299971636","0.484744600020349","1","1","1","1","1","1","1","1","1"
"250027","img/neutralC/CFD-AM-235-241-N.jpg","img/neutralC/CFD-BF-201-080-N.jpg",NA,"1","1",NA,"0","1",NA,"0.484744600020349","0.411376299976837",NA,"1","1",NA,"1","1",NA,"1","1",NA
