"participant_id","current_trial_face","pre_trial_face","post_trial_face","current_trial_accuracy","pre_trial_accuracy","post_trial_accuracy","current_trial_congruency","pre_trial_congruency","post_trial_congruency","current_trial_rt","pre_trial_rt","post_trial_rt","current_trial_responded","pre_trial_responded","post_trial_responded","current_trial_legitResponse","pre_trial_legitResponse","post_trial_legitResponse","current_trial_resp_nums","pre_trial_resp_nums","post_trial_resp_nums"
"250010","img/neutralC/CFD-BF-204-189-N.jpg",NA,"img/neutralC/CFD-WF-026-002-N.jpg","1",NA,"1","1",NA,"1","1.38758590002544",NA,"0.677145999972709","1",NA,"1","1",NA,"1","1",NA,"1"
"250010","img/neutralC/CFD-WF-026-002-N.jpg","img/neutralC/CFD-BF-204-189-N.jpg","img/neutralC/CFD-IF-672-305-N.jpg","1","1","1","1","1","0","0.677145999972709","1.38758590002544","0.760099600069225","1","1","1","1","1","1","1","1","1"
"250010","img/neutralC/CFD-IF-672-305-N.jpg","img/neutralC/CFD-WF-026-002-N.jpg","img/neutralC/CFD-LM-252-076-N.jpg","1","1","1","0","1","1","0.760099600069225","0.677145999972709","0.758278799941763","1","1","1","1","1","1","1","1","2"
"250010","img/neutralC/CFD-LM-252-076-N.jpg","img/neutralC/CFD-IF-672-305-N.jpg","img/neutralC/CFD-BF-201-080-N.jpg","1","1","1","1","0","1","0.758278799941763","0.760099600069225","1.41860309999902","1","1","1","1","1","1","2","1","1"
"250010","img/neutralC/CFD-BF-201-080-N.jpg","img/neutralC/CFD-LM-252-076-N.jpg","img/neutralC/CFD-BF-023-010-N.jpg","1","1","1","1","1","1","1.41860309999902","0.758278799941763","1.08738430007361","1","1","1","1","1","1","1","2","1"
"250010","img/neutralC/CFD-BF-023-010-N.jpg","img/neutralC/CFD-BF-201-080-N.jpg","img/neutralC/CFD-AM-215-120-N.jpg","1","1","1","1","1","1","1.08738430007361","1.41860309999902","0.490167999989353","1","1","1","1","1","1","1","1","1"
"250010","img/neutralC/CFD-AM-215-120-N.jpg","img/neutralC/CFD-BF-023-010-N.jpg","img/neutralC/CFD-BF-255-140-N.jpg","1","1","1","1","1","1","0.490167999989353","1.08738430007361","0.658806499908678","1","1","1","1","1","1","1","1","1"
"250010","img/neutralC/CFD-BF-255-140-N.jpg","img/neutralC/CFD-AM-215-120-N.jpg","img/neutralC/CFD-IF-718-001-N.jpg","1","1","1","1","1","1","0.658806499908678","0.490167999989353","0.609570999979042","1","1","1","1","1","1","1","1","1"
"250010","img/neutralC/CFD-IF-718-001-N.jpg","img/neutralC/CFD-BF-255-140-N.jpg","img/neutralC/CFD-WM-038-003-N.jpg","1","1","1","1","1","0","0.609570999979042","0.658806499908678","1.06312189996243","1","1","1","1","1","1","1","1","1"
"250010","img/neutralC/CFD-WM-038-003-N.jpg","img/neutralC/CFD-IF-718-001-N.jpg","img/neutralC/CFD-LF-236-221-N.jpg","1","1","1","0","1","1","1.06312189996243","0.609570999979042","1.66491419996601","1","1","1","1","1","1","1","1","1"
"250010","img/neutralC/CFD-LF-236-221-N.jpg","img/neutralC/CFD-WM-038-003-N.jpg","img/neutralC/CFD-WM-257-161-N.jpg","1","1","1","1","0","1","1.66491419996601","1.06312189996243","0.78702859999612","1","1","1","1","1","1","1","1","1"
"250010","img/neutralC/CFD-WM-257-161-N.jpg","img/neutralC/CFD-LF-236-221-N.jpg","img/neutralC/CFD-AM-217-085-N.jpg","1","1","0","1","1","0","0.78702859999612","1.66491419996601","0.935955199995078","1","1","1","1","1","1","1","1","1"
"250010","img/neutralC/CFD-AM-217-085-N.jpg","img/neutralC/CFD-WM-257-161-N.jpg","img/neutralC/CFD-IM-639-263-N.jpg","0","1","1","0","1","1","0.935955199995078","0.78702859999612","1.11764850001782","1","1","1","1","1","1","1","1","1"
"250010","img/neutralC/CFD-IM-639-263-N.jpg","img/neutralC/CFD-AM-217-085-N.jpg","img/neutralC/CFD-BM-211-174-N.jpg","1","0","1","1","0","0","1.11764850001782","0.935955199995078","1.29334040009417","1","1","1","1","1","1","1","1","1"
"250010","img/neutralC/CFD-BM-211-174-N.jpg","img/neutralC/CFD-IM-639-263-N.jpg","img/neutralC/CFD-MM-319-052-N.jpg","1","1","1","0","1","1","1.29334040009417","1.11764850001782","0.805832499987446","1","1","1","1","1","1","1","1","1"
"250010","img/neutralC/CFD-MM-319-052-N.jpg","img/neutralC/CFD-BM-211-174-N.jpg","img/neutralC/CFD-IM-674-281-N.jpg","1","1","1","1","0","1","0.805832499987446","1.29334040009417","0.910933999926783","1","1","1","1","1","1","1","1","1"
"250010","img/neutralC/CFD-IM-674-281-N.jpg","img/neutralC/CFD-MM-319-052-N.jpg","img/neutralC/CFD-BM-015-015-N.jpg","1","1","1","1","1","0","0.910933999926783","0.805832499987446","0.633785199956037","1","1","1","1","1","1","1","1","1"
"250010","img/neutralC/CFD-BM-015-015-N.jpg","img/neutralC/CFD-IM-674-281-N.jpg","img/neutralC/CFD-IM-728-041-N.jpg","1","1","0","0","1","0","0.633785199956037","0.910933999926783",NA,"1","1","0","1","1","0","1","1","0"
"250010","img/neutralC/CFD-IM-728-041-N.jpg","img/neutralC/CFD-BM-015-015-N.jpg","img/neutralC/CFD-WF-022-017-N.jpg","0","1","1","0","0","0",NA,"0.633785199956037","1.24750069994479","0","1","1","0","1","1","0","1","1"
"250010","img/neutralC/CFD-WF-022-017-N.jpg","img/neutralC/CFD-IM-728-041-N.jpg","img/neutralC/CFD-BM-027-001-N.jpg","1","0","1","0","0","0","1.24750069994479",NA,"0.818370599998161","1","0","1","1","0","1","1","0","1"
"250010","img/neutralC/CFD-BM-027-001-N.jpg","img/neutralC/CFD-WF-022-017-N.jpg","img/neutralC/CFD-BF-208-266-N.jpg","1","1","1","0","0","0","0.818370599998161","1.24750069994479","1.112811399973","1","1","1","1","1","1","1","1","1"
"250010","img/neutralC/CFD-BF-208-266-N.jpg","img/neutralC/CFD-BM-027-001-N.jpg","img/neutralC/CFD-WM-040-022-N.jpg","1","1","1","0","0","0","1.112811399973","0.818370599998161","0.772224299958907","1","1","1","1","1","1","1","1","1"
"250010","img/neutralC/CFD-WM-040-022-N.jpg","img/neutralC/CFD-BF-208-266-N.jpg","img/neutralC/CFD-BF-003-003-N.jpg","1","1","0","0","0","0","0.772224299958907","1.112811399973","1.10071149992291","1","1","1","1","1","1","1","1","1"
"250010","img/neutralC/CFD-BF-003-003-N.jpg","img/neutralC/CFD-WM-040-022-N.jpg","img/neutralC/CFD-LF-216-121-N.jpg","0","1","1","0","0","1","1.10071149992291","0.772224299958907","1.10184719995596","1","1","1","1","1","1","1","1","1"
"250010","img/neutralC/CFD-LF-216-121-N.jpg","img/neutralC/CFD-BF-003-003-N.jpg","img/neutralC/CFD-BF-028-001-N.jpg","1","0","1","1","0","1","1.10184719995596","1.10071149992291","0.825935999979265","1","1","1","1","1","1","1","1","1"
"250010","img/neutralC/CFD-BF-028-001-N.jpg","img/neutralC/CFD-LF-216-121-N.jpg","img/neutralC/CFD-WM-002-009-N.jpg","1","1","1","1","1","0","0.825935999979265","1.10184719995596","1.72427410003729","1","1","1","1","1","1","1","1","1"
"250010","img/neutralC/CFD-WM-002-009-N.jpg","img/neutralC/CFD-BF-028-001-N.jpg","img/neutralC/CFD-WM-225-127-N.jpg","1","1","1","0","1","0","1.72427410003729","0.825935999979265","0.891010300023481","1","1","1","1","1","1","1","1","1"
"250010","img/neutralC/CFD-WM-225-127-N.jpg","img/neutralC/CFD-WM-002-009-N.jpg","img/neutralC/CFD-WF-002-004-N.jpg","1","1","1","0","0","0","0.891010300023481","1.72427410003729","2.08244710008148","1","1","1","1","1","1","1","1","1"
"250010","img/neutralC/CFD-WF-002-004-N.jpg","img/neutralC/CFD-WM-225-127-N.jpg","img/neutralC/CFD-AM-235-241-N.jpg","1","1","1","0","0","0","2.08244710008148","0.891010300023481","0.986209099995904","1","1","1","1","1","1","1","1","1"
"250010","img/neutralC/CFD-AM-235-241-N.jpg","img/neutralC/CFD-WF-002-004-N.jpg","img/neutralC/CFD-BM-247-240-N.jpg","1","1","1","0","0","0","0.986209099995904","2.08244710008148","0.695121699944139","1","1","1","1","1","1","1","1","1"
"250010","img/neutralC/CFD-BM-247-240-N.jpg","img/neutralC/CFD-AM-235-241-N.jpg","img/neutralC/CFD-BM-029-024-N.jpg","1","1","1","0","0","1","0.695121699944139","0.986209099995904","0.686475099995732","1","1","1","1","1","1","1","1","1"
"250010","img/neutralC/CFD-BM-029-024-N.jpg","img/neutralC/CFD-BM-247-240-N.jpg",NA,"1","1",NA,"1","0",NA,"0.686475099995732","0.695121699944139",NA,"1","1",NA,"1","1",NA,"1","1",NA
"250010","img/neutralC/CFD-BF-217-189-N.jpg",NA,"img/neutralC/CFD-AF-213-126-N.jpg","0",NA,"1","0",NA,"1",NA,NA,"0.828689999994822","0",NA,"1","0",NA,"1","0",NA,"1"
"250010","img/neutralC/CFD-AF-213-126-N.jpg","img/neutralC/CFD-BF-217-189-N.jpg","img/neutralC/CFD-BM-215-155-N.jpg","1","0","1","1","0","0","0.828689999994822",NA,"0.531628899974748","1","0","1","1","0","1","1","0","1"
"250010","img/neutralC/CFD-BM-215-155-N.jpg","img/neutralC/CFD-AF-213-126-N.jpg","img/neutralC/CFD-AM-225-102-N.jpg","1","1","1","0","1","0","0.531628899974748","0.828689999994822","1.14405099989381","1","1","1","1","1","1","1","1","1"
"250010","img/neutralC/CFD-AM-225-102-N.jpg","img/neutralC/CFD-BM-215-155-N.jpg","img/neutralC/CFD-LM-204-001-N.jpg","1","1","0","0","0","0","1.14405099989381","0.531628899974748","0.605008499929681","1","1","1","1","1","1","1","1","1"
"250010","img/neutralC/CFD-LM-204-001-N.jpg","img/neutralC/CFD-AM-225-102-N.jpg","img/neutralC/CFD-MF-302-027-N.jpg","0","1","1","0","0","0","0.605008499929681","1.14405099989381","0.656196399941109","1","1","1","1","1","1","1","1","1"
"250010","img/neutralC/CFD-MF-302-027-N.jpg","img/neutralC/CFD-LM-204-001-N.jpg","img/neutralC/CFD-IM-669-111-N.jpg","1","0","1","0","0","1","0.656196399941109","0.605008499929681","0.706055899965577","1","1","1","1","1","1","1","1","1"
"250010","img/neutralC/CFD-IM-669-111-N.jpg","img/neutralC/CFD-MF-302-027-N.jpg","img/neutralC/CFD-WM-253-119-N.jpg","1","1","1","1","0","1","0.706055899965577","0.656196399941109","0.561535200104117","1","1","1","1","1","1","1","1","1"
"250010","img/neutralC/CFD-WM-253-119-N.jpg","img/neutralC/CFD-IM-669-111-N.jpg","img/neutralC/CFD-BF-020-002-N.jpg","1","1","1","1","1","1","0.561535200104117","0.706055899965577","0.630399800022133","1","1","1","1","1","1","1","1","1"
"250010","img/neutralC/CFD-BF-020-002-N.jpg","img/neutralC/CFD-WM-253-119-N.jpg","img/neutralC/CFD-AF-205-155-N.jpg","1","1","1","1","1","0","0.630399800022133","0.561535200104117","0.552025599987246","1","1","1","1","1","1","1","1","1"
"250010","img/neutralC/CFD-AF-205-155-N.jpg","img/neutralC/CFD-BF-020-002-N.jpg","img/neutralC/CFD-BF-235-168-N.jpg","1","1","1","0","1","1","0.552025599987246","0.630399800022133","0.546965699992143","1","1","1","1","1","1","1","1","1"
"250010","img/neutralC/CFD-BF-235-168-N.jpg","img/neutralC/CFD-AF-205-155-N.jpg","img/neutralC/CFD-LF-239-148-N.jpg","1","1","1","1","0","0","0.546965699992143","0.552025599987246","0.816844800021499","1","1","1","1","1","1","1","1","1"
"250010","img/neutralC/CFD-LF-239-148-N.jpg","img/neutralC/CFD-BF-235-168-N.jpg","img/neutralC/CFD-AF-246-242-N.jpg","1","1","1","0","1","0","0.816844800021499","0.546965699992143","0.615038100047968","1","1","1","1","1","1","1","1","1"
"250010","img/neutralC/CFD-AF-246-242-N.jpg","img/neutralC/CFD-LF-239-148-N.jpg","img/neutralC/CFD-IF-732-260-N.jpg","1","1","0","0","0","0","0.615038100047968","0.816844800021499","2.27474640007131","1","1","1","1","1","1","1","1","1"
"250010","img/neutralC/CFD-IF-732-260-N.jpg","img/neutralC/CFD-AF-246-242-N.jpg","img/neutralC/CFD-WF-235-121-N.jpg","0","1","0","0","0","0","2.27474640007131","0.615038100047968","0.725618200027384","1","1","1","1","1","1","1","1","1"
"250010","img/neutralC/CFD-WF-235-121-N.jpg","img/neutralC/CFD-IF-732-260-N.jpg","img/neutralC/CFD-IM-632-097-N.jpg","0","0","1","0","0","0","0.725618200027384","2.27474640007131","0.612691900110804","1","1","1","1","1","1","1","1","1"
"250010","img/neutralC/CFD-IM-632-097-N.jpg","img/neutralC/CFD-WF-235-121-N.jpg","img/neutralC/CFD-WF-210-086-N.jpg","1","0","1","0","0","0","0.612691900110804","0.725618200027384","0.557355199940503","1","1","1","1","1","1","1","1","1"
"250010","img/neutralC/CFD-WF-210-086-N.jpg","img/neutralC/CFD-IM-632-097-N.jpg","img/neutralC/CFD-BM-004-002-N.jpg","1","1","0","0","0","0","0.557355199940503","0.612691900110804","0.513228999916464","1","1","1","1","1","1","1","1","1"
"250010","img/neutralC/CFD-BM-004-002-N.jpg","img/neutralC/CFD-WF-210-086-N.jpg","img/neutralC/CFD-IM-678-482-N.jpg","0","1","0","0","0","0","0.513228999916464","0.557355199940503",NA,"1","1","0","1","1","0","1","1","0"
"250010","img/neutralC/CFD-IM-678-482-N.jpg","img/neutralC/CFD-BM-004-002-N.jpg","img/neutralC/CFD-BF-040-003-N.jpg","0","0","0","0","0","1",NA,"0.513228999916464","0.597635800018907","0","1","1","0","1","1","0","1","2"
"250010","img/neutralC/CFD-BF-040-003-N.jpg","img/neutralC/CFD-IM-678-482-N.jpg","img/neutralC/CFD-AF-244-168-N.jpg","0","0","0","1","0","0","0.597635800018907",NA,"1.71685079997405","1","0","1","1","0","1","2","0","1"
"250010","img/neutralC/CFD-AF-244-168-N.jpg","img/neutralC/CFD-BF-040-003-N.jpg","img/neutralC/CFD-BF-206-143-N.jpg","0","0","0","0","1","1","1.71685079997405","0.597635800018907","1.08109160000458","1","1","1","1","1","1","1","2","1"
"250010","img/neutralC/CFD-BF-206-143-N.jpg","img/neutralC/CFD-AF-244-168-N.jpg","img/neutralC/CFD-WM-018-002-N.jpg","0","0","1","1","0","0","1.08109160000458","1.71685079997405","2.05892750003841","1","1","1","1","1","1","1","1","1"
"250010","img/neutralC/CFD-WM-018-002-N.jpg","img/neutralC/CFD-BF-206-143-N.jpg","img/neutralC/CFD-IM-635-010-N.jpg","1","0","1","0","1","1","2.05892750003841","1.08109160000458","0.794478700030595","1","1","1","1","1","1","1","1","1"
"250010","img/neutralC/CFD-IM-635-010-N.jpg","img/neutralC/CFD-WM-018-002-N.jpg","img/neutralC/CFD-AF-250-200-N.jpg","1","1","0","1","0","1","0.794478700030595","2.05892750003841","0.845966399996541","1","1","1","1","1","1","1","1","1"
"250010","img/neutralC/CFD-AF-250-200-N.jpg","img/neutralC/CFD-IM-635-010-N.jpg","img/neutralC/CFD-IF-636-011-N.jpg","0","1","0","1","1","1","0.845966399996541","0.794478700030595","0.762841299991123","1","1","1","1","1","1","1","1","1"
"250010","img/neutralC/CFD-IF-636-011-N.jpg","img/neutralC/CFD-AF-250-200-N.jpg","img/neutralC/CFD-AF-234-208-N.jpg","0","0","0","1","1","1","0.762841299991123","0.845966399996541","0.883060800028034","1","1","1","1","1","1","1","1","1"
"250010","img/neutralC/CFD-AF-234-208-N.jpg","img/neutralC/CFD-IF-636-011-N.jpg","img/neutralC/CFD-BF-042-026-N.jpg","0","0","0","1","1","1","0.883060800028034","0.762841299991123","0.553369899978861","1","1","1","1","1","1","1","1","1"
"250010","img/neutralC/CFD-BF-042-026-N.jpg","img/neutralC/CFD-AF-234-208-N.jpg","img/neutralC/CFD-AM-245-111-N.jpg","0","0","1","1","1","1","0.553369899978861","0.883060800028034","0.616635799990036","1","1","1","1","1","1","1","1","1"
"250010","img/neutralC/CFD-AM-245-111-N.jpg","img/neutralC/CFD-BF-042-026-N.jpg","img/neutralC/CFD-AM-233-236-N.jpg","1","0","1","1","1","1","0.616635799990036","0.553369899978861","0.566750500001945","1","1","1","1","1","1","1","1","1"
"250010","img/neutralC/CFD-AM-233-236-N.jpg","img/neutralC/CFD-AM-245-111-N.jpg","img/neutralC/CFD-MF-307-002-N.jpg","1","1","0","1","1","1","0.566750500001945","0.616635799990036","0.840715000056662","1","1","1","1","1","1","1","1","1"
"250010","img/neutralC/CFD-MF-307-002-N.jpg","img/neutralC/CFD-AM-233-236-N.jpg","img/neutralC/CFD-LM-241-125-N.jpg","0","1","0","1","1","1","0.840715000056662","0.566750500001945","1.7110626999056","1","1","1","1","1","1","1","1","1"
"250010","img/neutralC/CFD-LM-241-125-N.jpg","img/neutralC/CFD-MF-307-002-N.jpg",NA,"0","0",NA,"1","1",NA,"1.7110626999056","0.840715000056662",NA,"1","1",NA,"1","1",NA,"1","1",NA
"250010","img/neutralC/CFD-WM-213-076-N.jpg",NA,"img/neutralC/CFD-AM-236-090-N.jpg","1",NA,"1","1",NA,"1","1.28817399998661",NA,"0.595062299980782","1",NA,"1","1",NA,"1","1",NA,"1"
"250010","img/neutralC/CFD-AM-236-090-N.jpg","img/neutralC/CFD-WM-213-076-N.jpg","img/neutralC/CFD-WF-248-129-N.jpg","1","1","1","1","1","0","0.595062299980782","1.28817399998661","2.26098929997534","1","1","1","1","1","1","1","1","1"
"250010","img/neutralC/CFD-WF-248-129-N.jpg","img/neutralC/CFD-AM-236-090-N.jpg","img/neutralC/CFD-BF-043-003-N.jpg","1","1","1","0","1","0","2.26098929997534","0.595062299980782","2.52819669991732","1","1","1","1","1","1","1","1","1"
"250010","img/neutralC/CFD-BF-043-003-N.jpg","img/neutralC/CFD-WF-248-129-N.jpg","img/neutralC/CFD-WM-232-070-N.jpg","1","1","1","0","0","0","2.52819669991732","2.26098929997534","0.610287000075914","1","1","1","1","1","1","1","1","1"
"250010","img/neutralC/CFD-WM-232-070-N.jpg","img/neutralC/CFD-BF-043-003-N.jpg","img/neutralC/CFD-MF-340-026-N.jpg","1","1","1","0","0","1","0.610287000075914","2.52819669991732","0.556093499995768","1","1","1","1","1","1","1","1","1"
"250010","img/neutralC/CFD-MF-340-026-N.jpg","img/neutralC/CFD-WM-232-070-N.jpg","img/neutralC/CFD-WF-012-002-N.jpg","1","1","1","1","0","1","0.556093499995768","0.610287000075914","0.931230599991977","1","1","1","1","1","1","1","1","1"
"250010","img/neutralC/CFD-WF-012-002-N.jpg","img/neutralC/CFD-MF-340-026-N.jpg","img/neutralC/CFD-IF-619-197-N.jpg","1","1","1","1","1","0","0.931230599991977","0.556093499995768","0.735727799939923","1","1","1","1","1","1","1","1","1"
"250010","img/neutralC/CFD-IF-619-197-N.jpg","img/neutralC/CFD-WF-012-002-N.jpg","img/neutralC/CFD-LF-201-035-N.jpg","1","1","0","0","1","1","0.735727799939923","0.931230599991977","2.00319150008727","1","1","1","1","1","1","1","1","1"
"250010","img/neutralC/CFD-LF-201-035-N.jpg","img/neutralC/CFD-IF-619-197-N.jpg","img/neutralC/CFD-BF-224-002-N.jpg","0","1","1","1","0","1","2.00319150008727","0.735727799939923","1.1352355000563","1","1","1","1","1","1","1","1","1"
"250010","img/neutralC/CFD-BF-224-002-N.jpg","img/neutralC/CFD-LF-201-035-N.jpg","img/neutralC/CFD-IM-604-014-N.jpg","1","0","1","1","1","0","1.1352355000563","2.00319150008727","0.551735199987888","1","1","1","1","1","1","1","1","1"
"250010","img/neutralC/CFD-IM-604-014-N.jpg","img/neutralC/CFD-BF-224-002-N.jpg","img/neutralC/CFD-WM-024-015-N.jpg","1","1","1","0","1","1","0.551735199987888","1.1352355000563","0.570578599930741","1","1","1","1","1","1","1","1","1"
"250010","img/neutralC/CFD-WM-024-015-N.jpg","img/neutralC/CFD-IM-604-014-N.jpg","img/neutralC/CFD-MF-329-001-N.jpg","1","1","0","1","0","0","0.570578599930741","0.551735199987888","1.179506400018","1","1","1","1","1","1","1","1","1"
"250010","img/neutralC/CFD-MF-329-001-N.jpg","img/neutralC/CFD-WM-024-015-N.jpg","img/neutralC/CFD-IM-709-103-N.jpg","0","1","1","0","1","0","1.179506400018","0.570578599930741","1.07104100007564","1","1","1","1","1","1","1","1","1"
"250010","img/neutralC/CFD-IM-709-103-N.jpg","img/neutralC/CFD-MF-329-001-N.jpg","img/neutralC/CFD-MF-300-002-N.jpg","1","0","1","0","0","0","1.07104100007564","1.179506400018","0.69998279993888","1","1","1","1","1","1","1","1","1"
"250010","img/neutralC/CFD-MF-300-002-N.jpg","img/neutralC/CFD-IM-709-103-N.jpg","img/neutralC/CFD-LM-217-162-N.jpg","1","1","1","0","0","0","0.69998279993888","1.07104100007564","0.701010100077838","1","1","1","1","1","1","1","1","1"
"250010","img/neutralC/CFD-LM-217-162-N.jpg","img/neutralC/CFD-MF-300-002-N.jpg","img/neutralC/CFD-LF-226-174-N.jpg","1","1","1","0","0","0","0.701010100077838","0.69998279993888","2.41630869999062","1","1","1","1","1","1","1","1","1"
"250010","img/neutralC/CFD-LF-226-174-N.jpg","img/neutralC/CFD-LM-217-162-N.jpg","img/neutralC/CFD-AF-229-160-N.jpg","1","1","0","0","0","0","2.41630869999062","0.701010100077838","1.48127610003576","1","1","1","1","1","1","1","1","1"
"250010","img/neutralC/CFD-AF-229-160-N.jpg","img/neutralC/CFD-LF-226-174-N.jpg","img/neutralC/CFD-MF-327-002-N.jpg","0","1","1","0","0","0","1.48127610003576","2.41630869999062","0.556904299999587","1","1","1","1","1","1","1","1","1"
"250010","img/neutralC/CFD-MF-327-002-N.jpg","img/neutralC/CFD-AF-229-160-N.jpg","img/neutralC/CFD-WF-212-050-N.jpg","1","0","1","0","0","0","0.556904299999587","1.48127610003576","0.773151200031862","1","1","1","1","1","1","1","1","1"
"250010","img/neutralC/CFD-WF-212-050-N.jpg","img/neutralC/CFD-MF-327-002-N.jpg","img/neutralC/CFD-AF-254-167-N.jpg","1","1","1","0","0","1","0.773151200031862","0.556904299999587","0.648029999923892","1","1","1","1","1","1","1","1","1"
"250010","img/neutralC/CFD-AF-254-167-N.jpg","img/neutralC/CFD-WF-212-050-N.jpg","img/neutralC/CFD-WF-008-002-N.jpg","1","1","1","1","0","1","0.648029999923892","0.773151200031862","0.609449099982157","1","1","1","1","1","1","1","1","1"
"250010","img/neutralC/CFD-WF-008-002-N.jpg","img/neutralC/CFD-AF-254-167-N.jpg","img/neutralC/CFD-IF-608-390-N.jpg","1","1","1","1","1","1","0.609449099982157","0.648029999923892","0.484367799945176","1","1","1","1","1","1","1","1","1"
"250010","img/neutralC/CFD-IF-608-390-N.jpg","img/neutralC/CFD-WF-008-002-N.jpg","img/neutralC/CFD-WF-217-085-N.jpg","1","1","1","1","1","1","0.484367799945176","0.609449099982157","0.56197759998031","1","1","1","1","1","1","1","1","1"
"250010","img/neutralC/CFD-WF-217-085-N.jpg","img/neutralC/CFD-IF-608-390-N.jpg","img/neutralC/CFD-IM-637-007-N.jpg","1","1","1","1","1","0","0.56197759998031","0.484367799945176","0.791310000000522","1","1","1","1","1","1","1","1","1"
"250010","img/neutralC/CFD-IM-637-007-N.jpg","img/neutralC/CFD-WF-217-085-N.jpg","img/neutralC/CFD-BM-039-029-N.jpg","1","1","1","0","1","1","0.791310000000522","0.56197759998031","1.15510400000494","1","1","1","1","1","1","1","1","1"
"250010","img/neutralC/CFD-BM-039-029-N.jpg","img/neutralC/CFD-IM-637-007-N.jpg","img/neutralC/CFD-IM-675-015-N.jpg","1","1","1","1","0","1","1.15510400000494","0.791310000000522","0.760189399938099","1","1","1","1","1","1","1","1","1"
"250010","img/neutralC/CFD-IM-675-015-N.jpg","img/neutralC/CFD-BM-039-029-N.jpg","img/neutralC/CFD-IM-685-004-N.jpg","1","1","1","1","1","1","0.760189399938099","1.15510400000494","0.72140780009795","1","1","1","1","1","1","1","1","1"
"250010","img/neutralC/CFD-IM-685-004-N.jpg","img/neutralC/CFD-IM-675-015-N.jpg","img/neutralC/CFD-BM-243-218-N.jpg","1","1","1","1","1","1","0.72140780009795","0.760189399938099","0.636709499987774","1","1","1","1","1","1","1","1","1"
"250010","img/neutralC/CFD-BM-243-218-N.jpg","img/neutralC/CFD-IM-685-004-N.jpg","img/neutralC/CFD-MM-304-002-N.jpg","1","1","1","1","1","1","0.636709499987774","0.72140780009795","0.666917199967429","1","1","1","1","1","1","1","1","1"
"250010","img/neutralC/CFD-MM-304-002-N.jpg","img/neutralC/CFD-BM-243-218-N.jpg","img/neutralC/CFD-BF-051-035-N.jpg","1","1","1","1","1","0","0.666917199967429","0.636709499987774","1.22327080008108","1","1","1","1","1","1","1","1","1"
"250010","img/neutralC/CFD-BF-051-035-N.jpg","img/neutralC/CFD-MM-304-002-N.jpg","img/neutralC/CFD-AF-215-70-N.jpg","1","1","0","0","1","0","1.22327080008108","0.666917199967429","1.92112260009162","1","1","1","1","1","1","1","1","1"
"250010","img/neutralC/CFD-AF-215-70-N.jpg","img/neutralC/CFD-BF-051-035-N.jpg",NA,"0","1",NA,"0","0",NA,"1.92112260009162","1.22327080008108",NA,"1","1",NA,"1","1",NA,"1","1",NA
"250010","img/neutralC/CFD-AF-253-130-N.jpg",NA,"img/neutralC/CFD-BM-001-014-N.jpg","1",NA,"0","1",NA,"0","1.26257659995463",NA,"0.880141099914908","1",NA,"1","1",NA,"1","1",NA,"1"
"250010","img/neutralC/CFD-BM-001-014-N.jpg","img/neutralC/CFD-AF-253-130-N.jpg","img/neutralC/CFD-MF-303-013-N.jpg","0","1","0","0","1","0","0.880141099914908","1.26257659995463","1.40113410004415","1","1","1","1","1","1","1","1","1"
"250010","img/neutralC/CFD-MF-303-013-N.jpg","img/neutralC/CFD-BM-001-014-N.jpg","img/neutralC/CFD-BM-217-082-N.jpg","0","0","1","0","0","0","1.40113410004415","0.880141099914908","1.69446569995489","1","1","1","1","1","1","1","1","1"
"250010","img/neutralC/CFD-BM-217-082-N.jpg","img/neutralC/CFD-MF-303-013-N.jpg","img/neutralC/CFD-IM-702-101-N.jpg","1","0","0","0","0","1","1.69446569995489","1.40113410004415","1.81455020001158","1","1","1","1","1","1","1","1","1"
"250010","img/neutralC/CFD-IM-702-101-N.jpg","img/neutralC/CFD-BM-217-082-N.jpg","img/neutralC/CFD-MF-305-014-N.jpg","0","1","0","1","0","1","1.81455020001158","1.69446569995489","1.17072060005739","1","1","1","1","1","1","1","1","1"
"250010","img/neutralC/CFD-MF-305-014-N.jpg","img/neutralC/CFD-IM-702-101-N.jpg","img/neutralC/CFD-WF-007-001-N.jpg","0","0","0","1","1","1","1.17072060005739","1.81455020001158","0.86569290002808","1","1","1","1","1","1","1","1","1"
"250010","img/neutralC/CFD-WF-007-001-N.jpg","img/neutralC/CFD-MF-305-014-N.jpg","img/neutralC/CFD-WM-015-002-N.jpg","0","0","0","1","1","0","0.86569290002808","1.17072060005739","1.18980569997802","1","1","1","1","1","1","1","1","1"
"250010","img/neutralC/CFD-WM-015-002-N.jpg","img/neutralC/CFD-WF-007-001-N.jpg","img/neutralC/CFD-IM-706-002-N.jpg","0","0","0","0","1","0","1.18980569997802","0.86569290002808","0.708749100100249","1","1","1","1","1","1","1","1","1"
"250010","img/neutralC/CFD-IM-706-002-N.jpg","img/neutralC/CFD-WM-015-002-N.jpg","img/neutralC/CFD-MF-357-002-N.jpg","0","0","1","0","0","0","0.708749100100249","1.18980569997802","1.47964210005011","1","1","1","1","1","1","1","1","1"
"250010","img/neutralC/CFD-MF-357-002-N.jpg","img/neutralC/CFD-IM-706-002-N.jpg","img/neutralC/CFD-LM-225-130-N.jpg","1","0","0","0","0","0","1.47964210005011","0.708749100100249","0.894879799918272","1","1","1","1","1","1","1","1","1"
"250010","img/neutralC/CFD-LM-225-130-N.jpg","img/neutralC/CFD-MF-357-002-N.jpg","img/neutralC/CFD-AF-233-190-N.jpg","0","1","1","0","0","0","0.894879799918272","1.47964210005011","1.21410099999048","1","1","1","1","1","1","1","1","1"
"250010","img/neutralC/CFD-AF-233-190-N.jpg","img/neutralC/CFD-LM-225-130-N.jpg","img/neutralC/CFD-BM-250-170-N.jpg","1","0","0","0","0","1","1.21410099999048","0.894879799918272","0.833268899936229","1","1","1","1","1","1","1","1","1"
"250010","img/neutralC/CFD-BM-250-170-N.jpg","img/neutralC/CFD-AF-233-190-N.jpg","img/neutralC/CFD-WF-030-002-N.jpg","0","1","0","1","0","0","0.833268899936229","1.21410099999048","1.21037770004477","1","1","1","1","1","1","1","1","1"
"250010","img/neutralC/CFD-WF-030-002-N.jpg","img/neutralC/CFD-BM-250-170-N.jpg","img/neutralC/CFD-WF-244-163-N.jpg","0","0","0","0","1","1","1.21037770004477","0.833268899936229","0.827726899995469","1","1","1","1","1","1","1","1","2"
"250010","img/neutralC/CFD-WF-244-163-N.jpg","img/neutralC/CFD-WF-030-002-N.jpg","img/neutralC/CFD-MF-316-001-N.jpg","0","0","0","1","0","0","0.827726899995469","1.21037770004477",NA,"1","1","0","1","1","0","2","1","0"
"250010","img/neutralC/CFD-MF-316-001-N.jpg","img/neutralC/CFD-WF-244-163-N.jpg","img/neutralC/CFD-LM-200-045-N.jpg","0","0","1","0","1","1",NA,"0.827726899995469","1.26719170005526","0","1","1","0","1","1","0","2","1"
"250010","img/neutralC/CFD-LM-200-045-N.jpg","img/neutralC/CFD-MF-316-001-N.jpg","img/neutralC/CFD-BF-237-172-N.jpg","1","0","1","1","0","1","1.26719170005526",NA,"0.93399849999696","1","0","1","1","0","1","1","0","1"
"250010","img/neutralC/CFD-BF-237-172-N.jpg","img/neutralC/CFD-LM-200-045-N.jpg","img/neutralC/CFD-MF-343-001-N.jpg","1","1","1","1","1","1","0.93399849999696","1.26719170005526","0.592252300004475","1","1","1","1","1","1","1","1","1"
"250010","img/neutralC/CFD-MF-343-001-N.jpg","img/neutralC/CFD-BF-237-172-N.jpg","img/neutralC/CFD-WF-222-092-N.jpg","1","1","1","1","1","1","0.592252300004475","0.93399849999696","0.857594599947333","1","1","1","1","1","1","1","1","1"
"250010","img/neutralC/CFD-WF-222-092-N.jpg","img/neutralC/CFD-MF-343-001-N.jpg","img/neutralC/CFD-WM-209-038-N.jpg","1","1","1","1","1","0","0.857594599947333","0.592252300004475","0.691238700062968","1","1","1","1","1","1","1","1","1"
"250010","img/neutralC/CFD-WM-209-038-N.jpg","img/neutralC/CFD-WF-222-092-N.jpg","img/neutralC/CFD-IF-660-464-N.jpg","1","1","1","0","1","0","0.691238700062968","0.857594599947333","0.744407600024715","1","1","1","1","1","1","1","1","1"
"250010","img/neutralC/CFD-IF-660-464-N.jpg","img/neutralC/CFD-WM-209-038-N.jpg","img/neutralC/CFD-MM-324-069-N.jpg","1","1","1","0","0","1","0.744407600024715","0.691238700062968","0.516722799977288","1","1","1","1","1","1","1","1","1"
"250010","img/neutralC/CFD-MM-324-069-N.jpg","img/neutralC/CFD-IF-660-464-N.jpg","img/neutralC/CFD-AM-220-134-N.jpg","1","1","1","1","0","0","0.516722799977288","0.744407600024715","0.562502399901859","1","1","1","1","1","1","1","1","1"
"250010","img/neutralC/CFD-AM-220-134-N.jpg","img/neutralC/CFD-MM-324-069-N.jpg","img/neutralC/CFD-BF-014-002-N.jpg","1","1","1","0","1","1","0.562502399901859","0.516722799977288","0.569266300066374","1","1","1","1","1","1","1","1","1"
"250010","img/neutralC/CFD-BF-014-002-N.jpg","img/neutralC/CFD-AM-220-134-N.jpg","img/neutralC/CFD-IM-680-369-N.jpg","1","1","1","1","0","1","0.569266300066374","0.562502399901859","0.553631699993275","1","1","1","1","1","1","1","1","1"
"250010","img/neutralC/CFD-IM-680-369-N.jpg","img/neutralC/CFD-BF-014-002-N.jpg","img/neutralC/CFD-IF-626-375-N.jpg","1","1","0","1","1","0","0.553631699993275","0.569266300066374","0.551800200017169","1","1","1","1","1","1","1","1","1"
"250010","img/neutralC/CFD-IF-626-375-N.jpg","img/neutralC/CFD-IM-680-369-N.jpg","img/neutralC/CFD-IM-664-651-N.jpg","0","1","1","0","1","1","0.551800200017169","0.553631699993275","1.20880010002293","1","1","1","1","1","1","1","1","1"
"250010","img/neutralC/CFD-IM-664-651-N.jpg","img/neutralC/CFD-IF-626-375-N.jpg","img/neutralC/CFD-LF-206-078-N.jpg","1","0","1","1","0","1","1.20880010002293","0.551800200017169","0.734377500019036","1","1","1","1","1","1","1","1","1"
"250010","img/neutralC/CFD-LF-206-078-N.jpg","img/neutralC/CFD-IM-664-651-N.jpg","img/neutralC/CFD-WM-218-074-N.jpg","1","1","1","1","1","1","0.734377500019036","1.20880010002293","0.819940000073984","1","1","1","1","1","1","1","1","1"
"250010","img/neutralC/CFD-WM-218-074-N.jpg","img/neutralC/CFD-LF-206-078-N.jpg","img/neutralC/CFD-LF-255-088-N.jpg","1","1","1","1","1","0","0.819940000073984","0.734377500019036","0.681636599940248","1","1","1","1","1","1","1","1","1"
"250010","img/neutralC/CFD-LF-255-088-N.jpg","img/neutralC/CFD-WM-218-074-N.jpg","img/neutralC/CFD-IM-667-369-N.jpg","1","1","1","0","1","0","0.681636599940248","0.819940000073984","0.853156399913132","1","1","1","1","1","1","1","1","1"
"250010","img/neutralC/CFD-IM-667-369-N.jpg","img/neutralC/CFD-LF-255-088-N.jpg",NA,"1","1",NA,"0","0",NA,"0.853156399913132","0.681636599940248",NA,"1","1",NA,"1","1",NA,"1","1",NA
"250010","img/neutralC/CFD-AM-251-124-N.jpg",NA,"img/neutralC/CFD-MF-352-054-N.jpg","0",NA,"0","0",NA,"0","1.74905059998855",NA,"2.42266519996338","1",NA,"1","1",NA,"1","1",NA,"1"
"250010","img/neutralC/CFD-MF-352-054-N.jpg","img/neutralC/CFD-AM-251-124-N.jpg","img/neutralC/CFD-IM-703-182-N.jpg","0","0","1","0","0","1","2.42266519996338","1.74905059998855","0.835578000056557","1","1","1","1","1","1","1","1","1"
"250010","img/neutralC/CFD-IM-703-182-N.jpg","img/neutralC/CFD-MF-352-054-N.jpg","img/neutralC/CFD-MF-359-019-N.jpg","1","0","1","1","0","0","0.835578000056557","2.42266519996338","0.643188899965025","1","1","1","1","1","1","1","1","1"
"250010","img/neutralC/CFD-MF-359-019-N.jpg","img/neutralC/CFD-IM-703-182-N.jpg","img/neutralC/CFD-WM-020-001-N.jpg","1","1","1","0","1","1","0.643188899965025","0.835578000056557","0.582841999945231","1","1","1","1","1","1","1","1","1"
"250010","img/neutralC/CFD-WM-020-001-N.jpg","img/neutralC/CFD-MF-359-019-N.jpg","img/neutralC/CFD-BM-225-154-N.jpg","1","1","1","1","0","1","0.582841999945231","0.643188899965025","1.07984469993971","1","1","1","1","1","1","1","1","1"
"250010","img/neutralC/CFD-BM-225-154-N.jpg","img/neutralC/CFD-WM-020-001-N.jpg","img/neutralC/CFD-AM-242-176-N.jpg","1","1","1","1","1","1","1.07984469993971","0.582841999945231","0.512197100091726","1","1","1","1","1","1","1","1","1"
"250010","img/neutralC/CFD-AM-242-176-N.jpg","img/neutralC/CFD-BM-225-154-N.jpg","img/neutralC/CFD-WF-001-003-N.jpg","1","1","1","1","1","1","0.512197100091726","1.07984469993971","0.610658999998122","1","1","1","1","1","1","1","1","1"
"250010","img/neutralC/CFD-WF-001-003-N.jpg","img/neutralC/CFD-AM-242-176-N.jpg","img/neutralC/CFD-BF-038-037-N.jpg","1","1","1","1","1","1","0.610658999998122","0.512197100091726","0.690246999962255","1","1","1","1","1","1","1","1","1"
"250010","img/neutralC/CFD-BF-038-037-N.jpg","img/neutralC/CFD-WF-001-003-N.jpg","img/neutralC/CFD-WM-033-025-N.jpg","1","1","1","1","1","1","0.690246999962255","0.610658999998122","0.607961199944839","1","1","1","1","1","1","1","1","1"
"250010","img/neutralC/CFD-WM-033-025-N.jpg","img/neutralC/CFD-BF-038-037-N.jpg","img/neutralC/CFD-MF-333-012-N.jpg","1","1","0","1","1","0","0.607961199944839","0.690246999962255","0.80566350009758","1","1","1","1","1","1","1","1","1"
"250010","img/neutralC/CFD-MF-333-012-N.jpg","img/neutralC/CFD-WM-033-025-N.jpg","img/neutralC/CFD-BF-226-119-N.jpg","0","1","1","0","1","1","0.80566350009758","0.607961199944839","0.578833799925633","1","1","1","1","1","1","1","1","1"
"250010","img/neutralC/CFD-BF-226-119-N.jpg","img/neutralC/CFD-MF-333-012-N.jpg","img/neutralC/CFD-IM-743-006-N.jpg","1","0","1","1","0","1","0.578833799925633","0.80566350009758","0.578506199992262","1","1","1","1","1","1","1","1","1"
"250010","img/neutralC/CFD-IM-743-006-N.jpg","img/neutralC/CFD-BF-226-119-N.jpg","img/neutralC/CFD-LM-228-188-N.jpg","1","1","1","1","1","1","0.578506199992262","0.578833799925633","0.86761519999709","1","1","1","1","1","1","1","1","1"
"250010","img/neutralC/CFD-LM-228-188-N.jpg","img/neutralC/CFD-IM-743-006-N.jpg","img/neutralC/CFD-WM-219-008-N.jpg","1","1","1","1","1","0","0.86761519999709","0.578506199992262","0.920504800044","1","1","1","1","1","1","1","1","1"
"250010","img/neutralC/CFD-WM-219-008-N.jpg","img/neutralC/CFD-LM-228-188-N.jpg","img/neutralC/CFD-AM-211-052-N.jpg","1","1","1","0","1","1","0.920504800044","0.86761519999709","1.0701869999757","1","1","1","1","1","1","1","1","1"
"250010","img/neutralC/CFD-AM-211-052-N.jpg","img/neutralC/CFD-WM-219-008-N.jpg","img/neutralC/CFD-IM-616-214-N.jpg","1","1","1","1","0","0","1.0701869999757","0.920504800044","2.43896990001667","1","1","1","1","1","1","1","1","1"
"250010","img/neutralC/CFD-IM-616-214-N.jpg","img/neutralC/CFD-AM-211-052-N.jpg","img/neutralC/CFD-IF-650-315-N.jpg","1","1","1","0","1","0","2.43896990001667","1.0701869999757","1.43438109999988","1","1","1","1","1","1","1","1","1"
"250010","img/neutralC/CFD-IF-650-315-N.jpg","img/neutralC/CFD-IM-616-214-N.jpg","img/neutralC/CFD-LF-218-072-N.jpg","1","1","1","0","0","0","1.43438109999988","2.43896990001667","1.26527579990216","1","1","1","1","1","1","1","1","1"
"250010","img/neutralC/CFD-LF-218-072-N.jpg","img/neutralC/CFD-IF-650-315-N.jpg","img/neutralC/CFD-BM-253-004-N.jpg","1","1","1","0","0","1","1.26527579990216","1.43438109999988","0.747053700033575","1","1","1","1","1","1","1","1","1"
"250010","img/neutralC/CFD-BM-253-004-N.jpg","img/neutralC/CFD-LF-218-072-N.jpg","img/neutralC/CFD-BF-232-187-N.jpg","1","1","1","1","0","1","0.747053700033575","1.26527579990216","0.772931999992579","1","1","1","1","1","1","1","1","1"
"250010","img/neutralC/CFD-BF-232-187-N.jpg","img/neutralC/CFD-BM-253-004-N.jpg","img/neutralC/CFD-IF-623-129-N.jpg","1","1","1","1","1","1","0.772931999992579","0.747053700033575","1.06088570004795","1","1","1","1","1","1","1","1","1"
"250010","img/neutralC/CFD-IF-623-129-N.jpg","img/neutralC/CFD-BF-232-187-N.jpg","img/neutralC/CFD-LF-220-120-N.jpg","1","1","1","1","1","1","1.06088570004795","0.772931999992579","0.60895210003946","1","1","1","1","1","1","1","1","1"
"250010","img/neutralC/CFD-LF-220-120-N.jpg","img/neutralC/CFD-IF-623-129-N.jpg","img/neutralC/CFD-WM-004-010-N.jpg","1","1","1","1","1","0","0.60895210003946","1.06088570004795","0.704685399890877","1","1","1","1","1","1","1","1","1"
"250010","img/neutralC/CFD-WM-004-010-N.jpg","img/neutralC/CFD-LF-220-120-N.jpg","img/neutralC/CFD-IM-645-001-N.jpg","1","1","1","0","1","0","0.704685399890877","0.60895210003946","0.678916599950753","1","1","1","1","1","1","1","1","1"
"250010","img/neutralC/CFD-IM-645-001-N.jpg","img/neutralC/CFD-WM-004-010-N.jpg","img/neutralC/CFD-WF-200-099-N.jpg","1","1","1","0","0","0","0.678916599950753","0.704685399890877","0.720120800076984","1","1","1","1","1","1","1","1","1"
"250010","img/neutralC/CFD-WF-200-099-N.jpg","img/neutralC/CFD-IM-645-001-N.jpg","img/neutralC/CFD-LM-237-264-N.jpg","1","1","1","0","0","0","0.720120800076984","0.678916599950753","0.780802199966274","1","1","1","1","1","1","1","1","1"
"250010","img/neutralC/CFD-LM-237-264-N.jpg","img/neutralC/CFD-WF-200-099-N.jpg","img/neutralC/CFD-BF-229-179-N.jpg","1","1","1","0","0","0","0.780802199966274","0.720120800076984","0.700187299982645","1","1","1","1","1","1","1","1","1"
"250010","img/neutralC/CFD-BF-229-179-N.jpg","img/neutralC/CFD-LM-237-264-N.jpg","img/neutralC/CFD-IM-671-601-N.jpg","1","1","0","0","0","0","0.700187299982645","0.780802199966274","0.785873600048944","1","1","1","1","1","1","1","1","1"
"250010","img/neutralC/CFD-IM-671-601-N.jpg","img/neutralC/CFD-BF-229-179-N.jpg","img/neutralC/CFD-WM-235-147-N.jpg","0","1","1","0","0","0","0.785873600048944","0.700187299982645","0.989964399952442","1","1","1","1","1","1","1","1","1"
"250010","img/neutralC/CFD-WM-235-147-N.jpg","img/neutralC/CFD-IM-671-601-N.jpg","img/neutralC/CFD-WF-214-122-N.jpg","1","0","1","0","0","1","0.989964399952442","0.785873600048944","0.658126699971035","1","1","1","1","1","1","1","1","1"
"250010","img/neutralC/CFD-WF-214-122-N.jpg","img/neutralC/CFD-WM-235-147-N.jpg","img/neutralC/CFD-WF-036-023-N.jpg","1","1","1","1","0","0","0.658126699971035","0.989964399952442","0.586069699958898","1","1","1","1","1","1","1","1","1"
"250010","img/neutralC/CFD-WF-036-023-N.jpg","img/neutralC/CFD-WF-214-122-N.jpg",NA,"1","1",NA,"0","1",NA,"0.586069699958898","0.658126699971035",NA,"1","1",NA,"1","1",NA,"1","1",NA
"250010","img/neutralC/CFD-BF-036-027-N.jpg",NA,"img/neutralC/CFD-BM-241-235-N.jpg","0",NA,"1","0",NA,"0","2.42631839995738",NA,"0.715340199996717","1",NA,"1","1",NA,"1","1",NA,"1"
"250010","img/neutralC/CFD-BM-241-235-N.jpg","img/neutralC/CFD-BF-036-027-N.jpg","img/neutralC/CFD-LM-213-061-N.jpg","1","0","1","0","0","0","0.715340199996717","2.42631839995738","0.538518199929968","1","1","1","1","1","1","1","1","1"
"250010","img/neutralC/CFD-LM-213-061-N.jpg","img/neutralC/CFD-BM-241-235-N.jpg","img/neutralC/CFD-IF-742-103-N.jpg","1","1","1","0","0","1","0.538518199929968","0.715340199996717","0.533453700016253","1","1","1","1","1","1","1","1","1"
"250010","img/neutralC/CFD-IF-742-103-N.jpg","img/neutralC/CFD-LM-213-061-N.jpg","img/neutralC/CFD-WF-233-112-N.jpg","1","1","1","1","0","1","0.533453700016253","0.538518199929968","0.389259599964134","1","1","1","1","1","1","1","1","1"
"250010","img/neutralC/CFD-WF-233-112-N.jpg","img/neutralC/CFD-IF-742-103-N.jpg","img/neutralC/CFD-WF-029-002-N.jpg","1","1","1","1","1","0","0.389259599964134","0.533453700016253","0.687591699999757","1","1","1","1","1","1","1","1","1"
"250010","img/neutralC/CFD-WF-029-002-N.jpg","img/neutralC/CFD-WF-233-112-N.jpg","img/neutralC/CFD-LF-204-133-N.jpg","1","1","1","0","1","1","0.687591699999757","0.389259599964134","0.567879799986258","1","1","1","1","1","1","1","1","1"
"250010","img/neutralC/CFD-LF-204-133-N.jpg","img/neutralC/CFD-WF-029-002-N.jpg","img/neutralC/CFD-AM-230-150-N.jpg","1","1","0","1","0","0","0.567879799986258","0.687591699999757","0.585417800000869","1","1","1","1","1","1","1","1","4"
"250010","img/neutralC/CFD-AM-230-150-N.jpg","img/neutralC/CFD-LF-204-133-N.jpg","img/neutralC/CFD-IM-721-341-N.jpg","0","1","1","0","1","1","0.585417800000869","0.567879799986258","0.839961200021207","1","1","1","1","1","1","4","1","1"
"250010","img/neutralC/CFD-IM-721-341-N.jpg","img/neutralC/CFD-AM-230-150-N.jpg","img/neutralC/CFD-IM-707-105-N.jpg","1","0","1","1","0","1","0.839961200021207","0.585417800000869","0.646612599957734","1","1","1","1","1","1","1","4","1"
"250010","img/neutralC/CFD-IM-707-105-N.jpg","img/neutralC/CFD-IM-721-341-N.jpg","img/neutralC/CFD-BF-011-002-N.jpg","1","1","1","1","1","1","0.646612599957734","0.839961200021207","0.615212899981998","1","1","1","1","1","1","1","1","1"
"250010","img/neutralC/CFD-BF-011-002-N.jpg","img/neutralC/CFD-IM-707-105-N.jpg","img/neutralC/CFD-BM-238-242-N.jpg","1","1","1","1","1","0","0.615212899981998","0.646612599957734","0.627073199953884","1","1","1","1","1","1","1","1","1"
"250010","img/neutralC/CFD-BM-238-242-N.jpg","img/neutralC/CFD-BF-011-002-N.jpg","img/neutralC/CFD-WM-248-036-N.jpg","1","1","1","0","1","1","0.627073199953884","0.615212899981998","0.852615599986166","1","1","1","1","1","1","1","1","1"
"250010","img/neutralC/CFD-WM-248-036-N.jpg","img/neutralC/CFD-BM-238-242-N.jpg","img/neutralC/CFD-BM-207-024-N.jpg","1","1","1","1","0","1","0.852615599986166","0.627073199953884","0.704533800017089","1","1","1","1","1","1","1","1","1"
"250010","img/neutralC/CFD-BM-207-024-N.jpg","img/neutralC/CFD-WM-248-036-N.jpg","img/neutralC/CFD-WF-234-086-N.jpg","1","1","1","1","1","1","0.704533800017089","0.852615599986166","0.767490500002168","1","1","1","1","1","1","1","1","1"
"250010","img/neutralC/CFD-WF-234-086-N.jpg","img/neutralC/CFD-BM-207-024-N.jpg","img/neutralC/CFD-BF-236-177-N.jpg","1","1","1","1","1","0","0.767490500002168","0.704533800017089","0.860443299985491","1","1","1","1","1","1","1","1","1"
"250010","img/neutralC/CFD-BF-236-177-N.jpg","img/neutralC/CFD-WF-234-086-N.jpg","img/neutralC/CFD-BF-214-308-N.jpg","1","1","1","0","1","1","0.860443299985491","0.767490500002168","0.610141999903135","1","1","1","1","1","1","1","1","1"
"250010","img/neutralC/CFD-BF-214-308-N.jpg","img/neutralC/CFD-BF-236-177-N.jpg","img/neutralC/CFD-BF-002-001-N.jpg","1","1","1","1","0","0","0.610141999903135","0.860443299985491","2.71532960003242","1","1","1","1","1","1","1","1","1"
"250010","img/neutralC/CFD-BF-002-001-N.jpg","img/neutralC/CFD-BF-214-308-N.jpg","img/neutralC/CFD-IF-677-452-1-N.jpg","1","1","1","0","1","1","2.71532960003242","0.610141999903135","0.641684200032614","1","1","1","1","1","1","1","1","1"
"250010","img/neutralC/CFD-IF-677-452-1-N.jpg","img/neutralC/CFD-BF-002-001-N.jpg","img/neutralC/CFD-WM-034-030-N.jpg","1","1","1","1","0","1","0.641684200032614","2.71532960003242","0.619614699971862","1","1","1","1","1","1","1","1","1"
"250010","img/neutralC/CFD-WM-034-030-N.jpg","img/neutralC/CFD-IF-677-452-1-N.jpg","img/neutralC/CFD-BF-044-034-N.jpg","1","1","1","1","1","0","0.619614699971862","0.641684200032614","0.912473800010048","1","1","1","1","1","1","1","1","1"
"250010","img/neutralC/CFD-BF-044-034-N.jpg","img/neutralC/CFD-WM-034-030-N.jpg","img/neutralC/CFD-IF-729-393-N.jpg","1","1","0","0","1","0","0.912473800010048","0.619614699971862","0.880722500034608","1","1","1","1","1","1","1","1","1"
"250010","img/neutralC/CFD-IF-729-393-N.jpg","img/neutralC/CFD-BF-044-034-N.jpg","img/neutralC/CFD-WM-014-002-N.jpg","0","1","1","0","0","0","0.880722500034608","0.912473800010048","0.596677700057626","1","1","1","1","1","1","1","1","1"
"250010","img/neutralC/CFD-WM-014-002-N.jpg","img/neutralC/CFD-IF-729-393-N.jpg","img/neutralC/CFD-BM-036-003-N.jpg","1","0","1","0","0","1","0.596677700057626","0.880722500034608","0.504441100056283","1","1","1","1","1","1","1","1","1"
"250010","img/neutralC/CFD-BM-036-003-N.jpg","img/neutralC/CFD-WM-014-002-N.jpg","img/neutralC/CFD-BF-207-004-N.jpg","1","1","1","1","0","1","0.504441100056283","0.596677700057626","0.474482799996622","1","1","1","1","1","1","1","1","1"
"250010","img/neutralC/CFD-BF-207-004-N.jpg","img/neutralC/CFD-BM-036-003-N.jpg","img/neutralC/CFD-IM-696-001-N.jpg","1","1","1","1","1","0","0.474482799996622","0.504441100056283","0.59665760002099","1","1","1","1","1","1","1","1","1"
"250010","img/neutralC/CFD-IM-696-001-N.jpg","img/neutralC/CFD-BF-207-004-N.jpg","img/neutralC/CFD-WF-208-068-N.jpg","1","1","1","0","1","1","0.59665760002099","0.474482799996622","0.609907699981704","1","1","1","1","1","1","1","1","1"
"250010","img/neutralC/CFD-WF-208-068-N.jpg","img/neutralC/CFD-IM-696-001-N.jpg","img/neutralC/CFD-BF-027-002-N.jpg","1","1","1","1","0","1","0.609907699981704","0.59665760002099","0.775022899964824","1","1","1","1","1","1","1","1","1"
"250010","img/neutralC/CFD-BF-027-002-N.jpg","img/neutralC/CFD-WF-208-068-N.jpg","img/neutralC/CFD-BF-006-017-N.jpg","1","1","1","1","1","0","0.775022899964824","0.609907699981704","1.1665384999942","1","1","1","1","1","1","1","1","1"
"250010","img/neutralC/CFD-BF-006-017-N.jpg","img/neutralC/CFD-BF-027-002-N.jpg","img/neutralC/CFD-BF-247-179-N.jpg","1","1","1","0","1","0","1.1665384999942","0.775022899964824","0.670519200037234","1","1","1","1","1","1","1","1","1"
"250010","img/neutralC/CFD-BF-247-179-N.jpg","img/neutralC/CFD-BF-006-017-N.jpg","img/neutralC/CFD-IM-726-248-N.jpg","1","1","1","0","0","0","0.670519200037234","1.1665384999942","0.555119600030594","1","1","1","1","1","1","1","1","1"
"250010","img/neutralC/CFD-IM-726-248-N.jpg","img/neutralC/CFD-BF-247-179-N.jpg","img/neutralC/CFD-MF-301-024-N.jpg","1","1","1","0","0","0","0.555119600030594","0.670519200037234","0.617591200047173","1","1","1","1","1","1","1","1","1"
"250010","img/neutralC/CFD-MF-301-024-N.jpg","img/neutralC/CFD-IM-726-248-N.jpg",NA,"1","1",NA,"0","0",NA,"0.617591200047173","0.555119600030594",NA,"1","1",NA,"1","1",NA,"1","1",NA
"250010","img/neutralC/CFD-MF-328-020-N.jpg",NA,"img/neutralC/CFD-WF-243-148-N.jpg","1",NA,"1","0",NA,"0","1.29157239990309",NA,"0.588873400003649","1",NA,"1","1",NA,"1","1",NA,"1"
"250010","img/neutralC/CFD-WF-243-148-N.jpg","img/neutralC/CFD-MF-328-020-N.jpg","img/neutralC/CFD-BF-244-231-N.jpg","1","1","1","0","0","1","0.588873400003649","1.29157239990309","0.612834100029431","1","1","1","1","1","1","1","1","1"
"250010","img/neutralC/CFD-BF-244-231-N.jpg","img/neutralC/CFD-WF-243-148-N.jpg","img/neutralC/CFD-IF-676-017-N.jpg","1","1","1","1","0","1","0.612834100029431","0.588873400003649","0.48606030002702","1","1","1","1","1","1","1","1","1"
"250010","img/neutralC/CFD-IF-676-017-N.jpg","img/neutralC/CFD-BF-244-231-N.jpg","img/neutralC/CFD-LF-212-066-N.jpg","1","1","1","1","1","1","0.48606030002702","0.612834100029431","0.416100700036623","1","1","1","1","1","1","1","1","1"
"250010","img/neutralC/CFD-LF-212-066-N.jpg","img/neutralC/CFD-IF-676-017-N.jpg","img/neutralC/CFD-AF-237-223-N.jpg","1","1","1","1","1","0","0.416100700036623","0.48606030002702","0.555840700049885","1","1","1","1","1","1","1","1","1"
"250010","img/neutralC/CFD-AF-237-223-N.jpg","img/neutralC/CFD-LF-212-066-N.jpg","img/neutralC/CFD-MM-306-010-N.jpg","1","1","1","0","1","0","0.555840700049885","0.416100700036623","0.559262500028126","1","1","1","1","1","1","1","1","1"
"250010","img/neutralC/CFD-MM-306-010-N.jpg","img/neutralC/CFD-AF-237-223-N.jpg","img/neutralC/CFD-AM-205-153-N.jpg","1","1","1","0","0","1","0.559262500028126","0.555840700049885","0.848566300002858","1","1","1","1","1","1","1","1","1"
"250010","img/neutralC/CFD-AM-205-153-N.jpg","img/neutralC/CFD-MM-306-010-N.jpg","img/neutralC/CFD-BM-043-071-N.jpg","1","1","1","1","0","0","0.848566300002858","0.559262500028126","0.682119700009935","1","1","1","1","1","1","1","1","1"
"250010","img/neutralC/CFD-BM-043-071-N.jpg","img/neutralC/CFD-AM-205-153-N.jpg","img/neutralC/CFD-IM-689-263-N.jpg","1","1","1","0","1","1","0.682119700009935","0.848566300002858","0.481225299998186","1","1","1","1","1","1","1","1","1"
"250010","img/neutralC/CFD-IM-689-263-N.jpg","img/neutralC/CFD-BM-043-071-N.jpg","img/neutralC/CFD-BM-021-021-N.jpg","1","1","1","1","0","1","0.481225299998186","0.682119700009935","0.514926100033335","1","1","1","1","1","1","1","1","1"
"250010","img/neutralC/CFD-BM-021-021-N.jpg","img/neutralC/CFD-IM-689-263-N.jpg","img/neutralC/CFD-WM-025-002-N.jpg","1","1","1","1","1","0","0.514926100033335","0.481225299998186","0.605614500003867","1","1","1","1","1","1","1","1","1"
"250010","img/neutralC/CFD-WM-025-002-N.jpg","img/neutralC/CFD-BM-021-021-N.jpg","img/neutralC/CFD-AM-249-163-N.jpg","1","1","1","0","1","1","0.605614500003867","0.514926100033335","0.671176200034097","1","1","1","1","1","1","1","1","1"
"250010","img/neutralC/CFD-AM-249-163-N.jpg","img/neutralC/CFD-WM-025-002-N.jpg","img/neutralC/CFD-LF-222-147-N.jpg","1","1","1","1","0","0","0.671176200034097","0.605614500003867","0.775395100004971","1","1","1","1","1","1","1","1","1"
"250010","img/neutralC/CFD-LF-222-147-N.jpg","img/neutralC/CFD-AM-249-163-N.jpg","img/neutralC/CFD-WF-221-005-N.jpg","1","1","1","0","1","0","0.775395100004971","0.671176200034097","0.604813099955209","1","1","1","1","1","1","1","1","1"
"250010","img/neutralC/CFD-WF-221-005-N.jpg","img/neutralC/CFD-LF-222-147-N.jpg","img/neutralC/CFD-WM-023-001-N.jpg","1","1","1","0","0","0","0.604813099955209","0.775395100004971","0.623661799938418","1","1","1","1","1","1","1","1","1"
"250010","img/neutralC/CFD-WM-023-001-N.jpg","img/neutralC/CFD-WF-221-005-N.jpg","img/neutralC/CFD-WF-207-014-N.jpg","1","1","1","0","0","1","0.623661799938418","0.604813099955209","0.510094000026584","1","1","1","1","1","1","1","1","1"
"250010","img/neutralC/CFD-WF-207-014-N.jpg","img/neutralC/CFD-WM-023-001-N.jpg","img/neutralC/CFD-BM-030-003-N.jpg","1","1","0","1","0","0","0.510094000026584","0.623661799938418","0.971411900012754","1","1","1","1","1","1","1","1","1"
"250010","img/neutralC/CFD-BM-030-003-N.jpg","img/neutralC/CFD-WF-207-014-N.jpg","img/neutralC/CFD-LM-240-013-N.jpg","0","1","1","0","1","1","0.971411900012754","0.510094000026584","0.622038800036535","1","1","1","1","1","1","1","1","1"
"250010","img/neutralC/CFD-LM-240-013-N.jpg","img/neutralC/CFD-BM-030-003-N.jpg","img/neutralC/CFD-BM-020-001-N.jpg","1","0","1","1","0","0","0.622038800036535","0.971411900012754","0.816157800029032","1","1","1","1","1","1","1","1","1"
"250010","img/neutralC/CFD-BM-020-001-N.jpg","img/neutralC/CFD-LM-240-013-N.jpg","img/neutralC/CFD-WF-241-210-N.jpg","1","1","0","0","1","0","0.816157800029032","0.622038800036535","0.757627199986018","1","1","1","1","1","1","1","1","1"
"250010","img/neutralC/CFD-WF-241-210-N.jpg","img/neutralC/CFD-BM-020-001-N.jpg","img/neutralC/CFD-AM-219-101-N.jpg","0","1","1","0","0","0","0.757627199986018","0.816157800029032","2.00552440003958","1","1","1","1","1","1","1","1","1"
"250010","img/neutralC/CFD-AM-219-101-N.jpg","img/neutralC/CFD-WF-241-210-N.jpg","img/neutralC/CFD-WF-009-001-N.jpg","1","0","1","0","0","1","2.00552440003958","0.757627199986018","1.89408599992748","1","1","1","1","1","1","1","1","1"
"250010","img/neutralC/CFD-WF-009-001-N.jpg","img/neutralC/CFD-AM-219-101-N.jpg","img/neutralC/CFD-IM-606-008-N.jpg","1","1","0","1","0","0","1.89408599992748","2.00552440003958","0.968222700059414","1","1","1","1","1","1","1","1","1"
"250010","img/neutralC/CFD-IM-606-008-N.jpg","img/neutralC/CFD-WF-009-001-N.jpg","img/neutralC/CFD-BM-227-191-N.jpg","0","1","1","0","1","1","0.968222700059414","1.89408599992748","0.576699499972165","1","1","1","1","1","1","1","1","1"
"250010","img/neutralC/CFD-BM-227-191-N.jpg","img/neutralC/CFD-IM-606-008-N.jpg","img/neutralC/CFD-IM-615-167-N.jpg","1","0","0","1","0","0","0.576699499972165","0.968222700059414","1.65592659998219","1","1","1","1","1","1","1","1","1"
"250010","img/neutralC/CFD-IM-615-167-N.jpg","img/neutralC/CFD-BM-227-191-N.jpg","img/neutralC/CFD-IM-697-015-N.jpg","0","1","1","0","1","1","1.65592659998219","0.576699499972165","0.621432999963872","1","1","1","1","1","1","1","1","1"
"250010","img/neutralC/CFD-IM-697-015-N.jpg","img/neutralC/CFD-IM-615-167-N.jpg","img/neutralC/CFD-BM-009-002-N.jpg","1","0","1","1","0","1","0.621432999963872","1.65592659998219","0.690094199962914","1","1","1","1","1","1","1","1","1"
"250010","img/neutralC/CFD-BM-009-002-N.jpg","img/neutralC/CFD-IM-697-015-N.jpg","img/neutralC/CFD-LF-238-154-N.jpg","1","1","1","1","1","1","0.690094199962914","0.621432999963872","0.591628200025298","1","1","1","1","1","1","1","1","1"
"250010","img/neutralC/CFD-LF-238-154-N.jpg","img/neutralC/CFD-BM-009-002-N.jpg","img/neutralC/CFD-AM-243-212-N.jpg","1","1","1","1","1","1","0.591628200025298","0.690094199962914","1.59053849999327","1","1","1","1","1","1","1","1","1"
"250010","img/neutralC/CFD-AM-243-212-N.jpg","img/neutralC/CFD-LF-238-154-N.jpg","img/neutralC/CFD-BF-012-001-N.jpg","1","1","0","1","1","0","1.59053849999327","0.591628200025298","0.787404000060633","1","1","1","1","1","1","1","1","1"
"250010","img/neutralC/CFD-BF-012-001-N.jpg","img/neutralC/CFD-AM-243-212-N.jpg","img/neutralC/CFD-WM-028-003-N.jpg","0","1","1","0","1","1","0.787404000060633","1.59053849999327","0.55857350002043","1","1","1","1","1","1","1","1","1"
"250010","img/neutralC/CFD-WM-028-003-N.jpg","img/neutralC/CFD-BF-012-001-N.jpg",NA,"1","0",NA,"1","0",NA,"0.55857350002043","0.787404000060633",NA,"1","1",NA,"1","1",NA,"1","1",NA
"250010","img/neutralC/CFD-WF-245-084-N.jpg",NA,"img/neutralC/CFD-LF-215-157-N.jpg","1",NA,"1","1",NA,"0","0.746944800019264",NA,"0.906610500067472","1",NA,"1","1",NA,"1","1",NA,"1"
"250010","img/neutralC/CFD-LF-215-157-N.jpg","img/neutralC/CFD-WF-245-084-N.jpg","img/neutralC/CFD-WM-221-091-N.jpg","1","1","1","0","1","0","0.906610500067472","0.746944800019264","0.514155799988657","1","1","1","1","1","1","1","1","1"
"250010","img/neutralC/CFD-WM-221-091-N.jpg","img/neutralC/CFD-LF-215-157-N.jpg","img/neutralC/CFD-IM-627-178-N.jpg","1","1","1","0","0","1","0.514155799988657","0.906610500067472","0.454831700073555","1","1","1","1","1","1","1","1","1"
"250010","img/neutralC/CFD-IM-627-178-N.jpg","img/neutralC/CFD-WM-221-091-N.jpg","img/neutralC/CFD-BF-218-207-N.jpg","1","1","1","1","0","1","0.454831700073555","0.514155799988657","0.542676799930632","1","1","1","1","1","1","1","1","1"
"250010","img/neutralC/CFD-BF-218-207-N.jpg","img/neutralC/CFD-IM-627-178-N.jpg","img/neutralC/CFD-MM-321-021-N.jpg","1","1","1","1","1","0","0.542676799930632","0.454831700073555","0.748228799900971","1","1","1","1","1","1","1","1","1"
"250010","img/neutralC/CFD-MM-321-021-N.jpg","img/neutralC/CFD-BF-218-207-N.jpg","img/neutralC/CFD-BF-254-201-N.jpg","1","1","1","0","1","0","0.748228799900971","0.542676799930632","0.656446799985133","1","1","1","1","1","1","1","1","1"
"250010","img/neutralC/CFD-BF-254-201-N.jpg","img/neutralC/CFD-MM-321-021-N.jpg","img/neutralC/CFD-WF-027-003-N.jpg","1","1","1","0","0","1","0.656446799985133","0.748228799900971","0.509651400032453","1","1","1","1","1","1","1","1","1"
"250010","img/neutralC/CFD-WF-027-003-N.jpg","img/neutralC/CFD-BF-254-201-N.jpg","img/neutralC/CFD-BF-018-039-N.jpg","1","1","0","1","0","1","0.509651400032453","0.656446799985133","0.408390100114048","1","1","1","1","1","1","1","1","4"
"250010","img/neutralC/CFD-BF-018-039-N.jpg","img/neutralC/CFD-WF-027-003-N.jpg","img/neutralC/CFD-WM-201-063-N.jpg","0","1","1","1","1","1","0.408390100114048","0.509651400032453","0.66128239990212","1","1","1","1","1","1","4","1","1"
"250010","img/neutralC/CFD-WM-201-063-N.jpg","img/neutralC/CFD-BF-018-039-N.jpg","img/neutralC/CFD-WM-237-052-N.jpg","1","0","1","1","1","1","0.66128239990212","0.408390100114048","0.570854400051758","1","1","1","1","1","1","1","4","1"
"250010","img/neutralC/CFD-WM-237-052-N.jpg","img/neutralC/CFD-WM-201-063-N.jpg","img/neutralC/CFD-WF-238-023-N.jpg","1","1","1","1","1","0","0.570854400051758","0.66128239990212","0.572531000012532","1","1","1","1","1","1","1","1","1"
"250010","img/neutralC/CFD-WF-238-023-N.jpg","img/neutralC/CFD-WM-237-052-N.jpg","img/neutralC/CFD-IF-629-234-N.jpg","1","1","1","0","1","0","0.572531000012532","0.570854400051758","0.617571899900213","1","1","1","1","1","1","1","1","1"
"250010","img/neutralC/CFD-IF-629-234-N.jpg","img/neutralC/CFD-WF-238-023-N.jpg","img/neutralC/CFD-WM-013-001-N.jpg","1","1","1","0","0","1","0.617571899900213","0.572531000012532","0.600062299985439","1","1","1","1","1","1","1","1","1"
"250010","img/neutralC/CFD-WM-013-001-N.jpg","img/neutralC/CFD-IF-629-234-N.jpg","img/neutralC/CFD-LM-253-075-N.jpg","1","1","1","1","0","0","0.600062299985439","0.617571899900213","0.57379709999077","1","1","1","1","1","1","1","1","1"
"250010","img/neutralC/CFD-LM-253-075-N.jpg","img/neutralC/CFD-WM-013-001-N.jpg","img/neutralC/CFD-MF-342-022-N.jpg","1","1","1","0","1","1","0.57379709999077","0.600062299985439","0.598632599925622","1","1","1","1","1","1","1","1","1"
"250010","img/neutralC/CFD-MF-342-022-N.jpg","img/neutralC/CFD-LM-253-075-N.jpg","img/neutralC/CFD-BM-023-029-N.jpg","1","1","1","1","0","1","0.598632599925622","0.57379709999077","0.514715899946168","1","1","1","1","1","1","1","1","1"
"250010","img/neutralC/CFD-BM-023-029-N.jpg","img/neutralC/CFD-MF-342-022-N.jpg","img/neutralC/CFD-WF-023-003-N.jpg","1","1","1","1","1","1","0.514715899946168","0.598632599925622","0.592500199913047","1","1","1","1","1","1","1","1","1"
"250010","img/neutralC/CFD-WF-023-003-N.jpg","img/neutralC/CFD-BM-023-029-N.jpg","img/neutralC/CFD-AM-244-222-N.jpg","1","1","1","1","1","0","0.592500199913047","0.514715899946168","0.619503800058737","1","1","1","1","1","1","1","1","1"
"250010","img/neutralC/CFD-AM-244-222-N.jpg","img/neutralC/CFD-WF-023-003-N.jpg","img/neutralC/CFD-BM-204-003-N.jpg","1","1","1","0","1","0","0.619503800058737","0.592500199913047","0.529623300069943","1","1","1","1","1","1","1","1","1"
"250010","img/neutralC/CFD-BM-204-003-N.jpg","img/neutralC/CFD-AM-244-222-N.jpg","img/neutralC/CFD-WM-009-002-N.jpg","1","1","1","0","0","0","0.529623300069943","0.619503800058737","0.582263000076637","1","1","1","1","1","1","1","1","1"
"250010","img/neutralC/CFD-WM-009-002-N.jpg","img/neutralC/CFD-BM-204-003-N.jpg","img/neutralC/CFD-IM-700-009-N.jpg","1","1","1","0","0","1","0.582263000076637","0.529623300069943","0.497547099948861","1","1","1","1","1","1","1","1","1"
"250010","img/neutralC/CFD-IM-700-009-N.jpg","img/neutralC/CFD-WM-009-002-N.jpg","img/neutralC/CFD-AF-221-147-N.jpg","1","1","1","1","0","0","0.497547099948861","0.582263000076637","0.661920399987139","1","1","1","1","1","1","1","1","1"
"250010","img/neutralC/CFD-AF-221-147-N.jpg","img/neutralC/CFD-IM-700-009-N.jpg","img/neutralC/CFD-WF-226-095-N.jpg","1","1","1","0","1","1","0.661920399987139","0.497547099948861","0.491947600035928","1","1","1","1","1","1","1","1","1"
"250010","img/neutralC/CFD-WF-226-095-N.jpg","img/neutralC/CFD-AF-221-147-N.jpg","img/neutralC/CFD-BM-200-046-N.jpg","1","1","1","1","0","0","0.491947600035928","0.661920399987139","0.465742900036275","1","1","1","1","1","1","1","1","1"
"250010","img/neutralC/CFD-BM-200-046-N.jpg","img/neutralC/CFD-WF-226-095-N.jpg","img/neutralC/CFD-LF-211-003-N.jpg","1","1","1","0","1","0","0.465742900036275","0.491947600035928","0.543756300001405","1","1","1","1","1","1","1","1","1"
"250010","img/neutralC/CFD-LF-211-003-N.jpg","img/neutralC/CFD-BM-200-046-N.jpg","img/neutralC/CFD-MF-318-022-N.jpg","1","1","1","0","0","1","0.543756300001405","0.465742900036275","0.512487399973907","1","1","1","1","1","1","1","1","1"
"250010","img/neutralC/CFD-MF-318-022-N.jpg","img/neutralC/CFD-LF-211-003-N.jpg","img/neutralC/CFD-AF-232-078-N.jpg","1","1","1","1","0","1","0.512487399973907","0.543756300001405","0.525055199977942","1","1","1","1","1","1","1","1","1"
"250010","img/neutralC/CFD-AF-232-078-N.jpg","img/neutralC/CFD-MF-318-022-N.jpg","img/neutralC/CFD-WM-255-219-N.jpg","1","1","1","1","1","0","0.525055199977942","0.512487399973907","1.41406809992623","1","1","1","1","1","1","1","1","2"
"250010","img/neutralC/CFD-WM-255-219-N.jpg","img/neutralC/CFD-AF-232-078-N.jpg","img/neutralC/CFD-IM-719-221-N.jpg","1","1","0","0","1","0","1.41406809992623","0.525055199977942","0.816977999988012","1","1","1","1","1","1","2","1","1"
"250010","img/neutralC/CFD-IM-719-221-N.jpg","img/neutralC/CFD-WM-255-219-N.jpg","img/neutralC/CFD-MF-321-003-N.jpg","0","1","1","0","0","0","0.816977999988012","1.41406809992623","0.678999900002964","1","1","1","1","1","1","1","2","1"
"250010","img/neutralC/CFD-MF-321-003-N.jpg","img/neutralC/CFD-IM-719-221-N.jpg","img/neutralC/CFD-WF-018-017-N.jpg","1","0","1","0","0","1","0.678999900002964","0.816977999988012","0.702613800065592","1","1","1","1","1","1","1","1","1"
"250010","img/neutralC/CFD-WF-018-017-N.jpg","img/neutralC/CFD-MF-321-003-N.jpg",NA,"1","1",NA,"1","0",NA,"0.702613800065592","0.678999900002964",NA,"1","1",NA,"1","1",NA,"1","1",NA
"250010","img/neutralC/CFD-IM-646-023-N.jpg",NA,"img/neutralC/CFD-AF-240-206-N.jpg","0",NA,"1","1",NA,"0",NA,NA,"1.65495160000864","0",NA,"1","0",NA,"1","0",NA,"1"
"250010","img/neutralC/CFD-AF-240-206-N.jpg","img/neutralC/CFD-IM-646-023-N.jpg","img/neutralC/CFD-WM-006-002-N.jpg","1","0","1","0","1","0","1.65495160000864",NA,"0.713018500013277","1","0","1","1","0","1","1","0","1"
"250010","img/neutralC/CFD-WM-006-002-N.jpg","img/neutralC/CFD-AF-240-206-N.jpg","img/neutralC/CFD-LM-201-057-N.jpg","1","1","1","0","0","1","0.713018500013277","1.65495160000864","0.560614899965003","1","1","1","1","1","1","1","1","1"
"250010","img/neutralC/CFD-LM-201-057-N.jpg","img/neutralC/CFD-WM-006-002-N.jpg","img/neutralC/CFD-BF-212-315-N.jpg","1","1","1","1","0","1","0.560614899965003","0.713018500013277","0.50281539990101","1","1","1","1","1","1","1","1","1"
"250010","img/neutralC/CFD-BF-212-315-N.jpg","img/neutralC/CFD-LM-201-057-N.jpg","img/neutralC/CFD-BF-202-109-N.jpg","1","1","1","1","1","1","0.50281539990101","0.560614899965003","0.525147999986075","1","1","1","1","1","1","1","1","1"
"250010","img/neutralC/CFD-BF-202-109-N.jpg","img/neutralC/CFD-BF-212-315-N.jpg","img/neutralC/CFD-BF-025-002-N.jpg","1","1","1","1","1","0","0.525147999986075","0.50281539990101","0.429157400038093","1","1","1","1","1","1","1","1","1"
"250010","img/neutralC/CFD-BF-025-002-N.jpg","img/neutralC/CFD-BF-202-109-N.jpg","img/neutralC/CFD-WF-017-003-N.jpg","1","1","1","0","1","1","0.429157400038093","0.525147999986075","0.599791200016625","1","1","1","1","1","1","1","1","1"
"250010","img/neutralC/CFD-WF-017-003-N.jpg","img/neutralC/CFD-BF-025-002-N.jpg","img/neutralC/CFD-BM-248-128-N.jpg","1","1","1","1","0","0","0.599791200016625","0.429157400038093","1.25533970003016","1","1","1","1","1","1","1","1","1"
"250010","img/neutralC/CFD-BM-248-128-N.jpg","img/neutralC/CFD-WF-017-003-N.jpg","img/neutralC/CFD-WM-019-003-N.jpg","1","1","1","0","1","1","1.25533970003016","0.599791200016625","0.511993199936114","1","1","1","1","1","1","1","1","1"
"250010","img/neutralC/CFD-WM-019-003-N.jpg","img/neutralC/CFD-BM-248-128-N.jpg","img/neutralC/CFD-LM-216-082-N.jpg","1","1","0","1","0","0","0.511993199936114","1.25533970003016","1.46630099997856","1","1","1","1","1","1","1","1","1"
"250010","img/neutralC/CFD-LM-216-082-N.jpg","img/neutralC/CFD-WM-019-003-N.jpg","img/neutralC/CFD-LM-244-068-N.jpg","0","1","1","0","1","1","1.46630099997856","0.511993199936114","0.753742199973203","1","1","1","1","1","1","1","1","1"
"250010","img/neutralC/CFD-LM-244-068-N.jpg","img/neutralC/CFD-LM-216-082-N.jpg","img/neutralC/CFD-LM-214-165-N.jpg","1","0","1","1","0","1","0.753742199973203","1.46630099997856","0.558497700025328","1","1","1","1","1","1","1","1","1"
"250010","img/neutralC/CFD-LM-214-165-N.jpg","img/neutralC/CFD-LM-244-068-N.jpg","img/neutralC/CFD-LM-243-075-N.jpg","1","1","1","1","1","0","0.558497700025328","0.753742199973203","0.710698300041258","1","1","1","1","1","1","1","1","1"
"250010","img/neutralC/CFD-LM-243-075-N.jpg","img/neutralC/CFD-LM-214-165-N.jpg","img/neutralC/CFD-MF-335-002-N.jpg","1","1","1","0","1","0","0.710698300041258","0.558497700025328","0.665844200062566","1","1","1","1","1","1","1","1","1"
"250010","img/neutralC/CFD-MF-335-002-N.jpg","img/neutralC/CFD-LM-243-075-N.jpg","img/neutralC/CFD-WM-026-001-N.jpg","1","1","1","0","0","1","0.665844200062566","0.710698300041258","0.701621699961834","1","1","1","1","1","1","1","1","1"
"250010","img/neutralC/CFD-WM-026-001-N.jpg","img/neutralC/CFD-MF-335-002-N.jpg","img/neutralC/CFD-MM-317-061-N.jpg","1","1","1","1","0","1","0.701621699961834","0.665844200062566","0.438816800015047","1","1","1","1","1","1","1","1","1"
"250010","img/neutralC/CFD-MM-317-061-N.jpg","img/neutralC/CFD-WM-026-001-N.jpg","img/neutralC/CFD-BF-228-212-N.jpg","1","1","1","1","1","0","0.438816800015047","0.701621699961834","0.542911399970762","1","1","1","1","1","1","1","1","1"
"250010","img/neutralC/CFD-BF-228-212-N.jpg","img/neutralC/CFD-MM-317-061-N.jpg","img/neutralC/CFD-BF-041-001-N.jpg","1","1","1","0","1","1","0.542911399970762","0.438816800015047","0.467920899973251","1","1","1","1","1","1","1","1","1"
"250010","img/neutralC/CFD-BF-041-001-N.jpg","img/neutralC/CFD-BF-228-212-N.jpg","img/neutralC/CFD-WM-249-239-N.jpg","1","1","1","1","0","1","0.467920899973251","0.542911399970762","0.519061100087129","1","1","1","1","1","1","1","1","1"
"250010","img/neutralC/CFD-WM-249-239-N.jpg","img/neutralC/CFD-BF-041-001-N.jpg","img/neutralC/CFD-WM-215-041-N.jpg","1","1","1","1","1","0","0.519061100087129","0.467920899973251","0.678615199984051","1","1","1","1","1","1","1","1","1"
"250010","img/neutralC/CFD-WM-215-041-N.jpg","img/neutralC/CFD-WM-249-239-N.jpg","img/neutralC/CFD-WF-005-010-N.jpg","1","1","1","0","1","0","0.678615199984051","0.519061100087129","0.49482319992967","1","1","1","1","1","1","1","1","1"
"250010","img/neutralC/CFD-WF-005-010-N.jpg","img/neutralC/CFD-WM-215-041-N.jpg","img/neutralC/CFD-IM-648-337-N.jpg","1","1","1","0","0","0","0.49482319992967","0.678615199984051","0.567706999951042","1","1","1","1","1","1","1","1","1"
"250010","img/neutralC/CFD-IM-648-337-N.jpg","img/neutralC/CFD-WF-005-010-N.jpg","img/neutralC/CFD-WF-240-083-N.jpg","1","1","1","0","0","0","0.567706999951042","0.49482319992967","0.564217600040138","1","1","1","1","1","1","1","1","1"
"250010","img/neutralC/CFD-WF-240-083-N.jpg","img/neutralC/CFD-IM-648-337-N.jpg","img/neutralC/CFD-WM-212-097-N.jpg","1","1","1","0","0","0","0.564217600040138","0.567706999951042","1.07216700003482","1","1","1","1","1","1","1","1","1"
"250010","img/neutralC/CFD-WM-212-097-N.jpg","img/neutralC/CFD-WF-240-083-N.jpg","img/neutralC/CFD-IF-642-295-N.jpg","1","1","1","0","0","1","1.07216700003482","0.564217600040138","0.664454200072214","1","1","1","1","1","1","1","1","1"
"250010","img/neutralC/CFD-IF-642-295-N.jpg","img/neutralC/CFD-WM-212-097-N.jpg","img/neutralC/CFD-BM-251-013-N.jpg","1","1","1","1","0","1","0.664454200072214","1.07216700003482","0.586428900016472","1","1","1","1","1","1","1","1","1"
"250010","img/neutralC/CFD-BM-251-013-N.jpg","img/neutralC/CFD-IF-642-295-N.jpg","img/neutralC/CFD-WF-228-196-N.jpg","1","1","0","1","1","0","0.586428900016472","0.664454200072214","0.859483900014311","1","1","1","1","1","1","1","1","1"
"250010","img/neutralC/CFD-WF-228-196-N.jpg","img/neutralC/CFD-BM-251-013-N.jpg","img/neutralC/CFD-AM-247-165-N.jpg","0","1","1","0","1","1","0.859483900014311","0.586428900016472","0.528170299949124","1","1","1","1","1","1","1","1","1"
"250010","img/neutralC/CFD-AM-247-165-N.jpg","img/neutralC/CFD-WF-228-196-N.jpg","img/neutralC/CFD-BM-205-001-N.jpg","1","0","1","1","0","0","0.528170299949124","0.859483900014311","0.617403300013393","1","1","1","1","1","1","1","1","1"
"250010","img/neutralC/CFD-BM-205-001-N.jpg","img/neutralC/CFD-AM-247-165-N.jpg","img/neutralC/CFD-WM-012-001-N.jpg","1","1","1","0","1","1","0.617403300013393","0.528170299949124","0.530105600017123","1","1","1","1","1","1","1","1","1"
"250010","img/neutralC/CFD-WM-012-001-N.jpg","img/neutralC/CFD-BM-205-001-N.jpg","img/neutralC/CFD-MF-309-002-N.jpg","1","1","1","1","0","0","0.530105600017123","0.617403300013393","1.54060539999045","1","1","1","1","1","1","1","1","1"
"250010","img/neutralC/CFD-MF-309-002-N.jpg","img/neutralC/CFD-WM-012-001-N.jpg",NA,"1","1",NA,"0","1",NA,"1.54060539999045","0.530105600017123",NA,"1","1",NA,"1","1",NA,"1","1",NA
"250010","img/neutralC/CFD-BF-010-001-N.jpg",NA,"img/neutralC/CFD-WM-017-002-N.jpg","1",NA,"1","1",NA,"0","1.15553390001878",NA,"0.672324100043625","1",NA,"1","1",NA,"1","1",NA,"1"
"250010","img/neutralC/CFD-WM-017-002-N.jpg","img/neutralC/CFD-BF-010-001-N.jpg","img/neutralC/CFD-LF-250-169-N.jpg","1","1","1","0","1","1","0.672324100043625","1.15553390001878","0.534592799958773","1","1","1","1","1","1","1","1","1"
"250010","img/neutralC/CFD-LF-250-169-N.jpg","img/neutralC/CFD-WM-017-002-N.jpg","img/neutralC/CFD-WM-227-099-N.jpg","1","1","1","1","0","1","0.534592799958773","0.672324100043625","0.415453499997966","1","1","1","1","1","1","1","1","1"
"250010","img/neutralC/CFD-WM-227-099-N.jpg","img/neutralC/CFD-LF-250-169-N.jpg","img/neutralC/CFD-BM-005-003-N.jpg","1","1","1","1","1","1","0.415453499997966","0.534592799958773","0.745689900009893","1","1","1","1","1","1","1","1","1"
"250010","img/neutralC/CFD-BM-005-003-N.jpg","img/neutralC/CFD-WM-227-099-N.jpg","img/neutralC/CFD-LF-245-166-N.jpg","1","1","0","1","1","1","0.745689900009893","0.415453499997966","0.415437999996357","1","1","1","1","1","1","1","1","1"
"250010","img/neutralC/CFD-LF-245-166-N.jpg","img/neutralC/CFD-BM-005-003-N.jpg","img/neutralC/CFD-IM-617-174-N.jpg","0","1","1","1","1","0","0.415437999996357","0.745689900009893","0.629457299946807","1","1","1","1","1","1","1","1","1"
"250010","img/neutralC/CFD-IM-617-174-N.jpg","img/neutralC/CFD-LF-245-166-N.jpg","img/neutralC/CFD-AF-202-122-N.jpg","1","0","1","0","1","1","0.629457299946807","0.415437999996357","0.580758700030856","1","1","1","1","1","1","1","1","1"
"250010","img/neutralC/CFD-AF-202-122-N.jpg","img/neutralC/CFD-IM-617-174-N.jpg","img/neutralC/CFD-LM-233-171-N.jpg","1","1","1","1","0","0","0.580758700030856","0.629457299946807","0.780267199967057","1","1","1","1","1","1","1","1","1"
"250010","img/neutralC/CFD-LM-233-171-N.jpg","img/neutralC/CFD-AF-202-122-N.jpg","img/neutralC/CFD-WF-209-052-N.jpg","1","1","1","0","1","1","0.780267199967057","0.580758700030856","0.50069060001988","1","1","1","1","1","1","1","1","1"
"250010","img/neutralC/CFD-WF-209-052-N.jpg","img/neutralC/CFD-LM-233-171-N.jpg","img/neutralC/CFD-IF-620-218-N.jpg","1","1","1","1","0","0","0.50069060001988","0.780267199967057","0.817281800089404","1","1","1","1","1","1","1","1","1"
"250010","img/neutralC/CFD-IF-620-218-N.jpg","img/neutralC/CFD-WF-209-052-N.jpg","img/neutralC/CFD-IM-686-097-N.jpg","1","1","1","0","1","0","0.817281800089404","0.50069060001988","0.798030399950221","1","1","1","1","1","1","1","1","1"
"250010","img/neutralC/CFD-IM-686-097-N.jpg","img/neutralC/CFD-IF-620-218-N.jpg","img/neutralC/CFD-IF-665-015-N.jpg","1","1","1","0","0","0","0.798030399950221","0.817281800089404","0.611525700078346","1","1","1","1","1","1","1","1","1"
"250010","img/neutralC/CFD-IF-665-015-N.jpg","img/neutralC/CFD-IM-686-097-N.jpg","img/neutralC/CFD-MF-313-002-N.jpg","1","1","0","0","0","0","0.611525700078346","0.798030399950221","0.889971600030549","1","1","1","1","1","1","1","1","1"
"250010","img/neutralC/CFD-MF-313-002-N.jpg","img/neutralC/CFD-IF-665-015-N.jpg","img/neutralC/CFD-LM-226-175-N.jpg","0","1","1","0","0","0","0.889971600030549","0.611525700078346","1.23729499999899","1","1","1","1","1","1","1","1","1"
"250010","img/neutralC/CFD-LM-226-175-N.jpg","img/neutralC/CFD-MF-313-002-N.jpg","img/neutralC/CFD-AF-241-141-N.jpg","1","0","1","0","0","1","1.23729499999899","0.889971600030549","0.551572800031863","1","1","1","1","1","1","1","1","1"
"250010","img/neutralC/CFD-AF-241-141-N.jpg","img/neutralC/CFD-LM-226-175-N.jpg","img/neutralC/CFD-IM-653-008-N.jpg","1","1","1","1","0","0","0.551572800031863","1.23729499999899","0.801505999988876","1","1","1","1","1","1","1","1","1"
"250010","img/neutralC/CFD-IM-653-008-N.jpg","img/neutralC/CFD-AF-241-141-N.jpg","img/neutralC/CFD-LM-219-295-N.jpg","1","1","1","0","1","1","0.801505999988876","0.551572800031863","1.29746919998433","1","1","1","1","1","1","1","1","1"
"250010","img/neutralC/CFD-LM-219-295-N.jpg","img/neutralC/CFD-IM-653-008-N.jpg","img/neutralC/CFD-IM-638-250-1-N.jpg","1","1","1","1","0","1","1.29746919998433","0.801505999988876","0.845238500041887","1","1","1","1","1","1","1","1","1"
"250010","img/neutralC/CFD-IM-638-250-1-N.jpg","img/neutralC/CFD-LM-219-295-N.jpg","img/neutralC/CFD-BM-212-117-N.jpg","1","1","1","1","1","0","0.845238500041887","1.29746919998433","0.660377099993639","1","1","1","1","1","1","1","1","1"
"250010","img/neutralC/CFD-BM-212-117-N.jpg","img/neutralC/CFD-IM-638-250-1-N.jpg","img/neutralC/CFD-BM-026-002-N.jpg","1","1","1","0","1","0","0.660377099993639","0.845238500041887","0.687345699989237","1","1","1","1","1","1","1","1","1"
"250010","img/neutralC/CFD-BM-026-002-N.jpg","img/neutralC/CFD-BM-212-117-N.jpg","img/neutralC/CFD-BF-033-028-N.jpg","1","1","0","0","0","0","0.687345699989237","0.660377099993639","2.0364636000013","1","1","1","1","1","1","1","1","1"
"250010","img/neutralC/CFD-BF-033-028-N.jpg","img/neutralC/CFD-BM-026-002-N.jpg","img/neutralC/CFD-BM-018-001-N.jpg","0","1","1","0","0","1","2.0364636000013","0.687345699989237","0.440856399945915","1","1","1","1","1","1","1","1","1"
"250010","img/neutralC/CFD-BM-018-001-N.jpg","img/neutralC/CFD-BF-033-028-N.jpg","img/neutralC/CFD-WM-258-125-N.jpg","1","0","0","1","0","0","0.440856399945915","2.0364636000013","0.408972100005485","1","1","1","1","1","1","1","1","4"
"250010","img/neutralC/CFD-WM-258-125-N.jpg","img/neutralC/CFD-BM-018-001-N.jpg","img/neutralC/CFD-BM-231-155-N.jpg","0","1","1","0","1","1","0.408972100005485","0.440856399945915","0.641896500019357","1","1","1","1","1","1","4","1","1"
"250010","img/neutralC/CFD-BM-231-155-N.jpg","img/neutralC/CFD-WM-258-125-N.jpg","img/neutralC/CFD-WM-242-011-N.jpg","1","0","1","1","0","0","0.641896500019357","0.408972100005485","0.462367800064385","1","1","1","1","1","1","1","4","1"
"250010","img/neutralC/CFD-WM-242-011-N.jpg","img/neutralC/CFD-BM-231-155-N.jpg","img/neutralC/CFD-AF-206-079-N.jpg","1","1","1","0","1","1","0.462367800064385","0.641896500019357","0.555407700012438","1","1","1","1","1","1","1","1","1"
"250010","img/neutralC/CFD-AF-206-079-N.jpg","img/neutralC/CFD-WM-242-011-N.jpg","img/neutralC/CFD-IM-657-308-N.jpg","1","1","1","1","0","0","0.555407700012438","0.462367800064385","0.599187800078653","1","1","1","1","1","1","1","1","1"
"250010","img/neutralC/CFD-IM-657-308-N.jpg","img/neutralC/CFD-AF-206-079-N.jpg","img/neutralC/CFD-IM-727-195-N.jpg","1","1","1","0","1","1","0.599187800078653","0.555407700012438","0.627072999952361","1","1","1","1","1","1","1","1","1"
"250010","img/neutralC/CFD-IM-727-195-N.jpg","img/neutralC/CFD-IM-657-308-N.jpg","img/neutralC/CFD-LF-247-051-N.jpg","1","1","1","1","0","1","0.627072999952361","0.599187800078653","0.520294199930504","1","1","1","1","1","1","1","1","1"
"250010","img/neutralC/CFD-LF-247-051-N.jpg","img/neutralC/CFD-IM-727-195-N.jpg","img/neutralC/CFD-LF-242-121-N.jpg","1","1","1","1","1","0","0.520294199930504","0.627072999952361","0.734470200026408","1","1","1","1","1","1","1","1","1"
"250010","img/neutralC/CFD-LF-242-121-N.jpg","img/neutralC/CFD-LF-247-051-N.jpg","img/neutralC/CFD-BF-238-190-N.jpg","1","1","1","0","1","1","0.734470200026408","0.520294199930504","0.65484730002936","1","1","1","1","1","1","1","1","1"
"250010","img/neutralC/CFD-BF-238-190-N.jpg","img/neutralC/CFD-LF-242-121-N.jpg",NA,"1","1",NA,"1","0",NA,"0.65484730002936","0.734470200026408",NA,"1","1",NA,"1","1",NA,"1","1",NA
"250010","img/neutralC/CFD-LF-210-220-N.jpg",NA,"img/neutralC/CFD-LF-208-127-N.jpg","1",NA,"1","1",NA,"0","1.65209400001913",NA,"0.648065899964422","1",NA,"1","1",NA,"1","1",NA,"1"
"250010","img/neutralC/CFD-LF-208-127-N.jpg","img/neutralC/CFD-LF-210-220-N.jpg","img/neutralC/CFD-IM-701-312-N.jpg","1","1","1","0","1","0","0.648065899964422","1.65209400001913","0.687574799987487","1","1","1","1","1","1","1","1","1"
"250010","img/neutralC/CFD-IM-701-312-N.jpg","img/neutralC/CFD-LF-208-127-N.jpg","img/neutralC/CFD-BM-003-003-N.jpg","1","1","1","0","0","0","0.687574799987487","0.648065899964422","0.570987499901094","1","1","1","1","1","1","1","1","1"
"250010","img/neutralC/CFD-BM-003-003-N.jpg","img/neutralC/CFD-IM-701-312-N.jpg","img/neutralC/CFD-BF-222-240-N.jpg","1","1","1","0","0","0","0.570987499901094","0.687574799987487","0.884670199942775","1","1","1","1","1","1","1","1","1"
"250010","img/neutralC/CFD-BF-222-240-N.jpg","img/neutralC/CFD-BM-003-003-N.jpg","img/neutralC/CFD-BM-028-002-N.jpg","1","1","1","0","0","1","0.884670199942775","0.570987499901094","0.544419300043955","1","1","1","1","1","1","1","1","1"
"250010","img/neutralC/CFD-BM-028-002-N.jpg","img/neutralC/CFD-BF-222-240-N.jpg","img/neutralC/CFD-IF-673-389-N.jpg","1","1","1","1","0","0","0.544419300043955","0.884670199942775","0.514989500050433","1","1","1","1","1","1","1","1","1"
"250010","img/neutralC/CFD-IF-673-389-N.jpg","img/neutralC/CFD-BM-028-002-N.jpg","img/neutralC/CFD-WM-228-065-N.jpg","1","1","1","0","1","0","0.514989500050433","0.544419300043955","0.552082299953327","1","1","1","1","1","1","1","1","1"
"250010","img/neutralC/CFD-WM-228-065-N.jpg","img/neutralC/CFD-IF-673-389-N.jpg","img/neutralC/CFD-MF-336-016-N.jpg","1","1","1","0","0","1","0.552082299953327","0.514989500050433","0.565455000032671","1","1","1","1","1","1","1","1","1"
"250010","img/neutralC/CFD-MF-336-016-N.jpg","img/neutralC/CFD-WM-228-065-N.jpg","img/neutralC/CFD-AM-221-184-N.jpg","1","1","1","1","0","1","0.565455000032671","0.552082299953327","0.771245799958706","1","1","1","1","1","1","1","1","1"
"250010","img/neutralC/CFD-AM-221-184-N.jpg","img/neutralC/CFD-MF-336-016-N.jpg","img/neutralC/CFD-IM-659-359-N.jpg","1","1","1","1","1","0","0.771245799958706","0.565455000032671","0.65666490001604","1","1","1","1","1","1","1","1","1"
"250010","img/neutralC/CFD-IM-659-359-N.jpg","img/neutralC/CFD-AM-221-184-N.jpg","img/neutralC/CFD-WF-223-133-N.jpg","1","1","1","0","1","0","0.65666490001604","0.771245799958706","0.57491300010588","1","1","1","1","1","1","1","1","1"
"250010","img/neutralC/CFD-WF-223-133-N.jpg","img/neutralC/CFD-IM-659-359-N.jpg","img/neutralC/CFD-LM-247-095-N.jpg","1","1","1","0","0","0","0.57491300010588","0.65666490001604","0.751948800054379","1","1","1","1","1","1","1","1","1"
"250010","img/neutralC/CFD-LM-247-095-N.jpg","img/neutralC/CFD-WF-223-133-N.jpg","img/neutralC/CFD-MF-312-002-N.jpg","1","1","1","0","0","1","0.751948800054379","0.57491300010588","0.743223599973135","1","1","1","1","1","1","1","1","1"
"250010","img/neutralC/CFD-MF-312-002-N.jpg","img/neutralC/CFD-LM-247-095-N.jpg","img/neutralC/CFD-IF-625-225-N.jpg","1","1","1","1","0","0","0.743223599973135","0.751948800054379","0.77688300004229","1","1","1","1","1","1","1","1","1"
"250010","img/neutralC/CFD-IF-625-225-N.jpg","img/neutralC/CFD-MF-312-002-N.jpg","img/neutralC/CFD-AF-210-050-N.jpg","1","1","1","0","1","1","0.77688300004229","0.743223599973135","0.560642899945378","1","1","1","1","1","1","1","1","1"
"250010","img/neutralC/CFD-AF-210-050-N.jpg","img/neutralC/CFD-IF-625-225-N.jpg","img/neutralC/CFD-WM-202-107-N.jpg","1","1","1","1","0","1","0.560642899945378","0.77688300004229","0.737255899934098","1","1","1","1","1","1","1","1","1"
"250010","img/neutralC/CFD-WM-202-107-N.jpg","img/neutralC/CFD-AF-210-050-N.jpg","img/neutralC/CFD-LF-241-188-N.jpg","1","1","1","1","1","0","0.737255899934098","0.560642899945378","0.78958420001436","1","1","1","1","1","1","1","1","1"
"250010","img/neutralC/CFD-LF-241-188-N.jpg","img/neutralC/CFD-WM-202-107-N.jpg","img/neutralC/CFD-BF-045-003-N.jpg","1","1","1","0","1","0","0.78958420001436","0.737255899934098","0.798531300039031","1","1","1","1","1","1","1","1","1"
"250010","img/neutralC/CFD-BF-045-003-N.jpg","img/neutralC/CFD-LF-241-188-N.jpg","img/neutralC/CFD-IF-744-114-N.jpg","1","1","1","0","0","0","0.798531300039031","0.78958420001436","0.559959499980323","1","1","1","1","1","1","1","1","1"
"250010","img/neutralC/CFD-IF-744-114-N.jpg","img/neutralC/CFD-BF-045-003-N.jpg","img/neutralC/CFD-LF-225-164-N.jpg","1","1","1","0","0","1","0.559959499980323","0.798531300039031","0.445303299929947","1","1","1","1","1","1","1","1","1"
"250010","img/neutralC/CFD-LF-225-164-N.jpg","img/neutralC/CFD-IF-744-114-N.jpg","img/neutralC/CFD-AF-227-207-N.jpg","1","1","1","1","0","1","0.445303299929947","0.559959499980323","0.439125500037335","1","1","1","1","1","1","1","1","1"
"250010","img/neutralC/CFD-AF-227-207-N.jpg","img/neutralC/CFD-LF-225-164-N.jpg","img/neutralC/CFD-WF-033-002-N.jpg","1","1","1","1","1","1","0.439125500037335","0.445303299929947","0.5026446999982","1","1","1","1","1","1","1","1","1"
"250010","img/neutralC/CFD-WF-033-002-N.jpg","img/neutralC/CFD-AF-227-207-N.jpg","img/neutralC/CFD-WM-254-152-N.jpg","1","1","1","1","1","1","0.5026446999982","0.439125500037335","0.539674600004219","1","1","1","1","1","1","1","1","1"
"250010","img/neutralC/CFD-WM-254-152-N.jpg","img/neutralC/CFD-WF-033-002-N.jpg","img/neutralC/CFD-WF-006-002-N.jpg","1","1","1","1","1","0","0.539674600004219","0.5026446999982","0.587018599966541","1","1","1","1","1","1","1","1","1"
"250010","img/neutralC/CFD-WF-006-002-N.jpg","img/neutralC/CFD-WM-254-152-N.jpg","img/neutralC/CFD-BF-004-014-N.jpg","1","1","1","0","1","1","0.587018599966541","0.539674600004219","0.476836600108072","1","1","1","1","1","1","1","1","1"
"250010","img/neutralC/CFD-BF-004-014-N.jpg","img/neutralC/CFD-WF-006-002-N.jpg","img/neutralC/CFD-IM-738-191-N.jpg","1","1","1","1","0","0","0.476836600108072","0.587018599966541","1.31567579996772","1","1","1","1","1","1","1","1","1"
"250010","img/neutralC/CFD-IM-738-191-N.jpg","img/neutralC/CFD-BF-004-014-N.jpg","img/neutralC/CFD-BM-013-002-N.jpg","1","1","1","0","1","1","1.31567579996772","0.476836600108072","0.669938200036995","1","1","1","1","1","1","1","1","1"
"250010","img/neutralC/CFD-BM-013-002-N.jpg","img/neutralC/CFD-IM-738-191-N.jpg","img/neutralC/CFD-AF-239-171-N.jpg","1","1","1","1","0","1","0.669938200036995","1.31567579996772","0.674227999988943","1","1","1","1","1","1","1","1","1"
"250010","img/neutralC/CFD-AF-239-171-N.jpg","img/neutralC/CFD-BM-013-002-N.jpg","img/neutralC/CFD-LM-238-129-N.jpg","1","1","1","1","1","1","0.674227999988943","0.669938200036995","0.625562199973501","1","1","1","1","1","1","1","1","1"
"250010","img/neutralC/CFD-LM-238-129-N.jpg","img/neutralC/CFD-AF-239-171-N.jpg","img/neutralC/CFD-BM-010-003-N.jpg","1","1","1","1","1","0","0.625562199973501","0.674227999988943","0.605358800035901","1","1","1","1","1","1","1","1","1"
"250010","img/neutralC/CFD-BM-010-003-N.jpg","img/neutralC/CFD-LM-238-129-N.jpg","img/neutralC/CFD-BM-213-134-N.jpg","1","1","1","0","1","1","0.605358800035901","0.625562199973501","0.479678199975751","1","1","1","1","1","1","1","1","1"
"250010","img/neutralC/CFD-BM-213-134-N.jpg","img/neutralC/CFD-BM-010-003-N.jpg",NA,"1","1",NA,"1","0",NA,"0.479678199975751","0.605358800035901",NA,"1","1",NA,"1","1",NA,"1","1",NA
"250010","img/neutralC/CFD-LF-224-176-N.jpg",NA,"img/neutralC/CFD-BM-019-002-N.jpg","0",NA,"1","0",NA,"0","0.997204900020734",NA,"0.488014700007625","1",NA,"1","1",NA,"1","1",NA,"1"
"250010","img/neutralC/CFD-BM-019-002-N.jpg","img/neutralC/CFD-LF-224-176-N.jpg","img/neutralC/CFD-BF-029-031-N.jpg","1","0","1","0","0","1","0.488014700007625","0.997204900020734","0.439928399981","1","1","1","1","1","1","1","1","1"
"250010","img/neutralC/CFD-BF-029-031-N.jpg","img/neutralC/CFD-BM-019-002-N.jpg","img/neutralC/CFD-MF-337-026-N.jpg","1","1","1","1","0","1","0.439928399981","0.488014700007625","0.399728800053708","1","1","1","1","1","1","1","1","1"
"250010","img/neutralC/CFD-MF-337-026-N.jpg","img/neutralC/CFD-BF-029-031-N.jpg","img/neutralC/CFD-BF-039-031-N.jpg","1","1","1","1","1","1","0.399728800053708","0.439928399981","0.570795000065118","1","1","1","1","1","1","1","1","1"
"250010","img/neutralC/CFD-BF-039-031-N.jpg","img/neutralC/CFD-MF-337-026-N.jpg","img/neutralC/CFD-WF-224-099-N.jpg","1","1","1","1","1","0","0.570795000065118","0.399728800053708","0.59770030004438","1","1","1","1","1","1","1","1","1"
"250010","img/neutralC/CFD-WF-224-099-N.jpg","img/neutralC/CFD-BF-039-031-N.jpg","img/neutralC/CFD-IF-693-172-N.jpg","1","1","1","0","1","0","0.59770030004438","0.570795000065118","0.57362160005141","1","1","1","1","1","1","1","1","1"
"250010","img/neutralC/CFD-IF-693-172-N.jpg","img/neutralC/CFD-WF-224-099-N.jpg","img/neutralC/CFD-MM-316-156-N.jpg","1","1","1","0","0","1","0.57362160005141","0.59770030004438","0.537468199967407","1","1","1","1","1","1","1","1","1"
"250010","img/neutralC/CFD-MM-316-156-N.jpg","img/neutralC/CFD-IF-693-172-N.jpg","img/neutralC/CFD-WM-011-002-N.jpg","1","1","1","1","0","0","0.537468199967407","0.57362160005141","0.94288200000301","1","1","1","1","1","1","1","1","1"
"250010","img/neutralC/CFD-WM-011-002-N.jpg","img/neutralC/CFD-MM-316-156-N.jpg","img/neutralC/CFD-BM-239-136-N.jpg","1","1","1","0","1","1","0.94288200000301","0.537468199967407","0.803165899938904","1","1","1","1","1","1","1","1","1"
"250010","img/neutralC/CFD-BM-239-136-N.jpg","img/neutralC/CFD-WM-011-002-N.jpg","img/neutralC/CFD-BF-253-202-N.jpg","1","1","1","1","0","0","0.803165899938904","0.94288200000301","0.678291999967769","1","1","1","1","1","1","1","1","1"
"250010","img/neutralC/CFD-BF-253-202-N.jpg","img/neutralC/CFD-BM-239-136-N.jpg","img/neutralC/CFD-LF-214-090-N.jpg","1","1","1","0","1","0","0.678291999967769","0.803165899938904","0.671497800038196","1","1","1","1","1","1","1","1","1"
"250010","img/neutralC/CFD-LF-214-090-N.jpg","img/neutralC/CFD-BF-253-202-N.jpg","img/neutralC/CFD-IM-651-308-N.jpg","1","1","1","0","0","0","0.671497800038196","0.678291999967769","0.609535299940035","1","1","1","1","1","1","1","1","1"
"250010","img/neutralC/CFD-IM-651-308-N.jpg","img/neutralC/CFD-LF-214-090-N.jpg","img/neutralC/CFD-IF-634-382-N.jpg","1","1","1","0","0","1","0.609535299940035","0.671497800038196","0.502256299951114","1","1","1","1","1","1","1","1","1"
"250010","img/neutralC/CFD-IF-634-382-N.jpg","img/neutralC/CFD-IM-651-308-N.jpg","img/neutralC/CFD-WF-213-031-N.jpg","1","1","1","1","0","1","0.502256299951114","0.609535299940035","0.883915000013076","1","1","1","1","1","1","1","1","1"
"250010","img/neutralC/CFD-WF-213-031-N.jpg","img/neutralC/CFD-IF-634-382-N.jpg","img/neutralC/CFD-WM-021-001-N.jpg","1","1","1","1","1","1","0.883915000013076","0.502256299951114","0.50213060004171","1","1","1","1","1","1","1","1","1"
"250010","img/neutralC/CFD-WM-021-001-N.jpg","img/neutralC/CFD-WF-213-031-N.jpg","img/neutralC/CFD-LM-215-247-N.jpg","1","1","1","1","1","0","0.50213060004171","0.883915000013076","0.530079200048931","1","1","1","1","1","1","1","1","1"
"250010","img/neutralC/CFD-LM-215-247-N.jpg","img/neutralC/CFD-WM-021-001-N.jpg","img/neutralC/CFD-LM-218-183-N.jpg","1","1","1","0","1","1","0.530079200048931","0.50213060004171","0.45686629996635","1","1","1","1","1","1","1","1","1"
"250010","img/neutralC/CFD-LM-218-183-N.jpg","img/neutralC/CFD-LM-215-247-N.jpg","img/neutralC/CFD-WM-041-021-N.jpg","1","1","1","1","0","0","0.45686629996635","0.530079200048931","0.434909599949606","1","1","1","1","1","1","1","1","1"
"250010","img/neutralC/CFD-WM-041-021-N.jpg","img/neutralC/CFD-LM-218-183-N.jpg","img/neutralC/CFD-IM-684-008-N.jpg","1","1","1","0","1","1","0.434909599949606","0.45686629996635","0.449006300070323","1","1","1","1","1","1","1","1","1"
"250010","img/neutralC/CFD-IM-684-008-N.jpg","img/neutralC/CFD-WM-041-021-N.jpg","img/neutralC/CFD-AM-201-076-N.jpg","1","1","1","1","0","1","0.449006300070323","0.434909599949606","0.485424899961799","1","1","1","1","1","1","1","1","1"
"250010","img/neutralC/CFD-AM-201-076-N.jpg","img/neutralC/CFD-IM-684-008-N.jpg","img/neutralC/CFD-BM-033-003-N.jpg","1","1","1","1","1","0","0.485424899961799","0.449006300070323","0.472818600013852","1","1","1","1","1","1","1","1","1"
"250010","img/neutralC/CFD-BM-033-003-N.jpg","img/neutralC/CFD-AM-201-076-N.jpg","img/neutralC/CFD-WF-250-167-N.jpg","1","1","1","0","1","1","0.472818600013852","0.485424899961799","0.361267799977213","1","1","1","1","1","1","1","1","1"
"250010","img/neutralC/CFD-WF-250-167-N.jpg","img/neutralC/CFD-BM-033-003-N.jpg","img/neutralC/CFD-BM-041-035-N.jpg","1","1","0","1","0","0","0.361267799977213","0.472818600013852","0.502965799998492","1","1","1","1","1","1","1","1","1"
"250010","img/neutralC/CFD-BM-041-035-N.jpg","img/neutralC/CFD-WF-250-167-N.jpg","img/neutralC/CFD-IF-710-016-N.jpg","0","1","1","0","1","0","0.502965799998492","0.361267799977213","0.465412699966691","1","1","1","1","1","1","1","1","1"
"250010","img/neutralC/CFD-IF-710-016-N.jpg","img/neutralC/CFD-BM-041-035-N.jpg","img/neutralC/CFD-LF-203-066-N.jpg","1","0","1","0","0","0","0.465412699966691","0.502965799998492","0.719715800019912","1","1","1","1","1","1","1","1","1"
"250010","img/neutralC/CFD-LF-203-066-N.jpg","img/neutralC/CFD-IF-710-016-N.jpg","img/neutralC/CFD-AM-212-050-N.jpg","1","1","1","0","0","1","0.719715800019912","0.465412699966691","0.466621699975803","1","1","1","1","1","1","1","1","1"
"250010","img/neutralC/CFD-AM-212-050-N.jpg","img/neutralC/CFD-LF-203-066-N.jpg","img/neutralC/CFD-BF-205-141-N.jpg","1","1","0","1","0","0","0.466621699975803","0.719715800019912","0.570357799995691","1","1","1","1","1","1","1","1","1"
"250010","img/neutralC/CFD-BF-205-141-N.jpg","img/neutralC/CFD-AM-212-050-N.jpg","img/neutralC/CFD-LF-230-203-N.jpg","0","1","1","0","1","0","0.570357799995691","0.466621699975803","0.621865799999796","1","1","1","1","1","1","1","1","1"
"250010","img/neutralC/CFD-LF-230-203-N.jpg","img/neutralC/CFD-BF-205-141-N.jpg","img/neutralC/CFD-AF-231-357-N.jpg","1","0","1","0","0","1","0.621865799999796","0.570357799995691","1.37370170000941","1","1","1","1","1","1","1","1","1"
"250010","img/neutralC/CFD-AF-231-357-N.jpg","img/neutralC/CFD-LF-230-203-N.jpg","img/neutralC/CFD-BF-213-188-N.jpg","1","1","1","1","0","1","1.37370170000941","0.621865799999796","0.564506000024267","1","1","1","1","1","1","1","1","1"
"250010","img/neutralC/CFD-BF-213-188-N.jpg","img/neutralC/CFD-AF-231-357-N.jpg","img/neutralC/CFD-LF-205-100-N.jpg","1","1","1","1","1","1","0.564506000024267","1.37370170000941","0.794310400029644","1","1","1","1","1","1","1","1","1"
"250010","img/neutralC/CFD-LF-205-100-N.jpg","img/neutralC/CFD-BF-213-188-N.jpg",NA,"1","1",NA,"1","1",NA,"0.794310400029644","0.564506000024267",NA,"1","1",NA,"1","1",NA,"1","1",NA
