"participant_id","current_trial_face","pre_trial_face","post_trial_face","current_trial_accuracy","pre_trial_accuracy","post_trial_accuracy","current_trial_congruency","pre_trial_congruency","post_trial_congruency","current_trial_rt","pre_trial_rt","post_trial_rt","current_trial_responded","pre_trial_responded","post_trial_responded","current_trial_legitResponse","pre_trial_legitResponse","post_trial_legitResponse","current_trial_resp_nums","pre_trial_resp_nums","post_trial_resp_nums"
"250008","img/neutralC/CFD-WM-038-003-N.jpg",NA,"img/neutralC/CFD-IF-672-305-N.jpg","1",NA,"1","0",NA,"0","0.777937600039877",NA,"0.568395599955693","1",NA,"1","1",NA,"1","1",NA,"1"
"250008","img/neutralC/CFD-IF-672-305-N.jpg","img/neutralC/CFD-WM-038-003-N.jpg","img/neutralC/CFD-AM-235-241-N.jpg","1","1","1","0","0","0","0.568395599955693","0.777937600039877","0.73136030009482","1","1","1","1","1","1","1","1","1"
"250008","img/neutralC/CFD-AM-235-241-N.jpg","img/neutralC/CFD-IF-672-305-N.jpg","img/neutralC/CFD-AM-217-085-N.jpg","1","1","1","0","0","0","0.73136030009482","0.568395599955693","0.523219099966809","1","1","1","1","1","1","1","1","1"
"250008","img/neutralC/CFD-AM-217-085-N.jpg","img/neutralC/CFD-AM-235-241-N.jpg","img/neutralC/CFD-IM-639-263-N.jpg","1","1","1","0","0","1","0.523219099966809","0.73136030009482","0.450596699956805","1","1","1","1","1","1","1","1","1"
"250008","img/neutralC/CFD-IM-639-263-N.jpg","img/neutralC/CFD-AM-217-085-N.jpg","img/neutralC/CFD-BF-003-003-N.jpg","1","1","1","1","0","0","0.450596699956805","0.523219099966809","0.578879100037739","1","1","1","1","1","1","1","1","1"
"250008","img/neutralC/CFD-BF-003-003-N.jpg","img/neutralC/CFD-IM-639-263-N.jpg","img/neutralC/CFD-MM-319-052-N.jpg","1","1","1","0","1","1","0.578879100037739","0.450596699956805","0.576235800050199","1","1","1","1","1","1","1","1","1"
"250008","img/neutralC/CFD-MM-319-052-N.jpg","img/neutralC/CFD-BF-003-003-N.jpg","img/neutralC/CFD-BM-029-024-N.jpg","1","1","1","1","0","1","0.576235800050199","0.578879100037739","0.472451000008732","1","1","1","1","1","1","1","1","1"
"250008","img/neutralC/CFD-BM-029-024-N.jpg","img/neutralC/CFD-MM-319-052-N.jpg","img/neutralC/CFD-BF-023-010-N.jpg","1","1","1","1","1","1","0.472451000008732","0.576235800050199","0.723380799987353","1","1","1","1","1","1","1","1","1"
"250008","img/neutralC/CFD-BF-023-010-N.jpg","img/neutralC/CFD-BM-029-024-N.jpg","img/neutralC/CFD-BF-201-080-N.jpg","1","1","1","1","1","1","0.723380799987353","0.472451000008732","0.466228900011629","1","1","1","1","1","1","1","1","1"
"250008","img/neutralC/CFD-BF-201-080-N.jpg","img/neutralC/CFD-BF-023-010-N.jpg","img/neutralC/CFD-BF-208-266-N.jpg","1","1","1","1","1","0","0.466228900011629","0.723380799987353","0.681720199994743","1","1","1","1","1","1","1","1","1"
"250008","img/neutralC/CFD-BF-208-266-N.jpg","img/neutralC/CFD-BF-201-080-N.jpg","img/neutralC/CFD-WF-002-004-N.jpg","1","1","1","0","1","0","0.681720199994743","0.466228900011629","0.683817699900828","1","1","1","1","1","1","1","1","1"
"250008","img/neutralC/CFD-WF-002-004-N.jpg","img/neutralC/CFD-BF-208-266-N.jpg","img/neutralC/CFD-WF-026-002-N.jpg","1","1","1","0","0","1","0.683817699900828","0.681720199994743","0.570626599946991","1","1","1","1","1","1","1","1","1"
"250008","img/neutralC/CFD-WF-026-002-N.jpg","img/neutralC/CFD-WF-002-004-N.jpg","img/neutralC/CFD-WM-225-127-N.jpg","1","1","1","1","0","0","0.570626599946991","0.683817699900828","0.508645599940792","1","1","1","1","1","1","1","1","1"
"250008","img/neutralC/CFD-WM-225-127-N.jpg","img/neutralC/CFD-WF-026-002-N.jpg","img/neutralC/CFD-WM-040-022-N.jpg","1","1","1","0","1","0","0.508645599940792","0.570626599946991","0.637492000008933","1","1","1","1","1","1","1","1","1"
"250008","img/neutralC/CFD-WM-040-022-N.jpg","img/neutralC/CFD-WM-225-127-N.jpg","img/neutralC/CFD-BF-255-140-N.jpg","1","1","1","0","0","1","0.637492000008933","0.508645599940792","0.574780800030567","1","1","1","1","1","1","1","1","1"
"250008","img/neutralC/CFD-BF-255-140-N.jpg","img/neutralC/CFD-WM-040-022-N.jpg","img/neutralC/CFD-BM-211-174-N.jpg","1","1","1","1","0","0","0.574780800030567","0.637492000008933","0.793189399992116","1","1","1","1","1","1","1","1","1"
"250008","img/neutralC/CFD-BM-211-174-N.jpg","img/neutralC/CFD-BF-255-140-N.jpg","img/neutralC/CFD-IM-674-281-N.jpg","1","1","1","0","1","1","0.793189399992116","0.574780800030567","0.64506689994596","1","1","1","1","1","1","1","1","1"
"250008","img/neutralC/CFD-IM-674-281-N.jpg","img/neutralC/CFD-BM-211-174-N.jpg","img/neutralC/CFD-IF-718-001-N.jpg","1","1","1","1","0","1","0.64506689994596","0.793189399992116","0.540615700068884","1","1","1","1","1","1","1","1","1"
"250008","img/neutralC/CFD-IF-718-001-N.jpg","img/neutralC/CFD-IM-674-281-N.jpg","img/neutralC/CFD-WM-002-009-N.jpg","1","1","1","1","1","0","0.540615700068884","0.64506689994596","0.584179500001483","1","1","1","1","1","1","1","1","1"
"250008","img/neutralC/CFD-WM-002-009-N.jpg","img/neutralC/CFD-IF-718-001-N.jpg","img/neutralC/CFD-BF-204-189-N.jpg","1","1","1","0","1","1","0.584179500001483","0.540615700068884","0.563513899920508","1","1","1","1","1","1","1","1","1"
"250008","img/neutralC/CFD-BF-204-189-N.jpg","img/neutralC/CFD-WM-002-009-N.jpg","img/neutralC/CFD-IM-728-041-N.jpg","1","1","1","1","0","0","0.563513899920508","0.584179500001483","0.549917399999686","1","1","1","1","1","1","1","1","1"
"250008","img/neutralC/CFD-IM-728-041-N.jpg","img/neutralC/CFD-BF-204-189-N.jpg","img/neutralC/CFD-WM-257-161-N.jpg","1","1","1","0","1","1","0.549917399999686","0.563513899920508","0.438867299933918","1","1","1","1","1","1","1","1","1"
"250008","img/neutralC/CFD-WM-257-161-N.jpg","img/neutralC/CFD-IM-728-041-N.jpg","img/neutralC/CFD-LM-252-076-N.jpg","1","1","1","1","0","1","0.438867299933918","0.549917399999686","0.513480499968864","1","1","1","1","1","1","1","1","1"
"250008","img/neutralC/CFD-LM-252-076-N.jpg","img/neutralC/CFD-WM-257-161-N.jpg","img/neutralC/CFD-BM-027-001-N.jpg","1","1","1","1","1","0","0.513480499968864","0.438867299933918","0.523352999938652","1","1","1","1","1","1","1","1","1"
"250008","img/neutralC/CFD-BM-027-001-N.jpg","img/neutralC/CFD-LM-252-076-N.jpg","img/neutralC/CFD-LF-216-121-N.jpg","1","1","1","0","1","1","0.523352999938652","0.513480499968864","0.450035299989395","1","1","1","1","1","1","1","1","1"
"250008","img/neutralC/CFD-LF-216-121-N.jpg","img/neutralC/CFD-BM-027-001-N.jpg","img/neutralC/CFD-BM-247-240-N.jpg","1","1","1","1","0","0","0.450035299989395","0.523352999938652","0.642955500050448","1","1","1","1","1","1","1","1","1"
"250008","img/neutralC/CFD-BM-247-240-N.jpg","img/neutralC/CFD-LF-216-121-N.jpg","img/neutralC/CFD-BF-028-001-N.jpg","1","1","1","0","1","1","0.642955500050448","0.450035299989395","0.554600100032985","1","1","1","1","1","1","1","1","1"
"250008","img/neutralC/CFD-BF-028-001-N.jpg","img/neutralC/CFD-BM-247-240-N.jpg","img/neutralC/CFD-BM-015-015-N.jpg","1","1","1","1","0","0","0.554600100032985","0.642955500050448","0.700627699960023","1","1","1","1","1","1","1","1","1"
"250008","img/neutralC/CFD-BM-015-015-N.jpg","img/neutralC/CFD-BF-028-001-N.jpg","img/neutralC/CFD-AM-215-120-N.jpg","1","1","1","0","1","1","0.700627699960023","0.554600100032985","0.468275200109929","1","1","1","1","1","1","1","1","1"
"250008","img/neutralC/CFD-AM-215-120-N.jpg","img/neutralC/CFD-BM-015-015-N.jpg","img/neutralC/CFD-WF-022-017-N.jpg","1","1","1","1","0","0","0.468275200109929","0.700627699960023","0.814977500005625","1","1","1","1","1","1","1","1","1"
"250008","img/neutralC/CFD-WF-022-017-N.jpg","img/neutralC/CFD-AM-215-120-N.jpg","img/neutralC/CFD-LF-236-221-N.jpg","1","1","1","0","1","1","0.814977500005625","0.468275200109929","0.632359700044617","1","1","1","1","1","1","1","1","1"
"250008","img/neutralC/CFD-LF-236-221-N.jpg","img/neutralC/CFD-WF-022-017-N.jpg",NA,"1","1",NA,"1","0",NA,"0.632359700044617","0.814977500005625",NA,"1","1",NA,"1","1",NA,"1","1",NA
"250008","img/neutralC/CFD-IM-657-308-N.jpg",NA,"img/neutralC/CFD-IM-638-250-1-N.jpg","1",NA,"1","0",NA,"1","0.525100899976678",NA,"0.536308799986728","1",NA,"1","1",NA,"1","1",NA,"1"
"250008","img/neutralC/CFD-IM-638-250-1-N.jpg","img/neutralC/CFD-IM-657-308-N.jpg","img/neutralC/CFD-BM-005-003-N.jpg","1","1","0","1","0","1","0.536308799986728","0.525100899976678",NA,"1","1","0","1","1","0","1","1","0"
"250008","img/neutralC/CFD-BM-005-003-N.jpg","img/neutralC/CFD-IM-638-250-1-N.jpg","img/neutralC/CFD-BF-033-028-N.jpg","0","1","1","1","1","0",NA,"0.536308799986728","0.627628699992783","0","1","1","0","1","1","0","1","1"
"250008","img/neutralC/CFD-BF-033-028-N.jpg","img/neutralC/CFD-BM-005-003-N.jpg","img/neutralC/CFD-WM-242-011-N.jpg","1","0","1","0","1","0","0.627628699992783",NA,"0.514497200027108","1","0","1","1","0","1","1","0","1"
"250008","img/neutralC/CFD-WM-242-011-N.jpg","img/neutralC/CFD-BF-033-028-N.jpg","img/neutralC/CFD-WM-258-125-N.jpg","1","1","1","0","0","0","0.514497200027108","0.627628699992783","0.452523699961603","1","1","1","1","1","1","1","1","1"
"250008","img/neutralC/CFD-WM-258-125-N.jpg","img/neutralC/CFD-WM-242-011-N.jpg","img/neutralC/CFD-LF-247-051-N.jpg","1","1","1","0","0","1","0.452523699961603","0.514497200027108","0.408574000000954","1","1","1","1","1","1","1","1","1"
"250008","img/neutralC/CFD-LF-247-051-N.jpg","img/neutralC/CFD-WM-258-125-N.jpg","img/neutralC/CFD-WM-017-002-N.jpg","1","1","1","1","0","0","0.408574000000954","0.452523699961603","0.479365599923767","1","1","1","1","1","1","1","1","1"
"250008","img/neutralC/CFD-WM-017-002-N.jpg","img/neutralC/CFD-LF-247-051-N.jpg","img/neutralC/CFD-WM-227-099-N.jpg","1","1","1","0","1","1","0.479365599923767","0.408574000000954","0.517646900028922","1","1","1","1","1","1","1","1","1"
"250008","img/neutralC/CFD-WM-227-099-N.jpg","img/neutralC/CFD-WM-017-002-N.jpg","img/neutralC/CFD-AF-206-079-N.jpg","1","1","1","1","0","1","0.517646900028922","0.479365599923767","0.452560400008224","1","1","1","1","1","1","1","1","1"
"250008","img/neutralC/CFD-AF-206-079-N.jpg","img/neutralC/CFD-WM-227-099-N.jpg","img/neutralC/CFD-BM-026-002-N.jpg","1","1","1","1","1","0","0.452560400008224","0.517646900028922","0.706036899937317","1","1","1","1","1","1","1","1","1"
"250008","img/neutralC/CFD-BM-026-002-N.jpg","img/neutralC/CFD-AF-206-079-N.jpg","img/neutralC/CFD-AF-202-122-N.jpg","1","1","1","0","1","1","0.706036899937317","0.452560400008224","0.468541499925777","1","1","1","1","1","1","1","1","1"
"250008","img/neutralC/CFD-AF-202-122-N.jpg","img/neutralC/CFD-BM-026-002-N.jpg","img/neutralC/CFD-BF-238-190-N.jpg","1","1","1","1","0","1","0.468541499925777","0.706036899937317","0.419824900105596","1","1","1","1","1","1","1","1","1"
"250008","img/neutralC/CFD-BF-238-190-N.jpg","img/neutralC/CFD-AF-202-122-N.jpg","img/neutralC/CFD-BM-212-117-N.jpg","1","1","1","1","1","0","0.419824900105596","0.468541499925777","0.53475430002436","1","1","1","1","1","1","1","1","1"
"250008","img/neutralC/CFD-BM-212-117-N.jpg","img/neutralC/CFD-BF-238-190-N.jpg","img/neutralC/CFD-IM-617-174-N.jpg","1","1","1","0","1","0","0.53475430002436","0.419824900105596","0.622828399995342","1","1","1","1","1","1","1","1","1"
"250008","img/neutralC/CFD-IM-617-174-N.jpg","img/neutralC/CFD-BM-212-117-N.jpg","img/neutralC/CFD-BM-231-155-N.jpg","1","1","1","0","0","1","0.622828399995342","0.53475430002436","0.403522099950351","1","1","1","1","1","1","1","1","1"
"250008","img/neutralC/CFD-BM-231-155-N.jpg","img/neutralC/CFD-IM-617-174-N.jpg","img/neutralC/CFD-LF-242-121-N.jpg","1","1","0","1","0","0","0.403522099950351","0.622828399995342","0.525228700018488","1","1","1","1","1","1","1","1","2"
"250008","img/neutralC/CFD-LF-242-121-N.jpg","img/neutralC/CFD-BM-231-155-N.jpg","img/neutralC/CFD-LM-233-171-N.jpg","0","1","1","0","1","0","0.525228700018488","0.403522099950351","0.586905600037426","1","1","1","1","1","1","2","1","1"
"250008","img/neutralC/CFD-LM-233-171-N.jpg","img/neutralC/CFD-LF-242-121-N.jpg","img/neutralC/CFD-BM-018-001-N.jpg","1","0","1","0","0","1","0.586905600037426","0.525228700018488","0.417248499928974","1","1","1","1","1","1","1","2","1"
"250008","img/neutralC/CFD-BM-018-001-N.jpg","img/neutralC/CFD-LM-233-171-N.jpg","img/neutralC/CFD-MF-313-002-N.jpg","1","1","1","1","0","0","0.417248499928974","0.586905600037426","0.61937030008994","1","1","1","1","1","1","1","1","1"
"250008","img/neutralC/CFD-MF-313-002-N.jpg","img/neutralC/CFD-BM-018-001-N.jpg","img/neutralC/CFD-IM-686-097-N.jpg","1","1","1","0","1","0","0.61937030008994","0.417248499928974","0.523282899986953","1","1","1","1","1","1","1","1","1"
"250008","img/neutralC/CFD-IM-686-097-N.jpg","img/neutralC/CFD-MF-313-002-N.jpg","img/neutralC/CFD-WF-209-052-N.jpg","1","1","1","0","0","1","0.523282899986953","0.61937030008994","0.469198199920356","1","1","1","1","1","1","1","1","1"
"250008","img/neutralC/CFD-WF-209-052-N.jpg","img/neutralC/CFD-IM-686-097-N.jpg","img/neutralC/CFD-IM-653-008-N.jpg","1","1","1","1","0","0","0.469198199920356","0.523282899986953","0.755997899919748","1","1","1","1","1","1","1","1","1"
"250008","img/neutralC/CFD-IM-653-008-N.jpg","img/neutralC/CFD-WF-209-052-N.jpg","img/neutralC/CFD-IF-620-218-N.jpg","1","1","1","0","1","0","0.755997899919748","0.469198199920356","0.582675299956463","1","1","1","1","1","1","1","1","1"
"250008","img/neutralC/CFD-IF-620-218-N.jpg","img/neutralC/CFD-IM-653-008-N.jpg","img/neutralC/CFD-AF-241-141-N.jpg","1","1","1","0","0","1","0.582675299956463","0.755997899919748","0.413997999974526","1","1","1","1","1","1","1","1","1"
"250008","img/neutralC/CFD-AF-241-141-N.jpg","img/neutralC/CFD-IF-620-218-N.jpg","img/neutralC/CFD-BF-010-001-N.jpg","1","1","1","1","0","1","0.413997999974526","0.582675299956463","0.376237999997102","1","1","1","1","1","1","1","1","1"
"250008","img/neutralC/CFD-BF-010-001-N.jpg","img/neutralC/CFD-AF-241-141-N.jpg","img/neutralC/CFD-IM-727-195-N.jpg","1","1","1","1","1","1","0.376237999997102","0.413997999974526","0.400330700096674","1","1","1","1","1","1","1","1","1"
"250008","img/neutralC/CFD-IM-727-195-N.jpg","img/neutralC/CFD-BF-010-001-N.jpg","img/neutralC/CFD-LF-250-169-N.jpg","1","1","1","1","1","1","0.400330700096674","0.376237999997102","0.336449600057676","1","1","1","1","1","1","1","1","1"
"250008","img/neutralC/CFD-LF-250-169-N.jpg","img/neutralC/CFD-IM-727-195-N.jpg","img/neutralC/CFD-LM-219-295-N.jpg","1","1","1","1","1","1","0.336449600057676","0.400330700096674","0.423645400092937","1","1","1","1","1","1","1","1","1"
"250008","img/neutralC/CFD-LM-219-295-N.jpg","img/neutralC/CFD-LF-250-169-N.jpg","img/neutralC/CFD-LF-245-166-N.jpg","1","1","1","1","1","1","0.423645400092937","0.336449600057676","0.511824700050056","1","1","1","1","1","1","1","1","1"
"250008","img/neutralC/CFD-LF-245-166-N.jpg","img/neutralC/CFD-LM-219-295-N.jpg","img/neutralC/CFD-LM-226-175-N.jpg","1","1","0","1","1","0","0.511824700050056","0.423645400092937","0.459482599981129","1","1","1","1","1","1","1","1","1"
"250008","img/neutralC/CFD-LM-226-175-N.jpg","img/neutralC/CFD-LF-245-166-N.jpg","img/neutralC/CFD-IF-665-015-N.jpg","0","1","1","0","1","0","0.459482599981129","0.511824700050056","0.805521000060253","1","1","1","1","1","1","1","1","1"
"250008","img/neutralC/CFD-IF-665-015-N.jpg","img/neutralC/CFD-LM-226-175-N.jpg",NA,"1","0",NA,"0","0",NA,"0.805521000060253","0.459482599981129",NA,"1","1",NA,"1","1",NA,"1","1",NA
"250008","img/neutralC/CFD-IM-678-482-N.jpg",NA,"img/neutralC/CFD-LM-241-125-N.jpg","0",NA,"1","0",NA,"1","0.774750599986874",NA,"0.488944799988531","1",NA,"1","1",NA,"1","1",NA,"1"
"250008","img/neutralC/CFD-LM-241-125-N.jpg","img/neutralC/CFD-IM-678-482-N.jpg","img/neutralC/CFD-IM-669-111-N.jpg","1","0","1","1","0","1","0.488944799988531","0.774750599986874","0.468838599976152","1","1","1","1","1","1","1","1","1"
"250008","img/neutralC/CFD-IM-669-111-N.jpg","img/neutralC/CFD-LM-241-125-N.jpg","img/neutralC/CFD-AF-213-126-N.jpg","1","1","1","1","1","1","0.468838599976152","0.488944799988531","0.516620700014755","1","1","1","1","1","1","1","1","1"
"250008","img/neutralC/CFD-AF-213-126-N.jpg","img/neutralC/CFD-IM-669-111-N.jpg","img/neutralC/CFD-LF-239-148-N.jpg","1","1","0","1","1","0","0.516620700014755","0.468838599976152","0.365824099979363","1","1","1","1","1","1","1","1","1"
"250008","img/neutralC/CFD-LF-239-148-N.jpg","img/neutralC/CFD-AF-213-126-N.jpg","img/neutralC/CFD-BF-040-003-N.jpg","0","1","1","0","1","1","0.365824099979363","0.516620700014755","0.52813440002501","1","1","1","1","1","1","1","1","1"
"250008","img/neutralC/CFD-BF-040-003-N.jpg","img/neutralC/CFD-LF-239-148-N.jpg","img/neutralC/CFD-BF-235-168-N.jpg","1","0","1","1","0","1","0.52813440002501","0.365824099979363","0.398440500022843","1","1","1","1","1","1","1","1","1"
"250008","img/neutralC/CFD-BF-235-168-N.jpg","img/neutralC/CFD-BF-040-003-N.jpg","img/neutralC/CFD-BF-206-143-N.jpg","1","1","1","1","1","1","0.398440500022843","0.52813440002501","0.438787700026296","1","1","1","1","1","1","1","1","1"
"250008","img/neutralC/CFD-BF-206-143-N.jpg","img/neutralC/CFD-BF-235-168-N.jpg","img/neutralC/CFD-BF-217-189-N.jpg","1","1","1","1","1","0","0.438787700026296","0.398440500022843","0.610508699901402","1","1","1","1","1","1","1","1","1"
"250008","img/neutralC/CFD-BF-217-189-N.jpg","img/neutralC/CFD-BF-206-143-N.jpg","img/neutralC/CFD-AF-205-155-N.jpg","1","1","1","0","1","0","0.610508699901402","0.438787700026296","0.637748500099406","1","1","1","1","1","1","1","1","1"
"250008","img/neutralC/CFD-AF-205-155-N.jpg","img/neutralC/CFD-BF-217-189-N.jpg","img/neutralC/CFD-AM-233-236-N.jpg","1","1","1","0","0","1","0.637748500099406","0.610508699901402","0.377441999968141","1","1","1","1","1","1","1","1","1"
"250008","img/neutralC/CFD-AM-233-236-N.jpg","img/neutralC/CFD-AF-205-155-N.jpg","img/neutralC/CFD-AM-245-111-N.jpg","1","1","1","1","0","1","0.377441999968141","0.637748500099406","0.441852300078608","1","1","1","1","1","1","1","1","1"
"250008","img/neutralC/CFD-AM-245-111-N.jpg","img/neutralC/CFD-AM-233-236-N.jpg","img/neutralC/CFD-MF-302-027-N.jpg","1","1","1","1","1","0","0.441852300078608","0.377441999968141","0.551415399997495","1","1","1","1","1","1","1","1","1"
"250008","img/neutralC/CFD-MF-302-027-N.jpg","img/neutralC/CFD-AM-245-111-N.jpg","img/neutralC/CFD-AF-244-168-N.jpg","1","1","1","0","1","0","0.551415399997495","0.441852300078608","0.677101100096479","1","1","1","1","1","1","1","1","1"
"250008","img/neutralC/CFD-AF-244-168-N.jpg","img/neutralC/CFD-MF-302-027-N.jpg","img/neutralC/CFD-AF-246-242-N.jpg","1","1","1","0","0","0","0.677101100096479","0.551415399997495","0.64989819994662","1","1","1","1","1","1","1","1","1"
"250008","img/neutralC/CFD-AF-246-242-N.jpg","img/neutralC/CFD-AF-244-168-N.jpg","img/neutralC/CFD-WM-253-119-N.jpg","1","1","1","0","0","1","0.64989819994662","0.677101100096479","0.489416599972174","1","1","1","1","1","1","1","1","1"
"250008","img/neutralC/CFD-WM-253-119-N.jpg","img/neutralC/CFD-AF-246-242-N.jpg","img/neutralC/CFD-AF-250-200-N.jpg","1","1","1","1","0","1","0.489416599972174","0.64989819994662","0.493162400089204","1","1","1","1","1","1","1","1","1"
"250008","img/neutralC/CFD-AF-250-200-N.jpg","img/neutralC/CFD-WM-253-119-N.jpg","img/neutralC/CFD-IF-636-011-N.jpg","1","1","1","1","1","1","0.493162400089204","0.489416599972174","0.43822450004518","1","1","1","1","1","1","1","1","1"
"250008","img/neutralC/CFD-IF-636-011-N.jpg","img/neutralC/CFD-AF-250-200-N.jpg","img/neutralC/CFD-AF-234-208-N.jpg","1","1","1","1","1","1","0.43822450004518","0.493162400089204","0.365367699996568","1","1","1","1","1","1","1","1","1"
"250008","img/neutralC/CFD-AF-234-208-N.jpg","img/neutralC/CFD-IF-636-011-N.jpg","img/neutralC/CFD-WF-235-121-N.jpg","1","1","1","1","1","0","0.365367699996568","0.43822450004518","0.63735390000511","1","1","1","1","1","1","1","1","1"
"250008","img/neutralC/CFD-WF-235-121-N.jpg","img/neutralC/CFD-AF-234-208-N.jpg","img/neutralC/CFD-WF-210-086-N.jpg","1","1","1","0","1","0","0.63735390000511","0.365367699996568","0.56668140005786","1","1","1","1","1","1","1","1","1"
"250008","img/neutralC/CFD-WF-210-086-N.jpg","img/neutralC/CFD-WF-235-121-N.jpg","img/neutralC/CFD-LM-204-001-N.jpg","1","1","1","0","0","0","0.56668140005786","0.63735390000511","0.595031599979848","1","1","1","1","1","1","1","1","1"
"250008","img/neutralC/CFD-LM-204-001-N.jpg","img/neutralC/CFD-WF-210-086-N.jpg","img/neutralC/CFD-BM-215-155-N.jpg","1","1","1","0","0","0","0.595031599979848","0.56668140005786","0.568816200015135","1","1","1","1","1","1","1","1","1"
"250008","img/neutralC/CFD-BM-215-155-N.jpg","img/neutralC/CFD-LM-204-001-N.jpg","img/neutralC/CFD-IM-632-097-N.jpg","1","1","1","0","0","0","0.568816200015135","0.595031599979848","0.595113900024444","1","1","1","1","1","1","1","1","1"
"250008","img/neutralC/CFD-IM-632-097-N.jpg","img/neutralC/CFD-BM-215-155-N.jpg","img/neutralC/CFD-MF-307-002-N.jpg","1","1","1","0","0","1","0.595113900024444","0.568816200015135","0.420164900016971","1","1","1","1","1","1","1","1","1"
"250008","img/neutralC/CFD-MF-307-002-N.jpg","img/neutralC/CFD-IM-632-097-N.jpg","img/neutralC/CFD-WM-018-002-N.jpg","1","1","1","1","0","0","0.420164900016971","0.595113900024444","0.565333700040355","1","1","1","1","1","1","1","1","1"
"250008","img/neutralC/CFD-WM-018-002-N.jpg","img/neutralC/CFD-MF-307-002-N.jpg","img/neutralC/CFD-IM-635-010-N.jpg","1","1","1","0","1","1","0.565333700040355","0.420164900016971","0.476942099980079","1","1","1","1","1","1","1","1","1"
"250008","img/neutralC/CFD-IM-635-010-N.jpg","img/neutralC/CFD-WM-018-002-N.jpg","img/neutralC/CFD-BM-004-002-N.jpg","1","1","1","1","0","0","0.476942099980079","0.565333700040355","0.649861700017937","1","1","1","1","1","1","1","1","1"
"250008","img/neutralC/CFD-BM-004-002-N.jpg","img/neutralC/CFD-IM-635-010-N.jpg","img/neutralC/CFD-IF-732-260-N.jpg","1","1","1","0","1","0","0.649861700017937","0.476942099980079","0.480473699979484","1","1","1","1","1","1","1","1","1"
"250008","img/neutralC/CFD-IF-732-260-N.jpg","img/neutralC/CFD-BM-004-002-N.jpg","img/neutralC/CFD-AM-225-102-N.jpg","1","1","1","0","0","0","0.480473699979484","0.649861700017937","0.659686499973759","1","1","1","1","1","1","1","1","1"
"250008","img/neutralC/CFD-AM-225-102-N.jpg","img/neutralC/CFD-IF-732-260-N.jpg","img/neutralC/CFD-BF-020-002-N.jpg","1","1","1","0","0","1","0.659686499973759","0.480473699979484","0.377977299969643","1","1","1","1","1","1","1","1","1"
"250008","img/neutralC/CFD-BF-020-002-N.jpg","img/neutralC/CFD-AM-225-102-N.jpg","img/neutralC/CFD-BF-042-026-N.jpg","1","1","1","1","0","1","0.377977299969643","0.659686499973759","0.484861899982207","1","1","1","1","1","1","1","1","1"
"250008","img/neutralC/CFD-BF-042-026-N.jpg","img/neutralC/CFD-BF-020-002-N.jpg",NA,"1","1",NA,"1","1",NA,"0.484861899982207","0.377977299969643",NA,"1","1",NA,"1","1",NA,"1","1",NA
"250008","img/neutralC/CFD-BF-014-002-N.jpg",NA,"img/neutralC/CFD-IM-667-369-N.jpg","1",NA,"0","1",NA,"0","0.507849799934775",NA,"0.786561099928804","1",NA,"1","1",NA,"1","1",NA,"1"
"250008","img/neutralC/CFD-IM-667-369-N.jpg","img/neutralC/CFD-BF-014-002-N.jpg","img/neutralC/CFD-IM-680-369-N.jpg","0","1","1","0","1","1","0.786561099928804","0.507849799934775","0.637392500066198","1","1","1","1","1","1","1","1","1"
"250008","img/neutralC/CFD-IM-680-369-N.jpg","img/neutralC/CFD-IM-667-369-N.jpg","img/neutralC/CFD-BF-237-172-N.jpg","1","0","1","1","0","1","0.637392500066198","0.786561099928804","0.574949199915864","1","1","1","1","1","1","1","1","1"
"250008","img/neutralC/CFD-BF-237-172-N.jpg","img/neutralC/CFD-IM-680-369-N.jpg","img/neutralC/CFD-MF-316-001-N.jpg","1","1","1","1","1","0","0.574949199915864","0.637392500066198","0.628465299960226","1","1","1","1","1","1","1","1","1"
"250008","img/neutralC/CFD-MF-316-001-N.jpg","img/neutralC/CFD-BF-237-172-N.jpg","img/neutralC/CFD-IF-626-375-N.jpg","1","1","1","0","1","0","0.628465299960226","0.574949199915864","0.68625350005459","1","1","1","1","1","1","1","1","1"
"250008","img/neutralC/CFD-IF-626-375-N.jpg","img/neutralC/CFD-MF-316-001-N.jpg","img/neutralC/CFD-LM-200-045-N.jpg","1","1","1","0","0","1","0.68625350005459","0.628465299960226","0.377707399893552","1","1","1","1","1","1","1","1","1"
"250008","img/neutralC/CFD-LM-200-045-N.jpg","img/neutralC/CFD-IF-626-375-N.jpg","img/neutralC/CFD-WM-015-002-N.jpg","1","1","1","1","0","0","0.377707399893552","0.68625350005459","0.56978490005713","1","1","1","1","1","1","1","1","1"
"250008","img/neutralC/CFD-WM-015-002-N.jpg","img/neutralC/CFD-LM-200-045-N.jpg","img/neutralC/CFD-MM-324-069-N.jpg","1","1","1","0","1","1","0.56978490005713","0.377707399893552","0.351401999942027","1","1","1","1","1","1","1","1","1"
"250008","img/neutralC/CFD-MM-324-069-N.jpg","img/neutralC/CFD-WM-015-002-N.jpg","img/neutralC/CFD-WF-244-163-N.jpg","1","1","1","1","0","1","0.351401999942027","0.56978490005713","0.397542700055055","1","1","1","1","1","1","1","1","1"
"250008","img/neutralC/CFD-WF-244-163-N.jpg","img/neutralC/CFD-MM-324-069-N.jpg","img/neutralC/CFD-MF-305-014-N.jpg","1","1","1","1","1","1","0.397542700055055","0.351401999942027","0.355886699981056","1","1","1","1","1","1","1","1","1"
"250008","img/neutralC/CFD-MF-305-014-N.jpg","img/neutralC/CFD-WF-244-163-N.jpg","img/neutralC/CFD-WF-007-001-N.jpg","1","1","1","1","1","1","0.355886699981056","0.397542700055055","0.420559799997136","1","1","1","1","1","1","1","1","1"
"250008","img/neutralC/CFD-WF-007-001-N.jpg","img/neutralC/CFD-MF-305-014-N.jpg","img/neutralC/CFD-WF-222-092-N.jpg","1","1","1","1","1","1","0.420559799997136","0.355886699981056","0.480895800050348","1","1","1","1","1","1","1","1","1"
"250008","img/neutralC/CFD-WF-222-092-N.jpg","img/neutralC/CFD-WF-007-001-N.jpg","img/neutralC/CFD-MF-357-002-N.jpg","1","1","1","1","1","0","0.480895800050348","0.420559799997136","0.491546200006269","1","1","1","1","1","1","1","1","1"
"250008","img/neutralC/CFD-MF-357-002-N.jpg","img/neutralC/CFD-WF-222-092-N.jpg","img/neutralC/CFD-AF-233-190-N.jpg","1","1","1","0","1","0","0.491546200006269","0.480895800050348","0.588820999953896","1","1","1","1","1","1","1","1","1"
"250008","img/neutralC/CFD-AF-233-190-N.jpg","img/neutralC/CFD-MF-357-002-N.jpg","img/neutralC/CFD-BM-001-014-N.jpg","1","1","1","0","0","0","0.588820999953896","0.491546200006269","0.430969300097786","1","1","1","1","1","1","1","1","1"
"250008","img/neutralC/CFD-BM-001-014-N.jpg","img/neutralC/CFD-AF-233-190-N.jpg","img/neutralC/CFD-LF-206-078-N.jpg","1","1","1","0","0","1","0.430969300097786","0.588820999953896","0.574470499996096","1","1","1","1","1","1","1","1","1"
"250008","img/neutralC/CFD-LF-206-078-N.jpg","img/neutralC/CFD-BM-001-014-N.jpg","img/neutralC/CFD-IM-664-651-N.jpg","1","1","1","1","0","1","0.574470499996096","0.430969300097786","0.725117899943143","1","1","1","1","1","1","1","1","1"
"250008","img/neutralC/CFD-IM-664-651-N.jpg","img/neutralC/CFD-LF-206-078-N.jpg","img/neutralC/CFD-BM-250-170-N.jpg","1","1","1","1","1","1","0.725117899943143","0.574470499996096","0.398323900066316","1","1","1","1","1","1","1","1","1"
"250008","img/neutralC/CFD-BM-250-170-N.jpg","img/neutralC/CFD-IM-664-651-N.jpg","img/neutralC/CFD-WM-209-038-N.jpg","1","1","0","1","1","0","0.398323900066316","0.725117899943143","0.331649200059474","1","1","1","1","1","1","1","1","1"
"250008","img/neutralC/CFD-WM-209-038-N.jpg","img/neutralC/CFD-BM-250-170-N.jpg","img/neutralC/CFD-WM-218-074-N.jpg","0","1","1","0","1","1","0.331649200059474","0.398323900066316","0.45893329998944","1","1","1","1","1","1","1","1","1"
"250008","img/neutralC/CFD-WM-218-074-N.jpg","img/neutralC/CFD-WM-209-038-N.jpg","img/neutralC/CFD-MF-303-013-N.jpg","1","0","1","1","0","0","0.45893329998944","0.331649200059474","0.573705699993297","1","1","1","1","1","1","1","1","1"
"250008","img/neutralC/CFD-MF-303-013-N.jpg","img/neutralC/CFD-WM-218-074-N.jpg","img/neutralC/CFD-AF-253-130-N.jpg","1","1","1","0","1","1","0.573705699993297","0.45893329998944","0.429879700066522","1","1","1","1","1","1","1","1","1"
"250008","img/neutralC/CFD-AF-253-130-N.jpg","img/neutralC/CFD-MF-303-013-N.jpg","img/neutralC/CFD-IF-660-464-N.jpg","1","1","0","1","0","0","0.429879700066522","0.573705699993297","0.435571200097911","1","1","1","1","1","1","1","1","1"
"250008","img/neutralC/CFD-IF-660-464-N.jpg","img/neutralC/CFD-AF-253-130-N.jpg","img/neutralC/CFD-IM-706-002-N.jpg","0","1","1","0","1","0","0.435571200097911","0.429879700066522","0.622332899947651","1","1","1","1","1","1","1","1","1"
"250008","img/neutralC/CFD-IM-706-002-N.jpg","img/neutralC/CFD-IF-660-464-N.jpg","img/neutralC/CFD-MF-343-001-N.jpg","1","0","1","0","0","1","0.622332899947651","0.435571200097911","0.465180000057444","1","1","1","1","1","1","1","1","1"
"250008","img/neutralC/CFD-MF-343-001-N.jpg","img/neutralC/CFD-IM-706-002-N.jpg","img/neutralC/CFD-LF-255-088-N.jpg","1","1","1","1","0","0","0.465180000057444","0.622332899947651","0.455444899969734","1","1","1","1","1","1","1","1","1"
"250008","img/neutralC/CFD-LF-255-088-N.jpg","img/neutralC/CFD-MF-343-001-N.jpg","img/neutralC/CFD-AM-220-134-N.jpg","1","1","1","0","1","0","0.455444899969734","0.465180000057444","0.594378700014204","1","1","1","1","1","1","1","1","1"
"250008","img/neutralC/CFD-AM-220-134-N.jpg","img/neutralC/CFD-LF-255-088-N.jpg","img/neutralC/CFD-WF-030-002-N.jpg","1","1","1","0","0","0","0.594378700014204","0.455444899969734","0.590295900008641","1","1","1","1","1","1","1","1","1"
"250008","img/neutralC/CFD-WF-030-002-N.jpg","img/neutralC/CFD-AM-220-134-N.jpg","img/neutralC/CFD-LM-225-130-N.jpg","1","1","1","0","0","0","0.590295900008641","0.594378700014204","0.850804600049742","1","1","1","1","1","1","1","1","1"
"250008","img/neutralC/CFD-LM-225-130-N.jpg","img/neutralC/CFD-WF-030-002-N.jpg","img/neutralC/CFD-BM-217-082-N.jpg","1","1","1","0","0","0","0.850804600049742","0.590295900008641","0.498317799996585","1","1","1","1","1","1","1","1","1"
"250008","img/neutralC/CFD-BM-217-082-N.jpg","img/neutralC/CFD-LM-225-130-N.jpg","img/neutralC/CFD-IM-702-101-N.jpg","1","1","1","0","0","1","0.498317799996585","0.850804600049742","0.487532700062729","1","1","1","1","1","1","1","1","1"
"250008","img/neutralC/CFD-IM-702-101-N.jpg","img/neutralC/CFD-BM-217-082-N.jpg",NA,"1","1",NA,"1","0",NA,"0.487532700062729","0.498317799996585",NA,"1","1",NA,"1","1",NA,"1","1",NA
"250008","img/neutralC/CFD-WM-023-001-N.jpg",NA,"img/neutralC/CFD-IM-615-167-N.jpg","0",NA,"1","0",NA,"0","1.18722090008669",NA,"0.682823100010864","1",NA,"1","1",NA,"1","1",NA,"1"
"250008","img/neutralC/CFD-IM-615-167-N.jpg","img/neutralC/CFD-WM-023-001-N.jpg","img/neutralC/CFD-IM-697-015-N.jpg","1","0","1","0","0","1","0.682823100010864","1.18722090008669","0.440173899987713","1","1","1","1","1","1","1","1","1"
"250008","img/neutralC/CFD-IM-697-015-N.jpg","img/neutralC/CFD-IM-615-167-N.jpg","img/neutralC/CFD-WF-221-005-N.jpg","1","1","0","1","0","0","0.440173899987713","0.682823100010864","0.409805700066499","1","1","1","1","1","1","1","1","1"
"250008","img/neutralC/CFD-WF-221-005-N.jpg","img/neutralC/CFD-IM-697-015-N.jpg","img/neutralC/CFD-MF-328-020-N.jpg","0","1","1","0","1","0","0.409805700066499","0.440173899987713","0.501697500003502","1","1","1","1","1","1","1","1","1"
"250008","img/neutralC/CFD-MF-328-020-N.jpg","img/neutralC/CFD-WF-221-005-N.jpg","img/neutralC/CFD-BM-043-071-N.jpg","1","0","1","0","0","0","0.501697500003502","0.409805700066499","0.618599100038409","1","1","1","1","1","1","1","1","1"
"250008","img/neutralC/CFD-BM-043-071-N.jpg","img/neutralC/CFD-MF-328-020-N.jpg","img/neutralC/CFD-WF-241-210-N.jpg","1","1","1","0","0","0","0.618599100038409","0.501697500003502","0.552076900028624","1","1","1","1","1","1","1","1","1"
"250008","img/neutralC/CFD-WF-241-210-N.jpg","img/neutralC/CFD-BM-043-071-N.jpg","img/neutralC/CFD-AM-205-153-N.jpg","1","1","1","0","0","1","0.552076900028624","0.618599100038409","0.537678500055335","1","1","1","1","1","1","1","1","1"
"250008","img/neutralC/CFD-AM-205-153-N.jpg","img/neutralC/CFD-WF-241-210-N.jpg","img/neutralC/CFD-WF-207-014-N.jpg","1","1","1","1","0","1","0.537678500055335","0.552076900028624","0.552203400060534","1","1","1","1","1","1","1","1","1"
"250008","img/neutralC/CFD-WF-207-014-N.jpg","img/neutralC/CFD-AM-205-153-N.jpg","img/neutralC/CFD-BM-030-003-N.jpg","1","1","1","1","1","0","0.552203400060534","0.537678500055335","0.667120700003579","1","1","1","1","1","1","1","1","1"
"250008","img/neutralC/CFD-BM-030-003-N.jpg","img/neutralC/CFD-WF-207-014-N.jpg","img/neutralC/CFD-AM-219-101-N.jpg","1","1","1","0","1","0","0.667120700003579","0.552203400060534","0.583361600060016","1","1","1","1","1","1","1","1","1"
"250008","img/neutralC/CFD-AM-219-101-N.jpg","img/neutralC/CFD-BM-030-003-N.jpg","img/neutralC/CFD-AM-243-212-N.jpg","1","1","1","0","0","1","0.583361600060016","0.667120700003579","0.508593400008976","1","1","1","1","1","1","1","1","1"
"250008","img/neutralC/CFD-AM-243-212-N.jpg","img/neutralC/CFD-AM-219-101-N.jpg","img/neutralC/CFD-LF-238-154-N.jpg","1","1","1","1","0","1","0.508593400008976","0.583361600060016","0.419651300064288","1","1","1","1","1","1","1","1","1"
"250008","img/neutralC/CFD-LF-238-154-N.jpg","img/neutralC/CFD-AM-243-212-N.jpg","img/neutralC/CFD-BM-009-002-N.jpg","1","1","1","1","1","1","0.419651300064288","0.508593400008976","0.397932899999432","1","1","1","1","1","1","1","1","1"
"250008","img/neutralC/CFD-BM-009-002-N.jpg","img/neutralC/CFD-LF-238-154-N.jpg","img/neutralC/CFD-IM-606-008-N.jpg","1","1","1","1","1","0","0.397932899999432","0.419651300064288","0.544667399954051","1","1","1","1","1","1","1","1","1"
"250008","img/neutralC/CFD-IM-606-008-N.jpg","img/neutralC/CFD-BM-009-002-N.jpg","img/neutralC/CFD-IM-689-263-N.jpg","1","1","1","0","1","1","0.544667399954051","0.397932899999432","0.450769700109959","1","1","1","1","1","1","1","1","1"
"250008","img/neutralC/CFD-IM-689-263-N.jpg","img/neutralC/CFD-IM-606-008-N.jpg","img/neutralC/CFD-BM-021-021-N.jpg","1","1","1","1","0","1","0.450769700109959","0.544667399954051","0.412688700016588","1","1","1","1","1","1","1","1","1"
"250008","img/neutralC/CFD-BM-021-021-N.jpg","img/neutralC/CFD-IM-689-263-N.jpg","img/neutralC/CFD-BF-244-231-N.jpg","1","1","1","1","1","1","0.412688700016588","0.450769700109959","0.432453499990515","1","1","1","1","1","1","1","1","1"
"250008","img/neutralC/CFD-BF-244-231-N.jpg","img/neutralC/CFD-BM-021-021-N.jpg","img/neutralC/CFD-LM-240-013-N.jpg","1","1","1","1","1","1","0.432453499990515","0.412688700016588","0.431248900014907","1","1","1","1","1","1","1","1","1"
"250008","img/neutralC/CFD-LM-240-013-N.jpg","img/neutralC/CFD-BF-244-231-N.jpg","img/neutralC/CFD-WM-028-003-N.jpg","1","1","1","1","1","1","0.431248900014907","0.432453499990515","0.507525900029577","1","1","1","1","1","1","1","1","1"
"250008","img/neutralC/CFD-WM-028-003-N.jpg","img/neutralC/CFD-LM-240-013-N.jpg","img/neutralC/CFD-BM-020-001-N.jpg","1","1","1","1","1","0","0.507525900029577","0.431248900014907","0.768921399954706","1","1","1","1","1","1","1","1","1"
"250008","img/neutralC/CFD-BM-020-001-N.jpg","img/neutralC/CFD-WM-028-003-N.jpg","img/neutralC/CFD-BM-227-191-N.jpg","1","1","1","0","1","1","0.768921399954706","0.507525900029577","0.551347499946132","1","1","1","1","1","1","1","1","1"
"250008","img/neutralC/CFD-BM-227-191-N.jpg","img/neutralC/CFD-BM-020-001-N.jpg","img/neutralC/CFD-LF-212-066-N.jpg","1","1","1","1","0","1","0.551347499946132","0.768921399954706","0.431052800035104","1","1","1","1","1","1","1","1","1"
"250008","img/neutralC/CFD-LF-212-066-N.jpg","img/neutralC/CFD-BM-227-191-N.jpg","img/neutralC/CFD-WM-025-002-N.jpg","1","1","1","1","1","0","0.431052800035104","0.551347499946132","0.604560100007802","1","1","1","1","1","1","1","1","1"
"250008","img/neutralC/CFD-WM-025-002-N.jpg","img/neutralC/CFD-LF-212-066-N.jpg","img/neutralC/CFD-AM-249-163-N.jpg","1","1","1","0","1","1","0.604560100007802","0.431052800035104","0.426271400065161","1","1","1","1","1","1","1","1","1"
"250008","img/neutralC/CFD-AM-249-163-N.jpg","img/neutralC/CFD-WM-025-002-N.jpg","img/neutralC/CFD-BF-012-001-N.jpg","1","1","1","1","0","0","0.426271400065161","0.604560100007802","0.57295509998221","1","1","1","1","1","1","1","1","1"
"250008","img/neutralC/CFD-BF-012-001-N.jpg","img/neutralC/CFD-AM-249-163-N.jpg","img/neutralC/CFD-IF-676-017-N.jpg","1","1","1","0","1","1","0.57295509998221","0.426271400065161","0.568621900049038","1","1","1","1","1","1","1","1","1"
"250008","img/neutralC/CFD-IF-676-017-N.jpg","img/neutralC/CFD-BF-012-001-N.jpg","img/neutralC/CFD-MM-306-010-N.jpg","1","1","1","1","0","0","0.568621900049038","0.57295509998221","0.6500508999452","1","1","1","1","1","1","1","1","1"
"250008","img/neutralC/CFD-MM-306-010-N.jpg","img/neutralC/CFD-IF-676-017-N.jpg","img/neutralC/CFD-WF-009-001-N.jpg","1","1","1","0","1","1","0.6500508999452","0.568621900049038","0.441575999953784","1","1","1","1","1","1","1","1","1"
"250008","img/neutralC/CFD-WF-009-001-N.jpg","img/neutralC/CFD-MM-306-010-N.jpg","img/neutralC/CFD-LF-222-147-N.jpg","1","1","1","1","0","0","0.441575999953784","0.6500508999452","0.59555480000563","1","1","1","1","1","1","1","1","1"
"250008","img/neutralC/CFD-LF-222-147-N.jpg","img/neutralC/CFD-WF-009-001-N.jpg","img/neutralC/CFD-WF-243-148-N.jpg","1","1","1","0","1","0","0.59555480000563","0.441575999953784","0.564472199999727","1","1","1","1","1","1","1","1","1"
"250008","img/neutralC/CFD-WF-243-148-N.jpg","img/neutralC/CFD-LF-222-147-N.jpg","img/neutralC/CFD-AF-237-223-N.jpg","1","1","1","0","0","0","0.564472199999727","0.59555480000563","0.588589400053024","1","1","1","1","1","1","1","1","1"
"250008","img/neutralC/CFD-AF-237-223-N.jpg","img/neutralC/CFD-WF-243-148-N.jpg",NA,"1","1",NA,"0","0",NA,"0.588589400053024","0.564472199999727",NA,"1","1",NA,"1","1",NA,"1","1",NA
"250008","img/neutralC/CFD-WF-012-002-N.jpg",NA,"img/neutralC/CFD-LF-226-174-N.jpg","1",NA,"1","1",NA,"0","0.738541299942881",NA,"0.644549200078472","1",NA,"1","1",NA,"1","1",NA,"1"
"250008","img/neutralC/CFD-LF-226-174-N.jpg","img/neutralC/CFD-WF-012-002-N.jpg","img/neutralC/CFD-MF-327-002-N.jpg","1","1","0","0","1","0","0.644549200078472","0.738541299942881","0.422927099978551","1","1","1","1","1","1","1","1","1"
"250008","img/neutralC/CFD-MF-327-002-N.jpg","img/neutralC/CFD-LF-226-174-N.jpg","img/neutralC/CFD-IM-675-015-N.jpg","0","1","1","0","0","1","0.422927099978551","0.644549200078472","0.405596099910326","1","1","1","1","1","1","1","1","1"
"250008","img/neutralC/CFD-IM-675-015-N.jpg","img/neutralC/CFD-MF-327-002-N.jpg","img/neutralC/CFD-MF-340-026-N.jpg","1","0","1","1","0","1","0.405596099910326","0.422927099978551","0.45751440001186","1","1","1","1","1","1","1","1","1"
"250008","img/neutralC/CFD-MF-340-026-N.jpg","img/neutralC/CFD-IM-675-015-N.jpg","img/neutralC/CFD-AF-254-167-N.jpg","1","1","1","1","1","1","0.45751440001186","0.405596099910326","0.394394999952056","1","1","1","1","1","1","1","1","1"
"250008","img/neutralC/CFD-AF-254-167-N.jpg","img/neutralC/CFD-MF-340-026-N.jpg","img/neutralC/CFD-WF-212-050-N.jpg","1","1","1","1","1","0","0.394394999952056","0.45751440001186","0.51784200000111","1","1","1","1","1","1","1","1","1"
"250008","img/neutralC/CFD-WF-212-050-N.jpg","img/neutralC/CFD-AF-254-167-N.jpg","img/neutralC/CFD-IM-685-004-N.jpg","1","1","1","0","1","1","0.51784200000111","0.394394999952056","0.439644899917767","1","1","1","1","1","1","1","1","1"
"250008","img/neutralC/CFD-IM-685-004-N.jpg","img/neutralC/CFD-WF-212-050-N.jpg","img/neutralC/CFD-LM-217-162-N.jpg","1","1","1","1","0","0","0.439644899917767","0.51784200000111","0.616618199972436","1","1","1","1","1","1","1","1","1"
"250008","img/neutralC/CFD-LM-217-162-N.jpg","img/neutralC/CFD-IM-685-004-N.jpg","img/neutralC/CFD-WM-232-070-N.jpg","1","1","1","0","1","0","0.616618199972436","0.439644899917767","0.49639349989593","1","1","1","1","1","1","1","1","1"
"250008","img/neutralC/CFD-WM-232-070-N.jpg","img/neutralC/CFD-LM-217-162-N.jpg","img/neutralC/CFD-AF-229-160-N.jpg","1","1","1","0","0","0","0.49639349989593","0.616618199972436","0.472952099982649","1","1","1","1","1","1","1","1","1"
"250008","img/neutralC/CFD-AF-229-160-N.jpg","img/neutralC/CFD-WM-232-070-N.jpg","img/neutralC/CFD-WF-217-085-N.jpg","1","1","1","0","0","1","0.472952099982649","0.49639349989593","0.403363300021738","1","1","1","1","1","1","1","1","1"
"250008","img/neutralC/CFD-WF-217-085-N.jpg","img/neutralC/CFD-AF-229-160-N.jpg","img/neutralC/CFD-WM-213-076-N.jpg","1","1","1","1","0","1","0.403363300021738","0.472952099982649","0.352996300091036","1","1","1","1","1","1","1","1","1"
"250008","img/neutralC/CFD-WM-213-076-N.jpg","img/neutralC/CFD-WF-217-085-N.jpg","img/neutralC/CFD-IF-608-390-N.jpg","1","1","1","1","1","1","0.352996300091036","0.403363300021738","0.455029000062495","1","1","1","1","1","1","1","1","1"
"250008","img/neutralC/CFD-IF-608-390-N.jpg","img/neutralC/CFD-WM-213-076-N.jpg","img/neutralC/CFD-AM-236-090-N.jpg","1","1","1","1","1","1","0.455029000062495","0.352996300091036","0.547788899973966","1","1","1","1","1","1","1","1","1"
"250008","img/neutralC/CFD-AM-236-090-N.jpg","img/neutralC/CFD-IF-608-390-N.jpg","img/neutralC/CFD-AF-215-70-N.jpg","1","1","1","1","1","0","0.547788899973966","0.455029000062495","0.510401800042018","1","1","1","1","1","1","1","1","1"
"250008","img/neutralC/CFD-AF-215-70-N.jpg","img/neutralC/CFD-AM-236-090-N.jpg","img/neutralC/CFD-WF-248-129-N.jpg","1","1","1","0","1","0","0.510401800042018","0.547788899973966","0.52340050006751","1","1","1","1","1","1","1","1","1"
"250008","img/neutralC/CFD-WF-248-129-N.jpg","img/neutralC/CFD-AF-215-70-N.jpg","img/neutralC/CFD-BF-224-002-N.jpg","1","1","1","0","0","1","0.52340050006751","0.510401800042018","0.464974000002258","1","1","1","1","1","1","1","1","1"
"250008","img/neutralC/CFD-BF-224-002-N.jpg","img/neutralC/CFD-WF-248-129-N.jpg","img/neutralC/CFD-WF-008-002-N.jpg","1","1","1","1","0","1","0.464974000002258","0.52340050006751","0.481313399970531","1","1","1","1","1","1","1","1","1"
"250008","img/neutralC/CFD-WF-008-002-N.jpg","img/neutralC/CFD-BF-224-002-N.jpg","img/neutralC/CFD-BM-243-218-N.jpg","1","1","1","1","1","1","0.481313399970531","0.464974000002258","0.458476800005883","1","1","1","1","1","1","1","1","1"
"250008","img/neutralC/CFD-BM-243-218-N.jpg","img/neutralC/CFD-WF-008-002-N.jpg","img/neutralC/CFD-IM-604-014-N.jpg","1","1","1","1","1","0","0.458476800005883","0.481313399970531","0.510057299979962","1","1","1","1","1","1","1","1","1"
"250008","img/neutralC/CFD-IM-604-014-N.jpg","img/neutralC/CFD-BM-243-218-N.jpg","img/neutralC/CFD-MF-329-001-N.jpg","1","1","1","0","1","0","0.510057299979962","0.458476800005883","0.603587800054811","1","1","1","1","1","1","1","1","1"
"250008","img/neutralC/CFD-MF-329-001-N.jpg","img/neutralC/CFD-IM-604-014-N.jpg","img/neutralC/CFD-LF-201-035-N.jpg","1","1","1","0","0","1","0.603587800054811","0.510057299979962","0.476192099973559","1","1","1","1","1","1","1","1","1"
"250008","img/neutralC/CFD-LF-201-035-N.jpg","img/neutralC/CFD-MF-329-001-N.jpg","img/neutralC/CFD-MM-304-002-N.jpg","1","1","1","1","0","1","0.476192099973559","0.603587800054811","0.443999800016172","1","1","1","1","1","1","1","1","1"
"250008","img/neutralC/CFD-MM-304-002-N.jpg","img/neutralC/CFD-LF-201-035-N.jpg","img/neutralC/CFD-IM-637-007-N.jpg","1","1","1","1","1","0","0.443999800016172","0.476192099973559","0.597460999968462","1","1","1","1","1","1","1","1","1"
"250008","img/neutralC/CFD-IM-637-007-N.jpg","img/neutralC/CFD-MM-304-002-N.jpg","img/neutralC/CFD-IM-709-103-N.jpg","1","1","1","0","1","0","0.597460999968462","0.443999800016172","0.490370000014082","1","1","1","1","1","1","1","1","1"
"250008","img/neutralC/CFD-IM-709-103-N.jpg","img/neutralC/CFD-IM-637-007-N.jpg","img/neutralC/CFD-WM-024-015-N.jpg","1","1","1","0","0","1","0.490370000014082","0.597460999968462","0.457848599995486","1","1","1","1","1","1","1","1","1"
"250008","img/neutralC/CFD-WM-024-015-N.jpg","img/neutralC/CFD-IM-709-103-N.jpg","img/neutralC/CFD-BF-043-003-N.jpg","1","1","1","1","0","0","0.457848599995486","0.490370000014082","0.520967700053006","1","1","1","1","1","1","1","1","1"
"250008","img/neutralC/CFD-BF-043-003-N.jpg","img/neutralC/CFD-WM-024-015-N.jpg","img/neutralC/CFD-BF-051-035-N.jpg","1","1","1","0","1","0","0.520967700053006","0.457848599995486","0.550817499984987","1","1","1","1","1","1","1","1","1"
"250008","img/neutralC/CFD-BF-051-035-N.jpg","img/neutralC/CFD-BF-043-003-N.jpg","img/neutralC/CFD-BM-039-029-N.jpg","1","1","1","0","0","1","0.550817499984987","0.520967700053006","0.417883699992672","1","1","1","1","1","1","1","1","1"
"250008","img/neutralC/CFD-BM-039-029-N.jpg","img/neutralC/CFD-BF-051-035-N.jpg","img/neutralC/CFD-MF-300-002-N.jpg","1","1","1","1","0","0","0.417883699992672","0.550817499984987","0.643538900068961","1","1","1","1","1","1","1","1","1"
"250008","img/neutralC/CFD-MF-300-002-N.jpg","img/neutralC/CFD-BM-039-029-N.jpg","img/neutralC/CFD-IF-619-197-N.jpg","1","1","1","0","1","0","0.643538900068961","0.417883699992672","0.468794399988838","1","1","1","1","1","1","1","1","1"
"250008","img/neutralC/CFD-IF-619-197-N.jpg","img/neutralC/CFD-MF-300-002-N.jpg",NA,"1","1",NA,"0","0",NA,"0.468794399988838","0.643538900068961",NA,"1","1",NA,"1","1",NA,"1","1",NA
"250008","img/neutralC/CFD-LF-241-188-N.jpg",NA,"img/neutralC/CFD-WF-223-133-N.jpg","1",NA,"1","0",NA,"0","0.985285099945031",NA,"0.413943000021391","1",NA,"1","1",NA,"1","1",NA,"1"
"250008","img/neutralC/CFD-WF-223-133-N.jpg","img/neutralC/CFD-LF-241-188-N.jpg","img/neutralC/CFD-MF-312-002-N.jpg","1","1","1","0","0","1","0.413943000021391","0.985285099945031","0.422521600034088","1","1","1","1","1","1","1","1","1"
"250008","img/neutralC/CFD-MF-312-002-N.jpg","img/neutralC/CFD-WF-223-133-N.jpg","img/neutralC/CFD-BM-010-003-N.jpg","1","1","1","1","0","0","0.422521600034088","0.413943000021391","0.470294200000353","1","1","1","1","1","1","1","1","1"
"250008","img/neutralC/CFD-BM-010-003-N.jpg","img/neutralC/CFD-MF-312-002-N.jpg","img/neutralC/CFD-WF-033-002-N.jpg","1","1","1","0","1","1","0.470294200000353","0.422521600034088","0.452048099949025","1","1","1","1","1","1","1","1","1"
"250008","img/neutralC/CFD-WF-033-002-N.jpg","img/neutralC/CFD-BM-010-003-N.jpg","img/neutralC/CFD-IF-744-114-N.jpg","1","1","1","1","0","0","0.452048099949025","0.470294200000353","0.441373600042425","1","1","1","1","1","1","1","1","1"
"250008","img/neutralC/CFD-IF-744-114-N.jpg","img/neutralC/CFD-WF-033-002-N.jpg","img/neutralC/CFD-AF-239-171-N.jpg","1","1","1","0","1","1","0.441373600042425","0.452048099949025","0.337479599984363","1","1","1","1","1","1","1","1","1"
"250008","img/neutralC/CFD-AF-239-171-N.jpg","img/neutralC/CFD-IF-744-114-N.jpg","img/neutralC/CFD-BM-013-002-N.jpg","1","1","1","1","0","1","0.337479599984363","0.441373600042425","0.388981000054628","1","1","1","1","1","1","1","1","1"
"250008","img/neutralC/CFD-BM-013-002-N.jpg","img/neutralC/CFD-AF-239-171-N.jpg","img/neutralC/CFD-BM-028-002-N.jpg","1","1","1","1","1","1","0.388981000054628","0.337479599984363","0.39325970003847","1","1","1","1","1","1","1","1","1"
"250008","img/neutralC/CFD-BM-028-002-N.jpg","img/neutralC/CFD-BM-013-002-N.jpg","img/neutralC/CFD-IM-701-312-N.jpg","1","1","1","1","1","0","0.39325970003847","0.388981000054628","0.56792449997738","1","1","1","1","1","1","1","1","1"
"250008","img/neutralC/CFD-IM-701-312-N.jpg","img/neutralC/CFD-BM-028-002-N.jpg","img/neutralC/CFD-BF-004-014-N.jpg","1","1","1","0","1","1","0.56792449997738","0.39325970003847","0.42541969998274","1","1","1","1","1","1","1","1","1"
"250008","img/neutralC/CFD-BF-004-014-N.jpg","img/neutralC/CFD-IM-701-312-N.jpg","img/neutralC/CFD-BM-003-003-N.jpg","1","1","1","1","0","0","0.42541969998274","0.56792449997738","0.508202300057746","1","1","1","1","1","1","1","1","1"
"250008","img/neutralC/CFD-BM-003-003-N.jpg","img/neutralC/CFD-BF-004-014-N.jpg","img/neutralC/CFD-IF-625-225-N.jpg","1","1","1","0","1","0","0.508202300057746","0.42541969998274","0.604027500026859","1","1","1","1","1","1","1","1","1"
"250008","img/neutralC/CFD-IF-625-225-N.jpg","img/neutralC/CFD-BM-003-003-N.jpg","img/neutralC/CFD-AM-221-184-N.jpg","1","1","1","0","0","1","0.604027500026859","0.508202300057746","0.647623599972576","1","1","1","1","1","1","1","1","1"
"250008","img/neutralC/CFD-AM-221-184-N.jpg","img/neutralC/CFD-IF-625-225-N.jpg","img/neutralC/CFD-WM-228-065-N.jpg","1","1","1","1","0","0","0.647623599972576","0.604027500026859","0.535219199955463","1","1","1","1","1","1","1","1","1"
"250008","img/neutralC/CFD-WM-228-065-N.jpg","img/neutralC/CFD-AM-221-184-N.jpg","img/neutralC/CFD-LF-208-127-N.jpg","1","1","1","0","1","0","0.535219199955463","0.647623599972576","0.525379200000316","1","1","1","1","1","1","1","1","1"
"250008","img/neutralC/CFD-LF-208-127-N.jpg","img/neutralC/CFD-WM-228-065-N.jpg","img/neutralC/CFD-AF-227-207-N.jpg","1","1","1","0","0","1","0.525379200000316","0.535219199955463","0.59354029991664","1","1","1","1","1","1","1","1","1"
"250008","img/neutralC/CFD-AF-227-207-N.jpg","img/neutralC/CFD-LF-208-127-N.jpg","img/neutralC/CFD-IM-659-359-N.jpg","1","1","1","1","0","0","0.59354029991664","0.525379200000316","0.517776299966499","1","1","1","1","1","1","1","1","1"
"250008","img/neutralC/CFD-IM-659-359-N.jpg","img/neutralC/CFD-AF-227-207-N.jpg","img/neutralC/CFD-BM-213-134-N.jpg","1","1","1","0","1","1","0.517776299966499","0.59354029991664","0.444909999961965","1","1","1","1","1","1","1","1","1"
"250008","img/neutralC/CFD-BM-213-134-N.jpg","img/neutralC/CFD-IM-659-359-N.jpg","img/neutralC/CFD-LF-210-220-N.jpg","1","1","1","1","0","1","0.444909999961965","0.517776299966499","0.405018799938262","1","1","1","1","1","1","1","1","1"
"250008","img/neutralC/CFD-LF-210-220-N.jpg","img/neutralC/CFD-BM-213-134-N.jpg","img/neutralC/CFD-WM-254-152-N.jpg","1","1","1","1","1","1","0.405018799938262","0.444909999961965","0.479665099992417","1","1","1","1","1","1","1","1","1"
"250008","img/neutralC/CFD-WM-254-152-N.jpg","img/neutralC/CFD-LF-210-220-N.jpg","img/neutralC/CFD-BF-045-003-N.jpg","1","1","1","1","1","0","0.479665099992417","0.405018799938262","0.63145749992691","1","1","1","1","1","1","1","1","1"
"250008","img/neutralC/CFD-BF-045-003-N.jpg","img/neutralC/CFD-WM-254-152-N.jpg","img/neutralC/CFD-WM-202-107-N.jpg","1","1","1","0","1","1","0.63145749992691","0.479665099992417","0.464410900021903","1","1","1","1","1","1","1","1","1"
"250008","img/neutralC/CFD-WM-202-107-N.jpg","img/neutralC/CFD-BF-045-003-N.jpg","img/neutralC/CFD-IF-673-389-N.jpg","1","1","1","1","0","0","0.464410900021903","0.63145749992691","0.377088200068101","1","1","1","1","1","1","1","1","1"
"250008","img/neutralC/CFD-IF-673-389-N.jpg","img/neutralC/CFD-WM-202-107-N.jpg","img/neutralC/CFD-AF-210-050-N.jpg","1","1","1","0","1","1","0.377088200068101","0.464410900021903","0.408352600061335","1","1","1","1","1","1","1","1","1"
"250008","img/neutralC/CFD-AF-210-050-N.jpg","img/neutralC/CFD-IF-673-389-N.jpg","img/neutralC/CFD-LM-238-129-N.jpg","1","1","1","1","0","1","0.408352600061335","0.377088200068101","0.456824399996549","1","1","1","1","1","1","1","1","1"
"250008","img/neutralC/CFD-LM-238-129-N.jpg","img/neutralC/CFD-AF-210-050-N.jpg","img/neutralC/CFD-BF-222-240-N.jpg","1","1","0","1","1","0","0.456824399996549","0.408352600061335","0.432926599984057","1","1","1","1","1","1","1","1","1"
"250008","img/neutralC/CFD-BF-222-240-N.jpg","img/neutralC/CFD-LM-238-129-N.jpg","img/neutralC/CFD-LF-225-164-N.jpg","0","1","1","0","1","1","0.432926599984057","0.456824399996549","0.71633850003127","1","1","1","1","1","1","1","1","1"
"250008","img/neutralC/CFD-LF-225-164-N.jpg","img/neutralC/CFD-BF-222-240-N.jpg","img/neutralC/CFD-MF-336-016-N.jpg","1","0","1","1","0","1","0.71633850003127","0.432926599984057","0.497521799989045","1","1","1","1","1","1","1","1","1"
"250008","img/neutralC/CFD-MF-336-016-N.jpg","img/neutralC/CFD-LF-225-164-N.jpg","img/neutralC/CFD-WF-006-002-N.jpg","1","1","1","1","1","0","0.497521799989045","0.71633850003127","0.590280000003986","1","1","1","1","1","1","1","1","1"
"250008","img/neutralC/CFD-WF-006-002-N.jpg","img/neutralC/CFD-MF-336-016-N.jpg","img/neutralC/CFD-IM-738-191-N.jpg","1","1","1","0","1","0","0.590280000003986","0.497521799989045","0.644698399933986","1","1","1","1","1","1","1","1","1"
"250008","img/neutralC/CFD-IM-738-191-N.jpg","img/neutralC/CFD-WF-006-002-N.jpg","img/neutralC/CFD-LM-247-095-N.jpg","1","1","0","0","0","0","0.644698399933986","0.590280000003986","0.361693400074728","1","1","1","1","1","1","1","1","1"
"250008","img/neutralC/CFD-LM-247-095-N.jpg","img/neutralC/CFD-IM-738-191-N.jpg",NA,"0","1",NA,"0","0",NA,"0.361693400074728","0.644698399933986",NA,"1","1",NA,"1","1",NA,"1","1",NA
"250008","img/neutralC/CFD-WM-011-002-N.jpg",NA,"img/neutralC/CFD-WF-213-031-N.jpg","1",NA,"1","0",NA,"1","0.616801299969666",NA,"0.480692400014959","1",NA,"1","1",NA,"1","1",NA,"1"
"250008","img/neutralC/CFD-WF-213-031-N.jpg","img/neutralC/CFD-WM-011-002-N.jpg","img/neutralC/CFD-AM-212-050-N.jpg","1","1","1","1","0","1","0.480692400014959","0.616801299969666","0.400818399968557","1","1","1","1","1","1","1","1","1"
"250008","img/neutralC/CFD-AM-212-050-N.jpg","img/neutralC/CFD-WF-213-031-N.jpg","img/neutralC/CFD-IF-710-016-N.jpg","1","1","0","1","1","0","0.400818399968557","0.480692400014959","0.396629599970765","1","1","1","1","1","1","1","1","1"
"250008","img/neutralC/CFD-IF-710-016-N.jpg","img/neutralC/CFD-AM-212-050-N.jpg","img/neutralC/CFD-BF-039-031-N.jpg","0","1","1","0","1","1","0.396629599970765","0.400818399968557","0.445639199926518","1","1","1","1","1","1","1","1","1"
"250008","img/neutralC/CFD-BF-039-031-N.jpg","img/neutralC/CFD-IF-710-016-N.jpg","img/neutralC/CFD-WM-021-001-N.jpg","1","0","1","1","0","1","0.445639199926518","0.396629599970765","0.473097800044343","1","1","1","1","1","1","1","1","1"
"250008","img/neutralC/CFD-WM-021-001-N.jpg","img/neutralC/CFD-BF-039-031-N.jpg","img/neutralC/CFD-IM-684-008-N.jpg","1","1","1","1","1","1","0.473097800044343","0.445639199926518","0.519059999962337","1","1","1","1","1","1","1","1","1"
"250008","img/neutralC/CFD-IM-684-008-N.jpg","img/neutralC/CFD-WM-021-001-N.jpg","img/neutralC/CFD-WF-224-099-N.jpg","1","1","1","1","1","0","0.519059999962337","0.473097800044343","0.520718999905512","1","1","1","1","1","1","1","1","1"
"250008","img/neutralC/CFD-WF-224-099-N.jpg","img/neutralC/CFD-IM-684-008-N.jpg","img/neutralC/CFD-AM-201-076-N.jpg","1","1","1","0","1","1","0.520718999905512","0.519059999962337","0.679682599962689","1","1","1","1","1","1","1","1","1"
"250008","img/neutralC/CFD-AM-201-076-N.jpg","img/neutralC/CFD-WF-224-099-N.jpg","img/neutralC/CFD-BM-019-002-N.jpg","1","1","1","1","0","0","0.679682599962689","0.520718999905512","0.645039899973199","1","1","1","1","1","1","1","1","1"
"250008","img/neutralC/CFD-BM-019-002-N.jpg","img/neutralC/CFD-AM-201-076-N.jpg","img/neutralC/CFD-BM-239-136-N.jpg","1","1","1","0","1","1","0.645039899973199","0.679682599962689","0.423041300033219","1","1","1","1","1","1","1","1","1"
"250008","img/neutralC/CFD-BM-239-136-N.jpg","img/neutralC/CFD-BM-019-002-N.jpg","img/neutralC/CFD-IF-693-172-N.jpg","1","1","1","1","0","0","0.423041300033219","0.645039899973199","0.594368899939582","1","1","1","1","1","1","1","1","1"
"250008","img/neutralC/CFD-IF-693-172-N.jpg","img/neutralC/CFD-BM-239-136-N.jpg","img/neutralC/CFD-LF-214-090-N.jpg","1","1","1","0","1","0","0.594368899939582","0.423041300033219","0.620413800003007","1","1","1","1","1","1","1","1","1"
"250008","img/neutralC/CFD-LF-214-090-N.jpg","img/neutralC/CFD-IF-693-172-N.jpg","img/neutralC/CFD-BF-253-202-N.jpg","1","1","1","0","0","0","0.620413800003007","0.594368899939582","0.651367700076662","1","1","1","1","1","1","1","1","1"
"250008","img/neutralC/CFD-BF-253-202-N.jpg","img/neutralC/CFD-LF-214-090-N.jpg","img/neutralC/CFD-LF-203-066-N.jpg","1","1","0","0","0","0","0.651367700076662","0.620413800003007","0.370719500002451","1","1","1","1","1","1","1","1","1"
"250008","img/neutralC/CFD-LF-203-066-N.jpg","img/neutralC/CFD-BF-253-202-N.jpg","img/neutralC/CFD-MF-337-026-N.jpg","0","1","1","0","0","1","0.370719500002451","0.651367700076662","0.496984899975359","1","1","1","1","1","1","1","1","1"
"250008","img/neutralC/CFD-MF-337-026-N.jpg","img/neutralC/CFD-LF-203-066-N.jpg","img/neutralC/CFD-LF-224-176-N.jpg","1","0","1","1","0","0","0.496984899975359","0.370719500002451","0.528611100045964","1","1","1","1","1","1","1","1","1"
"250008","img/neutralC/CFD-LF-224-176-N.jpg","img/neutralC/CFD-MF-337-026-N.jpg","img/neutralC/CFD-IM-651-308-N.jpg","1","1","1","0","1","0","0.528611100045964","0.496984899975359","0.68153409997467","1","1","1","1","1","1","1","1","1"
"250008","img/neutralC/CFD-IM-651-308-N.jpg","img/neutralC/CFD-LF-224-176-N.jpg","img/neutralC/CFD-AF-231-357-N.jpg","1","1","1","0","0","1","0.68153409997467","0.528611100045964","0.420455100014806","1","1","1","1","1","1","1","1","1"
"250008","img/neutralC/CFD-AF-231-357-N.jpg","img/neutralC/CFD-IM-651-308-N.jpg","img/neutralC/CFD-BF-205-141-N.jpg","1","1","1","1","0","0","0.420455100014806","0.68153409997467","0.624336300068535","1","1","1","1","1","1","1","1","1"
"250008","img/neutralC/CFD-BF-205-141-N.jpg","img/neutralC/CFD-AF-231-357-N.jpg","img/neutralC/CFD-BF-213-188-N.jpg","1","1","1","0","1","1","0.624336300068535","0.420455100014806","0.411183699965477","1","1","1","1","1","1","1","1","1"
"250008","img/neutralC/CFD-BF-213-188-N.jpg","img/neutralC/CFD-BF-205-141-N.jpg","img/neutralC/CFD-LF-205-100-N.jpg","1","1","1","1","0","1","0.411183699965477","0.624336300068535","0.446778999990784","1","1","1","1","1","1","1","1","1"
"250008","img/neutralC/CFD-LF-205-100-N.jpg","img/neutralC/CFD-BF-213-188-N.jpg","img/neutralC/CFD-LM-215-247-N.jpg","1","1","1","1","1","0","0.446778999990784","0.411183699965477","0.656894400017336","1","1","1","1","1","1","1","1","1"
"250008","img/neutralC/CFD-LM-215-247-N.jpg","img/neutralC/CFD-LF-205-100-N.jpg","img/neutralC/CFD-WM-041-021-N.jpg","1","1","1","0","1","0","0.656894400017336","0.446778999990784","0.584812099928968","1","1","1","1","1","1","1","1","1"
"250008","img/neutralC/CFD-WM-041-021-N.jpg","img/neutralC/CFD-LM-215-247-N.jpg","img/neutralC/CFD-LM-218-183-N.jpg","1","1","1","0","0","1","0.584812099928968","0.656894400017336","0.482932599959895","1","1","1","1","1","1","1","1","1"
"250008","img/neutralC/CFD-LM-218-183-N.jpg","img/neutralC/CFD-WM-041-021-N.jpg","img/neutralC/CFD-BM-033-003-N.jpg","1","1","1","1","0","0","0.482932599959895","0.584812099928968","0.487489200080745","1","1","1","1","1","1","1","1","1"
"250008","img/neutralC/CFD-BM-033-003-N.jpg","img/neutralC/CFD-LM-218-183-N.jpg","img/neutralC/CFD-BM-041-035-N.jpg","1","1","1","0","1","0","0.487489200080745","0.482932599959895","0.480684799957089","1","1","1","1","1","1","1","1","1"
"250008","img/neutralC/CFD-BM-041-035-N.jpg","img/neutralC/CFD-BM-033-003-N.jpg","img/neutralC/CFD-BF-029-031-N.jpg","1","1","1","0","0","1","0.480684799957089","0.487489200080745","0.545987499994226","1","1","1","1","1","1","1","1","1"
"250008","img/neutralC/CFD-BF-029-031-N.jpg","img/neutralC/CFD-BM-041-035-N.jpg","img/neutralC/CFD-WF-250-167-N.jpg","1","1","1","1","0","1","0.545987499994226","0.480684799957089","0.672680699964985","1","1","1","1","1","1","1","1","1"
"250008","img/neutralC/CFD-WF-250-167-N.jpg","img/neutralC/CFD-BF-029-031-N.jpg","img/neutralC/CFD-LF-230-203-N.jpg","1","1","1","1","1","0","0.672680699964985","0.545987499994226","0.540027900016867","1","1","1","1","1","1","1","1","1"
"250008","img/neutralC/CFD-LF-230-203-N.jpg","img/neutralC/CFD-WF-250-167-N.jpg","img/neutralC/CFD-MM-316-156-N.jpg","1","1","1","0","1","1","0.540027900016867","0.672680699964985","0.401543799904175","1","1","1","1","1","1","1","1","1"
"250008","img/neutralC/CFD-MM-316-156-N.jpg","img/neutralC/CFD-LF-230-203-N.jpg","img/neutralC/CFD-IF-634-382-N.jpg","1","1","1","1","0","1","0.401543799904175","0.540027900016867","0.395361699978821","1","1","1","1","1","1","1","1","1"
"250008","img/neutralC/CFD-IF-634-382-N.jpg","img/neutralC/CFD-MM-316-156-N.jpg",NA,"1","1",NA,"1","1",NA,"0.395361699978821","0.401543799904175",NA,"1","1",NA,"1","1",NA,"1","1",NA
"250008","img/neutralC/CFD-WM-004-010-N.jpg",NA,"img/neutralC/CFD-WM-235-147-N.jpg","0",NA,"1","0",NA,"0","0.583439899957739",NA,"0.884373500011861","1",NA,"1","1",NA,"1","1",NA,"1"
"250008","img/neutralC/CFD-WM-235-147-N.jpg","img/neutralC/CFD-WM-004-010-N.jpg","img/neutralC/CFD-MF-352-054-N.jpg","1","0","1","0","0","0","0.884373500011861","0.583439899957739","0.63483840005938","1","1","1","1","1","1","1","1","1"
"250008","img/neutralC/CFD-MF-352-054-N.jpg","img/neutralC/CFD-WM-235-147-N.jpg","img/neutralC/CFD-WF-001-003-N.jpg","1","1","1","0","0","1","0.63483840005938","0.884373500011861","0.612644299981184","1","1","1","1","1","1","1","1","1"
"250008","img/neutralC/CFD-WF-001-003-N.jpg","img/neutralC/CFD-MF-352-054-N.jpg","img/neutralC/CFD-AM-251-124-N.jpg","1","1","1","1","0","0","0.612644299981184","0.63483840005938","0.453069799928926","1","1","1","1","1","1","1","1","1"
"250008","img/neutralC/CFD-AM-251-124-N.jpg","img/neutralC/CFD-WF-001-003-N.jpg","img/neutralC/CFD-IM-743-006-N.jpg","1","1","1","0","1","1","0.453069799928926","0.612644299981184","0.472979500074871","1","1","1","1","1","1","1","1","1"
"250008","img/neutralC/CFD-IM-743-006-N.jpg","img/neutralC/CFD-AM-251-124-N.jpg","img/neutralC/CFD-BF-038-037-N.jpg","1","1","1","1","0","1","0.472979500074871","0.453069799928926","0.450980000081472","1","1","1","1","1","1","1","1","1"
"250008","img/neutralC/CFD-BF-038-037-N.jpg","img/neutralC/CFD-IM-743-006-N.jpg","img/neutralC/CFD-MF-359-019-N.jpg","1","1","1","1","1","0","0.450980000081472","0.472979500074871","0.548371399985626","1","1","1","1","1","1","1","1","1"
"250008","img/neutralC/CFD-MF-359-019-N.jpg","img/neutralC/CFD-BF-038-037-N.jpg","img/neutralC/CFD-AM-211-052-N.jpg","1","1","1","0","1","1","0.548371399985626","0.450980000081472","0.431677800021134","1","1","1","1","1","1","1","1","1"
"250008","img/neutralC/CFD-AM-211-052-N.jpg","img/neutralC/CFD-MF-359-019-N.jpg","img/neutralC/CFD-LM-237-264-N.jpg","1","1","1","1","0","0","0.431677800021134","0.548371399985626","0.565514199901372","1","1","1","1","1","1","1","1","1"
"250008","img/neutralC/CFD-LM-237-264-N.jpg","img/neutralC/CFD-AM-211-052-N.jpg","img/neutralC/CFD-WM-219-008-N.jpg","1","1","1","0","1","0","0.565514199901372","0.431677800021134","0.567306599928997","1","1","1","1","1","1","1","1","1"
"250008","img/neutralC/CFD-WM-219-008-N.jpg","img/neutralC/CFD-LM-237-264-N.jpg","img/neutralC/CFD-LF-218-072-N.jpg","1","1","1","0","0","0","0.567306599928997","0.565514199901372","0.419081200030632","1","1","1","1","1","1","1","1","1"
"250008","img/neutralC/CFD-LF-218-072-N.jpg","img/neutralC/CFD-WM-219-008-N.jpg","img/neutralC/CFD-WF-214-122-N.jpg","1","1","1","0","0","1","0.419081200030632","0.567306599928997","0.411432699998841","1","1","1","1","1","1","1","1","1"
"250008","img/neutralC/CFD-WF-214-122-N.jpg","img/neutralC/CFD-LF-218-072-N.jpg","img/neutralC/CFD-IM-645-001-N.jpg","1","1","1","1","0","0","0.411432699998841","0.419081200030632","0.557938299956731","1","1","1","1","1","1","1","1","1"
"250008","img/neutralC/CFD-IM-645-001-N.jpg","img/neutralC/CFD-WF-214-122-N.jpg","img/neutralC/CFD-IF-650-315-N.jpg","1","1","1","0","1","0","0.557938299956731","0.411432699998841","0.546699799946509","1","1","1","1","1","1","1","1","1"
"250008","img/neutralC/CFD-IF-650-315-N.jpg","img/neutralC/CFD-IM-645-001-N.jpg","img/neutralC/CFD-BF-226-119-N.jpg","1","1","1","0","0","1","0.546699799946509","0.557938299956731","0.451230000006035","1","1","1","1","1","1","1","1","1"
"250008","img/neutralC/CFD-BF-226-119-N.jpg","img/neutralC/CFD-IF-650-315-N.jpg","img/neutralC/CFD-WM-033-025-N.jpg","1","1","1","1","0","1","0.451230000006035","0.546699799946509","0.433227799949236","1","1","1","1","1","1","1","1","1"
"250008","img/neutralC/CFD-WM-033-025-N.jpg","img/neutralC/CFD-BF-226-119-N.jpg","img/neutralC/CFD-AM-242-176-N.jpg","1","1","1","1","1","1","0.433227799949236","0.451230000006035","0.54795949999243","1","1","1","1","1","1","1","1","1"
"250008","img/neutralC/CFD-AM-242-176-N.jpg","img/neutralC/CFD-WM-033-025-N.jpg","img/neutralC/CFD-LM-228-188-N.jpg","1","1","1","1","1","1","0.54795949999243","0.433227799949236","0.4840806000866","1","1","1","1","1","1","1","1","1"
"250008","img/neutralC/CFD-LM-228-188-N.jpg","img/neutralC/CFD-AM-242-176-N.jpg","img/neutralC/CFD-BF-229-179-N.jpg","1","1","0","1","1","0","0.4840806000866","0.54795949999243","0.412173000047915","1","1","1","1","1","1","1","1","1"
"250008","img/neutralC/CFD-BF-229-179-N.jpg","img/neutralC/CFD-LM-228-188-N.jpg","img/neutralC/CFD-WF-036-023-N.jpg","0","1","1","0","1","0","0.412173000047915","0.4840806000866","0.601356100058183","1","1","1","1","1","1","1","1","1"
"250008","img/neutralC/CFD-WF-036-023-N.jpg","img/neutralC/CFD-BF-229-179-N.jpg","img/neutralC/CFD-IF-623-129-N.jpg","1","0","1","0","0","1","0.601356100058183","0.412173000047915","0.511208000010811","1","1","1","1","1","1","1","1","1"
"250008","img/neutralC/CFD-IF-623-129-N.jpg","img/neutralC/CFD-WF-036-023-N.jpg","img/neutralC/CFD-WM-020-001-N.jpg","1","1","1","1","0","1","0.511208000010811","0.601356100058183","0.40796809992753","1","1","1","1","1","1","1","1","1"
"250008","img/neutralC/CFD-WM-020-001-N.jpg","img/neutralC/CFD-IF-623-129-N.jpg","img/neutralC/CFD-IM-671-601-N.jpg","1","1","1","1","1","0","0.40796809992753","0.511208000010811","0.660986399976537","1","1","1","1","1","1","1","1","1"
"250008","img/neutralC/CFD-IM-671-601-N.jpg","img/neutralC/CFD-WM-020-001-N.jpg","img/neutralC/CFD-BF-232-187-N.jpg","1","1","1","0","1","1","0.660986399976537","0.40796809992753","0.588879100047052","1","1","1","1","1","1","1","1","1"
"250008","img/neutralC/CFD-BF-232-187-N.jpg","img/neutralC/CFD-IM-671-601-N.jpg","img/neutralC/CFD-IM-616-214-N.jpg","1","1","0","1","0","0","0.588879100047052","0.660986399976537","0.398604899994098","1","1","1","1","1","1","1","1","1"
"250008","img/neutralC/CFD-IM-616-214-N.jpg","img/neutralC/CFD-BF-232-187-N.jpg","img/neutralC/CFD-WF-200-099-N.jpg","0","1","1","0","1","0","0.398604899994098","0.588879100047052","0.532190299942158","1","1","1","1","1","1","1","1","1"
"250008","img/neutralC/CFD-WF-200-099-N.jpg","img/neutralC/CFD-IM-616-214-N.jpg","img/neutralC/CFD-BM-225-154-N.jpg","1","0","1","0","0","1","0.532190299942158","0.398604899994098","0.425026200013235","1","1","1","1","1","1","1","1","1"
"250008","img/neutralC/CFD-BM-225-154-N.jpg","img/neutralC/CFD-WF-200-099-N.jpg","img/neutralC/CFD-MF-333-012-N.jpg","1","1","1","1","0","0","0.425026200013235","0.532190299942158","0.544418800040148","1","1","1","1","1","1","1","1","1"
"250008","img/neutralC/CFD-MF-333-012-N.jpg","img/neutralC/CFD-BM-225-154-N.jpg","img/neutralC/CFD-LF-220-120-N.jpg","1","1","1","0","1","1","0.544418800040148","0.425026200013235","0.472105899942107","1","1","1","1","1","1","1","1","1"
"250008","img/neutralC/CFD-LF-220-120-N.jpg","img/neutralC/CFD-MF-333-012-N.jpg","img/neutralC/CFD-IM-703-182-N.jpg","1","1","1","1","0","1","0.472105899942107","0.544418800040148","0.59683210006915","1","1","1","1","1","1","1","1","1"
"250008","img/neutralC/CFD-IM-703-182-N.jpg","img/neutralC/CFD-LF-220-120-N.jpg","img/neutralC/CFD-BM-253-004-N.jpg","1","1","1","1","1","1","0.59683210006915","0.472105899942107","0.473941500065848","1","1","1","1","1","1","1","1","1"
"250008","img/neutralC/CFD-BM-253-004-N.jpg","img/neutralC/CFD-IM-703-182-N.jpg",NA,"1","1",NA,"1","1",NA,"0.473941500065848","0.59683210006915",NA,"1","1",NA,"1","1",NA,"1","1",NA
"250008","img/neutralC/CFD-WF-005-010-N.jpg",NA,"img/neutralC/CFD-IF-642-295-N.jpg","0",NA,"1","0",NA,"1","0.800450599985197",NA,"0.557137299911119","1",NA,"1","1",NA,"1","1",NA,"1"
"250008","img/neutralC/CFD-IF-642-295-N.jpg","img/neutralC/CFD-WF-005-010-N.jpg","img/neutralC/CFD-BF-041-001-N.jpg","1","0","1","1","0","1","0.557137299911119","0.800450599985197","0.530022600083612","1","1","1","1","1","1","1","1","1"
"250008","img/neutralC/CFD-BF-041-001-N.jpg","img/neutralC/CFD-IF-642-295-N.jpg","img/neutralC/CFD-MM-317-061-N.jpg","1","1","1","1","1","1","0.530022600083612","0.557137299911119","0.513218600070104","1","1","1","1","1","1","1","1","1"
"250008","img/neutralC/CFD-MM-317-061-N.jpg","img/neutralC/CFD-BF-041-001-N.jpg","img/neutralC/CFD-MF-309-002-N.jpg","1","1","1","1","1","0","0.513218600070104","0.530022600083612","0.505213199998252","1","1","1","1","1","1","1","1","1"
"250008","img/neutralC/CFD-MF-309-002-N.jpg","img/neutralC/CFD-MM-317-061-N.jpg","img/neutralC/CFD-AM-247-165-N.jpg","1","1","1","0","1","1","0.505213199998252","0.513218600070104","0.47924969997257","1","1","1","1","1","1","1","1","1"
"250008","img/neutralC/CFD-AM-247-165-N.jpg","img/neutralC/CFD-MF-309-002-N.jpg","img/neutralC/CFD-WM-019-003-N.jpg","1","1","1","1","0","1","0.47924969997257","0.505213199998252","0.463480699923821","1","1","1","1","1","1","1","1","1"
"250008","img/neutralC/CFD-WM-019-003-N.jpg","img/neutralC/CFD-AM-247-165-N.jpg","img/neutralC/CFD-AF-240-206-N.jpg","1","1","1","1","1","0","0.463480699923821","0.47924969997257","0.641083499998786","1","1","1","1","1","1","1","1","1"
"250008","img/neutralC/CFD-AF-240-206-N.jpg","img/neutralC/CFD-WM-019-003-N.jpg","img/neutralC/CFD-IM-648-337-N.jpg","1","1","1","0","1","0","0.641083499998786","0.463480699923821","0.584447799948975","1","1","1","1","1","1","1","1","1"
"250008","img/neutralC/CFD-IM-648-337-N.jpg","img/neutralC/CFD-AF-240-206-N.jpg","img/neutralC/CFD-BM-248-128-N.jpg","1","1","1","0","0","0","0.584447799948975","0.641083499998786","0.518579600029625","1","1","1","1","1","1","1","1","1"
"250008","img/neutralC/CFD-BM-248-128-N.jpg","img/neutralC/CFD-IM-648-337-N.jpg","img/neutralC/CFD-WM-249-239-N.jpg","1","1","1","0","0","1","0.518579600029625","0.584447799948975","0.401520900079049","1","1","1","1","1","1","1","1","1"
"250008","img/neutralC/CFD-WM-249-239-N.jpg","img/neutralC/CFD-BM-248-128-N.jpg","img/neutralC/CFD-IM-646-023-N.jpg","1","1","1","1","0","1","0.401520900079049","0.518579600029625","0.413934199954383","1","1","1","1","1","1","1","1","1"
"250008","img/neutralC/CFD-IM-646-023-N.jpg","img/neutralC/CFD-WM-249-239-N.jpg","img/neutralC/CFD-BF-202-109-N.jpg","1","1","0","1","1","1","0.413934199954383","0.401520900079049","0.370965200010687","1","1","1","1","1","1","1","1","1"
"250008","img/neutralC/CFD-BF-202-109-N.jpg","img/neutralC/CFD-IM-646-023-N.jpg","img/neutralC/CFD-BM-205-001-N.jpg","0","1","1","1","1","0","0.370965200010687","0.413934199954383","0.567421999992803","1","1","1","1","1","1","1","1","1"
"250008","img/neutralC/CFD-BM-205-001-N.jpg","img/neutralC/CFD-BF-202-109-N.jpg","img/neutralC/CFD-BF-228-212-N.jpg","1","0","1","0","1","0","0.567421999992803","0.370965200010687","0.649117899942212","1","1","1","1","1","1","1","1","1"
"250008","img/neutralC/CFD-BF-228-212-N.jpg","img/neutralC/CFD-BM-205-001-N.jpg","img/neutralC/CFD-BM-251-013-N.jpg","1","1","1","0","0","1","0.649117899942212","0.567421999992803","0.438200499978848","1","1","1","1","1","1","1","1","1"
"250008","img/neutralC/CFD-BM-251-013-N.jpg","img/neutralC/CFD-BF-228-212-N.jpg","img/neutralC/CFD-MF-335-002-N.jpg","1","1","1","1","0","0","0.438200499978848","0.649117899942212","0.657310500042513","1","1","1","1","1","1","1","1","1"
"250008","img/neutralC/CFD-MF-335-002-N.jpg","img/neutralC/CFD-BM-251-013-N.jpg","img/neutralC/CFD-WM-006-002-N.jpg","1","1","1","0","1","0","0.657310500042513","0.438200499978848","0.650682199979201","1","1","1","1","1","1","1","1","1"
"250008","img/neutralC/CFD-WM-006-002-N.jpg","img/neutralC/CFD-MF-335-002-N.jpg","img/neutralC/CFD-LM-214-165-N.jpg","1","1","1","0","0","1","0.650682199979201","0.657310500042513","0.552513899980113","1","1","1","1","1","1","1","1","1"
"250008","img/neutralC/CFD-LM-214-165-N.jpg","img/neutralC/CFD-WM-006-002-N.jpg","img/neutralC/CFD-BF-025-002-N.jpg","1","1","1","1","0","0","0.552513899980113","0.650682199979201","0.752500600065105","1","1","1","1","1","1","1","1","1"
"250008","img/neutralC/CFD-BF-025-002-N.jpg","img/neutralC/CFD-LM-214-165-N.jpg","img/neutralC/CFD-BF-212-315-N.jpg","1","1","1","0","1","1","0.752500600065105","0.552513899980113","0.440960700041614","1","1","1","1","1","1","1","1","1"
"250008","img/neutralC/CFD-BF-212-315-N.jpg","img/neutralC/CFD-BF-025-002-N.jpg","img/neutralC/CFD-LM-216-082-N.jpg","1","1","1","1","0","0","0.440960700041614","0.752500600065105","0.49043109989725","1","1","1","1","1","1","1","1","1"
"250008","img/neutralC/CFD-LM-216-082-N.jpg","img/neutralC/CFD-BF-212-315-N.jpg","img/neutralC/CFD-WM-215-041-N.jpg","1","1","1","0","1","0","0.49043109989725","0.440960700041614","0.537441299995407","1","1","1","1","1","1","1","1","1"
"250008","img/neutralC/CFD-WM-215-041-N.jpg","img/neutralC/CFD-LM-216-082-N.jpg","img/neutralC/CFD-LM-201-057-N.jpg","1","1","1","0","0","1","0.537441299995407","0.49043109989725","0.502855500089936","1","1","1","1","1","1","1","1","1"
"250008","img/neutralC/CFD-LM-201-057-N.jpg","img/neutralC/CFD-WM-215-041-N.jpg","img/neutralC/CFD-WM-026-001-N.jpg","1","1","1","1","0","1","0.502855500089936","0.537441299995407","0.440907499985769","1","1","1","1","1","1","1","1","1"
"250008","img/neutralC/CFD-WM-026-001-N.jpg","img/neutralC/CFD-LM-201-057-N.jpg","img/neutralC/CFD-WM-012-001-N.jpg","1","1","1","1","1","1","0.440907499985769","0.502855500089936","0.382308800006285","1","1","1","1","1","1","1","1","1"
"250008","img/neutralC/CFD-WM-012-001-N.jpg","img/neutralC/CFD-WM-026-001-N.jpg","img/neutralC/CFD-WF-240-083-N.jpg","1","1","1","1","1","0","0.382308800006285","0.440907499985769","0.546701299957931","1","1","1","1","1","1","1","1","1"
"250008","img/neutralC/CFD-WF-240-083-N.jpg","img/neutralC/CFD-WM-012-001-N.jpg","img/neutralC/CFD-WF-228-196-N.jpg","1","1","1","0","1","0","0.546701299957931","0.382308800006285","0.522733499994501","1","1","1","1","1","1","1","1","1"
"250008","img/neutralC/CFD-WF-228-196-N.jpg","img/neutralC/CFD-WF-240-083-N.jpg","img/neutralC/CFD-WM-212-097-N.jpg","1","1","1","0","0","0","0.522733499994501","0.546701299957931","0.651830599992536","1","1","1","1","1","1","1","1","1"
"250008","img/neutralC/CFD-WM-212-097-N.jpg","img/neutralC/CFD-WF-228-196-N.jpg","img/neutralC/CFD-LM-244-068-N.jpg","1","1","1","0","0","1","0.651830599992536","0.522733499994501","0.507393699954264","1","1","1","1","1","1","1","1","1"
"250008","img/neutralC/CFD-LM-244-068-N.jpg","img/neutralC/CFD-WM-212-097-N.jpg","img/neutralC/CFD-LM-243-075-N.jpg","1","1","0","1","0","0","0.507393699954264","0.651830599992536","0.408426500041969","1","1","1","1","1","1","1","1","1"
"250008","img/neutralC/CFD-LM-243-075-N.jpg","img/neutralC/CFD-LM-244-068-N.jpg","img/neutralC/CFD-WF-017-003-N.jpg","0","1","1","0","1","1","0.408426500041969","0.507393699954264","0.434192599961534","1","1","1","1","1","1","1","1","1"
"250008","img/neutralC/CFD-WF-017-003-N.jpg","img/neutralC/CFD-LM-243-075-N.jpg",NA,"1","0",NA,"1","0",NA,"0.434192599961534","0.408426500041969",NA,"1","1",NA,"1","1",NA,"1","1",NA
"250008","img/neutralC/CFD-WF-226-095-N.jpg",NA,"img/neutralC/CFD-BF-254-201-N.jpg","1",NA,"1","1",NA,"0","0.690488599939272",NA,"0.590130800032057","1",NA,"1","1",NA,"1","1",NA,"1"
"250008","img/neutralC/CFD-BF-254-201-N.jpg","img/neutralC/CFD-WF-226-095-N.jpg","img/neutralC/CFD-AM-244-222-N.jpg","1","1","1","0","1","0","0.590130800032057","0.690488599939272","0.618156900047325","1","1","1","1","1","1","1","1","1"
"250008","img/neutralC/CFD-AM-244-222-N.jpg","img/neutralC/CFD-BF-254-201-N.jpg","img/neutralC/CFD-WM-221-091-N.jpg","1","1","1","0","0","0","0.618156900047325","0.590130800032057","0.441346499952488","1","1","1","1","1","1","1","1","1"
"250008","img/neutralC/CFD-WM-221-091-N.jpg","img/neutralC/CFD-AM-244-222-N.jpg","img/neutralC/CFD-WM-255-219-N.jpg","1","1","1","0","0","0","0.441346499952488","0.618156900047325","0.494341199984774","1","1","1","1","1","1","1","1","1"
"250008","img/neutralC/CFD-WM-255-219-N.jpg","img/neutralC/CFD-WM-221-091-N.jpg","img/neutralC/CFD-BM-200-046-N.jpg","1","1","1","0","0","0","0.494341199984774","0.441346499952488","0.545831899973564","1","1","1","1","1","1","1","1","1"
"250008","img/neutralC/CFD-BM-200-046-N.jpg","img/neutralC/CFD-WM-255-219-N.jpg","img/neutralC/CFD-WM-201-063-N.jpg","1","1","1","0","0","1","0.545831899973564","0.494341199984774","0.414882399956696","1","1","1","1","1","1","1","1","1"
"250008","img/neutralC/CFD-WM-201-063-N.jpg","img/neutralC/CFD-BM-200-046-N.jpg","img/neutralC/CFD-LF-215-157-N.jpg","1","1","1","1","0","0","0.414882399956696","0.545831899973564","0.495746100088581","1","1","1","1","1","1","1","1","1"
"250008","img/neutralC/CFD-LF-215-157-N.jpg","img/neutralC/CFD-WM-201-063-N.jpg","img/neutralC/CFD-IF-629-234-N.jpg","1","1","1","0","1","0","0.495746100088581","0.414882399956696","0.48648249998223","1","1","1","1","1","1","1","1","1"
"250008","img/neutralC/CFD-IF-629-234-N.jpg","img/neutralC/CFD-LF-215-157-N.jpg","img/neutralC/CFD-AF-232-078-N.jpg","1","1","1","0","0","1","0.48648249998223","0.495746100088581","0.402220300049521","1","1","1","1","1","1","1","1","1"
"250008","img/neutralC/CFD-AF-232-078-N.jpg","img/neutralC/CFD-IF-629-234-N.jpg","img/neutralC/CFD-MF-321-003-N.jpg","1","1","0","1","0","0","0.402220300049521","0.48648249998223","0.426525199902244","1","1","1","1","1","1","1","1","1"
"250008","img/neutralC/CFD-MF-321-003-N.jpg","img/neutralC/CFD-AF-232-078-N.jpg","img/neutralC/CFD-AF-221-147-N.jpg","0","1","1","0","1","0","0.426525199902244","0.402220300049521","0.49299040006008","1","1","1","1","1","1","1","1","1"
"250008","img/neutralC/CFD-AF-221-147-N.jpg","img/neutralC/CFD-MF-321-003-N.jpg","img/neutralC/CFD-IM-700-009-N.jpg","1","0","1","0","0","1","0.49299040006008","0.426525199902244","0.492509200004861","1","1","1","1","1","1","1","1","1"
"250008","img/neutralC/CFD-IM-700-009-N.jpg","img/neutralC/CFD-AF-221-147-N.jpg","img/neutralC/CFD-WF-027-003-N.jpg","1","1","1","1","0","1","0.492509200004861","0.49299040006008","0.41424419998657","1","1","1","1","1","1","1","1","1"
"250008","img/neutralC/CFD-WF-027-003-N.jpg","img/neutralC/CFD-IM-700-009-N.jpg","img/neutralC/CFD-BM-204-003-N.jpg","1","1","1","1","1","0","0.41424419998657","0.492509200004861","0.535486800014041","1","1","1","1","1","1","1","1","1"
"250008","img/neutralC/CFD-BM-204-003-N.jpg","img/neutralC/CFD-WF-027-003-N.jpg","img/neutralC/CFD-IM-719-221-N.jpg","1","1","1","0","1","0","0.535486800014041","0.41424419998657","0.533997200080194","1","1","1","1","1","1","1","1","1"
"250008","img/neutralC/CFD-IM-719-221-N.jpg","img/neutralC/CFD-BM-204-003-N.jpg","img/neutralC/CFD-WM-009-002-N.jpg","1","1","1","0","0","0","0.533997200080194","0.535486800014041","0.474364600027911","1","1","1","1","1","1","1","1","1"
"250008","img/neutralC/CFD-WM-009-002-N.jpg","img/neutralC/CFD-IM-719-221-N.jpg","img/neutralC/CFD-WF-018-017-N.jpg","1","1","1","0","0","1","0.474364600027911","0.533997200080194","0.472211300046183","1","1","1","1","1","1","1","1","1"
"250008","img/neutralC/CFD-WF-018-017-N.jpg","img/neutralC/CFD-WM-009-002-N.jpg","img/neutralC/CFD-WF-238-023-N.jpg","1","1","1","1","0","0","0.472211300046183","0.474364600027911","0.526445699972101","1","1","1","1","1","1","1","1","1"
"250008","img/neutralC/CFD-WF-238-023-N.jpg","img/neutralC/CFD-WF-018-017-N.jpg","img/neutralC/CFD-MF-318-022-N.jpg","1","1","1","0","1","1","0.526445699972101","0.472211300046183","0.384366699960083","1","1","1","1","1","1","1","1","1"
"250008","img/neutralC/CFD-MF-318-022-N.jpg","img/neutralC/CFD-WF-238-023-N.jpg","img/neutralC/CFD-MF-342-022-N.jpg","1","1","1","1","0","1","0.384366699960083","0.526445699972101","0.395528400084004","1","1","1","1","1","1","1","1","1"
"250008","img/neutralC/CFD-MF-342-022-N.jpg","img/neutralC/CFD-MF-318-022-N.jpg","img/neutralC/CFD-WM-013-001-N.jpg","1","1","1","1","1","1","0.395528400084004","0.384366699960083","0.44668549997732","1","1","1","1","1","1","1","1","1"
"250008","img/neutralC/CFD-WM-013-001-N.jpg","img/neutralC/CFD-MF-342-022-N.jpg","img/neutralC/CFD-WF-245-084-N.jpg","1","1","1","1","1","1","0.44668549997732","0.395528400084004","0.403089900035411","1","1","1","1","1","1","1","1","1"
"250008","img/neutralC/CFD-WF-245-084-N.jpg","img/neutralC/CFD-WM-013-001-N.jpg","img/neutralC/CFD-WF-023-003-N.jpg","1","1","1","1","1","1","0.403089900035411","0.44668549997732","0.492902199970558","1","1","1","1","1","1","1","1","1"
"250008","img/neutralC/CFD-WF-023-003-N.jpg","img/neutralC/CFD-WF-245-084-N.jpg","img/neutralC/CFD-BM-023-029-N.jpg","1","1","1","1","1","1","0.492902199970558","0.403089900035411","0.387684400076978","1","1","1","1","1","1","1","1","1"
"250008","img/neutralC/CFD-BM-023-029-N.jpg","img/neutralC/CFD-WF-023-003-N.jpg","img/neutralC/CFD-BF-218-207-N.jpg","1","1","1","1","1","1","0.387684400076978","0.492902199970558","0.54300519998651","1","1","1","1","1","1","1","1","1"
"250008","img/neutralC/CFD-BF-218-207-N.jpg","img/neutralC/CFD-BM-023-029-N.jpg","img/neutralC/CFD-IM-627-178-N.jpg","1","1","1","1","1","1","0.54300519998651","0.387684400076978","0.452780500054359","1","1","1","1","1","1","1","1","1"
"250008","img/neutralC/CFD-IM-627-178-N.jpg","img/neutralC/CFD-BF-218-207-N.jpg","img/neutralC/CFD-LF-211-003-N.jpg","1","1","0","1","1","0","0.452780500054359","0.54300519998651","0.360364599968307","1","1","1","1","1","1","1","1","1"
"250008","img/neutralC/CFD-LF-211-003-N.jpg","img/neutralC/CFD-IM-627-178-N.jpg","img/neutralC/CFD-LM-253-075-N.jpg","0","1","1","0","1","0","0.360364599968307","0.452780500054359","0.577314599999227","1","1","1","1","1","1","1","1","1"
"250008","img/neutralC/CFD-LM-253-075-N.jpg","img/neutralC/CFD-LF-211-003-N.jpg","img/neutralC/CFD-BF-018-039-N.jpg","1","0","1","0","0","1","0.577314599999227","0.360364599968307","0.410061300033703","1","1","1","1","1","1","1","1","1"
"250008","img/neutralC/CFD-BF-018-039-N.jpg","img/neutralC/CFD-LM-253-075-N.jpg","img/neutralC/CFD-WM-237-052-N.jpg","1","1","1","1","0","1","0.410061300033703","0.577314599999227","0.659375199931674","1","1","1","1","1","1","1","1","1"
"250008","img/neutralC/CFD-WM-237-052-N.jpg","img/neutralC/CFD-BF-018-039-N.jpg","img/neutralC/CFD-MM-321-021-N.jpg","1","1","1","1","1","0","0.659375199931674","0.410061300033703","0.52049879997503","1","1","1","1","1","1","1","1","1"
"250008","img/neutralC/CFD-MM-321-021-N.jpg","img/neutralC/CFD-WM-237-052-N.jpg",NA,"1","1",NA,"0","1",NA,"0.52049879997503","0.659375199931674",NA,"1","1",NA,"1","1",NA,"1","1",NA
"250008","img/neutralC/CFD-BM-241-235-N.jpg",NA,"img/neutralC/CFD-BF-006-017-N.jpg","0",NA,"1","0",NA,"0","0.82117210002616",NA,"0.698684499948286","1",NA,"1","1",NA,"1","1",NA,"1"
"250008","img/neutralC/CFD-BF-006-017-N.jpg","img/neutralC/CFD-BM-241-235-N.jpg","img/neutralC/CFD-BM-238-242-N.jpg","1","0","1","0","0","0","0.698684499948286","0.82117210002616","0.646253099897876","1","1","1","1","1","1","1","1","1"
"250008","img/neutralC/CFD-BM-238-242-N.jpg","img/neutralC/CFD-BF-006-017-N.jpg","img/neutralC/CFD-BF-214-308-N.jpg","1","1","1","0","0","1","0.646253099897876","0.698684499948286","0.365115899941884","1","1","1","1","1","1","1","1","1"
"250008","img/neutralC/CFD-BF-214-308-N.jpg","img/neutralC/CFD-BM-238-242-N.jpg","img/neutralC/CFD-MF-301-024-N.jpg","1","1","1","1","0","0","0.365115899941884","0.646253099897876","0.470944500062615","1","1","1","1","1","1","1","1","1"
"250008","img/neutralC/CFD-MF-301-024-N.jpg","img/neutralC/CFD-BF-214-308-N.jpg","img/neutralC/CFD-BF-011-002-N.jpg","1","1","0","0","1","1","0.470944500062615","0.365115899941884","0.511224500020035","1","1","1","1","1","1","1","1","1"
"250008","img/neutralC/CFD-BF-011-002-N.jpg","img/neutralC/CFD-MF-301-024-N.jpg","img/neutralC/CFD-IM-696-001-N.jpg","0","1","0","1","0","0","0.511224500020035","0.470944500062615","0.777561699971557","1","1","1","1","1","1","1","1","1"
"250008","img/neutralC/CFD-IM-696-001-N.jpg","img/neutralC/CFD-BF-011-002-N.jpg","img/neutralC/CFD-BF-247-179-N.jpg","0","0","1","0","1","0","0.777561699971557","0.511224500020035","0.53925530007109","1","1","1","1","1","1","1","1","1"
"250008","img/neutralC/CFD-BF-247-179-N.jpg","img/neutralC/CFD-IM-696-001-N.jpg","img/neutralC/CFD-WM-014-002-N.jpg","1","0","1","0","0","0","0.53925530007109","0.777561699971557","0.456409299978986","1","1","1","1","1","1","1","1","1"
"250008","img/neutralC/CFD-WM-014-002-N.jpg","img/neutralC/CFD-BF-247-179-N.jpg","img/neutralC/CFD-BF-002-001-N.jpg","1","1","0","0","0","0","0.456409299978986","0.53925530007109","0.441775699960999","1","1","1","1","1","1","1","1","2"
"250008","img/neutralC/CFD-BF-002-001-N.jpg","img/neutralC/CFD-WM-014-002-N.jpg","img/neutralC/CFD-IM-707-105-N.jpg","0","1","1","0","0","1","0.441775699960999","0.456409299978986","0.660108500043862","1","1","1","1","1","1","2","1","1"
"250008","img/neutralC/CFD-IM-707-105-N.jpg","img/neutralC/CFD-BF-002-001-N.jpg","img/neutralC/CFD-BF-027-002-N.jpg","1","0","1","1","0","1","0.660108500043862","0.441775699960999","0.431346399942413","1","1","1","1","1","1","1","2","1"
"250008","img/neutralC/CFD-BF-027-002-N.jpg","img/neutralC/CFD-IM-707-105-N.jpg","img/neutralC/CFD-IF-677-452-1-N.jpg","1","1","1","1","1","1","0.431346399942413","0.660108500043862","0.506862299982458","1","1","1","1","1","1","1","1","1"
"250008","img/neutralC/CFD-IF-677-452-1-N.jpg","img/neutralC/CFD-BF-027-002-N.jpg","img/neutralC/CFD-BF-207-004-N.jpg","1","1","1","1","1","1","0.506862299982458","0.431346399942413","0.504049199982546","1","1","1","1","1","1","1","1","1"
"250008","img/neutralC/CFD-BF-207-004-N.jpg","img/neutralC/CFD-IF-677-452-1-N.jpg","img/neutralC/CFD-BM-207-024-N.jpg","1","1","1","1","1","1","0.504049199982546","0.506862299982458","0.456331200082786","1","1","1","1","1","1","1","1","1"
"250008","img/neutralC/CFD-BM-207-024-N.jpg","img/neutralC/CFD-BF-207-004-N.jpg","img/neutralC/CFD-IF-742-103-N.jpg","1","1","1","1","1","1","0.456331200082786","0.504049199982546","0.404392399941571","1","1","1","1","1","1","1","1","1"
"250008","img/neutralC/CFD-IF-742-103-N.jpg","img/neutralC/CFD-BM-207-024-N.jpg","img/neutralC/CFD-WM-034-030-N.jpg","1","1","1","1","1","1","0.404392399941571","0.456331200082786","0.425102500012145","1","1","1","1","1","1","1","1","1"
"250008","img/neutralC/CFD-WM-034-030-N.jpg","img/neutralC/CFD-IF-742-103-N.jpg","img/neutralC/CFD-IM-721-341-N.jpg","1","1","1","1","1","1","0.425102500012145","0.404392399941571","0.441155899898149","1","1","1","1","1","1","1","1","1"
"250008","img/neutralC/CFD-IM-721-341-N.jpg","img/neutralC/CFD-WM-034-030-N.jpg","img/neutralC/CFD-IF-729-393-N.jpg","1","1","1","1","1","0","0.441155899898149","0.425102500012145","0.568697800044902","1","1","1","1","1","1","1","1","1"
"250008","img/neutralC/CFD-IF-729-393-N.jpg","img/neutralC/CFD-IM-721-341-N.jpg","img/neutralC/CFD-BF-036-027-N.jpg","1","1","1","0","1","0","0.568697800044902","0.441155899898149","0.511420299997553","1","1","1","1","1","1","1","1","1"
"250008","img/neutralC/CFD-BF-036-027-N.jpg","img/neutralC/CFD-IF-729-393-N.jpg","img/neutralC/CFD-IM-726-248-N.jpg","1","1","1","0","0","0","0.511420299997553","0.568697800044902","0.651894800015725","1","1","1","1","1","1","1","1","1"
"250008","img/neutralC/CFD-IM-726-248-N.jpg","img/neutralC/CFD-BF-036-027-N.jpg","img/neutralC/CFD-WF-208-068-N.jpg","1","1","1","0","0","1","0.651894800015725","0.511420299997553","0.483231500023976","1","1","1","1","1","1","1","1","1"
"250008","img/neutralC/CFD-WF-208-068-N.jpg","img/neutralC/CFD-IM-726-248-N.jpg","img/neutralC/CFD-LF-204-133-N.jpg","1","1","1","1","0","1","0.483231500023976","0.651894800015725","0.476925899973139","1","1","1","1","1","1","1","1","1"
"250008","img/neutralC/CFD-LF-204-133-N.jpg","img/neutralC/CFD-WF-208-068-N.jpg","img/neutralC/CFD-WF-029-002-N.jpg","1","1","0","1","1","0","0.476925899973139","0.483231500023976","0.41647539997939","1","1","1","1","1","1","1","1","1"
"250008","img/neutralC/CFD-WF-029-002-N.jpg","img/neutralC/CFD-LF-204-133-N.jpg","img/neutralC/CFD-AM-230-150-N.jpg","0","1","1","0","1","0","0.41647539997939","0.476925899973139","0.49281769990921","1","1","1","1","1","1","1","1","1"
"250008","img/neutralC/CFD-AM-230-150-N.jpg","img/neutralC/CFD-WF-029-002-N.jpg","img/neutralC/CFD-BF-236-177-N.jpg","1","0","1","0","0","0","0.49281769990921","0.41647539997939","0.531284500029869","1","1","1","1","1","1","1","1","1"
"250008","img/neutralC/CFD-BF-236-177-N.jpg","img/neutralC/CFD-AM-230-150-N.jpg","img/neutralC/CFD-WF-233-112-N.jpg","1","1","1","0","0","1","0.531284500029869","0.49281769990921","0.428747199941427","1","1","1","1","1","1","1","1","1"
"250008","img/neutralC/CFD-WF-233-112-N.jpg","img/neutralC/CFD-BF-236-177-N.jpg","img/neutralC/CFD-LM-213-061-N.jpg","1","1","1","1","0","0","0.428747199941427","0.531284500029869","0.592077199951746","1","1","1","1","1","1","1","1","1"
"250008","img/neutralC/CFD-LM-213-061-N.jpg","img/neutralC/CFD-WF-233-112-N.jpg","img/neutralC/CFD-BF-044-034-N.jpg","1","1","1","0","1","0","0.592077199951746","0.428747199941427","0.593120099976659","1","1","1","1","1","1","1","1","1"
"250008","img/neutralC/CFD-BF-044-034-N.jpg","img/neutralC/CFD-LM-213-061-N.jpg","img/neutralC/CFD-WF-234-086-N.jpg","1","1","1","0","0","1","0.593120099976659","0.592077199951746","0.789565799990669","1","1","1","1","1","1","1","1","1"
"250008","img/neutralC/CFD-WF-234-086-N.jpg","img/neutralC/CFD-BF-044-034-N.jpg","img/neutralC/CFD-WM-248-036-N.jpg","1","1","1","1","0","1","0.789565799990669","0.593120099976659","0.458083499921486","1","1","1","1","1","1","1","1","1"
"250008","img/neutralC/CFD-WM-248-036-N.jpg","img/neutralC/CFD-WF-234-086-N.jpg","img/neutralC/CFD-BM-036-003-N.jpg","1","1","1","1","1","1","0.458083499921486","0.789565799990669","0.535533500020392","1","1","1","1","1","1","1","1","1"
"250008","img/neutralC/CFD-BM-036-003-N.jpg","img/neutralC/CFD-WM-248-036-N.jpg",NA,"1","1",NA,"1","1",NA,"0.535533500020392","0.458083499921486",NA,"1","1",NA,"1","1",NA,"1","1",NA
