"participant_id","current_trial_face","pre_trial_face","post_trial_face","current_trial_accuracy","pre_trial_accuracy","post_trial_accuracy","current_trial_congruency","pre_trial_congruency","post_trial_congruency","current_trial_rt","pre_trial_rt","post_trial_rt","current_trial_responded","pre_trial_responded","post_trial_responded","current_trial_legitResponse","pre_trial_legitResponse","post_trial_legitResponse","current_trial_resp_nums","pre_trial_resp_nums","post_trial_resp_nums"
"250034","img/neutralC/CFD-WM-025-002-N.jpg",NA,"img/neutralC/CFD-WF-221-005-N.jpg","1",NA,"1","0",NA,"0","0.592969799996354",NA,"0.539558799937367","1",NA,"1","1",NA,"1","1",NA,"1"
"250034","img/neutralC/CFD-WF-221-005-N.jpg","img/neutralC/CFD-WM-025-002-N.jpg","img/neutralC/CFD-WF-243-148-N.jpg","1","1","1","0","0","0","0.539558799937367","0.592969799996354","0.656153400079347","1","1","1","1","1","1","1","1","1"
"250034","img/neutralC/CFD-WF-243-148-N.jpg","img/neutralC/CFD-WF-221-005-N.jpg","img/neutralC/CFD-AM-205-153-N.jpg","1","1","1","0","0","1","0.656153400079347","0.539558799937367","0.694999500061385","1","1","1","1","1","1","1","1","1"
"250034","img/neutralC/CFD-AM-205-153-N.jpg","img/neutralC/CFD-WF-243-148-N.jpg","img/neutralC/CFD-BM-020-001-N.jpg","1","1","1","1","0","0","0.694999500061385","0.656153400079347","0.729780100053176","1","1","1","1","1","1","1","1","1"
"250034","img/neutralC/CFD-BM-020-001-N.jpg","img/neutralC/CFD-AM-205-153-N.jpg","img/neutralC/CFD-AM-219-101-N.jpg","1","1","1","0","1","0","0.729780100053176","0.694999500061385","0.586768899927847","1","1","1","1","1","1","1","1","1"
"250034","img/neutralC/CFD-AM-219-101-N.jpg","img/neutralC/CFD-BM-020-001-N.jpg","img/neutralC/CFD-LF-238-154-N.jpg","1","1","1","0","0","1","0.586768899927847","0.729780100053176","0.620911200065166","1","1","1","1","1","1","1","1","1"
"250034","img/neutralC/CFD-LF-238-154-N.jpg","img/neutralC/CFD-AM-219-101-N.jpg","img/neutralC/CFD-WF-241-210-N.jpg","1","1","1","1","0","0","0.620911200065166","0.586768899927847","0.611836800002493","1","1","1","1","1","1","1","1","1"
"250034","img/neutralC/CFD-WF-241-210-N.jpg","img/neutralC/CFD-LF-238-154-N.jpg","img/neutralC/CFD-LF-222-147-N.jpg","1","1","1","0","1","0","0.611836800002493","0.620911200065166","0.533887300058268","1","1","1","1","1","1","1","1","1"
"250034","img/neutralC/CFD-LF-222-147-N.jpg","img/neutralC/CFD-WF-241-210-N.jpg","img/neutralC/CFD-IF-676-017-N.jpg","1","1","1","0","0","1","0.533887300058268","0.611836800002493","0.519991799956188","1","1","1","1","1","1","1","1","1"
"250034","img/neutralC/CFD-IF-676-017-N.jpg","img/neutralC/CFD-LF-222-147-N.jpg","img/neutralC/CFD-BF-244-231-N.jpg","1","1","1","1","0","1","0.519991799956188","0.533887300058268","0.492880500038154","1","1","1","1","1","1","1","1","1"
"250034","img/neutralC/CFD-BF-244-231-N.jpg","img/neutralC/CFD-IF-676-017-N.jpg","img/neutralC/CFD-LM-240-013-N.jpg","1","1","1","1","1","1","0.492880500038154","0.519991799956188","0.592557800002396","1","1","1","1","1","1","1","1","1"
"250034","img/neutralC/CFD-LM-240-013-N.jpg","img/neutralC/CFD-BF-244-231-N.jpg","img/neutralC/CFD-MF-328-020-N.jpg","1","1","1","1","1","0","0.592557800002396","0.492880500038154","0.498668899992481","1","1","1","1","1","1","1","1","1"
"250034","img/neutralC/CFD-MF-328-020-N.jpg","img/neutralC/CFD-LM-240-013-N.jpg","img/neutralC/CFD-BM-043-071-N.jpg","1","1","1","0","1","0","0.498668899992481","0.592557800002396","0.548766299965791","1","1","1","1","1","1","1","1","1"
"250034","img/neutralC/CFD-BM-043-071-N.jpg","img/neutralC/CFD-MF-328-020-N.jpg","img/neutralC/CFD-MM-306-010-N.jpg","1","1","1","0","0","0","0.548766299965791","0.498668899992481","0.558093500090763","1","1","1","1","1","1","1","1","1"
"250034","img/neutralC/CFD-MM-306-010-N.jpg","img/neutralC/CFD-BM-043-071-N.jpg","img/neutralC/CFD-WM-028-003-N.jpg","1","1","1","0","0","1","0.558093500090763","0.548766299965791","0.499212600057945","1","1","1","1","1","1","1","1","1"
"250034","img/neutralC/CFD-WM-028-003-N.jpg","img/neutralC/CFD-MM-306-010-N.jpg","img/neutralC/CFD-BF-012-001-N.jpg","1","1","1","1","0","0","0.499212600057945","0.558093500090763","0.55513490003068","1","1","1","1","1","1","1","1","1"
"250034","img/neutralC/CFD-BF-012-001-N.jpg","img/neutralC/CFD-WM-028-003-N.jpg","img/neutralC/CFD-WM-023-001-N.jpg","1","1","1","0","1","0","0.55513490003068","0.499212600057945","0.536386399995536","1","1","1","1","1","1","1","1","1"
"250034","img/neutralC/CFD-WM-023-001-N.jpg","img/neutralC/CFD-BF-012-001-N.jpg","img/neutralC/CFD-IM-689-263-N.jpg","1","1","1","0","0","1","0.536386399995536","0.55513490003068","0.510114400065504","1","1","1","1","1","1","1","1","1"
"250034","img/neutralC/CFD-IM-689-263-N.jpg","img/neutralC/CFD-WM-023-001-N.jpg","img/neutralC/CFD-AM-243-212-N.jpg","1","1","1","1","0","1","0.510114400065504","0.536386399995536","0.641830799984746","1","1","1","1","1","1","1","1","1"
"250034","img/neutralC/CFD-AM-243-212-N.jpg","img/neutralC/CFD-IM-689-263-N.jpg","img/neutralC/CFD-LF-212-066-N.jpg","1","1","1","1","1","1","0.641830799984746","0.510114400065504","0.561393299954943","1","1","1","1","1","1","1","1","1"
"250034","img/neutralC/CFD-LF-212-066-N.jpg","img/neutralC/CFD-AM-243-212-N.jpg","img/neutralC/CFD-WF-009-001-N.jpg","1","1","1","1","1","1","0.561393299954943","0.641830799984746","0.452220399980433","1","1","1","1","1","1","1","1","1"
"250034","img/neutralC/CFD-WF-009-001-N.jpg","img/neutralC/CFD-LF-212-066-N.jpg","img/neutralC/CFD-IM-697-015-N.jpg","1","1","1","1","1","1","0.452220399980433","0.561393299954943","0.508583699935116","1","1","1","1","1","1","1","1","1"
"250034","img/neutralC/CFD-IM-697-015-N.jpg","img/neutralC/CFD-WF-009-001-N.jpg","img/neutralC/CFD-IM-606-008-N.jpg","1","1","1","1","1","0","0.508583699935116","0.452220399980433","0.60315419989638","1","1","1","1","1","1","1","1","1"
"250034","img/neutralC/CFD-IM-606-008-N.jpg","img/neutralC/CFD-IM-697-015-N.jpg","img/neutralC/CFD-BM-227-191-N.jpg","1","1","1","0","1","1","0.60315419989638","0.508583699935116","0.469612199929543","1","1","1","1","1","1","1","1","1"
"250034","img/neutralC/CFD-BM-227-191-N.jpg","img/neutralC/CFD-IM-606-008-N.jpg","img/neutralC/CFD-BM-009-002-N.jpg","1","1","1","1","0","1","0.469612199929543","0.60315419989638","0.64493769989349","1","1","1","1","1","1","1","1","1"
"250034","img/neutralC/CFD-BM-009-002-N.jpg","img/neutralC/CFD-BM-227-191-N.jpg","img/neutralC/CFD-BM-030-003-N.jpg","1","1","1","1","1","0","0.64493769989349","0.469612199929543","0.714580199914053","1","1","1","1","1","1","1","1","1"
"250034","img/neutralC/CFD-BM-030-003-N.jpg","img/neutralC/CFD-BM-009-002-N.jpg","img/neutralC/CFD-AF-237-223-N.jpg","1","1","1","0","1","0","0.714580199914053","0.64493769989349","0.471180699998513","1","1","1","1","1","1","1","1","1"
"250034","img/neutralC/CFD-AF-237-223-N.jpg","img/neutralC/CFD-BM-030-003-N.jpg","img/neutralC/CFD-AM-249-163-N.jpg","1","1","1","0","0","1","0.471180699998513","0.714580199914053","0.477231200085953","1","1","1","1","1","1","1","1","1"
"250034","img/neutralC/CFD-AM-249-163-N.jpg","img/neutralC/CFD-AF-237-223-N.jpg","img/neutralC/CFD-WF-207-014-N.jpg","1","1","1","1","0","1","0.477231200085953","0.471180699998513","0.580421300022863","1","1","1","1","1","1","1","1","1"
"250034","img/neutralC/CFD-WF-207-014-N.jpg","img/neutralC/CFD-AM-249-163-N.jpg","img/neutralC/CFD-BM-021-021-N.jpg","1","1","1","1","1","1","0.580421300022863","0.477231200085953","0.494103700038977","1","1","1","1","1","1","1","1","1"
"250034","img/neutralC/CFD-BM-021-021-N.jpg","img/neutralC/CFD-WF-207-014-N.jpg","img/neutralC/CFD-IM-615-167-N.jpg","1","1","1","1","1","0","0.494103700038977","0.580421300022863","1.16728349996265","1","1","1","1","1","1","1","1","1"
"250034","img/neutralC/CFD-IM-615-167-N.jpg","img/neutralC/CFD-BM-021-021-N.jpg",NA,"1","1",NA,"0","1",NA,"1.16728349996265","0.494103700038977",NA,"1","1",NA,"1","1",NA,"1","1",NA
"250034","img/neutralC/CFD-MF-313-002-N.jpg",NA,"img/neutralC/CFD-IM-657-308-N.jpg","1",NA,"1","0",NA,"0","0.521287700044923",NA,"0.547892700065859","1",NA,"1","1",NA,"1","1",NA,"1"
"250034","img/neutralC/CFD-IM-657-308-N.jpg","img/neutralC/CFD-MF-313-002-N.jpg","img/neutralC/CFD-IM-617-174-N.jpg","1","1","1","0","0","0","0.547892700065859","0.521287700044923","0.543768599978648","1","1","1","1","1","1","1","1","1"
"250034","img/neutralC/CFD-IM-617-174-N.jpg","img/neutralC/CFD-IM-657-308-N.jpg","img/neutralC/CFD-LF-245-166-N.jpg","1","1","1","0","0","1","0.543768599978648","0.547892700065859","0.434693499933928","1","1","1","1","1","1","1","1","1"
"250034","img/neutralC/CFD-LF-245-166-N.jpg","img/neutralC/CFD-IM-617-174-N.jpg","img/neutralC/CFD-IF-620-218-N.jpg","1","1","1","1","0","0","0.434693499933928","0.543768599978648","0.424931699992158","1","1","1","1","1","1","1","1","1"
"250034","img/neutralC/CFD-IF-620-218-N.jpg","img/neutralC/CFD-LF-245-166-N.jpg","img/neutralC/CFD-WM-258-125-N.jpg","1","1","1","0","1","0","0.424931699992158","0.434693499933928","0.408421900006943","1","1","1","1","1","1","1","1","1"
"250034","img/neutralC/CFD-WM-258-125-N.jpg","img/neutralC/CFD-IF-620-218-N.jpg","img/neutralC/CFD-BM-231-155-N.jpg","1","1","1","0","0","1","0.408421900006943","0.424931699992158","0.472006299998611","1","1","1","1","1","1","1","1","1"
"250034","img/neutralC/CFD-BM-231-155-N.jpg","img/neutralC/CFD-WM-258-125-N.jpg","img/neutralC/CFD-IM-653-008-N.jpg","1","1","1","1","0","0","0.472006299998611","0.408421900006943","0.554778899997473","1","1","1","1","1","1","1","1","1"
"250034","img/neutralC/CFD-IM-653-008-N.jpg","img/neutralC/CFD-BM-231-155-N.jpg","img/neutralC/CFD-IM-727-195-N.jpg","1","1","1","0","1","1","0.554778899997473","0.472006299998611","0.485041700070724","1","1","1","1","1","1","1","1","1"
"250034","img/neutralC/CFD-IM-727-195-N.jpg","img/neutralC/CFD-IM-653-008-N.jpg","img/neutralC/CFD-LF-247-051-N.jpg","1","1","1","1","0","1","0.485041700070724","0.554778899997473","0.416892599896528","1","1","1","1","1","1","1","1","1"
"250034","img/neutralC/CFD-LF-247-051-N.jpg","img/neutralC/CFD-IM-727-195-N.jpg","img/neutralC/CFD-WM-242-011-N.jpg","1","1","1","1","1","0","0.416892599896528","0.485041700070724","0.483619700069539","1","1","1","1","1","1","1","1","1"
"250034","img/neutralC/CFD-WM-242-011-N.jpg","img/neutralC/CFD-LF-247-051-N.jpg","img/neutralC/CFD-IM-638-250-1-N.jpg","1","1","1","0","1","1","0.483619700069539","0.416892599896528","0.759110799990594","1","1","1","1","1","1","1","1","1"
"250034","img/neutralC/CFD-IM-638-250-1-N.jpg","img/neutralC/CFD-WM-242-011-N.jpg","img/neutralC/CFD-BM-026-002-N.jpg","1","1","1","1","0","0","0.759110799990594","0.483619700069539","0.438597399974242","1","1","1","1","1","1","1","1","1"
"250034","img/neutralC/CFD-BM-026-002-N.jpg","img/neutralC/CFD-IM-638-250-1-N.jpg","img/neutralC/CFD-BM-005-003-N.jpg","1","1","1","0","1","1","0.438597399974242","0.759110799990594","0.470253999927081","1","1","1","1","1","1","1","1","1"
"250034","img/neutralC/CFD-BM-005-003-N.jpg","img/neutralC/CFD-BM-026-002-N.jpg","img/neutralC/CFD-LM-233-171-N.jpg","1","1","1","1","0","0","0.470253999927081","0.438597399974242","0.461695200065151","1","1","1","1","1","1","1","1","1"
"250034","img/neutralC/CFD-LM-233-171-N.jpg","img/neutralC/CFD-BM-005-003-N.jpg","img/neutralC/CFD-IM-686-097-N.jpg","1","1","1","0","1","0","0.461695200065151","0.470253999927081","0.467077300068922","1","1","1","1","1","1","1","1","1"
"250034","img/neutralC/CFD-IM-686-097-N.jpg","img/neutralC/CFD-LM-233-171-N.jpg","img/neutralC/CFD-AF-206-079-N.jpg","1","1","1","0","0","1","0.467077300068922","0.461695200065151","0.41314040008001","1","1","1","1","1","1","1","1","1"
"250034","img/neutralC/CFD-AF-206-079-N.jpg","img/neutralC/CFD-IM-686-097-N.jpg","img/neutralC/CFD-BF-033-028-N.jpg","1","1","1","1","0","0","0.41314040008001","0.467077300068922","0.452886200044304","1","1","1","1","1","1","1","1","1"
"250034","img/neutralC/CFD-BF-033-028-N.jpg","img/neutralC/CFD-AF-206-079-N.jpg","img/neutralC/CFD-AF-241-141-N.jpg","1","1","1","0","1","1","0.452886200044304","0.41314040008001","0.482499300036579","1","1","1","1","1","1","1","1","1"
"250034","img/neutralC/CFD-AF-241-141-N.jpg","img/neutralC/CFD-BF-033-028-N.jpg","img/neutralC/CFD-WF-209-052-N.jpg","1","1","1","1","0","1","0.482499300036579","0.452886200044304","0.574324999935925","1","1","1","1","1","1","1","1","1"
"250034","img/neutralC/CFD-WF-209-052-N.jpg","img/neutralC/CFD-AF-241-141-N.jpg","img/neutralC/CFD-BF-238-190-N.jpg","1","1","1","1","1","1","0.574324999935925","0.482499300036579","0.452813800075091","1","1","1","1","1","1","1","1","1"
"250034","img/neutralC/CFD-BF-238-190-N.jpg","img/neutralC/CFD-WF-209-052-N.jpg","img/neutralC/CFD-BF-010-001-N.jpg","1","1","1","1","1","1","0.452813800075091","0.574324999935925","0.432458599912934","1","1","1","1","1","1","1","1","1"
"250034","img/neutralC/CFD-BF-010-001-N.jpg","img/neutralC/CFD-BF-238-190-N.jpg","img/neutralC/CFD-AF-202-122-N.jpg","1","1","1","1","1","1","0.432458599912934","0.452813800075091","0.414791199960746","1","1","1","1","1","1","1","1","1"
"250034","img/neutralC/CFD-AF-202-122-N.jpg","img/neutralC/CFD-BF-010-001-N.jpg","img/neutralC/CFD-LM-219-295-N.jpg","1","1","1","1","1","1","0.414791199960746","0.432458599912934","0.498965100036003","1","1","1","1","1","1","1","1","1"
"250034","img/neutralC/CFD-LM-219-295-N.jpg","img/neutralC/CFD-AF-202-122-N.jpg","img/neutralC/CFD-WM-227-099-N.jpg","1","1","1","1","1","1","0.498965100036003","0.414791199960746","0.540297400089912","1","1","1","1","1","1","1","1","1"
"250034","img/neutralC/CFD-WM-227-099-N.jpg","img/neutralC/CFD-LM-219-295-N.jpg","img/neutralC/CFD-BM-018-001-N.jpg","1","1","1","1","1","1","0.540297400089912","0.498965100036003","0.469251199974678","1","1","1","1","1","1","1","1","1"
"250034","img/neutralC/CFD-BM-018-001-N.jpg","img/neutralC/CFD-WM-227-099-N.jpg","img/neutralC/CFD-LF-242-121-N.jpg","1","1","1","1","1","0","0.469251199974678","0.540297400089912","0.532419200055301","1","1","1","1","1","1","1","1","1"
"250034","img/neutralC/CFD-LF-242-121-N.jpg","img/neutralC/CFD-BM-018-001-N.jpg","img/neutralC/CFD-LM-226-175-N.jpg","1","1","1","0","1","0","0.532419200055301","0.469251199974678","0.491790100000799","1","1","1","1","1","1","1","1","1"
"250034","img/neutralC/CFD-LM-226-175-N.jpg","img/neutralC/CFD-LF-242-121-N.jpg","img/neutralC/CFD-LF-250-169-N.jpg","1","1","1","0","0","1","0.491790100000799","0.532419200055301","0.618979800026864","1","1","1","1","1","1","1","1","1"
"250034","img/neutralC/CFD-LF-250-169-N.jpg","img/neutralC/CFD-LM-226-175-N.jpg","img/neutralC/CFD-IF-665-015-N.jpg","1","1","1","1","0","0","0.618979800026864","0.491790100000799","0.512100900057703","1","1","1","1","1","1","1","1","1"
"250034","img/neutralC/CFD-IF-665-015-N.jpg","img/neutralC/CFD-LF-250-169-N.jpg","img/neutralC/CFD-WM-017-002-N.jpg","1","1","1","0","1","0","0.512100900057703","0.618979800026864","0.416072699939832","1","1","1","1","1","1","1","1","1"
"250034","img/neutralC/CFD-WM-017-002-N.jpg","img/neutralC/CFD-IF-665-015-N.jpg","img/neutralC/CFD-BM-212-117-N.jpg","1","1","1","0","0","0","0.416072699939832","0.512100900057703","0.45856229995843","1","1","1","1","1","1","1","1","1"
"250034","img/neutralC/CFD-BM-212-117-N.jpg","img/neutralC/CFD-WM-017-002-N.jpg",NA,"1","1",NA,"0","0",NA,"0.45856229995843","0.416072699939832",NA,"1","1",NA,"1","1",NA,"1","1",NA
"250034","img/neutralC/CFD-BM-039-029-N.jpg",NA,"img/neutralC/CFD-WF-008-002-N.jpg","1",NA,"1","1",NA,"1","0.589802400092594",NA,"0.45532439998351","1",NA,"1","1",NA,"1","1",NA,"1"
"250034","img/neutralC/CFD-WF-008-002-N.jpg","img/neutralC/CFD-BM-039-029-N.jpg","img/neutralC/CFD-AF-215-70-N.jpg","1","1","1","1","1","0","0.45532439998351","0.589802400092594","0.367015199968591","1","1","1","1","1","1","1","1","1"
"250034","img/neutralC/CFD-AF-215-70-N.jpg","img/neutralC/CFD-WF-008-002-N.jpg","img/neutralC/CFD-IM-685-004-N.jpg","1","1","1","0","1","1","0.367015199968591","0.45532439998351","0.440012700040825","1","1","1","1","1","1","1","1","1"
"250034","img/neutralC/CFD-IM-685-004-N.jpg","img/neutralC/CFD-AF-215-70-N.jpg","img/neutralC/CFD-BF-051-035-N.jpg","1","1","1","1","0","0","0.440012700040825","0.367015199968591","0.453088499954902","1","1","1","1","1","1","1","1","1"
"250034","img/neutralC/CFD-BF-051-035-N.jpg","img/neutralC/CFD-IM-685-004-N.jpg","img/neutralC/CFD-WF-217-085-N.jpg","1","1","1","0","1","1","0.453088499954902","0.440012700040825","0.370395299978554","1","1","1","1","1","1","1","1","1"
"250034","img/neutralC/CFD-WF-217-085-N.jpg","img/neutralC/CFD-BF-051-035-N.jpg","img/neutralC/CFD-WF-012-002-N.jpg","1","1","1","1","0","1","0.370395299978554","0.453088499954902","0.381440500030294","1","1","1","1","1","1","1","1","1"
"250034","img/neutralC/CFD-WF-012-002-N.jpg","img/neutralC/CFD-WF-217-085-N.jpg","img/neutralC/CFD-IM-604-014-N.jpg","1","1","0","1","1","0","0.381440500030294","0.370395299978554","0.367719300091267","1","1","1","1","1","1","1","1","1"
"250034","img/neutralC/CFD-IM-604-014-N.jpg","img/neutralC/CFD-WF-012-002-N.jpg","img/neutralC/CFD-BF-043-003-N.jpg","0","1","1","0","1","0","0.367719300091267","0.381440500030294","0.557147199986503","1","1","1","1","1","1","1","1","1"
"250034","img/neutralC/CFD-BF-043-003-N.jpg","img/neutralC/CFD-IM-604-014-N.jpg","img/neutralC/CFD-IM-675-015-N.jpg","1","0","1","0","0","1","0.557147199986503","0.367719300091267","0.4252655999735","1","1","1","1","1","1","1","1","1"
"250034","img/neutralC/CFD-IM-675-015-N.jpg","img/neutralC/CFD-BF-043-003-N.jpg","img/neutralC/CFD-MF-300-002-N.jpg","1","1","1","1","0","0","0.4252655999735","0.557147199986503","0.504999600001611","1","1","1","1","1","1","1","1","1"
"250034","img/neutralC/CFD-MF-300-002-N.jpg","img/neutralC/CFD-IM-675-015-N.jpg","img/neutralC/CFD-WF-248-129-N.jpg","1","1","1","0","1","0","0.504999600001611","0.4252655999735","0.542471799999475","1","1","1","1","1","1","1","1","1"
"250034","img/neutralC/CFD-WF-248-129-N.jpg","img/neutralC/CFD-MF-300-002-N.jpg","img/neutralC/CFD-LF-201-035-N.jpg","1","1","1","0","0","1","0.542471799999475","0.504999600001611","0.471955899964087","1","1","1","1","1","1","1","1","1"
"250034","img/neutralC/CFD-LF-201-035-N.jpg","img/neutralC/CFD-WF-248-129-N.jpg","img/neutralC/CFD-LF-226-174-N.jpg","1","1","0","1","0","0","0.471955899964087","0.542471799999475","0.469726899988018","1","1","1","1","1","1","1","1","1"
"250034","img/neutralC/CFD-LF-226-174-N.jpg","img/neutralC/CFD-LF-201-035-N.jpg","img/neutralC/CFD-IM-709-103-N.jpg","0","1","1","0","1","0","0.469726899988018","0.471955899964087","0.569769299938343","1","1","1","1","1","1","1","1","1"
"250034","img/neutralC/CFD-IM-709-103-N.jpg","img/neutralC/CFD-LF-226-174-N.jpg","img/neutralC/CFD-AM-236-090-N.jpg","1","0","1","0","0","1","0.569769299938343","0.469726899988018","0.412401799927466","1","1","1","1","1","1","1","1","1"
"250034","img/neutralC/CFD-AM-236-090-N.jpg","img/neutralC/CFD-IM-709-103-N.jpg","img/neutralC/CFD-AF-229-160-N.jpg","1","1","1","1","0","0","0.412401799927466","0.569769299938343","0.462360700010322","1","1","1","1","1","1","1","1","1"
"250034","img/neutralC/CFD-AF-229-160-N.jpg","img/neutralC/CFD-AM-236-090-N.jpg","img/neutralC/CFD-IM-637-007-N.jpg","1","1","1","0","1","0","0.462360700010322","0.412401799927466","0.510293099912815","1","1","1","1","1","1","1","1","1"
"250034","img/neutralC/CFD-IM-637-007-N.jpg","img/neutralC/CFD-AF-229-160-N.jpg","img/neutralC/CFD-IF-619-197-N.jpg","1","1","1","0","0","0","0.510293099912815","0.462360700010322","0.539103099959902","1","1","1","1","1","1","1","1","1"
"250034","img/neutralC/CFD-IF-619-197-N.jpg","img/neutralC/CFD-IM-637-007-N.jpg","img/neutralC/CFD-MF-327-002-N.jpg","1","1","1","0","0","0","0.539103099959902","0.510293099912815","0.608673200011253","1","1","1","1","1","1","1","1","1"
"250034","img/neutralC/CFD-MF-327-002-N.jpg","img/neutralC/CFD-IF-619-197-N.jpg","img/neutralC/CFD-MF-340-026-N.jpg","1","1","1","0","0","1","0.608673200011253","0.539103099959902","0.755418900051154","1","1","1","1","1","1","1","1","1"
"250034","img/neutralC/CFD-MF-340-026-N.jpg","img/neutralC/CFD-MF-327-002-N.jpg","img/neutralC/CFD-MM-304-002-N.jpg","1","1","1","1","0","1","0.755418900051154","0.608673200011253","0.579382300027646","1","1","1","1","1","1","1","1","1"
"250034","img/neutralC/CFD-MM-304-002-N.jpg","img/neutralC/CFD-MF-340-026-N.jpg","img/neutralC/CFD-LM-217-162-N.jpg","1","1","1","1","1","0","0.579382300027646","0.755418900051154","0.553153999964707","1","1","1","1","1","1","1","1","1"
"250034","img/neutralC/CFD-LM-217-162-N.jpg","img/neutralC/CFD-MM-304-002-N.jpg","img/neutralC/CFD-MF-329-001-N.jpg","1","1","1","0","1","0","0.553153999964707","0.579382300027646","0.474819600000046","1","1","1","1","1","1","1","1","1"
"250034","img/neutralC/CFD-MF-329-001-N.jpg","img/neutralC/CFD-LM-217-162-N.jpg","img/neutralC/CFD-WM-024-015-N.jpg","1","1","1","0","0","1","0.474819600000046","0.553153999964707","0.46805350005161","1","1","1","1","1","1","1","1","1"
"250034","img/neutralC/CFD-WM-024-015-N.jpg","img/neutralC/CFD-MF-329-001-N.jpg","img/neutralC/CFD-WF-212-050-N.jpg","1","1","1","1","0","0","0.46805350005161","0.474819600000046","0.542096099932678","1","1","1","1","1","1","1","1","1"
"250034","img/neutralC/CFD-WF-212-050-N.jpg","img/neutralC/CFD-WM-024-015-N.jpg","img/neutralC/CFD-WM-213-076-N.jpg","1","1","1","0","1","1","0.542096099932678","0.46805350005161","0.539444800000638","1","1","1","1","1","1","1","1","1"
"250034","img/neutralC/CFD-WM-213-076-N.jpg","img/neutralC/CFD-WF-212-050-N.jpg","img/neutralC/CFD-BF-224-002-N.jpg","1","1","1","1","0","1","0.539444800000638","0.542096099932678","0.443125999998301","1","1","1","1","1","1","1","1","1"
"250034","img/neutralC/CFD-BF-224-002-N.jpg","img/neutralC/CFD-WM-213-076-N.jpg","img/neutralC/CFD-AF-254-167-N.jpg","1","1","1","1","1","1","0.443125999998301","0.539444800000638","0.465417700004764","1","1","1","1","1","1","1","1","1"
"250034","img/neutralC/CFD-AF-254-167-N.jpg","img/neutralC/CFD-BF-224-002-N.jpg","img/neutralC/CFD-IF-608-390-N.jpg","1","1","1","1","1","1","0.465417700004764","0.443125999998301","0.533420299994759","1","1","1","1","1","1","1","1","1"
"250034","img/neutralC/CFD-IF-608-390-N.jpg","img/neutralC/CFD-AF-254-167-N.jpg","img/neutralC/CFD-WM-232-070-N.jpg","1","1","1","1","1","0","0.533420299994759","0.465417700004764","0.624521900084801","1","1","1","1","1","1","1","1","1"
"250034","img/neutralC/CFD-WM-232-070-N.jpg","img/neutralC/CFD-IF-608-390-N.jpg","img/neutralC/CFD-BM-243-218-N.jpg","1","1","1","0","1","1","0.624521900084801","0.533420299994759","0.544378200080246","1","1","1","1","1","1","1","1","1"
"250034","img/neutralC/CFD-BM-243-218-N.jpg","img/neutralC/CFD-WM-232-070-N.jpg",NA,"1","1",NA,"1","0",NA,"0.544378200080246","0.624521900084801",NA,"1","1",NA,"1","1",NA,"1","1",NA
"250034","img/neutralC/CFD-WF-250-167-N.jpg",NA,"img/neutralC/CFD-IF-634-382-N.jpg","1",NA,"1","1",NA,"1","0.528879099991173",NA,"0.539988299948163","1",NA,"1","1",NA,"1","1",NA,"1"
"250034","img/neutralC/CFD-IF-634-382-N.jpg","img/neutralC/CFD-WF-250-167-N.jpg","img/neutralC/CFD-IM-684-008-N.jpg","1","1","1","1","1","1","0.539988299948163","0.528879099991173","0.419760099961422","1","1","1","1","1","1","1","1","1"
"250034","img/neutralC/CFD-IM-684-008-N.jpg","img/neutralC/CFD-IF-634-382-N.jpg","img/neutralC/CFD-WF-224-099-N.jpg","1","1","1","1","1","0","0.419760099961422","0.539988299948163","0.467200999963097","1","1","1","1","1","1","1","1","1"
"250034","img/neutralC/CFD-WF-224-099-N.jpg","img/neutralC/CFD-IM-684-008-N.jpg","img/neutralC/CFD-AM-212-050-N.jpg","1","1","1","0","1","1","0.467200999963097","0.419760099961422","0.443864900036715","1","1","1","1","1","1","1","1","1"
"250034","img/neutralC/CFD-AM-212-050-N.jpg","img/neutralC/CFD-WF-224-099-N.jpg","img/neutralC/CFD-LF-214-090-N.jpg","1","1","1","1","0","0","0.443864900036715","0.467200999963097","0.484608300030231","1","1","1","1","1","1","1","1","1"
"250034","img/neutralC/CFD-LF-214-090-N.jpg","img/neutralC/CFD-AM-212-050-N.jpg","img/neutralC/CFD-LF-230-203-N.jpg","1","1","1","0","1","0","0.484608300030231","0.443864900036715","0.477150200051256","1","1","1","1","1","1","1","1","1"
"250034","img/neutralC/CFD-LF-230-203-N.jpg","img/neutralC/CFD-LF-214-090-N.jpg","img/neutralC/CFD-BF-039-031-N.jpg","1","1","1","0","0","1","0.477150200051256","0.484608300030231","0.491442200029269","1","1","1","1","1","1","1","1","1"
"250034","img/neutralC/CFD-BF-039-031-N.jpg","img/neutralC/CFD-LF-230-203-N.jpg","img/neutralC/CFD-LF-203-066-N.jpg","1","1","1","1","0","0","0.491442200029269","0.477150200051256","0.504914299934171","1","1","1","1","1","1","1","1","1"
"250034","img/neutralC/CFD-LF-203-066-N.jpg","img/neutralC/CFD-BF-039-031-N.jpg","img/neutralC/CFD-WM-041-021-N.jpg","1","1","1","0","1","0","0.504914299934171","0.491442200029269","0.427281499956734","1","1","1","1","1","1","1","1","1"
"250034","img/neutralC/CFD-WM-041-021-N.jpg","img/neutralC/CFD-LF-203-066-N.jpg","img/neutralC/CFD-BF-029-031-N.jpg","1","1","1","0","0","1","0.427281499956734","0.504914299934171","0.472385299974121","1","1","1","1","1","1","1","1","1"
"250034","img/neutralC/CFD-BF-029-031-N.jpg","img/neutralC/CFD-WM-041-021-N.jpg","img/neutralC/CFD-AM-201-076-N.jpg","1","1","0","1","0","1","0.472385299974121","0.427281499956734",NA,"1","1","0","1","1","0","1","1","0"
"250034","img/neutralC/CFD-AM-201-076-N.jpg","img/neutralC/CFD-BF-029-031-N.jpg","img/neutralC/CFD-MF-337-026-N.jpg","0","1","1","1","1","1",NA,"0.472385299974121","0.417107800021768","0","1","1","0","1","1","0","1","1"
"250034","img/neutralC/CFD-MF-337-026-N.jpg","img/neutralC/CFD-AM-201-076-N.jpg","img/neutralC/CFD-WM-011-002-N.jpg","1","0","1","1","1","0","0.417107800021768",NA,"0.484486900037155","1","0","1","1","0","1","1","0","1"
"250034","img/neutralC/CFD-WM-011-002-N.jpg","img/neutralC/CFD-MF-337-026-N.jpg","img/neutralC/CFD-LF-205-100-N.jpg","1","1","1","0","1","1","0.484486900037155","0.417107800021768","0.48641889996361","1","1","1","1","1","1","1","1","1"
"250034","img/neutralC/CFD-LF-205-100-N.jpg","img/neutralC/CFD-WM-011-002-N.jpg","img/neutralC/CFD-BF-205-141-N.jpg","1","1","1","1","0","0","0.48641889996361","0.484486900037155","0.486668500001542","1","1","1","1","1","1","1","1","1"
"250034","img/neutralC/CFD-BF-205-141-N.jpg","img/neutralC/CFD-LF-205-100-N.jpg","img/neutralC/CFD-AF-231-357-N.jpg","1","1","1","0","1","1","0.486668500001542","0.48641889996361","0.421329900040291","1","1","1","1","1","1","1","1","1"
"250034","img/neutralC/CFD-AF-231-357-N.jpg","img/neutralC/CFD-BF-205-141-N.jpg","img/neutralC/CFD-LM-215-247-N.jpg","1","1","1","1","0","0","0.421329900040291","0.486668500001542","0.457354300073348","1","1","1","1","1","1","1","1","1"
"250034","img/neutralC/CFD-LM-215-247-N.jpg","img/neutralC/CFD-AF-231-357-N.jpg","img/neutralC/CFD-LF-224-176-N.jpg","1","1","1","0","1","0","0.457354300073348","0.421329900040291","0.521831799997017","1","1","1","1","1","1","1","1","1"
"250034","img/neutralC/CFD-LF-224-176-N.jpg","img/neutralC/CFD-LM-215-247-N.jpg","img/neutralC/CFD-IM-651-308-N.jpg","1","1","1","0","0","0","0.521831799997017","0.457354300073348","0.492327900021337","1","1","1","1","1","1","1","1","1"
"250034","img/neutralC/CFD-IM-651-308-N.jpg","img/neutralC/CFD-LF-224-176-N.jpg","img/neutralC/CFD-BM-239-136-N.jpg","1","1","1","0","0","1","0.492327900021337","0.521831799997017","0.445986100006849","1","1","1","1","1","1","1","1","1"
"250034","img/neutralC/CFD-BM-239-136-N.jpg","img/neutralC/CFD-IM-651-308-N.jpg","img/neutralC/CFD-BM-041-035-N.jpg","1","1","1","1","0","0","0.445986100006849","0.492327900021337","0.605335600092076","1","1","1","1","1","1","1","1","1"
"250034","img/neutralC/CFD-BM-041-035-N.jpg","img/neutralC/CFD-BM-239-136-N.jpg","img/neutralC/CFD-WF-213-031-N.jpg","1","1","1","0","1","1","0.605335600092076","0.445986100006849","0.516271700034849","1","1","1","1","1","1","1","1","1"
"250034","img/neutralC/CFD-WF-213-031-N.jpg","img/neutralC/CFD-BM-041-035-N.jpg","img/neutralC/CFD-MM-316-156-N.jpg","1","1","1","1","0","1","0.516271700034849","0.605335600092076","0.439179199980572","1","1","1","1","1","1","1","1","1"
"250034","img/neutralC/CFD-MM-316-156-N.jpg","img/neutralC/CFD-WF-213-031-N.jpg","img/neutralC/CFD-IF-710-016-N.jpg","1","1","1","1","1","0","0.439179199980572","0.516271700034849","0.547248799935915","1","1","1","1","1","1","1","1","1"
"250034","img/neutralC/CFD-IF-710-016-N.jpg","img/neutralC/CFD-MM-316-156-N.jpg","img/neutralC/CFD-BF-253-202-N.jpg","1","1","1","0","1","0","0.547248799935915","0.439179199980572","0.543268699897453","1","1","1","1","1","1","1","1","1"
"250034","img/neutralC/CFD-BF-253-202-N.jpg","img/neutralC/CFD-IF-710-016-N.jpg","img/neutralC/CFD-WM-021-001-N.jpg","1","1","1","0","0","1","0.543268699897453","0.547248799935915","0.49403900001198","1","1","1","1","1","1","1","1","1"
"250034","img/neutralC/CFD-WM-021-001-N.jpg","img/neutralC/CFD-BF-253-202-N.jpg","img/neutralC/CFD-LM-218-183-N.jpg","1","1","1","1","0","1","0.49403900001198","0.543268699897453","0.467693499987945","1","1","1","1","1","1","1","1","1"
"250034","img/neutralC/CFD-LM-218-183-N.jpg","img/neutralC/CFD-WM-021-001-N.jpg","img/neutralC/CFD-BM-019-002-N.jpg","1","1","1","1","1","0","0.467693499987945","0.49403900001198","0.520228500012308","1","1","1","1","1","1","1","1","1"
"250034","img/neutralC/CFD-BM-019-002-N.jpg","img/neutralC/CFD-LM-218-183-N.jpg","img/neutralC/CFD-BF-213-188-N.jpg","1","1","1","0","1","1","0.520228500012308","0.467693499987945","0.463413699995726","1","1","1","1","1","1","1","1","1"
"250034","img/neutralC/CFD-BF-213-188-N.jpg","img/neutralC/CFD-BM-019-002-N.jpg","img/neutralC/CFD-IF-693-172-N.jpg","1","1","1","1","0","0","0.463413699995726","0.520228500012308","0.518180800019763","1","1","1","1","1","1","1","1","1"
"250034","img/neutralC/CFD-IF-693-172-N.jpg","img/neutralC/CFD-BF-213-188-N.jpg","img/neutralC/CFD-BM-033-003-N.jpg","1","1","1","0","1","0","0.518180800019763","0.463413699995726","0.477180299931206","1","1","1","1","1","1","1","1","1"
"250034","img/neutralC/CFD-BM-033-003-N.jpg","img/neutralC/CFD-IF-693-172-N.jpg",NA,"1","1",NA,"0","0",NA,"0.477180299931206","0.518180800019763",NA,"1","1",NA,"1","1",NA,"1","1",NA
"250034","img/neutralC/CFD-WM-248-036-N.jpg",NA,"img/neutralC/CFD-WF-234-086-N.jpg","1",NA,"1","1",NA,"1","0.74344370001927",NA,"0.441537700011395","1",NA,"1","1",NA,"1","1",NA,"1"
"250034","img/neutralC/CFD-WF-234-086-N.jpg","img/neutralC/CFD-WM-248-036-N.jpg","img/neutralC/CFD-LM-213-061-N.jpg","1","1","1","1","1","0","0.441537700011395","0.74344370001927","0.522011299966834","1","1","1","1","1","1","1","1","1"
"250034","img/neutralC/CFD-LM-213-061-N.jpg","img/neutralC/CFD-WF-234-086-N.jpg","img/neutralC/CFD-BF-207-004-N.jpg","1","1","1","0","1","1","0.522011299966834","0.441537700011395","0.442862599971704","1","1","1","1","1","1","1","1","1"
"250034","img/neutralC/CFD-BF-207-004-N.jpg","img/neutralC/CFD-LM-213-061-N.jpg","img/neutralC/CFD-BF-044-034-N.jpg","1","1","1","1","0","0","0.442862599971704","0.522011299966834","0.519338299985975","1","1","1","1","1","1","1","1","1"
"250034","img/neutralC/CFD-BF-044-034-N.jpg","img/neutralC/CFD-BF-207-004-N.jpg","img/neutralC/CFD-IM-707-105-N.jpg","1","1","1","0","1","1","0.519338299985975","0.442862599971704","0.454685000004247","1","1","1","1","1","1","1","1","1"
"250034","img/neutralC/CFD-IM-707-105-N.jpg","img/neutralC/CFD-BF-044-034-N.jpg","img/neutralC/CFD-IM-726-248-N.jpg","1","1","1","1","0","0","0.454685000004247","0.519338299985975","0.534695499925874","1","1","1","1","1","1","1","1","1"
"250034","img/neutralC/CFD-IM-726-248-N.jpg","img/neutralC/CFD-IM-707-105-N.jpg","img/neutralC/CFD-IF-729-393-N.jpg","1","1","1","0","1","0","0.534695499925874","0.454685000004247","0.460323800100014","1","1","1","1","1","1","1","1","1"
"250034","img/neutralC/CFD-IF-729-393-N.jpg","img/neutralC/CFD-IM-726-248-N.jpg","img/neutralC/CFD-BM-036-003-N.jpg","1","1","1","0","0","1","0.460323800100014","0.534695499925874","0.447218199959025","1","1","1","1","1","1","1","1","1"
"250034","img/neutralC/CFD-BM-036-003-N.jpg","img/neutralC/CFD-IF-729-393-N.jpg","img/neutralC/CFD-BM-207-024-N.jpg","1","1","1","1","0","1","0.447218199959025","0.460323800100014","0.477502399939112","1","1","1","1","1","1","1","1","1"
"250034","img/neutralC/CFD-BM-207-024-N.jpg","img/neutralC/CFD-BM-036-003-N.jpg","img/neutralC/CFD-BM-238-242-N.jpg","1","1","1","1","1","0","0.477502399939112","0.447218199959025","0.518644699943252","1","1","1","1","1","1","1","1","1"
"250034","img/neutralC/CFD-BM-238-242-N.jpg","img/neutralC/CFD-BM-207-024-N.jpg","img/neutralC/CFD-AM-230-150-N.jpg","1","1","1","0","1","0","0.518644699943252","0.477502399939112","0.472498799907044","1","1","1","1","1","1","1","1","1"
"250034","img/neutralC/CFD-AM-230-150-N.jpg","img/neutralC/CFD-BM-238-242-N.jpg","img/neutralC/CFD-BF-011-002-N.jpg","1","1","1","0","0","1","0.472498799907044","0.518644699943252","0.432784300064668","1","1","1","1","1","1","1","1","1"
"250034","img/neutralC/CFD-BF-011-002-N.jpg","img/neutralC/CFD-AM-230-150-N.jpg","img/neutralC/CFD-WF-208-068-N.jpg","1","1","1","1","0","1","0.432784300064668","0.472498799907044","0.459632699959911","1","1","1","1","1","1","1","1","1"
"250034","img/neutralC/CFD-WF-208-068-N.jpg","img/neutralC/CFD-BF-011-002-N.jpg","img/neutralC/CFD-WM-014-002-N.jpg","1","1","1","1","1","0","0.459632699959911","0.432784300064668","0.463448399910703","1","1","1","1","1","1","1","1","1"
"250034","img/neutralC/CFD-WM-014-002-N.jpg","img/neutralC/CFD-WF-208-068-N.jpg","img/neutralC/CFD-WF-029-002-N.jpg","1","1","1","0","1","0","0.463448399910703","0.459632699959911","0.561065200017765","1","1","1","1","1","1","1","1","1"
"250034","img/neutralC/CFD-WF-029-002-N.jpg","img/neutralC/CFD-WM-014-002-N.jpg","img/neutralC/CFD-MF-301-024-N.jpg","1","1","1","0","0","0","0.561065200017765","0.463448399910703","0.488603199948557","1","1","1","1","1","1","1","1","1"
"250034","img/neutralC/CFD-MF-301-024-N.jpg","img/neutralC/CFD-WF-029-002-N.jpg","img/neutralC/CFD-BF-006-017-N.jpg","1","1","1","0","0","0","0.488603199948557","0.561065200017765","0.473517599981278","1","1","1","1","1","1","1","1","1"
"250034","img/neutralC/CFD-BF-006-017-N.jpg","img/neutralC/CFD-MF-301-024-N.jpg","img/neutralC/CFD-BF-002-001-N.jpg","1","1","1","0","0","0","0.473517599981278","0.488603199948557","0.45294849993661","1","1","1","1","1","1","1","1","1"
"250034","img/neutralC/CFD-BF-002-001-N.jpg","img/neutralC/CFD-BF-006-017-N.jpg","img/neutralC/CFD-LF-204-133-N.jpg","1","1","1","0","0","1","0.45294849993661","0.473517599981278","0.473878999939188","1","1","1","1","1","1","1","1","1"
"250034","img/neutralC/CFD-LF-204-133-N.jpg","img/neutralC/CFD-BF-002-001-N.jpg","img/neutralC/CFD-IM-721-341-N.jpg","1","1","1","1","0","1","0.473878999939188","0.45294849993661","0.411199400085024","1","1","1","1","1","1","1","1","1"
"250034","img/neutralC/CFD-IM-721-341-N.jpg","img/neutralC/CFD-LF-204-133-N.jpg","img/neutralC/CFD-IF-742-103-N.jpg","1","1","1","1","1","1","0.411199400085024","0.473878999939188","0.392418100032955","1","1","1","1","1","1","1","1","1"
"250034","img/neutralC/CFD-IF-742-103-N.jpg","img/neutralC/CFD-IM-721-341-N.jpg","img/neutralC/CFD-IM-696-001-N.jpg","1","1","1","1","1","0","0.392418100032955","0.411199400085024","0.694534600013867","1","1","1","1","1","1","1","1","1"
"250034","img/neutralC/CFD-IM-696-001-N.jpg","img/neutralC/CFD-IF-742-103-N.jpg","img/neutralC/CFD-WM-034-030-N.jpg","1","1","0","0","1","1","0.694534600013867","0.392418100032955",NA,"1","1","0","1","1","0","1","1","0"
"250034","img/neutralC/CFD-WM-034-030-N.jpg","img/neutralC/CFD-IM-696-001-N.jpg","img/neutralC/CFD-BF-247-179-N.jpg","0","1","1","1","0","0",NA,"0.694534600013867","0.46013560006395","0","1","1","0","1","1","0","1","1"
"250034","img/neutralC/CFD-BF-247-179-N.jpg","img/neutralC/CFD-WM-034-030-N.jpg","img/neutralC/CFD-IF-677-452-1-N.jpg","1","0","1","0","1","1","0.46013560006395",NA,"0.402266100049019","1","0","1","1","0","1","1","0","1"
"250034","img/neutralC/CFD-IF-677-452-1-N.jpg","img/neutralC/CFD-BF-247-179-N.jpg","img/neutralC/CFD-BF-214-308-N.jpg","1","1","1","1","0","1","0.402266100049019","0.46013560006395","0.428099500015378","1","1","1","1","1","1","1","1","1"
"250034","img/neutralC/CFD-BF-214-308-N.jpg","img/neutralC/CFD-IF-677-452-1-N.jpg","img/neutralC/CFD-BF-036-027-N.jpg","1","1","1","1","1","0","0.428099500015378","0.402266100049019","0.610354200005531","1","1","1","1","1","1","1","1","1"
"250034","img/neutralC/CFD-BF-036-027-N.jpg","img/neutralC/CFD-BF-214-308-N.jpg","img/neutralC/CFD-BM-241-235-N.jpg","1","1","1","0","1","0","0.610354200005531","0.428099500015378","0.437859500059858","1","1","1","1","1","1","1","1","1"
"250034","img/neutralC/CFD-BM-241-235-N.jpg","img/neutralC/CFD-BF-036-027-N.jpg","img/neutralC/CFD-BF-236-177-N.jpg","1","1","1","0","0","0","0.437859500059858","0.610354200005531","0.513584900065325","1","1","1","1","1","1","1","1","1"
"250034","img/neutralC/CFD-BF-236-177-N.jpg","img/neutralC/CFD-BM-241-235-N.jpg","img/neutralC/CFD-BF-027-002-N.jpg","1","1","1","0","0","1","0.513584900065325","0.437859500059858","0.529050400014967","1","1","1","1","1","1","1","1","1"
"250034","img/neutralC/CFD-BF-027-002-N.jpg","img/neutralC/CFD-BF-236-177-N.jpg","img/neutralC/CFD-WF-233-112-N.jpg","1","1","1","1","0","1","0.529050400014967","0.513584900065325","0.405429299920797","1","1","1","1","1","1","1","1","1"
"250034","img/neutralC/CFD-WF-233-112-N.jpg","img/neutralC/CFD-BF-027-002-N.jpg",NA,"1","1",NA,"1","1",NA,"0.405429299920797","0.529050400014967",NA,"1","1",NA,"1","1",NA,"1","1",NA
"250034","img/neutralC/CFD-WM-004-010-N.jpg",NA,"img/neutralC/CFD-LM-228-188-N.jpg","1",NA,"1","0",NA,"1","0.45682720001787",NA,"0.393058900022879","1",NA,"1","1",NA,"1","1",NA,"1"
"250034","img/neutralC/CFD-LM-228-188-N.jpg","img/neutralC/CFD-WM-004-010-N.jpg","img/neutralC/CFD-IF-650-315-N.jpg","1","1","1","1","0","0","0.393058900022879","0.45682720001787","0.485611399984918","1","1","1","1","1","1","1","1","1"
"250034","img/neutralC/CFD-IF-650-315-N.jpg","img/neutralC/CFD-LM-228-188-N.jpg","img/neutralC/CFD-BM-253-004-N.jpg","1","1","1","0","1","1","0.485611399984918","0.393058900022879","0.448035000008531","1","1","1","1","1","1","1","1","1"
"250034","img/neutralC/CFD-BM-253-004-N.jpg","img/neutralC/CFD-IF-650-315-N.jpg","img/neutralC/CFD-IM-743-006-N.jpg","1","1","1","1","0","1","0.448035000008531","0.485611399984918","0.609218899975531","1","1","1","1","1","1","1","1","1"
"250034","img/neutralC/CFD-IM-743-006-N.jpg","img/neutralC/CFD-BM-253-004-N.jpg","img/neutralC/CFD-WM-020-001-N.jpg","1","1","1","1","1","1","0.609218899975531","0.448035000008531","0.415140699944459","1","1","1","1","1","1","1","1","1"
"250034","img/neutralC/CFD-WM-020-001-N.jpg","img/neutralC/CFD-IM-743-006-N.jpg","img/neutralC/CFD-IM-645-001-N.jpg","1","1","1","1","1","0","0.415140699944459","0.609218899975531","0.473535400000401","1","1","1","1","1","1","1","1","1"
"250034","img/neutralC/CFD-IM-645-001-N.jpg","img/neutralC/CFD-WM-020-001-N.jpg","img/neutralC/CFD-LM-237-264-N.jpg","1","1","1","0","1","0","0.473535400000401","0.415140699944459","0.460160900023766","1","1","1","1","1","1","1","1","1"
"250034","img/neutralC/CFD-LM-237-264-N.jpg","img/neutralC/CFD-IM-645-001-N.jpg","img/neutralC/CFD-WF-200-099-N.jpg","1","1","1","0","0","0","0.460160900023766","0.473535400000401","0.430495899985544","1","1","1","1","1","1","1","1","1"
"250034","img/neutralC/CFD-WF-200-099-N.jpg","img/neutralC/CFD-LM-237-264-N.jpg","img/neutralC/CFD-LF-220-120-N.jpg","1","1","1","0","0","1","0.430495899985544","0.460160900023766","0.467262499965727","1","1","1","1","1","1","1","1","1"
"250034","img/neutralC/CFD-LF-220-120-N.jpg","img/neutralC/CFD-WF-200-099-N.jpg","img/neutralC/CFD-IM-703-182-N.jpg","1","1","1","1","0","1","0.467262499965727","0.430495899985544","0.679446100024506","1","1","1","1","1","1","1","1","1"
"250034","img/neutralC/CFD-IM-703-182-N.jpg","img/neutralC/CFD-LF-220-120-N.jpg","img/neutralC/CFD-WF-001-003-N.jpg","1","1","1","1","1","1","0.679446100024506","0.467262499965727","0.434370400034823","1","1","1","1","1","1","1","1","1"
"250034","img/neutralC/CFD-WF-001-003-N.jpg","img/neutralC/CFD-IM-703-182-N.jpg","img/neutralC/CFD-LF-218-072-N.jpg","1","1","1","1","1","0","0.434370400034823","0.679446100024506","0.447817499982193","1","1","1","1","1","1","1","1","1"
"250034","img/neutralC/CFD-LF-218-072-N.jpg","img/neutralC/CFD-WF-001-003-N.jpg","img/neutralC/CFD-BM-225-154-N.jpg","1","1","1","0","1","1","0.447817499982193","0.434370400034823","0.387678500032052","1","1","1","1","1","1","1","1","1"
"250034","img/neutralC/CFD-BM-225-154-N.jpg","img/neutralC/CFD-LF-218-072-N.jpg","img/neutralC/CFD-AM-211-052-N.jpg","1","1","1","1","0","1","0.387678500032052","0.447817499982193","0.399841199978255","1","1","1","1","1","1","1","1","1"
"250034","img/neutralC/CFD-AM-211-052-N.jpg","img/neutralC/CFD-BM-225-154-N.jpg","img/neutralC/CFD-WF-036-023-N.jpg","1","1","1","1","1","0","0.399841199978255","0.387678500032052","0.42879889998585","1","1","1","1","1","1","1","1","1"
"250034","img/neutralC/CFD-WF-036-023-N.jpg","img/neutralC/CFD-AM-211-052-N.jpg","img/neutralC/CFD-MF-352-054-N.jpg","1","1","1","0","1","0","0.42879889998585","0.399841199978255","0.463090099976398","1","1","1","1","1","1","1","1","1"
"250034","img/neutralC/CFD-MF-352-054-N.jpg","img/neutralC/CFD-WF-036-023-N.jpg","img/neutralC/CFD-WM-235-147-N.jpg","1","1","1","0","0","0","0.463090099976398","0.42879889998585","0.436784600024112","1","1","1","1","1","1","1","1","1"
"250034","img/neutralC/CFD-WM-235-147-N.jpg","img/neutralC/CFD-MF-352-054-N.jpg","img/neutralC/CFD-WM-219-008-N.jpg","1","1","1","0","0","0","0.436784600024112","0.463090099976398","0.472912599914707","1","1","1","1","1","1","1","1","1"
"250034","img/neutralC/CFD-WM-219-008-N.jpg","img/neutralC/CFD-WM-235-147-N.jpg","img/neutralC/CFD-MF-359-019-N.jpg","1","1","1","0","0","0","0.472912599914707","0.436784600024112","0.653036799980327","1","1","1","1","1","1","1","1","1"
"250034","img/neutralC/CFD-MF-359-019-N.jpg","img/neutralC/CFD-WM-219-008-N.jpg","img/neutralC/CFD-AM-251-124-N.jpg","1","1","1","0","0","0","0.653036799980327","0.472912599914707","0.58965249999892","1","1","1","1","1","1","1","1","1"
"250034","img/neutralC/CFD-AM-251-124-N.jpg","img/neutralC/CFD-MF-359-019-N.jpg","img/neutralC/CFD-AM-242-176-N.jpg","1","1","1","0","0","1","0.58965249999892","0.653036799980327","0.458777099964209","1","1","1","1","1","1","1","1","1"
"250034","img/neutralC/CFD-AM-242-176-N.jpg","img/neutralC/CFD-AM-251-124-N.jpg","img/neutralC/CFD-BF-038-037-N.jpg","1","1","1","1","0","1","0.458777099964209","0.58965249999892","0.541416599997319","1","1","1","1","1","1","1","1","1"
"250034","img/neutralC/CFD-BF-038-037-N.jpg","img/neutralC/CFD-AM-242-176-N.jpg","img/neutralC/CFD-WF-214-122-N.jpg","1","1","1","1","1","1","0.541416599997319","0.458777099964209","0.474533400032669","1","1","1","1","1","1","1","1","1"
"250034","img/neutralC/CFD-WF-214-122-N.jpg","img/neutralC/CFD-BF-038-037-N.jpg","img/neutralC/CFD-BF-232-187-N.jpg","1","1","1","1","1","1","0.474533400032669","0.541416599997319","0.436132100061513","1","1","1","1","1","1","1","1","1"
"250034","img/neutralC/CFD-BF-232-187-N.jpg","img/neutralC/CFD-WF-214-122-N.jpg","img/neutralC/CFD-BF-226-119-N.jpg","1","1","1","1","1","1","0.436132100061513","0.474533400032669","0.413866200018674","1","1","1","1","1","1","1","1","1"
"250034","img/neutralC/CFD-BF-226-119-N.jpg","img/neutralC/CFD-BF-232-187-N.jpg","img/neutralC/CFD-WM-033-025-N.jpg","1","1","1","1","1","1","0.413866200018674","0.436132100061513","0.523715100018308","1","1","1","1","1","1","1","1","1"
"250034","img/neutralC/CFD-WM-033-025-N.jpg","img/neutralC/CFD-BF-226-119-N.jpg","img/neutralC/CFD-IM-671-601-N.jpg","1","1","1","1","1","0","0.523715100018308","0.413866200018674","0.451013699988835","1","1","1","1","1","1","1","1","1"
"250034","img/neutralC/CFD-IM-671-601-N.jpg","img/neutralC/CFD-WM-033-025-N.jpg","img/neutralC/CFD-IM-616-214-N.jpg","1","1","1","0","1","0","0.451013699988835","0.523715100018308","0.494820700027049","1","1","1","1","1","1","1","1","1"
"250034","img/neutralC/CFD-IM-616-214-N.jpg","img/neutralC/CFD-IM-671-601-N.jpg","img/neutralC/CFD-IF-623-129-N.jpg","1","1","1","0","0","1","0.494820700027049","0.451013699988835","0.457603099988774","1","1","1","1","1","1","1","1","1"
"250034","img/neutralC/CFD-IF-623-129-N.jpg","img/neutralC/CFD-IM-616-214-N.jpg","img/neutralC/CFD-MF-333-012-N.jpg","1","1","1","1","0","0","0.457603099988774","0.494820700027049","0.488816100056283","1","1","1","1","1","1","1","1","1"
"250034","img/neutralC/CFD-MF-333-012-N.jpg","img/neutralC/CFD-IF-623-129-N.jpg","img/neutralC/CFD-BF-229-179-N.jpg","1","1","1","0","1","0","0.488816100056283","0.457603099988774","0.480536399991252","1","1","1","1","1","1","1","1","1"
"250034","img/neutralC/CFD-BF-229-179-N.jpg","img/neutralC/CFD-MF-333-012-N.jpg",NA,"1","1",NA,"0","0",NA,"0.480536399991252","0.488816100056283",NA,"1","1",NA,"1","1",NA,"1","1",NA
"250034","img/neutralC/CFD-IF-744-114-N.jpg",NA,"img/neutralC/CFD-WM-202-107-N.jpg","1",NA,"1","0",NA,"1","0.528139400063083",NA,"0.476575099979527","1",NA,"1","1",NA,"1","1",NA,"1"
"250034","img/neutralC/CFD-WM-202-107-N.jpg","img/neutralC/CFD-IF-744-114-N.jpg","img/neutralC/CFD-WF-006-002-N.jpg","1","1","1","1","0","0","0.476575099979527","0.528139400063083","0.480555800022557","1","1","1","1","1","1","1","1","1"
"250034","img/neutralC/CFD-WF-006-002-N.jpg","img/neutralC/CFD-WM-202-107-N.jpg","img/neutralC/CFD-WF-223-133-N.jpg","1","1","1","0","1","0","0.480555800022557","0.476575099979527","0.511835600016639","1","1","1","1","1","1","1","1","1"
"250034","img/neutralC/CFD-WF-223-133-N.jpg","img/neutralC/CFD-WF-006-002-N.jpg","img/neutralC/CFD-BM-213-134-N.jpg","1","1","1","0","0","1","0.511835600016639","0.480555800022557","0.512016299995594","1","1","1","1","1","1","1","1","1"
"250034","img/neutralC/CFD-BM-213-134-N.jpg","img/neutralC/CFD-WF-223-133-N.jpg","img/neutralC/CFD-WF-033-002-N.jpg","1","1","1","1","0","1","0.512016299995594","0.511835600016639","0.533305399934761","1","1","1","1","1","1","1","1","1"
"250034","img/neutralC/CFD-WF-033-002-N.jpg","img/neutralC/CFD-BM-213-134-N.jpg","img/neutralC/CFD-BM-028-002-N.jpg","1","1","1","1","1","1","0.533305399934761","0.512016299995594","0.492925700033084","1","1","1","1","1","1","1","1","1"
"250034","img/neutralC/CFD-BM-028-002-N.jpg","img/neutralC/CFD-WF-033-002-N.jpg","img/neutralC/CFD-LF-208-127-N.jpg","1","1","1","1","1","0","0.492925700033084","0.533305399934761","0.565127500100061","1","1","1","1","1","1","1","1","1"
"250034","img/neutralC/CFD-LF-208-127-N.jpg","img/neutralC/CFD-BM-028-002-N.jpg","img/neutralC/CFD-LF-241-188-N.jpg","1","1","1","0","1","0","0.565127500100061","0.492925700033084","0.486392799997702","1","1","1","1","1","1","1","1","1"
"250034","img/neutralC/CFD-LF-241-188-N.jpg","img/neutralC/CFD-LF-208-127-N.jpg","img/neutralC/CFD-AF-227-207-N.jpg","1","1","1","0","0","1","0.486392799997702","0.565127500100061","0.551723400014453","1","1","1","1","1","1","1","1","1"
"250034","img/neutralC/CFD-AF-227-207-N.jpg","img/neutralC/CFD-LF-241-188-N.jpg","img/neutralC/CFD-IM-659-359-N.jpg","1","1","1","1","0","0","0.551723400014453","0.486392799997702","0.465230999980122","1","1","1","1","1","1","1","1","1"
"250034","img/neutralC/CFD-IM-659-359-N.jpg","img/neutralC/CFD-AF-227-207-N.jpg","img/neutralC/CFD-WM-254-152-N.jpg","1","1","1","0","1","1","0.465230999980122","0.551723400014453","0.460459799971431","1","1","1","1","1","1","1","1","1"
"250034","img/neutralC/CFD-WM-254-152-N.jpg","img/neutralC/CFD-IM-659-359-N.jpg","img/neutralC/CFD-BF-045-003-N.jpg","1","1","1","1","0","0","0.460459799971431","0.465230999980122","0.654821799951605","1","1","1","1","1","1","1","1","1"
"250034","img/neutralC/CFD-BF-045-003-N.jpg","img/neutralC/CFD-WM-254-152-N.jpg","img/neutralC/CFD-LF-210-220-N.jpg","1","1","1","0","1","1","0.654821799951605","0.460459799971431","0.459330499987118","1","1","1","1","1","1","1","1","1"
"250034","img/neutralC/CFD-LF-210-220-N.jpg","img/neutralC/CFD-BF-045-003-N.jpg","img/neutralC/CFD-WM-228-065-N.jpg","1","1","1","1","0","0","0.459330499987118","0.654821799951605","0.503852699999698","1","1","1","1","1","1","1","1","1"
"250034","img/neutralC/CFD-WM-228-065-N.jpg","img/neutralC/CFD-LF-210-220-N.jpg","img/neutralC/CFD-BM-003-003-N.jpg","1","1","1","0","1","0","0.503852699999698","0.459330499987118","0.494588400004432","1","1","1","1","1","1","1","1","1"
"250034","img/neutralC/CFD-BM-003-003-N.jpg","img/neutralC/CFD-WM-228-065-N.jpg","img/neutralC/CFD-LM-247-095-N.jpg","1","1","1","0","0","0","0.494588400004432","0.503852699999698","0.493120200000703","1","1","1","1","1","1","1","1","1"
"250034","img/neutralC/CFD-LM-247-095-N.jpg","img/neutralC/CFD-BM-003-003-N.jpg","img/neutralC/CFD-BM-013-002-N.jpg","1","1","1","0","0","1","0.493120200000703","0.494588400004432","0.408519000047818","1","1","1","1","1","1","1","1","1"
"250034","img/neutralC/CFD-BM-013-002-N.jpg","img/neutralC/CFD-LM-247-095-N.jpg","img/neutralC/CFD-LF-225-164-N.jpg","1","1","1","1","0","1","0.408519000047818","0.493120200000703","0.42972309992183","1","1","1","1","1","1","1","1","1"
"250034","img/neutralC/CFD-LF-225-164-N.jpg","img/neutralC/CFD-BM-013-002-N.jpg","img/neutralC/CFD-IF-673-389-N.jpg","1","1","1","1","1","0","0.42972309992183","0.408519000047818","0.468255100073293","1","1","1","1","1","1","1","1","1"
"250034","img/neutralC/CFD-IF-673-389-N.jpg","img/neutralC/CFD-LF-225-164-N.jpg","img/neutralC/CFD-BF-222-240-N.jpg","1","1","1","0","1","0","0.468255100073293","0.42972309992183","0.569664899958298","1","1","1","1","1","1","1","1","1"
"250034","img/neutralC/CFD-BF-222-240-N.jpg","img/neutralC/CFD-IF-673-389-N.jpg","img/neutralC/CFD-IM-701-312-N.jpg","1","1","1","0","0","0","0.569664899958298","0.468255100073293","0.469037399976514","1","1","1","1","1","1","1","1","1"
"250034","img/neutralC/CFD-IM-701-312-N.jpg","img/neutralC/CFD-BF-222-240-N.jpg","img/neutralC/CFD-AF-210-050-N.jpg","1","1","1","0","0","1","0.469037399976514","0.569664899958298","0.475777500076219","1","1","1","1","1","1","1","1","1"
"250034","img/neutralC/CFD-AF-210-050-N.jpg","img/neutralC/CFD-IM-701-312-N.jpg","img/neutralC/CFD-BF-004-014-N.jpg","1","1","1","1","0","1","0.475777500076219","0.469037399976514","0.498882399988361","1","1","1","1","1","1","1","1","1"
"250034","img/neutralC/CFD-BF-004-014-N.jpg","img/neutralC/CFD-AF-210-050-N.jpg","img/neutralC/CFD-LM-238-129-N.jpg","1","1","1","1","1","1","0.498882399988361","0.475777500076219","0.537213000003248","1","1","1","1","1","1","1","1","1"
"250034","img/neutralC/CFD-LM-238-129-N.jpg","img/neutralC/CFD-BF-004-014-N.jpg","img/neutralC/CFD-BM-010-003-N.jpg","1","1","1","1","1","0","0.537213000003248","0.498882399988361","0.644482200033963","1","1","1","1","1","1","1","1","1"
"250034","img/neutralC/CFD-BM-010-003-N.jpg","img/neutralC/CFD-LM-238-129-N.jpg","img/neutralC/CFD-MF-312-002-N.jpg","1","1","1","0","1","1","0.644482200033963","0.537213000003248","0.470025999937207","1","1","1","1","1","1","1","1","1"
"250034","img/neutralC/CFD-MF-312-002-N.jpg","img/neutralC/CFD-BM-010-003-N.jpg","img/neutralC/CFD-MF-336-016-N.jpg","1","1","1","1","0","1","0.470025999937207","0.644482200033963","0.518007799983025","1","1","1","1","1","1","1","1","1"
"250034","img/neutralC/CFD-MF-336-016-N.jpg","img/neutralC/CFD-MF-312-002-N.jpg","img/neutralC/CFD-AM-221-184-N.jpg","1","1","1","1","1","1","0.518007799983025","0.470025999937207","0.424375000060536","1","1","1","1","1","1","1","1","1"
"250034","img/neutralC/CFD-AM-221-184-N.jpg","img/neutralC/CFD-MF-336-016-N.jpg","img/neutralC/CFD-IM-738-191-N.jpg","1","1","1","1","1","0","0.424375000060536","0.518007799983025","0.465865100035444","1","1","1","1","1","1","1","1","1"
"250034","img/neutralC/CFD-IM-738-191-N.jpg","img/neutralC/CFD-AM-221-184-N.jpg","img/neutralC/CFD-AF-239-171-N.jpg","1","1","1","0","1","1","0.465865100035444","0.424375000060536","0.479497899999842","1","1","1","1","1","1","1","1","1"
"250034","img/neutralC/CFD-AF-239-171-N.jpg","img/neutralC/CFD-IM-738-191-N.jpg","img/neutralC/CFD-IF-625-225-N.jpg","1","1","1","1","0","0","0.479497899999842","0.465865100035444","0.52980480005499","1","1","1","1","1","1","1","1","1"
"250034","img/neutralC/CFD-IF-625-225-N.jpg","img/neutralC/CFD-AF-239-171-N.jpg",NA,"1","1",NA,"0","1",NA,"0.52980480005499","0.479497899999842",NA,"1","1",NA,"1","1",NA,"1","1",NA
"250034","img/neutralC/CFD-LM-200-045-N.jpg",NA,"img/neutralC/CFD-IM-664-651-N.jpg","1",NA,"1","1",NA,"1","0.542527300072834",NA,"0.453622300061397","1",NA,"1","1",NA,"1","1",NA,"1"
"250034","img/neutralC/CFD-IM-664-651-N.jpg","img/neutralC/CFD-LM-200-045-N.jpg","img/neutralC/CFD-LM-225-130-N.jpg","1","1","1","1","1","0","0.453622300061397","0.542527300072834","0.476460300036706","1","1","1","1","1","1","1","1","1"
"250034","img/neutralC/CFD-LM-225-130-N.jpg","img/neutralC/CFD-IM-664-651-N.jpg","img/neutralC/CFD-MM-324-069-N.jpg","1","1","1","0","1","1","0.476460300036706","0.453622300061397","0.393618499976583","1","1","1","1","1","1","1","1","1"
"250034","img/neutralC/CFD-MM-324-069-N.jpg","img/neutralC/CFD-LM-225-130-N.jpg","img/neutralC/CFD-BM-250-170-N.jpg","1","1","1","1","0","1","0.393618499976583","0.476460300036706","0.447800100082532","1","1","1","1","1","1","1","1","1"
"250034","img/neutralC/CFD-BM-250-170-N.jpg","img/neutralC/CFD-MM-324-069-N.jpg","img/neutralC/CFD-MF-357-002-N.jpg","1","1","1","1","1","0","0.447800100082532","0.393618499976583","0.590031399973668","1","1","1","1","1","1","1","1","1"
"250034","img/neutralC/CFD-MF-357-002-N.jpg","img/neutralC/CFD-BM-250-170-N.jpg","img/neutralC/CFD-WF-222-092-N.jpg","1","1","1","0","1","1","0.590031399973668","0.447800100082532","0.496413100045174","1","1","1","1","1","1","1","1","1"
"250034","img/neutralC/CFD-WF-222-092-N.jpg","img/neutralC/CFD-MF-357-002-N.jpg","img/neutralC/CFD-LF-255-088-N.jpg","1","1","1","1","0","0","0.496413100045174","0.590031399973668","0.720150399953127","1","1","1","1","1","1","1","1","1"
"250034","img/neutralC/CFD-LF-255-088-N.jpg","img/neutralC/CFD-WF-222-092-N.jpg","img/neutralC/CFD-MF-343-001-N.jpg","1","1","1","0","1","1","0.720150399953127","0.496413100045174","0.453963699983433","1","1","1","1","1","1","1","1","1"
"250034","img/neutralC/CFD-MF-343-001-N.jpg","img/neutralC/CFD-LF-255-088-N.jpg","img/neutralC/CFD-BM-001-014-N.jpg","1","1","1","1","0","0","0.453963699983433","0.720150399953127","0.5536993999267","1","1","1","1","1","1","1","1","1"
"250034","img/neutralC/CFD-BM-001-014-N.jpg","img/neutralC/CFD-MF-343-001-N.jpg","img/neutralC/CFD-IM-667-369-N.jpg","1","1","1","0","1","0","0.5536993999267","0.453963699983433","0.548275800072588","1","1","1","1","1","1","1","1","1"
"250034","img/neutralC/CFD-IM-667-369-N.jpg","img/neutralC/CFD-BM-001-014-N.jpg","img/neutralC/CFD-IM-680-369-N.jpg","1","1","1","0","0","1","0.548275800072588","0.5536993999267","0.878965899930336","1","1","1","1","1","1","1","1","1"
"250034","img/neutralC/CFD-IM-680-369-N.jpg","img/neutralC/CFD-IM-667-369-N.jpg","img/neutralC/CFD-WF-030-002-N.jpg","1","1","1","1","0","0","0.878965899930336","0.548275800072588","0.524740200024098","1","1","1","1","1","1","1","1","1"
"250034","img/neutralC/CFD-WF-030-002-N.jpg","img/neutralC/CFD-IM-680-369-N.jpg","img/neutralC/CFD-WF-007-001-N.jpg","1","1","1","0","1","1","0.524740200024098","0.878965899930336","0.468709100037813","1","1","1","1","1","1","1","1","1"
"250034","img/neutralC/CFD-WF-007-001-N.jpg","img/neutralC/CFD-WF-030-002-N.jpg","img/neutralC/CFD-IM-706-002-N.jpg","1","1","1","1","0","0","0.468709100037813","0.524740200024098","0.484516900032759","1","1","1","1","1","1","1","1","1"
"250034","img/neutralC/CFD-IM-706-002-N.jpg","img/neutralC/CFD-WF-007-001-N.jpg","img/neutralC/CFD-IF-660-464-N.jpg","1","1","1","0","1","0","0.484516900032759","0.468709100037813","0.488079000031576","1","1","1","1","1","1","1","1","1"
"250034","img/neutralC/CFD-IF-660-464-N.jpg","img/neutralC/CFD-IM-706-002-N.jpg","img/neutralC/CFD-BM-217-082-N.jpg","1","1","1","0","0","0","0.488079000031576","0.484516900032759","0.479273300035857","1","1","1","1","1","1","1","1","1"
"250034","img/neutralC/CFD-BM-217-082-N.jpg","img/neutralC/CFD-IF-660-464-N.jpg","img/neutralC/CFD-IF-626-375-N.jpg","1","1","1","0","0","0","0.479273300035857","0.488079000031576","0.553138200077228","1","1","1","1","1","1","1","1","1"
"250034","img/neutralC/CFD-IF-626-375-N.jpg","img/neutralC/CFD-BM-217-082-N.jpg","img/neutralC/CFD-MF-305-014-N.jpg","1","1","1","0","0","1","0.553138200077228","0.479273300035857","0.472116800025105","1","1","1","1","1","1","1","1","1"
"250034","img/neutralC/CFD-MF-305-014-N.jpg","img/neutralC/CFD-IF-626-375-N.jpg","img/neutralC/CFD-AF-233-190-N.jpg","1","1","1","1","0","0","0.472116800025105","0.553138200077228","0.477723099989817","1","1","1","1","1","1","1","1","1"
"250034","img/neutralC/CFD-AF-233-190-N.jpg","img/neutralC/CFD-MF-305-014-N.jpg","img/neutralC/CFD-MF-303-013-N.jpg","1","1","1","0","1","0","0.477723099989817","0.472116800025105","0.485884999972768","1","1","1","1","1","1","1","1","1"
"250034","img/neutralC/CFD-MF-303-013-N.jpg","img/neutralC/CFD-AF-233-190-N.jpg","img/neutralC/CFD-WM-218-074-N.jpg","1","1","1","0","0","1","0.485884999972768","0.477723099989817","0.395170999923721","1","1","1","1","1","1","1","1","1"
"250034","img/neutralC/CFD-WM-218-074-N.jpg","img/neutralC/CFD-MF-303-013-N.jpg","img/neutralC/CFD-WM-015-002-N.jpg","1","1","1","1","0","0","0.395170999923721","0.485884999972768","0.518806700012647","1","1","1","1","1","1","1","1","1"
"250034","img/neutralC/CFD-WM-015-002-N.jpg","img/neutralC/CFD-WM-218-074-N.jpg","img/neutralC/CFD-AM-220-134-N.jpg","1","1","1","0","1","0","0.518806700012647","0.395170999923721","0.445595300057903","1","1","1","1","1","1","1","1","1"
"250034","img/neutralC/CFD-AM-220-134-N.jpg","img/neutralC/CFD-WM-015-002-N.jpg","img/neutralC/CFD-WM-209-038-N.jpg","1","1","1","0","0","0","0.445595300057903","0.518806700012647","0.443429299979471","1","1","1","1","1","1","1","1","1"
"250034","img/neutralC/CFD-WM-209-038-N.jpg","img/neutralC/CFD-AM-220-134-N.jpg","img/neutralC/CFD-MF-316-001-N.jpg","1","1","1","0","0","0","0.443429299979471","0.445595300057903","0.44532490009442","1","1","1","1","1","1","1","1","1"
"250034","img/neutralC/CFD-MF-316-001-N.jpg","img/neutralC/CFD-WM-209-038-N.jpg","img/neutralC/CFD-AF-253-130-N.jpg","1","1","1","0","0","1","0.44532490009442","0.443429299979471","0.559355899924412","1","1","1","1","1","1","1","1","1"
"250034","img/neutralC/CFD-AF-253-130-N.jpg","img/neutralC/CFD-MF-316-001-N.jpg","img/neutralC/CFD-BF-237-172-N.jpg","1","1","1","1","0","1","0.559355899924412","0.44532490009442","0.491186499944888","1","1","1","1","1","1","1","1","1"
"250034","img/neutralC/CFD-BF-237-172-N.jpg","img/neutralC/CFD-AF-253-130-N.jpg","img/neutralC/CFD-IM-702-101-N.jpg","1","1","1","1","1","1","0.491186499944888","0.559355899924412","0.555100800003856","1","1","1","1","1","1","1","1","1"
"250034","img/neutralC/CFD-IM-702-101-N.jpg","img/neutralC/CFD-BF-237-172-N.jpg","img/neutralC/CFD-WF-244-163-N.jpg","1","1","1","1","1","1","0.555100800003856","0.491186499944888","0.441507200011984","1","1","1","1","1","1","1","1","1"
"250034","img/neutralC/CFD-WF-244-163-N.jpg","img/neutralC/CFD-IM-702-101-N.jpg","img/neutralC/CFD-LF-206-078-N.jpg","1","1","1","1","1","1","0.441507200011984","0.555100800003856","0.472874799976125","1","1","1","1","1","1","1","1","1"
"250034","img/neutralC/CFD-LF-206-078-N.jpg","img/neutralC/CFD-WF-244-163-N.jpg","img/neutralC/CFD-BF-014-002-N.jpg","1","1","1","1","1","1","0.472874799976125","0.441507200011984","0.58577859995421","1","1","1","1","1","1","1","1","1"
"250034","img/neutralC/CFD-BF-014-002-N.jpg","img/neutralC/CFD-LF-206-078-N.jpg",NA,"1","1",NA,"1","1",NA,"0.58577859995421","0.472874799976125",NA,"1","1",NA,"1","1",NA,"1","1",NA
"250034","img/neutralC/CFD-WM-201-063-N.jpg",NA,"img/neutralC/CFD-MF-342-022-N.jpg","1",NA,"1","1",NA,"1","0.46819379995577",NA,"0.47225879994221","1",NA,"1","1",NA,"1","1",NA,"1"
"250034","img/neutralC/CFD-MF-342-022-N.jpg","img/neutralC/CFD-WM-201-063-N.jpg","img/neutralC/CFD-WM-255-219-N.jpg","1","1","1","1","1","0","0.47225879994221","0.46819379995577","0.416281800018623","1","1","1","1","1","1","1","1","1"
"250034","img/neutralC/CFD-WM-255-219-N.jpg","img/neutralC/CFD-MF-342-022-N.jpg","img/neutralC/CFD-IF-629-234-N.jpg","1","1","1","0","1","0","0.416281800018623","0.47225879994221","0.530471800011583","1","1","1","1","1","1","1","1","1"
"250034","img/neutralC/CFD-IF-629-234-N.jpg","img/neutralC/CFD-WM-255-219-N.jpg","img/neutralC/CFD-AF-232-078-N.jpg","1","1","1","0","0","1","0.530471800011583","0.416281800018623","0.521548200049438","1","1","1","1","1","1","1","1","1"
"250034","img/neutralC/CFD-AF-232-078-N.jpg","img/neutralC/CFD-IF-629-234-N.jpg","img/neutralC/CFD-MF-318-022-N.jpg","1","1","1","1","0","1","0.521548200049438","0.530471800011583","0.463126500020735","1","1","1","1","1","1","1","1","1"
"250034","img/neutralC/CFD-MF-318-022-N.jpg","img/neutralC/CFD-AF-232-078-N.jpg","img/neutralC/CFD-LM-253-075-N.jpg","1","1","1","1","1","0","0.463126500020735","0.521548200049438","0.42048990004696","1","1","1","1","1","1","1","1","1"
"250034","img/neutralC/CFD-LM-253-075-N.jpg","img/neutralC/CFD-MF-318-022-N.jpg","img/neutralC/CFD-WF-238-023-N.jpg","1","1","1","0","1","0","0.42048990004696","0.463126500020735","0.494896100019105","1","1","1","1","1","1","1","1","1"
"250034","img/neutralC/CFD-WF-238-023-N.jpg","img/neutralC/CFD-LM-253-075-N.jpg","img/neutralC/CFD-LF-211-003-N.jpg","1","1","0","0","0","0","0.494896100019105","0.42048990004696","0.66208080004435","1","1","1","1","1","1","1","1","1"
"250034","img/neutralC/CFD-LF-211-003-N.jpg","img/neutralC/CFD-WF-238-023-N.jpg","img/neutralC/CFD-IM-719-221-N.jpg","0","1","1","0","0","0","0.66208080004435","0.494896100019105","0.431478000013158","1","1","1","1","1","1","1","1","1"
"250034","img/neutralC/CFD-IM-719-221-N.jpg","img/neutralC/CFD-LF-211-003-N.jpg","img/neutralC/CFD-WF-226-095-N.jpg","1","0","1","0","0","1","0.431478000013158","0.66208080004435","0.640114200068638","1","1","1","1","1","1","1","1","1"
"250034","img/neutralC/CFD-WF-226-095-N.jpg","img/neutralC/CFD-IM-719-221-N.jpg","img/neutralC/CFD-IM-627-178-N.jpg","1","1","1","1","0","1","0.640114200068638","0.431478000013158","0.440416199970059","1","1","1","1","1","1","1","1","1"
"250034","img/neutralC/CFD-IM-627-178-N.jpg","img/neutralC/CFD-WF-226-095-N.jpg","img/neutralC/CFD-WF-018-017-N.jpg","1","1","1","1","1","1","0.440416199970059","0.640114200068638","0.491559800109826","1","1","1","1","1","1","1","1","1"
"250034","img/neutralC/CFD-WF-018-017-N.jpg","img/neutralC/CFD-IM-627-178-N.jpg","img/neutralC/CFD-BM-204-003-N.jpg","1","1","1","1","1","0","0.491559800109826","0.440416199970059","0.536536600091495","1","1","1","1","1","1","1","1","1"
"250034","img/neutralC/CFD-BM-204-003-N.jpg","img/neutralC/CFD-WF-018-017-N.jpg","img/neutralC/CFD-BF-018-039-N.jpg","1","1","1","0","1","1","0.536536600091495","0.491559800109826","0.571095999912359","1","1","1","1","1","1","1","1","1"
"250034","img/neutralC/CFD-BF-018-039-N.jpg","img/neutralC/CFD-BM-204-003-N.jpg","img/neutralC/CFD-MF-321-003-N.jpg","1","1","1","1","0","0","0.571095999912359","0.536536600091495","0.561654700082727","1","1","1","1","1","1","1","1","1"
"250034","img/neutralC/CFD-MF-321-003-N.jpg","img/neutralC/CFD-BF-018-039-N.jpg","img/neutralC/CFD-WM-221-091-N.jpg","1","1","1","0","1","0","0.561654700082727","0.571095999912359","0.599673399934545","1","1","1","1","1","1","1","1","1"
"250034","img/neutralC/CFD-WM-221-091-N.jpg","img/neutralC/CFD-MF-321-003-N.jpg","img/neutralC/CFD-WM-009-002-N.jpg","1","1","1","0","0","0","0.599673399934545","0.561654700082727","0.555525199975818","1","1","1","1","1","1","1","1","1"
"250034","img/neutralC/CFD-WM-009-002-N.jpg","img/neutralC/CFD-WM-221-091-N.jpg","img/neutralC/CFD-WM-013-001-N.jpg","1","1","1","0","0","1","0.555525199975818","0.599673399934545","0.540691799949855","1","1","1","1","1","1","1","1","1"
"250034","img/neutralC/CFD-WM-013-001-N.jpg","img/neutralC/CFD-WM-009-002-N.jpg","img/neutralC/CFD-LF-215-157-N.jpg","1","1","0","1","0","0","0.540691799949855","0.555525199975818",NA,"1","1","0","1","1","0","1","1","0"
"250034","img/neutralC/CFD-LF-215-157-N.jpg","img/neutralC/CFD-WM-013-001-N.jpg","img/neutralC/CFD-WF-245-084-N.jpg","0","1","1","0","1","1",NA,"0.540691799949855","0.562293699942529","0","1","1","0","1","1","0","1","1"
"250034","img/neutralC/CFD-WF-245-084-N.jpg","img/neutralC/CFD-LF-215-157-N.jpg","img/neutralC/CFD-WF-027-003-N.jpg","1","0","1","1","0","1","0.562293699942529",NA,"0.618281000060961","1","0","1","1","0","1","1","0","1"
"250034","img/neutralC/CFD-WF-027-003-N.jpg","img/neutralC/CFD-WF-245-084-N.jpg","img/neutralC/CFD-BM-200-046-N.jpg","1","1","1","1","1","0","0.618281000060961","0.562293699942529","0.500771300052293","1","1","1","1","1","1","1","1","1"
"250034","img/neutralC/CFD-BM-200-046-N.jpg","img/neutralC/CFD-WF-027-003-N.jpg","img/neutralC/CFD-IM-700-009-N.jpg","1","1","1","0","1","1","0.500771300052293","0.618281000060961","0.590378399938345","1","1","1","1","1","1","1","1","1"
"250034","img/neutralC/CFD-IM-700-009-N.jpg","img/neutralC/CFD-BM-200-046-N.jpg","img/neutralC/CFD-BF-254-201-N.jpg","1","1","1","1","0","0","0.590378399938345","0.500771300052293","0.521379500045441","1","1","1","1","1","1","1","1","1"
"250034","img/neutralC/CFD-BF-254-201-N.jpg","img/neutralC/CFD-IM-700-009-N.jpg","img/neutralC/CFD-MM-321-021-N.jpg","1","1","1","0","1","0","0.521379500045441","0.590378399938345","0.443337200093083","1","1","1","1","1","1","1","1","1"
"250034","img/neutralC/CFD-MM-321-021-N.jpg","img/neutralC/CFD-BF-254-201-N.jpg","img/neutralC/CFD-BF-218-207-N.jpg","1","1","1","0","0","1","0.443337200093083","0.521379500045441","0.493167700013146","1","1","1","1","1","1","1","1","1"
"250034","img/neutralC/CFD-BF-218-207-N.jpg","img/neutralC/CFD-MM-321-021-N.jpg","img/neutralC/CFD-BM-023-029-N.jpg","1","1","1","1","0","1","0.493167700013146","0.443337200093083","0.475623100064695","1","1","1","1","1","1","1","1","1"
"250034","img/neutralC/CFD-BM-023-029-N.jpg","img/neutralC/CFD-BF-218-207-N.jpg","img/neutralC/CFD-AF-221-147-N.jpg","1","1","1","1","1","0","0.475623100064695","0.493167700013146","0.525565400021151","1","1","1","1","1","1","1","1","1"
"250034","img/neutralC/CFD-AF-221-147-N.jpg","img/neutralC/CFD-BM-023-029-N.jpg","img/neutralC/CFD-AM-244-222-N.jpg","1","1","1","0","1","0","0.525565400021151","0.475623100064695","0.468537700013258","1","1","1","1","1","1","1","1","1"
"250034","img/neutralC/CFD-AM-244-222-N.jpg","img/neutralC/CFD-AF-221-147-N.jpg","img/neutralC/CFD-WF-023-003-N.jpg","1","1","1","0","0","1","0.468537700013258","0.525565400021151","0.44264879997354","1","1","1","1","1","1","1","1","1"
"250034","img/neutralC/CFD-WF-023-003-N.jpg","img/neutralC/CFD-AM-244-222-N.jpg","img/neutralC/CFD-WM-237-052-N.jpg","1","1","1","1","0","1","0.44264879997354","0.468537700013258","0.414474099990912","1","1","1","1","1","1","1","1","1"
"250034","img/neutralC/CFD-WM-237-052-N.jpg","img/neutralC/CFD-WF-023-003-N.jpg",NA,"1","1",NA,"1","1",NA,"0.414474099990912","0.44264879997354",NA,"1","1",NA,"1","1",NA,"1","1",NA
"250034","img/neutralC/CFD-BM-215-155-N.jpg",NA,"img/neutralC/CFD-IF-732-260-N.jpg","1",NA,"1","0",NA,"0","0.431429099990055",NA,"0.49181919998955","1",NA,"1","1",NA,"1","1",NA,"1"
"250034","img/neutralC/CFD-IF-732-260-N.jpg","img/neutralC/CFD-BM-215-155-N.jpg","img/neutralC/CFD-IF-636-011-N.jpg","1","1","1","0","0","1","0.49181919998955","0.431429099990055","0.434694900061004","1","1","1","1","1","1","1","1","1"
"250034","img/neutralC/CFD-IF-636-011-N.jpg","img/neutralC/CFD-IF-732-260-N.jpg","img/neutralC/CFD-MF-302-027-N.jpg","1","1","1","1","0","0","0.434694900061004","0.49181919998955","0.426037000026554","1","1","1","1","1","1","1","1","1"
"250034","img/neutralC/CFD-MF-302-027-N.jpg","img/neutralC/CFD-IF-636-011-N.jpg","img/neutralC/CFD-LM-204-001-N.jpg","1","1","1","0","1","0","0.426037000026554","0.434694900061004","0.674333200091496","1","1","1","1","1","1","1","1","1"
"250034","img/neutralC/CFD-LM-204-001-N.jpg","img/neutralC/CFD-MF-302-027-N.jpg","img/neutralC/CFD-MF-307-002-N.jpg","1","1","1","0","0","1","0.674333200091496","0.426037000026554","0.412415600032546","1","1","1","1","1","1","1","1","1"
"250034","img/neutralC/CFD-MF-307-002-N.jpg","img/neutralC/CFD-LM-204-001-N.jpg","img/neutralC/CFD-AF-205-155-N.jpg","1","1","1","1","0","0","0.412415600032546","0.674333200091496","0.491951800067909","1","1","1","1","1","1","1","1","1"
"250034","img/neutralC/CFD-AF-205-155-N.jpg","img/neutralC/CFD-MF-307-002-N.jpg","img/neutralC/CFD-WF-235-121-N.jpg","1","1","1","0","1","0","0.491951800067909","0.412415600032546","0.535266099963337","1","1","1","1","1","1","1","1","1"
"250034","img/neutralC/CFD-WF-235-121-N.jpg","img/neutralC/CFD-AF-205-155-N.jpg","img/neutralC/CFD-WF-210-086-N.jpg","1","1","1","0","0","0","0.535266099963337","0.491951800067909","0.520101300091483","1","1","1","1","1","1","1","1","1"
"250034","img/neutralC/CFD-WF-210-086-N.jpg","img/neutralC/CFD-WF-235-121-N.jpg","img/neutralC/CFD-AF-234-208-N.jpg","1","1","0","0","0","1","0.520101300091483","0.535266099963337",NA,"1","1","0","1","1","0","1","1","0"
"250034","img/neutralC/CFD-AF-234-208-N.jpg","img/neutralC/CFD-WF-210-086-N.jpg","img/neutralC/CFD-IM-632-097-N.jpg","0","1","1","1","0","0",NA,"0.520101300091483","0.65382469992619","0","1","1","0","1","1","0","1","1"
"250034","img/neutralC/CFD-IM-632-097-N.jpg","img/neutralC/CFD-AF-234-208-N.jpg","img/neutralC/CFD-LF-239-148-N.jpg","1","0","0","0","1","0","0.65382469992619",NA,"0.52549730008468","1","0","1","1","0","1","1","0","1"
"250034","img/neutralC/CFD-LF-239-148-N.jpg","img/neutralC/CFD-IM-632-097-N.jpg","img/neutralC/CFD-BF-020-002-N.jpg","0","1","1","0","0","1","0.52549730008468","0.65382469992619","0.531816200003959","1","1","1","1","1","1","1","1","1"
"250034","img/neutralC/CFD-BF-020-002-N.jpg","img/neutralC/CFD-LF-239-148-N.jpg","img/neutralC/CFD-BF-206-143-N.jpg","1","0","1","1","0","1","0.531816200003959","0.52549730008468","0.467691699974239","1","1","1","1","1","1","1","1","1"
"250034","img/neutralC/CFD-BF-206-143-N.jpg","img/neutralC/CFD-BF-020-002-N.jpg","img/neutralC/CFD-IM-635-010-N.jpg","1","1","1","1","1","1","0.467691699974239","0.531816200003959","0.474107000045478","1","1","1","1","1","1","1","1","1"
"250034","img/neutralC/CFD-IM-635-010-N.jpg","img/neutralC/CFD-BF-206-143-N.jpg","img/neutralC/CFD-BF-042-026-N.jpg","1","1","1","1","1","1","0.474107000045478","0.467691699974239","0.474432700080797","1","1","1","1","1","1","1","1","1"
"250034","img/neutralC/CFD-BF-042-026-N.jpg","img/neutralC/CFD-IM-635-010-N.jpg","img/neutralC/CFD-AF-244-168-N.jpg","1","1","1","1","1","0","0.474432700080797","0.474107000045478","0.456920200027525","1","1","1","1","1","1","1","1","1"
"250034","img/neutralC/CFD-AF-244-168-N.jpg","img/neutralC/CFD-BF-042-026-N.jpg","img/neutralC/CFD-AF-213-126-N.jpg","1","1","1","0","1","1","0.456920200027525","0.474432700080797","0.56476710003335","1","1","1","1","1","1","1","1","1"
"250034","img/neutralC/CFD-AF-213-126-N.jpg","img/neutralC/CFD-AF-244-168-N.jpg","img/neutralC/CFD-BF-217-189-N.jpg","1","1","1","1","0","0","0.56476710003335","0.456920200027525","0.561192600056529","1","1","1","1","1","1","1","1","1"
"250034","img/neutralC/CFD-BF-217-189-N.jpg","img/neutralC/CFD-AF-213-126-N.jpg","img/neutralC/CFD-AM-245-111-N.jpg","1","1","1","0","1","1","0.561192600056529","0.56476710003335","0.638872899929993","1","1","1","1","1","1","1","1","1"
"250034","img/neutralC/CFD-AM-245-111-N.jpg","img/neutralC/CFD-BF-217-189-N.jpg","img/neutralC/CFD-LM-241-125-N.jpg","1","1","1","1","0","1","0.638872899929993","0.561192600056529","0.627352300100029","1","1","1","1","1","1","1","1","1"
"250034","img/neutralC/CFD-LM-241-125-N.jpg","img/neutralC/CFD-AM-245-111-N.jpg","img/neutralC/CFD-BF-040-003-N.jpg","1","1","1","1","1","1","0.627352300100029","0.638872899929993","0.499461699975654","1","1","1","1","1","1","1","1","1"
"250034","img/neutralC/CFD-BF-040-003-N.jpg","img/neutralC/CFD-LM-241-125-N.jpg","img/neutralC/CFD-AF-246-242-N.jpg","1","1","1","1","1","0","0.499461699975654","0.627352300100029","0.521750899963081","1","1","1","1","1","1","1","1","1"
"250034","img/neutralC/CFD-AF-246-242-N.jpg","img/neutralC/CFD-BF-040-003-N.jpg","img/neutralC/CFD-BF-235-168-N.jpg","1","1","0","0","1","1","0.521750899963081","0.499461699975654",NA,"1","1","0","1","1","0","1","1","0"
"250034","img/neutralC/CFD-BF-235-168-N.jpg","img/neutralC/CFD-AF-246-242-N.jpg","img/neutralC/CFD-AM-233-236-N.jpg","0","1","1","1","0","1",NA,"0.521750899963081","0.530156000051647","0","1","1","0","1","1","0","1","1"
"250034","img/neutralC/CFD-AM-233-236-N.jpg","img/neutralC/CFD-BF-235-168-N.jpg","img/neutralC/CFD-AF-250-200-N.jpg","1","0","1","1","1","1","0.530156000051647",NA,"0.896357299992815","1","0","1","1","0","1","1","0","1"
"250034","img/neutralC/CFD-AF-250-200-N.jpg","img/neutralC/CFD-AM-233-236-N.jpg","img/neutralC/CFD-BM-004-002-N.jpg","1","1","1","1","1","0","0.896357299992815","0.530156000051647","0.45423919998575","1","1","1","1","1","1","1","1","1"
"250034","img/neutralC/CFD-BM-004-002-N.jpg","img/neutralC/CFD-AF-250-200-N.jpg","img/neutralC/CFD-WM-253-119-N.jpg","1","1","1","0","1","1","0.45423919998575","0.896357299992815","0.656273200060241","1","1","1","1","1","1","1","1","1"
"250034","img/neutralC/CFD-WM-253-119-N.jpg","img/neutralC/CFD-BM-004-002-N.jpg","img/neutralC/CFD-IM-669-111-N.jpg","1","1","1","1","0","1","0.656273200060241","0.45423919998575","0.496972099994309","1","1","1","1","1","1","1","1","1"
"250034","img/neutralC/CFD-IM-669-111-N.jpg","img/neutralC/CFD-WM-253-119-N.jpg","img/neutralC/CFD-IM-678-482-N.jpg","1","1","1","1","1","0","0.496972099994309","0.656273200060241","0.484427300048992","1","1","1","1","1","1","1","1","1"
"250034","img/neutralC/CFD-IM-678-482-N.jpg","img/neutralC/CFD-IM-669-111-N.jpg","img/neutralC/CFD-AM-225-102-N.jpg","1","1","0","0","1","0","0.484427300048992","0.496972099994309",NA,"1","1","0","1","1","0","1","1","0"
"250034","img/neutralC/CFD-AM-225-102-N.jpg","img/neutralC/CFD-IM-678-482-N.jpg","img/neutralC/CFD-WM-018-002-N.jpg","0","1","1","0","0","0",NA,"0.484427300048992","0.553389499895275","0","1","1","0","1","1","0","1","1"
"250034","img/neutralC/CFD-WM-018-002-N.jpg","img/neutralC/CFD-AM-225-102-N.jpg",NA,"1","0",NA,"0","0",NA,"0.553389499895275",NA,NA,"1","0",NA,"1","0",NA,"1","0",NA
"250034","img/neutralC/CFD-BM-029-024-N.jpg",NA,"img/neutralC/CFD-WM-225-127-N.jpg","1",NA,"1","1",NA,"0","0.481644000043161",NA,"0.500854099984281","1",NA,"1","1",NA,"1","1",NA,"1"
"250034","img/neutralC/CFD-WM-225-127-N.jpg","img/neutralC/CFD-BM-029-024-N.jpg","img/neutralC/CFD-IF-672-305-N.jpg","1","1","1","0","1","0","0.500854099984281","0.481644000043161","0.428897200035863","1","1","1","1","1","1","1","1","1"
"250034","img/neutralC/CFD-IF-672-305-N.jpg","img/neutralC/CFD-WM-225-127-N.jpg","img/neutralC/CFD-BM-211-174-N.jpg","1","1","1","0","0","0","0.428897200035863","0.500854099984281","0.555336499935947","1","1","1","1","1","1","1","1","1"
"250034","img/neutralC/CFD-BM-211-174-N.jpg","img/neutralC/CFD-IF-672-305-N.jpg","img/neutralC/CFD-IM-674-281-N.jpg","1","1","1","0","0","1","0.555336499935947","0.428897200035863","0.450915099936537","1","1","1","1","1","1","1","1","1"
"250034","img/neutralC/CFD-IM-674-281-N.jpg","img/neutralC/CFD-BM-211-174-N.jpg","img/neutralC/CFD-BF-255-140-N.jpg","1","1","1","1","0","1","0.450915099936537","0.555336499935947","0.486582300043665","1","1","1","1","1","1","1","1","1"
"250034","img/neutralC/CFD-BF-255-140-N.jpg","img/neutralC/CFD-IM-674-281-N.jpg","img/neutralC/CFD-BM-247-240-N.jpg","1","1","1","1","1","0","0.486582300043665","0.450915099936537","0.422410300001502","1","1","1","1","1","1","1","1","1"
"250034","img/neutralC/CFD-BM-247-240-N.jpg","img/neutralC/CFD-BF-255-140-N.jpg","img/neutralC/CFD-LF-216-121-N.jpg","1","1","1","0","1","1","0.422410300001502","0.486582300043665","0.468710799934343","1","1","1","1","1","1","1","1","1"
"250034","img/neutralC/CFD-LF-216-121-N.jpg","img/neutralC/CFD-BM-247-240-N.jpg","img/neutralC/CFD-BF-208-266-N.jpg","1","1","1","1","0","0","0.468710799934343","0.422410300001502","0.46562780009117","1","1","1","1","1","1","1","1","1"
"250034","img/neutralC/CFD-BF-208-266-N.jpg","img/neutralC/CFD-LF-216-121-N.jpg","img/neutralC/CFD-LF-236-221-N.jpg","1","1","1","0","1","1","0.46562780009117","0.468710799934343","0.416262499988079","1","1","1","1","1","1","1","1","1"
"250034","img/neutralC/CFD-LF-236-221-N.jpg","img/neutralC/CFD-BF-208-266-N.jpg","img/neutralC/CFD-IM-728-041-N.jpg","1","1","1","1","0","0","0.416262499988079","0.46562780009117","0.497181000071578","1","1","1","1","1","1","1","1","1"
"250034","img/neutralC/CFD-IM-728-041-N.jpg","img/neutralC/CFD-LF-236-221-N.jpg","img/neutralC/CFD-AM-217-085-N.jpg","1","1","1","0","1","0","0.497181000071578","0.416262499988079","0.488771799951792","1","1","1","1","1","1","1","1","1"
"250034","img/neutralC/CFD-AM-217-085-N.jpg","img/neutralC/CFD-IM-728-041-N.jpg","img/neutralC/CFD-WM-038-003-N.jpg","1","1","1","0","0","0","0.488771799951792","0.497181000071578","0.537955600069836","1","1","1","1","1","1","1","1","1"
"250034","img/neutralC/CFD-WM-038-003-N.jpg","img/neutralC/CFD-AM-217-085-N.jpg","img/neutralC/CFD-WF-022-017-N.jpg","1","1","1","0","0","0","0.537955600069836","0.488771799951792","0.474601999972947","1","1","1","1","1","1","1","1","1"
"250034","img/neutralC/CFD-WF-022-017-N.jpg","img/neutralC/CFD-WM-038-003-N.jpg","img/neutralC/CFD-WF-026-002-N.jpg","1","1","1","0","0","1","0.474601999972947","0.537955600069836","0.589743499993347","1","1","1","1","1","1","1","1","1"
"250034","img/neutralC/CFD-WF-026-002-N.jpg","img/neutralC/CFD-WF-022-017-N.jpg","img/neutralC/CFD-WF-002-004-N.jpg","1","1","1","1","0","0","0.589743499993347","0.474601999972947","0.494313700008206","1","1","1","1","1","1","1","1","1"
"250034","img/neutralC/CFD-WF-002-004-N.jpg","img/neutralC/CFD-WF-026-002-N.jpg","img/neutralC/CFD-LM-252-076-N.jpg","1","1","1","0","1","1","0.494313700008206","0.589743499993347","0.468894100049511","1","1","1","1","1","1","1","1","1"
"250034","img/neutralC/CFD-LM-252-076-N.jpg","img/neutralC/CFD-WF-002-004-N.jpg","img/neutralC/CFD-IM-639-263-N.jpg","1","1","1","1","0","1","0.468894100049511","0.494313700008206","0.450735699967481","1","1","1","1","1","1","1","1","1"
"250034","img/neutralC/CFD-IM-639-263-N.jpg","img/neutralC/CFD-LM-252-076-N.jpg","img/neutralC/CFD-WM-002-009-N.jpg","1","1","1","1","1","0","0.450735699967481","0.468894100049511","0.463351300102659","1","1","1","1","1","1","1","1","1"
"250034","img/neutralC/CFD-WM-002-009-N.jpg","img/neutralC/CFD-IM-639-263-N.jpg","img/neutralC/CFD-BF-023-010-N.jpg","1","1","1","0","1","1","0.463351300102659","0.450735699967481","0.402339000022039","1","1","1","1","1","1","1","1","1"
"250034","img/neutralC/CFD-BF-023-010-N.jpg","img/neutralC/CFD-WM-002-009-N.jpg","img/neutralC/CFD-IF-718-001-N.jpg","1","1","1","1","0","1","0.402339000022039","0.463351300102659","0.402933600009419","1","1","1","1","1","1","1","1","1"
"250034","img/neutralC/CFD-IF-718-001-N.jpg","img/neutralC/CFD-BF-023-010-N.jpg","img/neutralC/CFD-BF-201-080-N.jpg","1","1","1","1","1","1","0.402933600009419","0.402339000022039","0.503383300034329","1","1","1","1","1","1","1","1","1"
"250034","img/neutralC/CFD-BF-201-080-N.jpg","img/neutralC/CFD-IF-718-001-N.jpg","img/neutralC/CFD-BF-028-001-N.jpg","1","1","1","1","1","1","0.503383300034329","0.402933600009419","0.431486500077881","1","1","1","1","1","1","1","1","1"
"250034","img/neutralC/CFD-BF-028-001-N.jpg","img/neutralC/CFD-BF-201-080-N.jpg","img/neutralC/CFD-BM-015-015-N.jpg","1","1","1","1","1","0","0.431486500077881","0.503383300034329","0.421470899949782","1","1","1","1","1","1","1","1","1"
"250034","img/neutralC/CFD-BM-015-015-N.jpg","img/neutralC/CFD-BF-028-001-N.jpg","img/neutralC/CFD-BF-204-189-N.jpg","1","1","1","0","1","1","0.421470899949782","0.431486500077881","0.496622000006028","1","1","1","1","1","1","1","1","1"
"250034","img/neutralC/CFD-BF-204-189-N.jpg","img/neutralC/CFD-BM-015-015-N.jpg","img/neutralC/CFD-BF-003-003-N.jpg","1","1","1","1","0","0","0.496622000006028","0.421470899949782","0.550968199968338","1","1","1","1","1","1","1","1","1"
"250034","img/neutralC/CFD-BF-003-003-N.jpg","img/neutralC/CFD-BF-204-189-N.jpg","img/neutralC/CFD-WM-040-022-N.jpg","1","1","1","0","1","0","0.550968199968338","0.496622000006028","0.450505599961616","1","1","1","1","1","1","1","1","1"
"250034","img/neutralC/CFD-WM-040-022-N.jpg","img/neutralC/CFD-BF-003-003-N.jpg","img/neutralC/CFD-WM-257-161-N.jpg","1","1","1","0","0","1","0.450505599961616","0.550968199968338","0.435636200010777","1","1","1","1","1","1","1","1","1"
"250034","img/neutralC/CFD-WM-257-161-N.jpg","img/neutralC/CFD-WM-040-022-N.jpg","img/neutralC/CFD-AM-235-241-N.jpg","1","1","1","1","0","0","0.435636200010777","0.450505599961616","0.395763200009242","1","1","1","1","1","1","1","1","1"
"250034","img/neutralC/CFD-AM-235-241-N.jpg","img/neutralC/CFD-WM-257-161-N.jpg","img/neutralC/CFD-MM-319-052-N.jpg","1","1","1","0","1","1","0.395763200009242","0.435636200010777","0.439620999968611","1","1","1","1","1","1","1","1","1"
"250034","img/neutralC/CFD-MM-319-052-N.jpg","img/neutralC/CFD-AM-235-241-N.jpg","img/neutralC/CFD-BM-027-001-N.jpg","1","1","1","1","0","0","0.439620999968611","0.395763200009242","0.473992000101134","1","1","1","1","1","1","1","1","1"
"250034","img/neutralC/CFD-BM-027-001-N.jpg","img/neutralC/CFD-MM-319-052-N.jpg","img/neutralC/CFD-AM-215-120-N.jpg","1","1","1","0","1","1","0.473992000101134","0.439620999968611","0.547982800053433","1","1","1","1","1","1","1","1","1"
"250034","img/neutralC/CFD-AM-215-120-N.jpg","img/neutralC/CFD-BM-027-001-N.jpg",NA,"1","1",NA,"1","0",NA,"0.547982800053433","0.473992000101134",NA,"1","1",NA,"1","1",NA,"1","1",NA
"250034","img/neutralC/CFD-WM-012-001-N.jpg",NA,"img/neutralC/CFD-BF-025-002-N.jpg","1",NA,"0","1",NA,"0","0.477453200030141",NA,NA,"1",NA,"0","1",NA,"0","1",NA,"0"
"250034","img/neutralC/CFD-BF-025-002-N.jpg","img/neutralC/CFD-WM-012-001-N.jpg","img/neutralC/CFD-LM-216-082-N.jpg","0","1","1","0","1","0",NA,"0.477453200030141","0.531787499901839","0","1","1","0","1","1","0","1","1"
"250034","img/neutralC/CFD-LM-216-082-N.jpg","img/neutralC/CFD-BF-025-002-N.jpg","img/neutralC/CFD-WM-249-239-N.jpg","1","0","1","0","0","1","0.531787499901839",NA,"0.433165099937469","1","0","1","1","0","1","1","0","1"
"250034","img/neutralC/CFD-WM-249-239-N.jpg","img/neutralC/CFD-LM-216-082-N.jpg","img/neutralC/CFD-IF-642-295-N.jpg","1","1","1","1","0","1","0.433165099937469","0.531787499901839","0.454334900015965","1","1","1","1","1","1","1","1","1"
"250034","img/neutralC/CFD-IF-642-295-N.jpg","img/neutralC/CFD-WM-249-239-N.jpg","img/neutralC/CFD-MM-317-061-N.jpg","1","1","1","1","1","1","0.454334900015965","0.433165099937469","0.450914299930446","1","1","1","1","1","1","1","1","1"
"250034","img/neutralC/CFD-MM-317-061-N.jpg","img/neutralC/CFD-IF-642-295-N.jpg","img/neutralC/CFD-WF-005-010-N.jpg","1","1","1","1","1","0","0.450914299930446","0.454334900015965","0.562602699967101","1","1","1","1","1","1","1","1","1"
"250034","img/neutralC/CFD-WF-005-010-N.jpg","img/neutralC/CFD-MM-317-061-N.jpg","img/neutralC/CFD-MF-309-002-N.jpg","1","1","1","0","1","0","0.562602699967101","0.450914299930446","0.523685599910095","1","1","1","1","1","1","1","1","1"
"250034","img/neutralC/CFD-MF-309-002-N.jpg","img/neutralC/CFD-WF-005-010-N.jpg","img/neutralC/CFD-BF-212-315-N.jpg","1","1","1","0","0","1","0.523685599910095","0.562602699967101","0.373778100009076","1","1","1","1","1","1","1","1","1"
"250034","img/neutralC/CFD-BF-212-315-N.jpg","img/neutralC/CFD-MF-309-002-N.jpg","img/neutralC/CFD-BM-205-001-N.jpg","1","1","1","1","0","0","0.373778100009076","0.523685599910095","0.477194700040855","1","1","1","1","1","1","1","1","1"
"250034","img/neutralC/CFD-BM-205-001-N.jpg","img/neutralC/CFD-BF-212-315-N.jpg","img/neutralC/CFD-WF-017-003-N.jpg","1","1","1","0","1","1","0.477194700040855","0.373778100009076","0.474065899965353","1","1","1","1","1","1","1","1","1"
"250034","img/neutralC/CFD-WF-017-003-N.jpg","img/neutralC/CFD-BM-205-001-N.jpg","img/neutralC/CFD-AF-240-206-N.jpg","1","1","1","1","0","0","0.474065899965353","0.477194700040855","0.472844499978237","1","1","1","1","1","1","1","1","1"
"250034","img/neutralC/CFD-AF-240-206-N.jpg","img/neutralC/CFD-WF-017-003-N.jpg","img/neutralC/CFD-MF-335-002-N.jpg","1","1","1","0","1","0","0.472844499978237","0.474065899965353","0.417105600005016","1","1","1","1","1","1","1","1","1"
"250034","img/neutralC/CFD-MF-335-002-N.jpg","img/neutralC/CFD-AF-240-206-N.jpg","img/neutralC/CFD-WM-215-041-N.jpg","1","1","1","0","0","0","0.417105600005016","0.472844499978237","0.542464000056498","1","1","1","1","1","1","1","1","1"
"250034","img/neutralC/CFD-WM-215-041-N.jpg","img/neutralC/CFD-MF-335-002-N.jpg","img/neutralC/CFD-BF-202-109-N.jpg","1","1","1","0","0","1","0.542464000056498","0.417105600005016","0.387832899927162","1","1","1","1","1","1","1","1","1"
"250034","img/neutralC/CFD-BF-202-109-N.jpg","img/neutralC/CFD-WM-215-041-N.jpg","img/neutralC/CFD-AM-247-165-N.jpg","1","1","1","1","0","1","0.387832899927162","0.542464000056498","0.412634700071067","1","1","1","1","1","1","1","1","1"
"250034","img/neutralC/CFD-AM-247-165-N.jpg","img/neutralC/CFD-BF-202-109-N.jpg","img/neutralC/CFD-IM-648-337-N.jpg","1","1","1","1","1","0","0.412634700071067","0.387832899927162","0.467517200042494","1","1","1","1","1","1","1","1","1"
"250034","img/neutralC/CFD-IM-648-337-N.jpg","img/neutralC/CFD-AM-247-165-N.jpg","img/neutralC/CFD-LM-214-165-N.jpg","1","1","1","0","1","1","0.467517200042494","0.412634700071067","0.443632300011814","1","1","1","1","1","1","1","1","1"
"250034","img/neutralC/CFD-LM-214-165-N.jpg","img/neutralC/CFD-IM-648-337-N.jpg","img/neutralC/CFD-BM-251-013-N.jpg","1","1","1","1","0","1","0.443632300011814","0.467517200042494","0.429033299908042","1","1","1","1","1","1","1","1","1"
"250034","img/neutralC/CFD-BM-251-013-N.jpg","img/neutralC/CFD-LM-214-165-N.jpg","img/neutralC/CFD-WM-019-003-N.jpg","1","1","1","1","1","1","0.429033299908042","0.443632300011814","0.437508600065485","1","1","1","1","1","1","1","1","1"
"250034","img/neutralC/CFD-WM-019-003-N.jpg","img/neutralC/CFD-BM-251-013-N.jpg","img/neutralC/CFD-WM-212-097-N.jpg","1","1","1","1","1","0","0.437508600065485","0.429033299908042","0.573655599961057","1","1","1","1","1","1","1","1","1"
"250034","img/neutralC/CFD-WM-212-097-N.jpg","img/neutralC/CFD-WM-019-003-N.jpg","img/neutralC/CFD-WF-240-083-N.jpg","1","1","1","0","1","0","0.573655599961057","0.437508600065485","0.559470199979842","1","1","1","1","1","1","1","1","1"
"250034","img/neutralC/CFD-WF-240-083-N.jpg","img/neutralC/CFD-WM-212-097-N.jpg","img/neutralC/CFD-WF-228-196-N.jpg","1","1","1","0","0","0","0.559470199979842","0.573655599961057","0.435480799991638","1","1","1","1","1","1","1","1","1"
"250034","img/neutralC/CFD-WF-228-196-N.jpg","img/neutralC/CFD-WF-240-083-N.jpg","img/neutralC/CFD-BF-041-001-N.jpg","1","1","1","0","0","1","0.435480799991638","0.559470199979842","0.529117200057954","1","1","1","1","1","1","1","1","1"
"250034","img/neutralC/CFD-BF-041-001-N.jpg","img/neutralC/CFD-WF-228-196-N.jpg","img/neutralC/CFD-WM-026-001-N.jpg","1","1","1","1","0","1","0.529117200057954","0.435480799991638","0.518304700031877","1","1","1","1","1","1","1","1","1"
"250034","img/neutralC/CFD-WM-026-001-N.jpg","img/neutralC/CFD-BF-041-001-N.jpg","img/neutralC/CFD-BM-248-128-N.jpg","1","1","1","1","1","0","0.518304700031877","0.529117200057954","0.475611600093544","1","1","1","1","1","1","1","1","1"
"250034","img/neutralC/CFD-BM-248-128-N.jpg","img/neutralC/CFD-WM-026-001-N.jpg","img/neutralC/CFD-WM-006-002-N.jpg","1","1","1","0","1","0","0.475611600093544","0.518304700031877","0.497002799995244","1","1","1","1","1","1","1","1","1"
"250034","img/neutralC/CFD-WM-006-002-N.jpg","img/neutralC/CFD-BM-248-128-N.jpg","img/neutralC/CFD-LM-243-075-N.jpg","1","1","1","0","0","0","0.497002799995244","0.475611600093544","0.521050399984233","1","1","1","1","1","1","1","1","1"
"250034","img/neutralC/CFD-LM-243-075-N.jpg","img/neutralC/CFD-WM-006-002-N.jpg","img/neutralC/CFD-IM-646-023-N.jpg","1","1","0","0","0","1","0.521050399984233","0.497002799995244",NA,"1","1","0","1","1","0","1","1","0"
"250034","img/neutralC/CFD-IM-646-023-N.jpg","img/neutralC/CFD-LM-243-075-N.jpg","img/neutralC/CFD-LM-244-068-N.jpg","0","1","1","1","0","1",NA,"0.521050399984233","0.412575099966489","0","1","1","0","1","1","0","1","1"
"250034","img/neutralC/CFD-LM-244-068-N.jpg","img/neutralC/CFD-IM-646-023-N.jpg","img/neutralC/CFD-LM-201-057-N.jpg","1","0","1","1","1","1","0.412575099966489",NA,"0.383170499932021","1","0","1","1","0","1","1","0","1"
"250034","img/neutralC/CFD-LM-201-057-N.jpg","img/neutralC/CFD-LM-244-068-N.jpg","img/neutralC/CFD-BF-228-212-N.jpg","1","1","1","1","1","0","0.383170499932021","0.412575099966489","0.693530999938957","1","1","1","1","1","1","1","1","1"
"250034","img/neutralC/CFD-BF-228-212-N.jpg","img/neutralC/CFD-LM-201-057-N.jpg",NA,"1","1",NA,"0","1",NA,"0.693530999938957","0.383170499932021",NA,"1","1",NA,"1","1",NA,"1","1",NA
